Subject-id_accel,Activity_accel,Timestamp_accel,accel_x,accel_y,accel_z,Segment_accel,DateTime,gyro_x,gyro_y,gyro_z,accel_magnitude,gyro_magnitude,Roll,Pitch,Yaw,Time_Difference,Difference_Microseconds,vx,vy,vz,dx,dy,dz,Time_diff
1606,B,124378235262953.0,4.563151184493304,16.725097972171646,-0.8018450381055926,32,1970-01-02 10:32:58.235262953,0.53726196,0.6174469,-1.1434174,3.1425451859463975,1.40616301992529,-117.89881134033203,66.28271484375,174.866455078125,15005511.0,50354.0,0.2168325158149758,0.017138783127331032,-0.017461485091769015,0.010262498806056786,-0.009880912814917833,-0.0010624482118257977,15.005511776005733
1606,B,124378285616957.0,5.8223370144933035,22.196960772171646,4.154148661894407,32,1970-01-02 10:32:58.285616957,-0.78004456,0.97787476,-0.6622772,7.411599184957988,1.4153867497862522,-118.00070190429688,66.23051452636719,174.7977294921875,15055865.0,50354.0,0.26147543638588583,0.4864714730063311,0.08440094833613099,0.012042359312561094,0.012679395418677214,0.0016853348661033016,15.055865780013846
1606,B,124378335970961.0,7.871790784493303,13.150375672171645,1.1388440618944071,32,1970-01-02 10:32:58.335970961,-0.43011475,0.21173096,-0.8248749,3.06260241757153,0.9540688121095323,-117.9994888305664,66.18913269042969,174.8225555419922,15106219.0,50354.0,0.3447770555950858,0.39647068965923105,0.13326167780683096,0.015263618990604924,0.022229834829430858,0.0054800919384013535,15.106219784007408
1606,B,124378386324965.0,3.615320984493304,1.0741277721716465,5.494068661894407,32,1970-01-02 10:32:58.386324965,0.17922974,-0.78904724,0.9886627,14.767269564575914,1.2775651768201008,-117.96411895751953,66.25131225585938,174.8514404296875,15156573.0,50354.0,0.2892110130077758,-0.135338876781769,0.166996843646831,0.01596191760321425,0.006574515652815862,0.0075596087946388476,15.15657378800097
1606,B,124378436678969.0,-5.248677815506696,-3.273361227828355,-2.9999651381055927,32,1970-01-02 10:32:58.436678969,0.4443512,-1.9437408,0.57022095,21.970917451478652,2.0738197169341848,-117.62428283691406,66.09931945800781,175.17112731933594,15206927.0,50354.0,-0.04112302493442417,-0.5488393007130691,0.06279404441843099,0.006246111275722775,-0.01722555397478754,0.005785445188819101,15.206927792009083
1606,B,124378487032973.0,-6.275227815506696,3.823043772171646,-5.888820138105594,32,1970-01-02 10:32:58.487032973,-1.1124115,0.5345001,-0.7432556,18.16404342319138,1.4406868463214413,-117.69437408447266,66.0539779663086,175.15530395507812,15257281.0,50354.0,-0.29013737207202417,-0.479629842581069,-0.22379294689916904,-0.00834014301543135,-0.025893767620716518,-0.004053469367757542,15.257281796002644
1606,B,124378537386976.0,-1.076161515506696,6.546371772171646,3.692265161894407,32,1970-01-02 10:32:58.537386976,-2.366272,-0.9496918,-0.27511597,11.150119421469174,2.5645363108991615,-117.7035903930664,66.06388092041016,175.274658203125,15307635.0,50354.0,-0.18508592918692418,-0.23239842484006898,-0.055302664636069046,-0.011964697055796543,-0.01792673568886199,-0.00702679021162269,15.307635799006675
1606,B,124378587740980.0,7.204371284493304,8.218597772171645,7.143025161894407,32,1970-01-02 10:32:58.587740980,-1.3028564,0.20477295,0.007736206,8.97682545951494,1.3188732346044245,-117.7895736694336,66.05947875976562,175.25189208984375,15357989.0,50354.0,0.15428993735377583,-0.12173156178206901,0.272800104482031,-0.000775350686383176,-0.008915930673185569,0.005475933043001785,15.357989803000237
1606,B,124378638094984.0,11.508631584493305,20.223907772171646,1.1467939118944073,32,1970-01-02 10:32:58.638094984,-0.46618652,0.9280548,0.34101868,7.722806871045697,1.0931190801288269,-117.92322540283203,66.05287170410156,175.1311798095703,15408343.0,50354.0,0.47113727323247584,0.22262776208993101,0.208712774820781,0.015746380880930062,0.0025402636351510416,0.012123049762206899,15.40834380700835
1606,B,124378688448988.0,6.689463484493304,17.769104272171646,3.794224361894407,32,1970-01-02 10:32:58.688448988,0.2322998,0.6235657,-0.09033203,3.4593516943360907,0.6715335099162595,-117.96883392333984,66.0342788696289,175.06854248046875,15458697.0,50354.0,0.4581734395518759,0.46308086424043104,0.12440001707918098,0.023397255815771626,0.017264086085119524,0.008386780761665342,15.458697811001912
1606,B,124378738802992.0,-0.3360338155066964,6.591674772171645,2.269367761894407,32,1970-01-02 10:32:58.738802992,1.0554504,-1.2363434,-0.18859863,10.511757769376858,1.636487089109351,-117.78313446044922,66.05482482910156,175.21400451660156,15509051.0,50354.0,0.15996029877607584,0.119862133999431,0.15266305890063098,0.015562753129882841,0.014676755866685008,0.006975617063943726,15.509051815010025
1606,B,124378789156996.0,-7.728932815506695,-4.216049227828355,-3.0198473381055924,32,1970-01-02 10:32:58.789156996,0.56329346,-1.8504333,0.78341675,24.06123733215755,2.0868983501858023,-117.61124420166016,66.13252258300781,175.37123107910156,15559405.0,50354.0,-0.20305166486902415,-0.43365807567006903,-0.018894824290269015,-0.0010849113241221597,-0.007900440423441653,0.0033678828427850835,15.559405819003587
1606,B,124378839493420.0,2.1345623844933037,-1.3863672278283534,-0.4382280381055925,32,1970-01-02 10:32:58.839493420,0.065338135,0.95565796,-0.032226563,17.09544251912573,0.9584308841848915,-117.75879669189453,66.35472869873047,175.21633911132812,15609742.0,50337.0,-0.14080191219296054,-0.6343070185641959,-0.0870345701061712,-0.008654278754284562,-0.026879079474235096,-0.002666083962866806,15.609742243002984
1606,B,124378889847424.0,2.5566967844933037,4.570694272171645,-1.7923235381055926,32,1970-01-02 10:32:58.889847424,1.4251556,0.31544495,0.8985138,11.617913018652228,1.7140306442658202,-118.27639770507812,66.41618347167969,174.66281127929688,15660096.0,50354.0,0.11811183209757582,-0.413297398004569,-0.05615859703426901,-0.000571268146561501,-0.026375536395951797,-0.0036051743690948637,15.660096247011097
1606,B,124378940201428.0,3.0488384844933036,11.160965272171644,0.03639656189440732,32,1970-01-02 10:32:58.940201428,0.2868042,0.5379944,-0.13789368,5.099165587024146,0.625067428805039,-118.30883026123047,66.39736938476562,174.61180114746094,15710450.0,50354.0,0.14113056146727582,-0.09739320765206905,-0.04420897348006902,0.00652694574278227,-0.012857657378617177,-0.0025269543228394887,15.710450251004659
1606,B,124378990555432.0,5.389689314493304,18.098541572171644,1.6811719618944072,32,1970-01-02 10:32:58.990555432,-0.6586914,0.68811035,-1.5075989,2.911769084927831,1.7833184397331545,-118.32926177978516,66.31470489501953,174.6254425048828,15760804.0,50354.0,0.21245681439508582,0.24319740382003097,0.04324322272343099,0.008902269362086681,0.0036709122469207774,-2.4314706799875715e-05,15.760804255012772
1606,B,124379040909435.0,8.259836984493305,16.698822272171647,3.1351972618944073,32,1970-01-02 10:32:59.040909435,-0.32504272,1.0304413,-0.52575684,3.3125265210810166,1.2016165350799206,-118.42027282714844,66.26705932617188,174.54376220703125,15811158.0,50354.0,0.34365412362958586,0.382624029509031,0.121261727947331,0.014001205086647161,0.015756306226925792,0.004141741143037774,15.811158258002251
1606,B,124379091263439.0,4.347361384493304,10.777435772171646,4.081959361894407,32,1970-01-02 10:32:59.091263439,-0.1532135,0.13908386,0.37876892,5.188896436692959,0.43160698726123053,-118.46238708496094,66.2804183959961,174.50616455078125,15861512.0,50354.0,0.3174114333359759,0.19830054878243106,0.181706352317131,0.016643647527721947,0.01462593810764414,0.00762782735681836,15.861512262010365
1606,B,124379141617443.0,0.9577434844933039,1.5621187721716456,3.5273175618944075,32,1970-01-02 10:32:59.141617443,0.18873596,-1.0864563,1.0466461,14.543194832738193,1.520354107782796,-118.40084838867188,66.352294921875,174.56304931640625,15911866.0,50354.0,0.13356662528647584,-0.18279623523706898,0.191578765110231,0.011354274581937468,0.00039035210213158114,0.009398199401468695,15.911866266003926
1606,B,124379191971447.0,-1.9607438155066959,-1.849929227828353,-3.842921838105593,32,1970-01-02 10:32:59.191971447,0.10926819,-1.0315857,-0.012924194,19.48897708804936,1.0374370480086565,-118.52105712890625,66.2490234375,174.46627807617188,15962220.0,50354.0,-0.02525253933392417,-0.500715403842069,-0.007945968862169018,0.0027270237420273934,-0.01720877253709546,0.004623322911137456,15.96222027001204
1606,B,124379242325451.0,-3.396397815506697,2.2612457721716464,-4.026255838105593,32,1970-01-02 10:32:59.242325451,-0.19787598,-1.0631866,-1.2550659,16.809829847048483,1.6567169532612775,-118.35692596435547,66.21916198730469,174.65643310546875,16012574.0,50354.0,-0.1348767548440242,-0.483113483363069,-0.19812228635396903,-0.004031575239518206,-0.02476985989316376,-0.005188180461576708,16.0125742740056
1606,B,124379292679455.0,-1.1823778155066966,1.4486387721716465,2.489552061894407,32,1970-01-02 10:32:59.292679455,-0.6912689,-1.0726776,-0.60650635,15.384257977575603,1.412918921325386,-118.25172424316406,66.21791076660156,174.80918884277344,16062928.0,50354.0,-0.11527983406202422,-0.40006543682706897,-0.03868959097366902,-0.006298192438887581,-0.0222357956736271,-0.005962212635477943,16.062928278013715
1606,B,124379343033459.0,5.931742534493304,10.239242772171647,2.9198041618944073,32,1970-01-02 10:32:59.343033459,-0.98384094,0.92674255,0.08673096,5.112566395371548,1.3543695982349528,-118.39808654785156,66.1997299194336,174.70297241210938,16113282.000000002,50354.00000000186,0.11957475552993023,-0.19920340635807632,0.136191361646336,0.00010813323779747368,-0.01508779166487296,0.002454802080225827,16.113282282007276
1606,B,124379393387463.0,9.580805684493303,21.836883772171646,2.3227582618944074,32,1970-01-02 10:32:59.393387463,-0.36491394,1.0146179,0.34594727,7.72692219599569,1.132382965355443,-118.53612518310547,66.19074249267578,174.57203674316406,16163636.0,50353.99999999814,0.39055942650941133,0.31411143800691943,0.13199199414372612,0.012843648301204028,0.002893039512822816,0.006752052348726145,16.163636286000838
1606,B,124379443741467.0,8.132563484493303,17.212616272171644,2.493534661894407,32,1970-01-02 10:32:59.443741467,0.5154114,0.52072144,0.071380615,3.274195319921918,0.7361351245005306,-118.5660400390625,66.18145751953125,174.5111846923828,16213989.999999998,50353.99999999814,0.44596949556755927,0.48968006261641284,0.1212598069422265,0.02106128867113111,0.020237058611192887,0.006376120595940793,16.21399029000895
1606,B,124379494095471.0,6.498362384493304,9.176574772171644,5.322926161894408,32,1970-01-02 10:32:59.494095471,0.8230438,-0.2406311,-0.00024414063,7.071316808772228,0.857498969451449,-118.50092315673828,66.18717193603516,174.53736877441406,16264344.000000002,50354.000000003725,0.36836282060350306,0.17093146292344358,0.19679503416054556,0.02050244472424035,0.016632216378518194,0.008007666734445083,16.264344294002512
1606,B,124379544449475.0,-3.7488298155066957,0.2272497721716462,0.02112256189440731,32,1970-01-02 10:32:59.544449475,0.3980713,-1.0709839,1.1300964,17.770229650181555,1.607042360124916,-118.43531036376953,66.26238250732422,174.5873260498047,16314698.0,50353.99999999814,0.06922498148937328,-0.2567091094470595,0.13454711471882602,0.01101714809329194,-0.002159623806524998,0.00834220128233563,16.314698298010626
1606,B,124379594803478.0,-3.4921768155066957,-0.8253782278283541,-2.1926531381055927,32,1970-01-02 10:32:59.594803478,0.4593811,-0.39151,0.7863617,18.868894005091075,0.9913000546575694,-118.24183654785156,66.10675811767578,174.74269104003906,16365051.999999998,50353.99999999814,-0.1823068239490174,-0.5085282801280501,-0.054672625317266986,-0.0028470615476063545,-0.01926638175733182,0.002011000019662977,16.365052301000105
1606,B,124379645157482.0,1.6878154844933038,2.145950772171645,-1.2184098381055928,32,1970-01-02 10:32:59.645157482,1.3713837,0.19068909,0.6123352,13.959787314860614,1.5139385650777768,-118.40266418457031,66.2123794555664,174.52366638183594,16415406.0,50354.00000000186,-0.045428405230925846,-0.46022114505108597,-0.0858803325520722,-0.005733689865063643,-0.02439020427773601,-0.003538701820276484,16.41540630500822
1606,B,124379695511486.0,3.583399684493304,8.560333772171646,-1.5927996381055927,32,1970-01-02 10:32:59.695511486,0.75268555,0.4905243,0.01876831,7.705617120520672,0.8986110813525219,-118.41495513916016,66.20153045654297,174.4690704345703,16465760.0,50354.0,0.13271338430957583,-0.22391707402706904,-0.07077782098256902,0.0021975739182631708,-0.017224547941730707,-0.003944182331541662,16.46576030900178
1606,B,124379745865490.0,6.246088844493304,19.054580972171646,3.328495561894407,32,1970-01-02 10:32:59.745865490,-0.4152832,0.8734894,-0.85112,4.21837238462671,1.2883513195222023,-118.47673797607422,66.14327239990234,174.42417907714844,16516114.000000002,50354.00000000186,0.24747703269430502,0.2017915085183385,0.0436996162732326,0.009572054128907062,-0.0005570553628133295,-0.0006817479599669882,16.516114313009894
1606,B,124379796219494.0,8.716151184493304,18.264053672171645,2.198994231894407,32,1970-01-02 10:32:59.796219494,-0.018325806,0.6765137,-0.86457825,4.347259380686823,1.0979536291785288,-118.4982681274414,66.08917236328125,174.4016876220703,16566468.0,50353.99999999814,0.37670431720978187,0.4461020644406145,0.13916561053821583,0.015715013846534613,0.016312016486386957,0.004603997815431667,16.566468317003455
1606,B,124379846573498.0,7.464930384493304,9.988525772171645,8.604954161894407,32,1970-01-02 10:32:59.846573498,0.38319397,-0.20915222,0.11576843,8.825061765767355,0.45164654228716755,-118.464599609375,66.09922790527344,174.41754150390625,16616822.0,50354.0,0.40739109066237583,0.217845992670231,0.27201100871042094,0.019741170083997315,0.016716220233879756,0.010352193742822929,16.61682232101157
1606,B,124379896927502.0,-3.8301593155066964,-0.9456932278283556,2.9240308618944075,32,1970-01-02 10:32:59.896927502,0.076797485,-1.3569641,2.1899872,18.772961923082484,2.577458701619674,-118.44383239746094,66.22783660888672,174.43605041503906,16667176.000000002,50354.00000000186,0.0915126312038792,-0.26579780503107886,0.2902652559439417,0.012560899005427168,-0.0012072827798091112,0.014156429515203413,16.66717632500513
1606,B,124379947281506.0,-2.9850358155066967,-3.4535212278283556,-3.6189838381055925,32,1970-01-02 10:32:59.947281506,0.08407593,-1.1010284,-0.1618805,21.24427616978515,1.1160365567006192,-118.41577911376953,66.12760925292969,174.4789276123047,16717530.0,50353.99999999814,-0.17158616781351785,-0.6042282223500467,-0.017496831082068356,-0.0020160114312207976,-0.021904645291373787,0.006867490632747131,16.717530329013243
1606,B,124379997635510.0,-1.7616473155066963,2.060028772171645,-1.1323656381055929,32,1970-01-02 10:32:59.997635510,-0.79473877,-0.75556946,-0.49746704,15.36238393159551,1.2041463272012112,-118.11784362792969,65.94642639160156,174.80575561523438,16767883.999999998,50353.99999999814,-0.11950724118951978,-0.5285531595560495,-0.11962472576256458,-0.0073288587584692064,-0.028520036852248725,-0.003452309436677196,16.767884333006805
1606,B,124380047989514.0,0.1559551844933038,3.4090117721716453,2.399784661894407,32,1970-01-02 10:33:00.047989514,-1.2201385,-0.1269989,-0.8731384,13.035276153743167,1.505734819062779,-118.12027740478516,65.91094207763672,174.86993408203125,16818238.0,50354.00000000186,-0.040426510782525675,-0.3557751662150822,0.03190980876193216,-0.004026652073400337,-0.022264734257940608,-0.002208398465325004,16.818238337000366
1606,B,124380098343518.0,7.824549584493304,13.124801872171645,2.7811780618944075,32,1970-01-02 10:33:00.098343518,-1.4570465,1.3586884,-0.2936859,3.176470752347419,2.0137701158065733,-118.31134033203125,65.86585235595703,174.74038696289062,16868592.0,50354.0,0.20092516856877582,-0.07719737387636902,0.130441098496831,0.0040408747070844195,-0.010900949641882469,0.00408750879205388,16.86859234100848
1606,B,124380148697521.0,9.804331684493302,20.096618772171645,6.0449261618944075,32,1970-01-02 10:33:00.148697521,-0.48036194,1.5374146,0.38807678,7.734738431863889,1.656802593210456,-118.50679779052734,65.84635162353516,174.55250549316406,16918946.0,50354.0,0.44384234370927583,0.342946507562631,0.22221482604233098,0.016233311656624505,0.006690765938819018,0.008878818212122481,16.91894634401251
1606,B,124380199051525.0,7.000559684493304,12.913009972171645,-0.44562853810559266,32,1970-01-02 10:33:00.199051525,1.0924225,0.97924805,-0.09399414,3.4150828807630105,1.4700845418850552,-118.54307556152344,65.81886291503906,174.45291137695312,16969300.0,50354.0,0.42309674999697583,0.33761422289633103,0.140973516274131,0.0218269255622423,0.01713447751076529,0.009143992894501563,16.969300348006072
1606,B,124380249405529.0,3.8703106844933037,5.179412772171645,7.045139861894407,32,1970-01-02 10:33:00.249405529,0.95573425,-0.46246338,-0.116119385,11.493114750533746,1.0680749252916975,-118.44387817382812,65.82479858398438,174.50929260253906,17019654.0,50354.0,0.27369590327997584,-0.037956272565669025,0.166155896599031,0.017543148631553814,0.007544488215475078,0.0077325972279076,17.019654351999634
1606,B,124380299759533.0,-3.1849258155066966,-3.146209227828356,-1.4855455381055926,32,1970-01-02 10:33:00.299759533,-0.3630371,-0.63690186,0.66973877,20.621553489275477,0.9929702590153356,-118.19705963134766,65.80110931396484,174.7559051513672,17070008.0,50354.0,0.017255934846475807,-0.44227923436406913,0.139973906290031,0.0073252944285096735,-0.012090889357970019,0.007707430047337914,17.070008356007747
1606,B,124380350113537.0,-0.7900745155066966,2.078674772171645,0.4255719618944074,32,1970-01-02 10:33:00.350113537,0.51000977,-0.7967224,0.49264526,14.682524495728265,1.0665720324280403,-117.662841796875,65.80469512939453,175.22955322265625,17120362.0,50354.0,-0.1000785833339242,-0.5203465149900691,-0.026686954728269013,-0.0020852258209684885,-0.02423602849148914,0.002852225579470482,17.12036236000131
1606,B,124380400467541.0,1.6147258844933035,0.07725577217164492,-2.319087438105593,32,1970-01-02 10:33:00.400467541,0.6948395,0.100631714,1.2112274,16.168470169831224,1.4000001739762706,-118.06822967529297,65.96295928955078,174.8144989013672,17170716.0,50354.0,0.020762247516975803,-0.439189336685069,-0.04767303914456902,-0.00199694738686331,-0.024158234137624954,-0.0018721615657364434,17.170716364009422
1606,B,124380450821545.0,8.737070884493303,10.370666772171646,0.9178663018944073,32,1970-01-02 10:33:00.450821545,0.47773743,0.78411865,-0.46322632,5.776247849018408,1.0284229348092009,-118.09740447998047,65.92405700683594,174.7563934326172,17221070.0,50354.0,0.2606271872527758,-0.23042185410106902,-0.03527854454638902,0.0070845417991980365,-0.016858800950422595,-0.0020884720225872507,17.221070368002984
1606,B,124380501175549.0,6.536494124493304,22.514648772171647,1.5848432318944072,32,1970-01-02 10:33:00.501175549,-0.21690369,0.7393646,-1.0900574,7.366380241336902,1.334890391666498,-118.12373352050781,65.85856628417969,174.73944091796875,17271424.0,50354.0,0.38454254623125583,0.3344843894599311,0.06301071793220098,0.016243438379927463,0.0026199824527300703,0.0006982129293345877,17.271424372011097
1606,B,124380551529553.0,8.403635884493305,18.414871472171647,2.0374341618944074,32,1970-01-02 10:33:00.551529553,-0.144104,0.64704895,-0.96658325,4.231846366111579,1.1720586528381014,-118.14373016357422,65.8006820678711,174.72540283203125,17321778.0,50354.0,0.3761476532362559,0.5370133311918311,0.09119807794342098,0.019151897151993544,0.02194169811284942,0.0038825148537605346,17.32177837600466
1606,B,124380601883557.0,3.7167766844933037,7.781265772171646,4.099018661894407,32,1970-01-02 10:33:00.601883557,-0.40878296,-0.09706116,0.006790161,8.034510908929647,0.4202029074784146,-118.15501403808594,65.80328369140625,174.73544311523438,17372132.0,50354.0,0.3051556272493759,0.1660709474008311,0.154497472744531,0.017153172692786753,0.017701552882127457,0.006185876879670567,17.372132380012772
1606,B,124380652237560.0,-0.179875515506696,-4.121658227828354,4.047886461894407,32,1970-01-02 10:33:00.652237560,0.048431396,-2.745758,2.6868744,20.322916753160072,3.841982123339185,-118.02325439453125,65.98643493652344,174.8771209716797,17422486.0,50354.0,0.08904856073157583,-0.401331260856069,0.205114630301631,0.009924878840796422,-0.005923148911862526,0.00905395391839322,17.42248638300225
1606,B,124380702591564.0,-3.099247815506697,-1.4868312278283558,-4.7761338381055936,32,1970-01-02 10:33:00.702591564,-0.14663696,0.45195007,-1.4841614,19.936980187624734,1.5583633482153663,-118.27819061279297,65.68989562988281,174.65731811523438,17472840.0,50354.0,-0.0825584881049242,-0.6346741390250691,-0.018335084190869037,0.00016340055852120817,-0.026083507952807415,0.004702548632430654,17.472840387010365
1606,B,124380752945568.0,-0.8533528155066961,4.124633772171645,-1.9699968381055926,32,1970-01-02 10:33:00.752945568,-1.2964935,-1.2771759,-0.18966675,13.37155924352108,1.829766966348071,-118.24903869628906,65.46900939941406,174.76791381835938,17523194.0,50354.0,-0.0995146260870242,-0.4270572453410691,-0.16984733203496905,-0.004584054796010685,-0.026731211064186265,-0.004737868693317926,17.523194391003926
1606,B,124380803299572.0,2.5204113844933036,1.2610937721716464,4.215275361894408,32,1970-01-02 10:33:00.803299572,-1.0186615,0.1937561,-0.7944641,14.50824386941918,1.3062870603578183,-118.27745056152344,65.42941284179688,174.79266357421875,17573548.0,50354.0,0.04197153359137582,-0.357872737616069,0.05652937739343101,-0.0014487624397629393,-0.01976218218091187,-0.0028530061440100035,17.57354839501204
1606,B,124380853653576.0,8.966166384493304,19.010269472171647,1.2189679818944072,32,1970-01-02 10:33:00.853653576,-0.59291077,1.5733795,0.34980774,5.061763434149158,1.717390953500731,-118.47660827636719,65.40742492675781,174.6062774658203,17623902.0,50354.0,0.28919756848977585,0.016902912402831056,0.136817944666571,0.008337844483097157,-0.008584597289393694,0.004867905527504671,17.6239023990056
1606,B,124380904007580.0,7.070551784493304,21.349304472171646,3.4919324618944074,32,1970-01-02 10:33:00.904007580,-0.10043335,0.82107544,0.291687,6.552284158088914,0.8771163217797375,-118.57565307617188,65.4006576538086,174.5028839111328,17674256.0,50354.0,0.4037564533405759,0.5226637931967311,0.11860634047327098,0.017446503407622767,0.013584670946880175,0.006430817226965801,17.674256403013715
1606,B,124380954361584.0,6.951258484493303,14.043670972171645,2.613972261894407,32,1970-01-02 10:33:00.954361584,0.1028595,0.2516327,-0.19767761,1.9469317608782646,0.3361183272968793,-118.58430480957031,65.38593292236328,174.48768615722656,17724610.0,50354.0,0.35302711714227586,0.397619742762231,0.153728363230831,0.019053539954046763,0.02316997858483879,0.0068565708351581755,17.724610407007276
1606,B,124381004715588.0,3.5309093844933037,7.815948772171645,7.387852161894408,32,1970-01-02 10:33:01.004715588,0.44496155,-1.2002563,0.18623352,9.555637279529526,1.2935566824224143,-118.45659637451172,65.42277526855469,174.60369873046875,17774964.0,50354.0,0.26390954043747583,0.05689044630333102,0.251815933517731,0.015532614227885409,0.011443203030103655,0.010210388759238546,17.774964411000838
1606,B,124381055069592.0,-10.680149815506695,-3.8531032278283543,-1.4058031381055929,32,1970-01-02 10:33:01.055069592,0.67892456,-2.3457184,2.13414,25.3002898454092,3.2431291848876067,-118.30755615234375,65.57242584228516,174.73020935058594,17825318.0,50354.0,-0.17999642633162416,-0.393696637730069,0.150610048271931,0.0021126804738430278,-0.008479769481550983,0.010131878943518321,17.82531841500895
1606,B,124381105423596.0,4.169077784493304,1.9560397721716463,-0.41457683810559276,32,1970-01-02 10:33:01.105423596,1.3418579,0.47877502,0.14466858,13.498029478232707,1.43203950420637,-118.29440307617188,65.56744384765625,174.6709442138672,17875672.0,50354.0,-0.16392926052482418,-0.5412315666230689,-0.045831706661069026,-0.0086590170179848,-0.023538687400998955,0.002638004306736672,17.875672419002512
1606,B,124381155777600.0,0.9901378844933033,3.9051057721716464,-1.2058519381055928,32,1970-01-02 10:33:01.155777600,2.1297455,0.19468689,0.6235657,12.570225670116328,2.2276788507602734,-118.33618927001953,65.55154418945312,174.52627563476562,17926026.0,50354.0,0.12989357289807582,-0.345903138630069,-0.04079753529866902,-0.0008569165073786434,-0.022335390474158258,-0.002181064424820325,17.926026423010626
1606,B,124381206131603.0,3.9106243844933037,14.681991872171645,-0.9059862381055925,32,1970-01-02 10:33:01.206131603,0.57803345,0.8342743,-0.7725067,3.1977160552090313,1.2755010303815055,-118.34764099121094,65.49773406982422,174.48191833496094,17976380.0,50354.0,0.12338649164627583,-0.025501842608368984,-0.053169749762469014,0.006376832185033141,-0.009350863212640153,-0.0023658143359842725,17.976380426000105
1606,B,124381256485607.0,6.985438184493304,21.201263772171647,3.879826161894407,32,1970-01-02 10:33:01.256485607,-0.67037964,0.79711914,-0.8113861,6.5140661249384015,1.320286025205932,-118.41576385498047,65.443115234375,174.4438934326172,18026734.0,50354.0,0.2743301672993758,0.409963527357631,0.07487236776123099,0.010013312322274672,0.00967959183693217,0.0005464068133548304,18.02673443000822
1606,B,124381306839611.0,7.006571684493304,14.320587442171645,2.114414761894407,32,1970-01-02 10:33:01.306839611,0.06613159,0.43554688,-0.74557495,1.6495113151467313,0.866000275947511,-118.41555786132812,65.39994812011719,174.44049072265625,18077088.0,50354.0,0.3522768324714758,0.400864448023521,0.15091700373823097,0.015776084433230732,0.020414215936171265,0.0056846990062419545,18.07708843400178
1606,B,124381357193615.0,3.094096084493304,7.457901272171646,4.373631161894407,32,1970-01-02 10:33:01.357193615,0.055908203,-0.66104126,0.4060974,8.582684900272621,0.7778279841146349,-118.37030029296875,65.43353271484375,174.48716735839844,18127442.0,50354.0,0.2543045124197758,0.054847810361020974,0.16334953222323098,0.015271898520327043,0.011473467529347614,0.007912288575901727,18.127442438009894
1606,B,124381407547619.0,4.859751584493304,-4.548751227828353,4.118717761894407,32,1970-01-02 10:33:01.407547619,0.41848755,-1.4962006,1.3620605,19.911715921989554,2.0661454137126003,-118.27586364746094,65.52899169921875,174.56800842285156,18177796.0,50354.0,0.20025402276207585,-0.420225529333569,0.21381186885423098,0.011444420240273478,-0.009199114830571842,0.009495792594927261,18.177796442003455
1606,B,124381457901623.0,-5.230458815506696,-2.1788022278283545,-3.4883531381055923,32,1970-01-02 10:33:01.457901623,0.18664551,-0.21887207,-0.96369934,21.164179777376535,1.0057126564509768,-118.19532775878906,65.49169921875,174.64625549316406,18228150.0,50354.0,-0.009333295955224167,-0.662848813353069,0.015870690133130996,0.004806811138816105,-0.02726856272582149,0.005782717787624813,18.22815044601157
1606,B,124381508255627.0,-0.4866688155066967,4.053237772171645,-3.747432138105593,32,1970-01-02 10:33:01.508255627,-0.09082031,-0.6471863,-0.3744812,13.855974719855558,0.7532161739963011,-118.1178970336914,65.4904556274414,174.736328125,18278504.0,50354.0,-0.1439401223660242,-0.44627653630006897,-0.18217536589916902,-0.00385896485307407,-0.027924448928217056,-0.004187052821761539,18.27850445000513
1606,B,124381558609631.0,2.925959484493304,5.028610772171646,2.4509015618944074,32,1970-01-02 10:33:01.558609631,-0.8580017,0.08345032,-0.5001831,10.56138542512504,0.9966513967464263,-118.14303588867188,65.46643829345703,174.755859375,18328858.0,50354.0,0.06141402117307581,-0.264815499199069,-0.03264275031726902,-0.002077759649734861,-0.017903164177761798,-0.005408475711981261,18.328858454013243
1606,B,124381608963635.0,5.323725564493303,15.632324502171645,3.7559095618944074,32,1970-01-02 10:33:01.608963635,-0.8964386,1.1192627,0.0041503906,2.1164204711303323,1.4340043169123944,-118.29602813720703,65.44013977050781,174.63693237304688,18379212.0,50354.0,0.2077023204783358,0.026711167402141016,0.156268883663631,0.006775542133757591,-0.005994752761651256,0.0031125351592613563,18.379212458006805
1606,B,124381659317639.0,7.709208384493303,19.848221072171647,3.4458661618944073,32,1970-01-02 10:33:01.659317639,-0.41316223,0.31559753,0.24905396,5.362895805978625,0.5764830476539232,-118.36003112792969,65.4436264038086,174.58929443359375,18429566.0,50354.0,0.3281301780336358,0.39982449592524105,0.181319107397831,0.01349065481503591,0.0107388883955935,0.00849945285095443,18.429566462000366
1606,B,124381709671643.0,7.140986284493303,10.947723772171646,4.767567161894407,32,1970-01-02 10:33:01.709671643,-0.0077819824,-0.25498962,0.16470337,5.438587830564806,0.303656822164718,-118.34441375732422,65.45693969726562,174.60687255859375,18479920.0,50354.0,0.3738833511810758,0.28188030334603104,0.206789610793031,0.017674594625038797,0.01716328173125282,0.009771413197891333,18.47992046600848
1606,B,124381760025646.0,2.5935466844933037,1.9787447721716465,5.073216061894407,32,1970-01-02 10:33:01.760025646,0.24702454,-0.99946594,0.5348511,13.984664674643474,1.1601805841133117,-118.2634048461914,65.5041732788086,174.68235778808594,18530274.0,50354.0,0.2450863365601758,-0.168019501459069,0.24776139922533102,0.015583799828261493,0.0028666734091080436,0.011444230779232302,18.53027446901251
1606,B,124381810379650.0,-2.800465815506696,-2.9246522278283553,-2.573741338105593,32,1970-01-02 10:33:01.810379650,0.44335938,-0.67858887,0.8367157,20.461002598084786,1.1649650453761913,-118.17948150634766,65.47855377197266,174.74270629882812,18580628.0,50354.0,-0.005209602961524176,-0.5172843120110691,0.06292927512083099,0.006039376521813252,-0.017253894111737667,0.007822259108013322,18.580628473006072
1606,B,124381860733654.0,1.9202221844933036,0.7243502721716464,-1.3789934381055926,32,1970-01-02 10:33:01.860733654,1.5848083,-0.059677124,0.25024414,15.270348786529148,1.6055531247772965,-118.32441711425781,65.6477279663086,174.5373077392578,18630982.0,50354.0,-0.02216189389802418,-0.548866202337569,-0.09951800346066902,-0.0006891321764328491,-0.026842471499755664,-0.0009211944134121023,18.630982476999634
1606,B,124381911087658.0,2.0929363844933038,6.629943772171645,-1.229838838105593,32,1970-01-02 10:33:01.911087658,1.0791779,0.57206726,-0.13430786,9.742347559661392,1.2287898482124993,-118.63614654541016,65.53864288330078,174.19520568847656,18681336.0,50354.0,0.10103929329137583,-0.308310138845569,-0.06568257021816902,0.0019858962845264146,-0.021581128741967867,-0.004159254843512106,18.681336481007747
1606,B,124381961441662.0,4.864771684493304,17.996277172171645,1.4900861518944073,32,1970-01-02 10:33:01.961441662,-0.21539307,0.72125244,-0.6091461,2.918046318495902,0.9683275416692373,-118.68434143066406,65.49461364746094,174.1540985107422,18731690.0,50354.0,0.17517421605287584,0.126545164715731,0.0065522466192609805,0.006954227524760224,-0.004576296753666932,-0.001488724157249708,18.73169048500131
1606,B,124382011795666.0,7.209025284493304,19.925445772171646,2.9662671618944074,32,1970-01-02 10:33:02.011795666,-0.5336609,0.41189575,-0.7006378,5.124744814117714,0.972288738927749,-118.71375274658203,65.4539794921875,174.15109252929688,18782044.0,50354.0,0.30398198628817585,0.461286018569731,0.11219760738126099,0.01206371570634066,0.014799825701578078,0.0029897650741711416,18.782044489009422
1606,B,124382062149670.0,5.181956154493304,11.242019972171645,4.0811505618944075,32,1970-01-02 10:33:02.062149670,-0.4728241,0.17433167,-0.4419098,4.63845045560017,0.670252513640821,-118.73088073730469,65.43042755126953,174.15826416015625,18832398.0,50354.0,0.3119677396893658,0.29123408504533105,0.177432836031831,0.01550776625093657,0.01894619864871642,0.007292025673811417,18.832398493002984
1606,B,124382112503674.0,5.438547954493304,1.894699772171645,4.6294599618944074,32,1970-01-02 10:33:02.112503674,0.17289734,-1.5812378,0.943573,13.623604981410764,1.849469241879117,-118.61981964111328,65.50975036621094,174.27081298828125,18882752.0,50354.0,0.26739243195195583,-0.16272600699666903,0.21930704115743102,0.014586551041413558,0.0032354478810311636,0.00998871988799405,18.882752497011097
1606,B,124382162857678.0,0.14492318449330366,-4.548751227828353,-0.37597223810559255,32,1970-01-02 10:33:02.162857678,0.7067261,-1.3630676,0.45855713,20.613762369010313,1.602401230673768,-118.3384017944336,65.76117706298828,174.51528930664062,18933106.0,50354.0,0.14057505286626581,-0.5602902534990689,0.10709006042183102,0.010271397365268367,-0.018203380390501196,0.00821769982646108,18.93310650100466
1606,B,124382213211682.0,-6.278157815506697,0.04368577217164571,-3.020854438105593,32,1970-01-02 10:33:02.213211682,-0.24720764,-0.37345886,-0.49421692,19.872230781431842,0.6669583955548919,-118.28823852539062,65.74826049804688,174.58384704589844,18983460.0,50354.0,-0.1544164483050242,-0.606893232977069,-0.08552190522696902,-0.0003484848129616202,-0.029386178639009726,0.0005430214433410404,18.983460505012772
1606,B,124382263565685.0,-0.13248181550669624,2.869415772171646,1.2760816318944073,32,1970-01-02 10:33:02.263565685,-1.1712036,-0.6038971,-0.51849365,13.635204858443432,1.416066822269236,-118.26051330566406,65.7397232055664,174.67845153808594,19033814.0,50354.0,-0.16140067399002422,-0.420126042418069,-0.043928144941979025,-0.007951327688022435,-0.02585726429662339,-0.0032591639131036056,19.03381450800225
1606,B,124382313919689.0,6.728037684493303,10.579178172171645,2.7282911618944072,32,1970-01-02 10:33:02.313919689,-1.2607574,0.7081299,-0.2326355,4.8482859748391505,1.4646079519069326,-118.38046264648438,65.71270751953125,174.61607360839844,19084168.0,50354.0,0.16605631011347582,-0.15487395026326903,0.10081809382922098,0.00011721495068014097,-0.01447677481573805,0.001432318243134091,19.084168512010365
1606,B,124382364273693.0,8.564646584493303,20.576874072171645,2.7461591618944072,32,1970-01-02 10:33:02.364273693,-0.47088623,1.0641022,0.5125885,6.192716176920548,1.2715322661972455,-118.53470611572266,65.7098617553711,174.47265625,19134522.0,50354.0,0.38502391184027585,0.290946727355831,0.137830235802031,0.013874546748129605,0.003425904308859433,0.0060084489951260315,19.134522516003926
1606,B,124382414627697.0,7.824045984493304,17.467407472171644,2.3333936618944073,32,1970-01-02 10:33:02.414627697,0.2265625,0.6516266,0.062347412,3.1878205976201013,0.6927012285371722,-118.5900650024414,65.6970443725586,174.3994903564453,19184876.0,50354.0,0.4126181128093758,0.46437167644193095,0.127887901444531,0.02008223325460428,0.019016651452416253,0.006689985541456692,19.18487652001204
1606,B,124382464981701.0,5.621943340493304,11.011932772171646,6.771977161894407,32,1970-01-02 10:33:02.464981701,0.5117798,-0.16241455,-0.22012329,6.567926869787067,0.5803027766090445,-118.53705596923828,65.6912612915039,174.42959594726562,19235230.0,50354.0,0.33852967323518784,0.22355514933183093,0.22924592123053097,0.01891164780924398,0.017319933692506003,0.008991558253490036,19.2352305240056
1606,B,124382515335705.0,-4.2642258155066965,0.4754797721716457,1.5425916418944072,32,1970-01-02 10:33:02.515335705,0.5116272,-1.9051971,1.4559784,17.76372201394231,2.4518179954667945,-118.40261840820312,65.8006591796875,174.54896545410156,19285584.0,50354.0,0.03418325412658781,-0.204250614371069,0.209335898772991,0.009383793372187426,0.00048603027670710307,0.011042174482228674,19.285584528013715
1606,B,124382565689709.0,-2.2456258155066964,-1.0161132278283542,-0.1402086381055927,32,1970-01-02 10:33:02.565689709,0.569397,-0.9906311,0.79400635,18.14043299100643,1.391405405960654,-117.90763854980469,65.81828308105469,174.98464965820312,19335938.0,50354.0,-0.1638985345140242,-0.5070807285130691,0.035307796886390984,-0.003265841614314486,-0.017909189219793946,0.006159394325616261,19.335938532007276
1606,B,124382616043713.0,1.4563396844933036,1.4446717721716453,-0.23170033810559265,32,1970-01-02 10:33:02.616043713,1.4390259,-0.02734375,0.53497314,14.517671619558472,1.5354932373854118,-117.79932403564453,65.98138427734375,175.01324462890625,19386292.0,50354.0,-0.01987185692052419,-0.4826793815290691,-0.009363552294069015,-0.004626787145147625,-0.024919190290530913,0.0006531982461008902,19.386292536000838
1606,B,124382666397717.0,3.0662945844933036,7.559067072171645,-2.109187538105593,32,1970-01-02 10:33:02.666397717,1.0370026,0.68981934,-0.18675232,8.932128153443442,1.2594052339379007,-117.80615234375,65.95704650878906,174.9490203857422,19436646.0,50354.0,0.11386636299027582,-0.266782067115969,-0.05893653405936903,0.0023664996793181367,-0.018869190892536126,-0.0017195912741205096,19.43664654000895
1606,B,124382716751721.0,5.754114974493303,19.429016372171645,1.4144483318944072,32,1970-01-02 10:33:02.716751721,-0.36991882,1.2688293,-0.59672546,4.239884975372128,1.4501203400204046,-117.91897583007812,65.90100860595703,174.84567260742188,19487000.0,50354.0,0.22207145146660584,0.18600977687823106,-0.017491448994779023,0.00845790635458091,-0.0020336039513155287,-0.0019242273293542855,19.487000544002512
1606,B,124382767105725.0,7.094599584493304,19.095596572171644,2.5937391018944074,32,1970-01-02 10:33:02.767105725,-0.30908203,0.66293335,-0.85543823,4.239787414876237,1.125516278494752,-117.955078125,65.84769439697266,174.8230743408203,19537354.0,50354.0,0.3234920864516058,0.476464980099731,0.10091413502050098,0.013735653194166815,0.016679126956434153,0.002100332966069602,19.537354548010626
1606,B,124382817459728.0,3.9016216844933034,11.356415072171647,3.579609461894407,32,1970-01-02 10:33:02.817459728,-0.7974396,0.2515869,-0.61328125,4.6247856215886625,1.0369762656403145,-117.98765563964844,65.81470489501953,174.83103942871094,19587708.0,50354.0,0.2768518628892758,0.273221097169631,0.15542639679051098,0.015114859612555378,0.018874846367410728,0.006453885569405848,19.587708551000105
1606,B,124382867813732.0,6.187006814493303,-0.5603787278283541,6.443394161894407,32,1970-01-02 10:33:02.867813732,-0.15615845,-1.6738129,1.8895111,16.463506953287826,2.5290882315047893,-117.9292984008789,65.93739318847656,174.90353393554688,19638062.0,50354.0,0.25400139971898583,-0.22165739295846898,0.25234916223613096,0.013365292592688203,0.0012982193809244263,0.010266565249613765,19.63806255500822
1606,B,124382918167736.0,-2.8055468155066965,-4.347809227828355,1.0075879618944072,32,1970-01-02 10:33:02.918167736,-0.08439636,-0.8102112,-0.1108551,21.318395967374958,0.8221032705096725,-117.29435729980469,66.00595092773438,175.50299072265625,19688416.0,50354.0,0.0851350183944858,-0.617042648159569,0.18759337693063097,0.008538437598842876,-0.021115950935228844,0.011076433308601566,19.68841655900178
1606,B,124382968521740.0,-2.4100238155066958,2.508911772171645,-4.577037238105593,32,1970-01-02 10:33:02.968521740,-0.5542755,-0.5763855,-0.27633667,16.307509899047396,0.8460517299179695,-117.25028228759766,66.0068588256836,175.58154296875,19738770.0,50354.0,-0.13131242177702418,-0.5397671212410691,-0.08986802442716903,-0.0011626084849621688,-0.029124999564199866,0.002460431199979661,19.738770563009894
1606,B,124383018875744.0,1.579050884493304,1.6528327721716458,0.9421430618944072,32,1970-01-02 10:33:03.018875744,-1.0999146,-0.35365295,-0.71728516,14.172932618983541,1.3599193127142095,-116.93559265136719,66.1710205078125,175.93255615234375,19789124.0,50354.0,-0.020921405484124165,-0.388688957607069,-0.09151573067446903,-0.003832791068953932,-0.023375738697159573,-0.004566698802193942,19.789124567003455
1606,B,124383069229748.0,4.516245684493303,9.819046272171645,3.1457868618944076,32,1970-01-02 10:33:03.069229748,-1.177414,1.0138855,-0.16973877,5.687192606198017,1.5630351194222611,-117.08792877197266,66.14041900634766,175.83035278320312,19839478.0,50354.0,0.15346128171737583,-0.204641701300569,0.102921811691231,0.0033369564639245774,-0.014938285999317603,0.00028717090175901637,19.83947857101157
1606,B,124383119583752.0,7.087138084493303,21.376312772171644,5.139576461894407,32,1970-01-02 10:33:03.119583752,-0.71424866,0.19242859,0.56848145,7.203345487771616,0.9329260793628219,-117.1723403930664,66.16133117675781,175.77711486816406,19889832.0,50354.0,0.2921383931517758,0.29193635465943096,0.208600592403031,0.011218863014180631,0.002197817487616068,0.007843199567881235,19.88983257500513
1606,B,124383169937756.0,7.129069184493304,14.718597692171645,1.2140088818944073,32,1970-01-02 10:33:03.169937756,0.28424072,0.36849976,0.19947815,1.6153882215546593,0.5063362443609963,-117.20555114746094,66.16178894042969,175.7252960205078,19940186.0,50354.0,0.3579214504112758,0.415292360760771,0.159964218200571,0.01636655668138695,0.017805897368134427,0.009279356236566888,19.940186579013243
1606,B,124383220291760.0,6.343867184493304,10.763550072171647,6.847569161894407,32,1970-01-02 10:33:03.220291760,0.39370728,0.24914551,-0.07861328,6.8192369036020075,0.47250286271145164,-117.20687103271484,66.15261840820312,175.70233154296875,19990540.0,50354.0,0.33920811896197584,0.14809483426287104,0.20296635040847102,0.017551631168110357,0.014184399409110236,0.009137502925869852,19.990540583006805
1606,B,124383270645764.0,-5.226368815506696,-3.169006227828353,-3.029277238105593,32,1970-01-02 10:33:03.270645764,0.40724182,-1.5949707,2.3648987,21.878457535248312,2.881409949152861,-117.025146484375,66.07022857666016,175.85665893554688,20040894.0,50354.0,0.028135256435975826,-0.30226136963096895,0.09613313576523098,0.009248604162394229,-0.0038814508609626014,0.007530427763395296,20.040894587000366
1606,B,124383320999768.0,0.4557445844933037,2.3940887721716457,-1.6264299381055927,32,1970-01-02 10:33:03.320999768,0.69621277,0.5166321,0.002960205,14.224933403340065,0.8669658070968688,-117.19226837158203,66.01435852050781,175.66275024414062,20091248.0,50354.0,-0.12011000626422418,-0.5129792967810689,-0.11721673957546903,-0.002315648276425809,-0.020525314258255878,-0.0005308218931303634,20.09124859100848
1606,B,124383371353771.0,1.864847984493304,3.318450772171646,-1.6424211381055929,32,1970-01-02 10:33:03.371353771,1.8136139,-0.061401367,0.7309723,12.919932026636701,1.9563450640186073,-117.47367095947266,66.08524322509766,175.3170623779297,20141602.0,50354.0,0.05842555910937582,-0.349644591892069,-0.08229986354576903,-0.001553029326017617,-0.021718281645123592,-0.005023229516783411,20.14160259401251
1606,B,124383421707775.0,5.654505596493304,7.517486772171646,0.20380076189440732,32,1970-01-02 10:33:03.421707775,0.8574219,1.1454163,-0.20419312,7.829893971517077,1.4452839323678355,-117.53461456298828,66.04972076416016,175.20346069335938,20191956.0,50354.0,0.18931476510849984,-0.220652800446069,-0.03622014521186902,0.006237358142833456,-0.014358377446897302,-0.002983978260491053,20.191956598006072
1606,B,124383472061779.0,7.093546684493304,21.081253372171645,1.1889997218944073,32,1970-01-02 10:33:03.472061779,-0.11016846,1.4070435,-0.9310608,6.0731965417015115,1.6907935160059202,-117.63182067871094,65.97589111328125,175.10308837890625,20242310.0,50354.0,0.32095771227839986,0.22656128061413106,0.03506653778035099,0.012847130163169976,0.00014875780519129844,-2.904437430332946e-05,20.242310601999634
1606,B,124383522415783.0,7.064677084493304,17.499954472171645,1.7340741848944072,32,1970-01-02 10:33:03.522415783,0.5372162,0.7419739,-0.94010925,2.6892856656809636,1.312605011326413,-117.6297836303711,65.91705322265625,175.075927734375,20292664.0,50354.0,0.35646159983177583,0.47788986989703097,0.07359423175122198,0.017055386020997893,0.01773596661641953,0.002735752194496413,20.292664606007747
1606,B,124383572769787.0,3.6087901844933037,8.474823272171646,1.9451184918944073,32,1970-01-02 10:33:03.572769787,-0.00047302246,-0.014297485,-0.2844696,7.038343365796047,0.28482906303910227,-117.6136245727539,65.90475463867188,175.09364318847656,20343018.0,50354.0,0.26872588543127585,0.16049777926933095,0.092631034023512,0.015740345316467855,0.016072685843061495,0.004185053516410478,20.34301861000131
1606,B,124383623123791.0,-0.5209094155066962,-4.548751227828353,5.229786461894408,32,1970-01-02 10:33:03.623123791,-0.3100891,-1.2958832,2.316864,20.993575197549045,2.672700378358384,-117.62081146240234,66.03744506835938,175.10275268554688,20393372.0,50354.0,0.07774357412077582,-0.39462248413956896,0.180642582021541,0.008723061583142006,-0.005894557694517983,0.006880209831166299,20.393372614009422
1606,B,124383673477795.0,-1.5422718155066963,-4.037200227828356,-5.036311538105593,32,1970-01-02 10:33:03.673477795,-0.116485596,-1.5645752,-1.5400085,21.625586641334447,2.198429127946308,-117.81971740722656,65.94669342041016,174.96902465820312,20443726.0,50354.0,-0.05194471385322419,-0.709637699799069,0.004871118156230983,0.0006495379049561473,-0.027801958651023088,0.004670678429375765,20.443726618002984
1606,B,124383723831799.0,-2.4630788155066963,5.150100772171646,-4.078654838105592,32,1970-01-02 10:33:03.723831799,-1.1385498,-1.2615204,-0.62553406,14.167134569985175,1.8108070650724453,-117.71895599365234,65.94842529296875,175.14170837402344,20494080.0,50354.0,-0.10084271283702419,-0.46544970299506905,-0.22948750845386903,-0.003846729041780383,-0.029585175540148015,-0.005655166858523634,20.494080622011097
1606,B,124383774185803.0,0.4408367844933041,2.113342772171645,3.836506461894407,32,1970-01-02 10:33:03.774185803,-1.3508606,-0.84169006,-0.8240204,14.252341695702382,1.792282382146107,-117.66014099121094,65.93148040771484,175.2800750732422,20544434.0,50354.0,-0.05091398761482418,-0.310597481884069,-0.006096569667869008,-0.0038207784472761865,-0.01953853997370206,-0.005931300334870999,20.54443462600466
1606,B,124383824539807.0,7.699305384493304,10.582107772171646,3.3468671618944072,32,1970-01-02 10:33:03.824539807,-1.2774048,1.0778046,0.1489563,5.302391239566432,1.677979069641183,-117.83851623535156,65.9129867553711,175.15467834472656,20594788.0,50354.0,0.2049443593885758,-0.173835841645069,0.18085579772613097,0.0038780226701477447,-0.012196577786493107,0.0043999130848228615,20.594788630012772
1606,B,124383874893810.0,11.086604184493304,21.716247772171645,3.590260061894407,32,1970-01-02 10:33:03.874893810,-0.24717712,0.71157837,0.41233826,8.67841264352174,0.8587567443480016,-117.94279479980469,65.91458892822266,175.05398559570312,20645142.0,50354.0,0.47297284521837585,0.319706497539931,0.174656052113331,0.017067921460389223,0.0036725855034649415,0.008950721843408133,20.64514263300225
1606,B,124383925247814.0,5.237223484493303,16.457214672171645,3.039112661894407,32,1970-01-02 10:33:03.925247814,0.358078,0.57748413,-0.3456726,1.8774755625236645,0.7623629849859035,-117.96379089355469,65.8857650756836,175.01136779785156,20695496.0,50354.0,0.4109850092220758,0.467624063961231,0.16690771706683097,0.022255406901247252,0.01982262154691476,0.008599551016648938,20.695496637010365
1606,B,124383975601818.0,3.989268184493304,6.368225772171646,8.287144161894407,32,1970-01-02 10:33:03.975601818,0.45793152,-1.0043945,0.09313965,11.137846866472263,1.1077836354820751,-117.8465576171875,65.91338348388672,175.1147003173828,20745850.0,50354.0,0.23229538075007583,0.08120691406723102,0.285161168052531,0.016195870378328862,0.01381791753382259,0.011381738320650175,20.745850641003926
1606,B,124384025955822.0,-9.602162815506697,-3.4019162278283535,-2.7229723381055924,32,1970-01-02 10:33:04.025955822,0.57025146,-0.9855957,1.4803772,24.47400971468634,1.8676461832398719,-117.79778289794922,66.00184631347656,175.1368865966797,20796204.0,50354.0,-0.1413158481250242,-0.418786424602069,0.140089154007531,0.002290591692900925,-0.008499239336735616,0.01070652735850618,20.79620464501204
1606,B,124384076309826.0,0.5324505844933034,1.8171387721716457,-1.1254076381055929,32,1970-01-02 10:33:04.076309826,0.8724365,-0.13220215,0.42160034,14.61401370229574,0.9779415635328054,-117.7908706665039,66.03160858154297,175.1017608642578,20846558.0,50354.0,-0.22834814484022423,-0.533369142001069,-0.09689066266106902,-0.00930703035088606,-0.023972420700367206,0.0010876084166298733,20.8465586490056
1606,B,124384126663830.0,3.455103784493304,3.7187807721716464,-1.6277574381055926,32,1970-01-02 10:33:04.126663830,1.2345123,0.07739258,0.45973206,12.161369643982626,1.3196074405982219,-117.76094055175781,66.05012512207031,175.0669403076172,20896912.0,50354.0,0.10039465634797581,-0.354091353632069,-0.06931643712376902,-0.0032214849797693383,-0.022343592898555517,-0.004184596151282868,20.896912653013715
1606,B,124384177017834.0,6.081919534493304,14.091476772171646,-0.07169673810559263,32,1970-01-02 10:33:04.177017834,0.63471985,1.0716858,-0.46687317,2.1413163383411926,1.330169274480324,-117.81135559082031,66.00450134277344,174.97706604003906,20947266.0,50354.0,0.24011363610212583,-0.04506034580606897,-0.04278715779446901,0.008572977279016208,-0.010049442336754,-0.002822432209256479,20.947266657007276
1606,B,124384227371838.0,5.648554668493304,22.189636472171646,2.078922821894407,32,1970-01-02 10:33:04.227371838,-0.06681824,0.56617737,-1.0929871,6.998731529745911,1.2327377224143117,-117.81365203857422,65.94293212890625,174.97817993164062,20997620.0,50354.0,0.29533814900859384,0.41998038815283106,0.05053593111155098,0.01348106959373259,0.009439361906164428,0.00019509086580417283,20.997620661000838
1606,B,124384277725842.0,4.688776834493304,14.206787372171645,2.666126801894407,32,1970-01-02 10:33:04.277725842,-0.38449097,0.14193726,-0.86906433,1.6908253066628651,0.960860188303271,-117.80157470703125,65.90121459960938,175.01248168945312,21047974.0,50354.0,0.26026299525069385,0.4228835631290311,0.11946611437813098,0.013988370009016086,0.021220785701423443,0.004280141499293723,21.04797466500895
1606,B,124384328079846.0,3.810740384493304,5.487396772171646,4.639469661894408,32,1970-01-02 10:33:04.328079846,-0.48233032,-0.6031952,0.5536194,10.313357451697197,0.9502533488237241,-117.79488372802734,65.93976593017578,175.0462188720703,21098328.0,50354.0,0.21399234502242584,0.002371274202131002,0.183933002168811,0.011940326702056334,0.010706641039486669,0.0076386795573023586,21.098328669002512
1606,B,124384378433850.0,2.369990184493304,-4.190689227828356,3.7506299618944072,32,1970-01-02 10:33:04.378433850,0.022750854,-1.8863373,1.6638794,19.77527000300823,2.515408648405539,-117.69326782226562,66.05729675292969,175.15623474121094,21148682.0,50354.0,0.15561225353537583,-0.460821994156069,0.21123753822813102,0.009305534977889773,-0.011542413776280297,0.00994920869557381,21.148682673010626
1606,B,124384428787853.0,-3.772724815506697,-1.0968782278283538,-3.404322838105593,32,1970-01-02 10:33:04.428787853,-0.6374512,-0.38464355,-0.99269104,19.51829920903033,1.2408586518352218,-117.66124725341797,65.78732299804688,175.23085021972656,21199036.0,50354.0,-0.035316649805024206,-0.626594285831069,0.008718974455630977,0.0030286824151190632,-0.027377879681236176,0.005537845119839076,21.199036676000105
1606,B,124384479141857.0,-0.6043138155066963,5.319259772171646,-1.520060838105593,32,1970-01-02 10:33:04.479141857,-1.5116882,-0.34173584,-0.53356934,12.14345370587013,1.6391097702557267,-117.67564392089844,65.7716064453125,175.2979278564453,21249390.0,50354.0,-0.11020070161302421,-0.387162299858069,-0.12398120781596902,-0.0036636903566522054,-0.02552334955789543,-0.0029019572493132312,21.24939068000822
1606,B,124384529495861.0,3.990107384493304,6.926757772171646,3.4437757618944076,32,1970-01-02 10:33:04.529495861,-1.5922852,0.19322205,-0.46183777,8.618161396508539,1.6691318235968708,-117.75040435791016,65.7466812133789,175.30325317382812,21299744.0,50354.0,0.08524412468637582,-0.18515121628606898,0.04843337063623099,-0.0006283317372822266,-0.014409137395960963,-0.0019020678966742647,21.29974468400178
1606,B,124384579849865.0,8.335154384493304,15.506805702171645,3.9997601618944074,32,1970-01-02 10:33:04.579849865,-0.9267578,1.2437134,0.5452881,3.524729472786776,1.6440931096510352,-117.94703674316406,65.74172973632812,175.13839721679688,21350098.0,50354.0,0.3103131155577758,0.07134062759354101,0.187405903953231,0.009958944637627006,-0.0028654091915117767,0.005937725416338885,21.350098688009894
1606,B,124384630203869.0,8.255045784493303,18.706100772171645,3.5692182618944073,32,1970-01-02 10:33:04.630203869,-0.019348145,0.8841095,0.36756897,4.734451630958581,0.9576695183684464,-118.05376434326172,65.73722076416016,175.0224151611328,21400452.0,50354.0,0.41769146965457576,0.36790914630454097,0.190564169775731,0.018328971441891377,0.01105899155743201,0.009516152546274078,21.400452692003455
1606,B,124384680557873.0,4.7262066444933035,12.183502472171647,4.130039761894407,32,1970-01-02 10:33:04.680557873,0.66897583,-0.040740967,0.060028076,3.9792804509998314,0.6728981032998577,-118.01946258544922,65.74081420898438,175.0233612060547,21450806.0,50354.0,0.32682899240459584,0.284238340882831,0.193844219264931,0.018744791673263764,0.016419117284916466,0.009678250010876747,21.45080669601157
1606,B,124384730911877.0,0.5663401844933036,2.051376772171645,-0.9580339381055927,32,1970-01-02 10:33:04.730911877,0.3355713,-1.1370392,1.0669556,14.355667442917024,1.5949484292890759,-117.9370346069336,65.82962036132812,175.09353637695312,21501160.0,50354.0,0.13325045151339582,-0.135077645265169,0.07986159062553098,0.011583420159523277,0.003755418833565877,0.006891091175612162,21.50116070000513
1606,B,124384781265881.0,-1.1316882155066965,-2.050247227828356,-5.172145338105592,32,1970-01-02 10:33:04.781265881,0.33148193,-0.88235474,1.3475189,19.78037168862841,1.6444565494333387,-118.41583251953125,65.8104248046875,174.64468383789062,21551514.0,50354.0,-0.014233767376824195,-0.49344076146206906,-0.15433952363716902,0.002996483056506464,-0.015824207926171674,-0.001875130919434011,21.551514704013243
1606,B,124384831619885.0,2.724222984493304,1.3895117721716463,-1.6833452381055927,32,1970-01-02 10:33:04.831619885,1.3726959,-0.040802002,0.32395935,14.52443487762626,1.4109955696941223,-118.74465942382812,66.00479888916016,174.27944946289062,21601868.0,50354.0,0.040095247878775817,-0.510104536567069,-0.172600686237269,0.000651114494597636,-0.02526625996847961,-0.008231373664008727,21.601868708006805
1606,B,124384881973889.0,5.081766944493304,7.260116772171646,-1.2756761381055925,32,1970-01-02 10:33:04.881973889,1.2303162,0.5572052,-0.10749817,8.504671126439954,1.3548842915329815,-118.73221588134766,65.98670959472656,174.2257537841797,21652222.0,50354.0,0.19653140844209585,-0.27569750213906896,-0.07449928118886902,0.005957549326190586,-0.019784137928504437,-0.006221235879887878,21.652222712000366
1606,B,124384932327893.0,5.495371684493303,19.225006372171645,2.1635480618944074,32,1970-01-02 10:33:04.932327893,0.0443573,0.9810486,-0.8417206,4.053400126843885,1.2934131181063575,-118.7809829711914,65.92618560791016,174.16989135742188,21702576.0,50354.0,0.26630061926199583,0.173346745405131,0.022353951425230993,0.011652721961505918,-0.002576885002290356,-0.0013128629674591147,21.70257671600848
1606,B,124384982681896.0,6.4302624344933035,19.715683272171646,2.4168287018944072,32,1970-01-02 10:33:04.982681896,-0.18797302,0.5604248,-0.9243622,4.632443695398719,1.0972033947686275,-118.79554748535156,65.8722152709961,174.1642608642578,21752930.0,50354.0,0.30025169021372583,0.486940543175631,0.115320145781911,0.014264087495670244,0.016624053064597848,0.0034662207453842143,21.75293071901251
1606,B,124385033035900.0,6.281916484493304,8.457748772171644,4.425510961894407,32,1970-01-02 10:33:05.033035900,0.028076172,0.04360962,-0.361557,7.2935197060794685,0.3652581753222205,-118.77896118164062,65.85530853271484,174.18087768554688,21803284.0,50354.0,0.32005452864332584,0.21585329858043098,0.17226958571521098,0.01561744967216399,0.017694240553892373,0.00724064666990304,21.803284723006072
1606,B,124385083389904.0,1.733271484493304,-1.1091152278283527,3.802647161894407,32,1970-01-02 10:33:05.083389904,-0.14335632,-0.792572,1.2217255,16.90767352296589,1.4633299720220976,-118.77426147460938,65.9279556274414,174.19390869140625,21853638.0,50354.0,0.20179838749517584,-0.308452653254069,0.20716033708263099,0.013138690869619059,-0.0023313739526181847,0.009552907166281268,21.853638726999634
1606,B,124385133743908.0,-1.6112108155066966,-3.9690242278283545,-1.8632311381055926,32,1970-01-02 10:33:05.133743908,-0.14834595,-0.8433838,0.15361023,20.815419871846945,0.8699993435310716,-118.64443969726562,65.98377227783203,174.3328094482422,21903992.0,50354.0,0.0030731214630758115,-0.621321517075069,0.048828677230930984,0.005158049981041902,-0.023408924286376708,0.00644503541337255,21.903992731007747
1606,B,124385184097912.0,-0.920643815506696,0.3166357721716455,-2.9427751381055924,32,1970-01-02 10:33:05.184097912,-0.42349243,-1.1161957,-0.6480255,16.930678133251607,1.3583724554097985,-118.7132568359375,65.87511444091797,174.31556701660156,21954346.0,50354.0,-0.06374450404502419,-0.585425384148069,-0.12100082001616902,-0.0015275233992657143,-0.03038226673209495,-0.0018170780389039382,21.95434673500131
1606,B,124385234451916.0,0.3941141844933034,2.8285677721716453,0.19569836189440726,32,1970-01-02 10:33:05.234451916,-0.92988586,-0.5120697,-0.7338867,13.53534252193321,1.2905397238066403,-118.35856628417969,65.87254333496094,174.69808959960938,22004700.0,50354.0,-0.013256436520024189,-0.4142824103640691,-0.069163151994669,-0.001938652680606223,-0.025169643142432103,-0.0047877583233168685,22.004700739009422
1606,B,124385284805920.0,3.5712078844933037,10.028793772171646,2.6435437618944073,32,1970-01-02 10:33:05.284805920,-1.3952332,0.83358765,-0.3166046,5.658463539069598,1.6558328796578243,-118.4932861328125,65.83877563476562,174.62689208984375,22055054.0,50354.0,0.09983491373087582,-0.169759408398069,0.07148359895063099,0.0021797863207376118,-0.014704420870974353,5.8421893010254775e-05,22.055054743002984
1606,B,124385335159924.0,7.807337584493304,19.141525572171645,5.263172661894407,32,1970-01-02 10:33:05.335159924,-0.7052307,0.7648773,0.52267456,5.7184773089984935,1.164292196980197,-118.63130950927734,65.84346771240234,174.5142822265625,22105408.0,50354.0,0.2864776392726759,0.24095193013253102,0.199067399401731,0.009726191146970422,0.0017924141197085506,0.0068116624855174175,22.105408747011097
1606,B,124385385513928.0,7.6314647844933035,15.458236972171646,1.8268171018944073,32,1970-01-02 10:33:05.385513928,0.19136047,0.47984314,0.16299438,1.9813051319834518,0.5416968122439572,-118.6773681640625,65.8390884399414,174.4532928466797,22155762.0,50354.0,0.3887027272439758,0.377649021578931,0.178504672282911,0.01699901608778974,0.01557451616123948,0.009506132048804232,22.15576275100466
1606,B,124385435867932.0,5.986018044493304,10.602890272171646,4.997913861894407,32,1970-01-02 10:33:05.435867932,0.4144745,0.026031494,-0.31896973,5.659245082384855,0.5236491559110881,-118.64215850830078,65.82447814941406,174.46917724609375,22206116.0,50354.0,0.3428473651853958,0.16267180063083106,0.171826251475311,0.01841823667709429,0.01360365734077518,0.008820281667460756,22.206116755012772
1606,B,124385486221935.0,-5.269551815506697,-0.34814422782835486,-2.012050038105593,32,1970-01-02 10:33:05.486221935,0.6018219,-1.8790894,1.3895111,19.37312159193376,2.413277371032012,-118.50198364257812,65.93041229248047,174.58978271484375,22256470.0,50354.0,0.018038470247195806,-0.235285458841569,0.07517509349153098,0.00908602267868636,-0.0018281940727717496,0.006218752862230181,22.25647075800225
1606,B,124385536575939.0,-2.1564838155066965,-2.1086882278283543,-2.5033678381055924,32,1970-01-02 10:33:05.536575939,1.0244446,-0.71144104,0.43014526,19.45882193784182,1.3193407583205747,-118.39862823486328,65.88842010498047,174.6459503173828,22306824.0,50354.0,-0.18696529908202422,-0.5553248707360691,-0.113684675869369,-0.004253070769574475,-0.019905196267776197,-0.000969555755526828,22.306824762010365
1606,B,124385586929943.0,1.8699749844933038,1.1270597721716449,-1.284923038105593,32,1970-01-02 10:33:05.586929943,1.6258545,0.21052551,0.31056213,14.882635073059022,1.6685840350791885,-118.55113983154297,66.0313491821289,174.4256591796875,22357178.0,50354.0,-0.00721343283842419,-0.5181836596280691,-0.09537779939036901,-0.0048888379335611295,-0.027027724268977912,-0.005263565939614425,22.357178766003926
1606,B,124385637283947.0,4.790171484493303,7.900879172171646,0.4516187618944072,32,1970-01-02 10:33:05.637283947,1.0766144,1.2921143,0.15588379,7.459936979391275,1.6890700656090658,-118.63322448730469,66.00727081298828,174.27691650390625,22407532.0,50354.0,0.16768250764967582,-0.26617278119826904,-0.020980101762169023,0.004040129896522883,-0.019747742110684717,-0.0029295428773174503,22.40753277001204
1606,B,124385687637951.0,7.040873384493304,18.158447572171646,0.7295575618944072,32,1970-01-02 10:33:05.687637951,0.013427734,1.4755707,-1.2006531,3.4052194543819114,1.9023819441107181,-118.71310424804688,65.91920471191406,174.18870544433594,22457886.0,50354.0,0.29787021666647584,0.16262646944233103,0.029738476304030984,0.011721220940107751,-0.0026069854910792515,0.0002205095958404586,22.4578867740056
1606,B,124385737991955.0,6.890116584493303,19.348907772171646,2.7903485618944073,32,1970-01-02 10:33:05.737991955,-0.07249451,1.1255646,-0.70996094,4.45617805266207,1.3327399067631251,-118.78880310058594,65.86097717285156,174.10972595214844,22508240.0,50354.0,0.35074053444917586,0.4508534855045311,0.08862067647863099,0.016330072880838764,0.01544558482569715,0.002979928389609081,22.508240778013715
1606,B,124385788345959.0,3.7037151844933036,13.039932572171645,4.5766645618944075,32,1970-01-02 10:33:05.788345959,0.068573,0.14976501,-0.4889984,4.090827913215441,0.5159953970258456,-118.77378845214844,65.83597564697266,174.12246704101562,22558594.0,50354.0,0.26672090244777585,0.321984633349531,0.185479289417631,0.015545826596754556,0.01945774531838872,0.006901014841370189,22.558594782007276
1606,B,124385838699963.0,-0.15259281550669623,-1.8637542278283536,2.3053632618944073,32,1970-01-02 10:33:05.838699963,0.31991577,-2.0306854,2.7908478,18.0401036791201,3.466245914016011,-118.70870971679688,66.00713348388672,174.17620849609375,22608948.0,50354.0,0.08940660788397582,-0.212086557824469,0.173268814519531,0.008966222327622512,0.0027669038474944854,0.009032201012825928,22.608948786000838
1606,B,124385889053967.0,-2.9884388155066954,-3.5740502278283532,-6.2331804381055935,32,1970-01-02 10:33:05.889053967,0.07171631,-1.2455139,-1.9831238,22.14954167843979,2.342910179742208,-118.47595977783203,65.94988250732422,174.42710876464844,22659302.0,50354.0,-0.07908175337402416,-0.630376802780069,-0.09889065304546904,0.0002599488619970529,-0.021210700029940455,0.0018726189714324579,22.65930279000895
1606,B,124385939407971.0,-2.408894815506697,6.439224772171645,-4.975459538105593,32,1970-01-02 10:33:05.939407971,-1.2716675,-1.4563904,-0.29937744,13.666427583178573,1.9564861561864841,-118.3799819946289,65.97138977050781,174.601806640625,22709656.0,50354.0,-0.1358886688280242,-0.42133270049706906,-0.2821999286810691,-0.005412310319780973,-0.026478890164008503,-0.00959471757612905,22.709656794002512
1606,B,124385989761975.0,0.7416485844933041,1.7538297721716454,3.899876161894407,32,1970-01-02 10:33:05.989761975,-1.2449951,-2.0017242,-0.94436646,14.487441179571158,2.539437060189242,-118.19432830810547,65.97724914550781,174.8732452392578,22760010.0,50354.0,-0.041976258358224196,-0.28719266573706903,-0.027079962662869023,-0.004478105271768176,-0.017838543145676896,-0.0077867398243663295,22.760010798010626
1606,B,124386040115978.0,7.459315184493303,11.132995772171647,4.928989961894407,32,1970-01-02 10:33:06.040115978,-1.6951294,2.0826874,0.5452728,5.48511954836292,2.740141039304904,-118.51358032226562,65.95175170898438,174.61643981933594,22810364.0,50354.0,0.20647566481177582,-0.169017593270069,0.22228436239863097,0.00414160155628107,-0.011486005691022715,0.004914661172147279,22.810364801000105
1606,B,124386090469982.0,9.162760584493304,22.355102772171644,2.986668161894407,32,1970-01-02 10:33:06.090469982,0.013946533,1.2885132,0.50579834,8.062719697157949,1.3843022549659145,-118.6667709350586,65.9431381225586,174.44796752929688,22860718.0,50354.0,0.4184940016357759,0.349660657050931,0.199292524582631,0.01573486129215001,0.0045480504168107635,0.010614041283527232,22.86071880500822
1606,B,124386140823986.0,5.968714584493304,17.484253172171645,4.616612061894408,32,1970-01-02 10:33:06.140823986,0.3612976,0.51382446,-0.27044678,3.705993387213924,0.6838808319235303,-118.68463897705078,65.91896057128906,174.40859985351562,22911072.0,50354.0,0.38096515032957584,0.509566264610731,0.191427786194331,0.020127983069031664,0.021632756206675662,0.009837165264431572,22.91107280900178
1606,B,124386191177990.0,2.3730114844933037,5.304412772171645,7.615650761894408,32,1970-01-02 10:33:06.191177990,-0.5499115,-1.3408661,-0.006134033,11.985135854582762,1.449262634004722,-118.58003997802734,65.95079803466797,174.5532684326172,22961426.0,50354.0,0.21001963723887584,0.08028104248073098,0.30797168111453105,0.01487922399661091,0.014850585650641738,0.012573380388435222,22.961426813009894
1606,B,124386241531994.0,13.743037184493303,-4.4957892278283555,-6.3823808381055915,32,1970-01-02 10:33:06.241531994,-0.60461426,-0.76441956,2.4596863,22.773924313481352,2.6457423082215756,-118.66728973388672,66.07707977294922,174.49085998535156,23011780.0,50354.0,0.4057537573390758,-0.473110485024069,0.031050036871231024,0.01550332675528909,-0.009890266874913622,0.008535549793727533,23.011780817003455
1606,B,124386291885998.0,-0.02631081550669645,4.744751272171646,-1.2817644381055926,32,1970-01-02 10:33:06.291885998,2.295929,0.96746826,0.23648071,12.277772345292911,2.5026401925467696,-118.63048553466797,65.87263488769531,174.40000915527344,23062134.0,50354.0,0.3453460197919758,-0.487201082609569,-0.192960185619169,0.01891043908882849,-0.024177764338312105,-0.0040764118150268345,23.06213482101157
1606,B,124386342240002.0,-2.0109608155066967,6.050979772171646,-3.3900558381055927,32,1970-01-02 10:33:06.342240002,2.3394318,-0.49246216,1.2904358,12.99070689833748,2.7167415555780687,-118.53419494628906,65.94107055664062,174.37734985351562,23112488.0,50354.0,-0.0512923878540242,-0.221665079496569,-0.11762241909416903,0.0074033882913018085,-0.017847123363346238,-0.007819538238867713,23.11248882500513
1606,B,124386392594006.0,7.023783584493303,13.580429372171645,0.00862556189440733,32,1970-01-02 10:33:06.392594006,-0.1743927,0.5570679,-1.0758209,2.713331760191385,1.2239804197373871,-118.54019165039062,65.8805160522461,174.38035583496094,23162842.0,50354.0,0.1262078388547758,0.0007907880271309958,-0.08513427006416902,0.0018861463098459228,-0.00556095203632604,-0.0051048051629394775,23.162842829013243
1606,B,124386442948010.0,7.652140484493303,20.240371772171645,3.146320861894407,32,1970-01-02 10:33:06.442948010,-0.68148804,0.9172058,-1.0905762,5.601954390654459,1.5795723713154526,-118.60591125488281,65.8106918334961,174.34567260742188,23213196.0,50354.0,0.3694957402848758,0.35803711041113095,0.07943208611173098,0.012480329011999008,0.009034209998980122,-0.00014356388537053232,23.213196833006805
1606,B,124386493302014.0,8.908823784493304,15.376251502171646,3.0984998618944073,32,1970-01-02 10:33:06.493302014,0.14172363,0.33805847,-0.65657043,3.5267674711786685,0.7519666521791394,-118.59688568115234,65.77376556396484,174.34779357910156,23263550.0,50354.0,0.4169553974002759,0.4032505241781411,0.157225851362831,0.019800480293499068,0.019166938776054104,0.0059583368917970475,23.263550837000366
1606,B,124386543656018.0,1.9450939844933037,-1.7158662278283554,3.9420056618944073,32,1970-01-02 10:33:06.543656018,0.3092804,-0.37886047,0.8839264,17.464480553721483,1.0102056732021163,-118.59149169921875,65.82164001464844,174.33677673339844,23313904.0,50354.0,0.27326908766977587,-0.149541679947859,0.17725880757243098,0.017377781860608694,0.006387627571185813,0.008421320258013091,23.31390484100848
1606,B,124386594010021.0,-4.622547815506696,-3.7837372278283556,-5.473048838105592,32,1970-01-02 10:33:06.594010021,-0.471344,-0.774704,0.68634033,22.75930221085888,1.1372750338139446,-118.78732299804688,65.64321899414062,174.18695068359375,23364258.0,50354.0,-0.06741025510342417,-0.6319327162030691,-0.03854707404746901,0.005182907827523037,-0.019675180871891917,0.0034923453149579677,23.36425884401251
1606,B,124386644364025.0,0.7084606844933035,2.5993502721716464,-5.087107838105593,32,1970-01-02 10:33:06.644364025,-0.015029907,-0.38830566,-0.7751312,15.154301875705805,0.8670845177408626,-118.70936584472656,65.61858367919922,174.27337646484375,23414612.0,50354.0,-0.09854497169752419,-0.5232885103825691,-0.265873064636969,-0.004178254745167477,-0.029085004821746616,-0.007664385831658097,23.414612848006072
1606,B,124386694718029.0,-1.8837024155066961,3.1963197721716448,1.0223127118944073,32,1970-01-02 10:33:06.694718029,-1.1056061,-0.95362854,-0.41159058,14.20001357021661,1.5169637590280387,-118.65054321289062,65.62340545654297,174.39862060546875,23464966.0,50354.0,-0.029589061061724188,-0.34755161529356904,-0.10233934689261903,-0.0032260305427795964,-0.021925141844148132,-0.009270483885080439,23.464966851999634
1606,B,124386745072033.0,-0.20686831550669638,7.096801772171645,2.383900261894407,32,1970-01-02 10:33:06.745072033,-1.3480835,-0.052261353,-0.7803955,10.032979909313747,1.5585498094093402,-118.67162322998047,65.59040832519531,174.44949340820312,23515320.0,50354.0,-0.052634299294724185,-0.23431927887806905,0.085758224041081,-0.0020701375436943006,-0.014649763502559332,-0.0004174629300331732,23.515320856007747
1606,B,124386795426037.0,11.660807484493304,21.722473472171647,2.802433561894407,32,1970-01-02 10:33:06.795426037,-1.0735321,0.9529419,0.5423889,8.922384136995635,1.5345211478989889,-118.84610748291016,65.59127807617188,174.31683349609375,23565674.0,50354.0,0.28837582645757587,0.23211369282683103,0.130576326681531,0.005935264429379117,-5.553004001201971e-05,0.005446654983543202,23.56567486000131
1606,B,124386845780041.0,10.157877784493305,18.335327472171645,4.524021661894407,32,1970-01-02 10:33:06.845780041,0.54608154,0.9037781,0.25256348,6.153564921071712,1.0857293464754887,-118.91941833496094,65.58051300048828,174.20635986328125,23616028.0,50354.0,0.5493290390172759,0.515066054375731,0.184458163169331,0.021090895398060343,0.018811744495318906,0.007931623350975154,23.616028864009422
1606,B,124386896134045.0,5.360377184493304,7.875656372171646,3.5498548618944072,32,1970-01-02 10:33:06.896134045,0.776062,0.33573914,-0.04638672,7.557955259200695,0.8468439795879156,-118.9104995727539,65.57036590576172,174.17352294921875,23666382.0,50354.0,0.39070310535417585,0.16644474024903105,0.20327598923943102,0.02366718929884004,0.017158397276267636,0.009761982755195402,23.666382868002984
1606,B,124386946488049.0,-0.6558278155066963,-4.526428227828353,5.176930061894407,32,1970-01-02 10:33:06.946488049,0.86253357,-0.8531952,-0.05482483,21.0040194480846,1.2144595385044799,-118.78218841552734,65.58855438232422,174.26708984375,23716736.0,50354.0,0.11844643946297582,-0.409145683009869,0.219714264026231,0.012818858089861428,-0.006110481635889617,0.010649625606469574,23.716736872011097
1606,B,124386996842053.0,-0.17136111550669586,-2.9291072278283554,-0.06792773810559272,32,1970-01-02 10:33:06.996842053,0.039352417,0.54599,0.18444824,19.130601426968912,0.577645952173855,-118.61505126953125,65.73685455322266,174.40585327148438,23767090.0,50354.0,-0.020826135716124176,-0.681177216167069,0.128629351506031,0.0024577863874344842,-0.02745105963257777,0.008770247208255762,23.76709087600466
1606,B,124387047196057.0,2.6030529844933037,2.2527777721716458,-1.8449663381055927,32,1970-01-02 10:33:07.047196057,1.796936,-0.3009491,0.54211426,13.77359723624309,1.9009043163142532,-118.94586944580078,65.90387725830078,174.02224731445312,23817444.0,50354.0,0.06122270618547583,-0.5104971467050691,-0.04816093415676902,0.0010170644547068666,-0.03000278543403182,0.002025953343602369,23.817444880012772
1606,B,124387097550060.0,2.726267684493304,7.760467772171646,-0.6431078381055926,32,1970-01-02 10:33:07.097550060,0.82595825,0.55122375,0.08111572,8.341073413907424,0.9963104000953936,-119.22998809814453,65.83275604248047,173.714599609375,23867798.0,50354.0,0.13417630648307582,-0.241365716930069,-0.06264224353446901,0.004919560941956125,-0.018929651317741873,-0.0027896916047323,23.86779888300225
1606,B,124387147904064.0,6.650873984493304,18.423050172171646,1.7210431798944072,32,1970-01-02 10:33:07.147904064,-0.111831665,0.99035645,-1.025528,3.3684483765402056,1.4300419218111315,-119.27597045898438,65.76383972167969,173.67031860351562,23918152.0,50354.0,0.23608829580007581,0.165753231284731,0.027139178100216987,0.009322151891682909,-0.0019036955510926754,-0.0008938606784381633,23.918152887010365
1606,B,124387198258068.0,8.061152284493303,19.047165172171646,3.5044904618944073,32,1970-01-02 10:33:07.198258068,-0.16845703,0.87854004,-1.050354,4.870503361916123,1.3796571668916966,-119.31234741210938,65.6965103149414,173.6396484375,23968506.0,50354.0,0.37040468537427584,0.449918411724531,0.131563260499317,0.015269673787026653,0.01550076495604419,0.003995651296620467,23.968506891003926
1606,B,124387248612072.0,3.792383984493304,8.128052072171645,2.3575483018944072,32,1970-01-02 10:33:07.248612072,-0.15048218,0.052459717,-0.19992065,7.3458301467576685,0.25566613913792924,-119.31407928466797,65.6865234375,173.64598083496094,24018860.0,50354.0,0.2984364826442758,0.190721244560831,0.147588549955911,0.016839414087203075,0.01612938462629656,0.007028205131831275,24.01886089501204
1606,B,124387298966076.0,0.5603281844933035,-2.1243892278283543,2.275166101894407,32,1970-01-02 10:33:07.298966076,-0.030227661,-0.65260315,0.97702026,18.07150406944162,1.1753183276584778,-119.3055419921875,65.74510192871094,173.65701293945312,24069214.0,50354.0,0.10958823427857582,-0.34231498056796905,0.11663785054419097,0.010272838297966637,-0.0038166754914517147,0.0066524280853910685,24.0692148990056
1606,B,124387349320080.0,-0.5364581155066963,-2.555725227828356,-6.712855838105593,32,1970-01-02 10:33:07.349320080,-0.008300781,-0.9532623,0.18099976,20.61081315822687,0.9703292372625683,-119.22345733642578,65.77629852294922,173.74749755859375,24119568.0,50354.0,0.0006009767268758083,-0.611300441650069,-0.11172771448858904,0.002774233765484256,-0.024009175485183547,0.00012362249547188993,24.119568903013715
1606,B,124387399674084.0,-1.8568318155066965,2.0624547721716464,-4.338771238105593,32,1970-01-02 10:33:07.399674084,-0.20051575,-0.72758484,-0.6494446,16.306197311076517,0.995672915100661,-119.12772369384766,65.76566314697266,173.8634796142578,24169922.0,50354.0,-0.0602558605931242,-0.5058882702620691,-0.27824681489776903,-0.0015019310111005358,-0.028127460199811907,-0.009818388726360337,24.169922907007276
1606,B,124387450028088.0,-1.910893615506696,3.179260772171645,1.3361097118944072,32,1970-01-02 10:33:07.450028088,-0.8755646,-1.0157623,-0.608902,14.217125237471162,1.4728027921206728,-119.04005432128906,65.76377868652344,174.0076446533203,24220276.0,50354.0,-0.09486002317662419,-0.361498527740069,-0.07559800924541904,-0.003905352605670955,-0.021838197413299832,-0.008908751137453047,24.220276911000838
1606,B,124387500382092.0,3.2774303844933037,7.957809772171646,3.100513961894407,32,1970-01-02 10:33:07.500382092,-1.2128143,0.8585968,-0.22361755,7.752867664523836,1.5027015006057365,-119.171875,65.73311614990234,173.92958068847656,24270630.0,50354.0,0.03440529623277582,-0.213071174905069,0.11170087423498098,-0.0015220686602652705,-0.014465941403496638,0.0009089618318422011,24.27063091500895
1606,B,124387550736096.0,8.888712784493304,19.741531772171648,3.4802594618944074,32,1970-01-02 10:33:07.550736096,-0.9808197,1.3632355,0.46879578,5.839670384776323,1.743613430699061,-119.378173828125,65.72021484375,173.75706481933594,24320984.0,50354.0,0.30630698656557587,0.2039171220619311,0.165684132490731,0.008578113144014101,-0.00023047158843168263,0.006983722314333251,24.320984919002512
1606,B,124387601090100.0,8.647120384493304,19.410049772171647,4.369114461894407,32,1970-01-02 10:33:07.601090100,0.15951538,0.5148773,-0.026168823,5.799633028705292,0.5396559995117628,-119.41848754882812,65.7064437866211,173.70408630371094,24371338.0,50354.0,0.4414996716955758,0.4922501685419311,0.197623687279231,0.018827528235041018,0.017527403875533438,0.009147000978348334,24.371338923010626
1606,B,124387651444103.0,5.837794174493304,8.500473272171646,4.586201161894407,32,1970-01-02 10:33:07.651444103,0.49682617,-0.3507843,-0.47894287,7.291951945708915,0.7741266957334542,-119.33377838134766,65.69415283203125,173.769775390625,24421692.0,50354.0,0.36468669385160585,0.20923403868743107,0.22546798146013097,0.020297354125381396,0.01766126788541365,0.010652178943850918,24.421692926000105
1606,B,124387701798107.0,-2.306340315506696,-1.197937227828353,2.4507947618944073,32,1970-01-02 10:33:07.701798107,0.14222717,-1.2263489,0.328537,18.250461284431836,1.2775354213431498,-119.2259292602539,65.73848724365234,173.88027954101562,24472046.0,50354.0,0.08891141380770584,-0.309613250011569,0.17717044637323098,0.011420239556538491,-0.0025272474035078203,0.010137227697560555,24.47204693000822
1606,B,124387752152111.0,-3.862431815506696,-2.8814692278283527,-1.5048174381055928,32,1970-01-02 10:33:07.752152111,0.84606934,-0.8759308,0.78253174,20.692654049832143,1.447564858161493,-118.83102416992188,65.68368530273438,174.2095184326172,24522400.0,50354.0,-0.15531117594252417,-0.5961764163340689,0.023816871081030984,-0.001671746811268321,-0.022805066429584128,0.005060257691545954,24.52240093400178
1606,B,124387802506115.0,0.754862684493304,-0.3465572278283542,-1.1157793381055927,32,1970-01-02 10:33:07.802506115,1.5899353,-0.24136353,0.80513,16.549184153867056,1.7984395816096106,-118.79383850097656,65.8316650390625,174.16737365722656,24572754.0,50354.0,-0.07823926801152417,-0.574741222074069,-0.06597876503466903,-0.005880099527431075,-0.02948019338220169,-0.0010615100040707451,24.572754938009894
1606,B,124387852860119.0,3.3911388844933037,6.522384772171646,-2.096888838105593,32,1970-01-02 10:33:07.852860119,1.4487915,0.4230194,0.16365051,9.747870241114184,1.5181316519564008,-118.77147674560547,65.8286361694336,174.1124725341797,24623108.0,50354.0,0.10438388150237582,-0.337980389916069,-0.08088534667246902,0.000658242933859172,-0.022979592025075705,-0.0036975977404506144,24.623108942003455
1606,B,124387903214123.0,5.7394512744933035,19.416351772171645,1.6135755278944073,32,1970-01-02 10:33:07.903214123,-0.21739197,1.1971893,-0.6608734,4.217595161531614,1.3846570476051212,-118.86358642578125,65.77081298828125,174.0233917236328,24673462.0,50354.0,0.2298808684328058,0.15959036997693096,-0.012168379211187018,0.008415783609118068,-0.004491325532007678,-0.0023428136565728083,24.67346294601157
1606,B,124387953568127.0,6.891108384493304,20.411804472171646,3.4391370618944075,32,1970-01-02 10:33:07.953568127,-0.7548981,0.5951538,-0.8370056,5.623785078163135,1.2746205558790467,-118.91431427001953,65.71981811523438,174.00918579101562,24723816.0,50354.0,0.3179996005343058,0.509284289763831,0.127212144873113,0.01379398656718497,0.016840257308293166,0.0028964568880703104,24.72381695000513
1606,B,124388003922131.0,5.346888404493304,11.432724272171646,4.189381161894407,32,1970-01-02 10:33:08.003922131,-0.4567871,0.021881104,-0.40582275,4.520198699442813,0.611412579079161,-118.91751861572266,65.7015151977539,174.0306854248047,24774170.0,50354.0,0.3081160451563158,0.30828050019633096,0.192063203320331,0.015763713611552783,0.020583828716827,0.00803839544146634,24.774170954013243
1606,B,124388054276135.0,3.2236126844933035,0.03985577217164504,6.412998761894407,32,1970-01-02 10:33:08.054276135,0.0025634766,-1.3314056,1.7893372,16.059871115054356,2.2303307060674835,-118.88398742675781,65.81201171875,174.06732177734375,24824524.0,50354.0,0.21577950591741582,-0.20462405222356903,0.26693611934123096,0.013190118289383343,0.0026097583906102275,0.011556225946650145,24.824524958006805
1606,B,124388104630139.0,-0.6780444155066965,-4.548751227828353,1.1014142618944072,32,1970-01-02 10:33:08.104630139,0.12223816,-0.7614136,0.25576782,20.75351777082296,0.8124715476696388,-118.81735229492188,65.84159851074219,174.13369750976562,24874878.0,50354.0,0.06408977230827581,-0.606989660887069,0.18919037669993097,0.0070462688178882385,-0.020433998454986533,0.011483896790828335,24.874878962000366
1606,B,124388154984143.0,-2.282628215506696,1.6313017721716463,-4.0384478381055935,32,1970-01-02 10:33:08.154984143,-0.38380432,-0.7641754,-0.38407898,16.74674344324158,0.93743611029961,-118.74124908447266,65.84315490722656,174.2381134033203,24925232.0,50354.0,-0.07454085483102418,-0.566921824945069,-0.07394569434826904,-0.0002631269046752358,-0.02955556947879574,0.0029015153675677925,24.92523296600848
1606,B,124388205338146.0,0.7513531844933041,4.417236772171645,0.11919076189440725,32,1970-01-02 10:33:08.205338146,-1.0990753,-0.36619568,-0.5193939,11.958909682988846,1.2695809601903938,-118.44984436035156,65.80227661132812,174.56576538085938,24975586.0,50354.0,-0.038552911455824165,-0.341185145069069,-0.09867513540776904,-0.002847361753803981,-0.022863409184045953,-0.0043460746307677715,24.97558696901251
1606,B,124388255692150.0,3.100809884493304,7.754242272171646,3.5548444618944073,32,1970-01-02 10:33:08.255692150,-1.1293182,0.84935,-0.33198547,8.089537218899338,1.4515403444762949,-118.57169342041016,65.76744079589844,174.49407958984375,25025940.0,50354.0,0.09698590958787584,-0.187027872100569,0.09250118482933099,0.0014711675939706652,-0.013298819133279976,-0.00015544155371333466,25.025940973006072
1606,B,124388306046154.0,8.127711184493304,18.544586472171645,4.488041461894407,32,1970-01-02 10:33:08.306046154,-0.84169006,0.9541931,0.20411682,4.9921544231237664,1.2886389352325678,-118.7176284790039,65.75350189208984,174.38018798828125,25076294.0,50354.0,0.28270047495387585,0.16865641129633097,0.202495738903231,0.009559364103607682,-0.0004625382686683012,0.007427137548814714,25.076294976999634
1606,B,124388356400158.0,9.337595784493303,20.135101772171645,7.161823861894407,32,1970-01-02 10:33:08.356400158,0.64404297,0.7572632,-0.073410034,8.21504528043038,0.996808875548639,-118.75521087646484,65.73210144042969,174.3036651611328,25126648.0,50354.0,0.4397240335581758,0.480369310927831,0.293308659257031,0.018188481850807927,0.016340520608437728,0.012482867332480918,25.126648981007747
1606,B,124388406754162.0,8.420161184493303,7.657165772171646,8.060032461894407,32,1970-01-02 10:33:08.406754162,0.8687744,-0.049713135,0.038375854,10.234549925689565,0.8710413652962283,-118.708984375,65.73497772216797,174.30673217773438,25177002.0,50354.0,0.44708704720817577,0.20625671996393097,0.383240676664031,0.022327242580454435,0.017287183579761892,0.017033482630484577,25.17700298500131
1606,B,124388457108166.0,-4.914967815506696,-2.660415227828354,-1.3539842381055927,32,1970-01-02 10:33:08.457108166,0.5505066,-1.278183,1.2916718,20.987317104281345,1.898743094009245,-118.22972106933594,65.65320587158203,174.7286834716797,25227356.0,50354.0,0.0882502534509758,-0.367666011545069,0.16883817613033097,0.013478187218695458,-0.004063801734138312,0.013899689276803653,25.227356989009422
1606,B,124388507462170.0,-0.8806508155066961,-0.2496642278283545,-2.0868638381055926,32,1970-01-02 10:33:08.507462170,1.2899323,-0.55677795,0.5135193,17.206476141374125,1.4958706814634688,-118.188232421875,65.6451644897461,174.71282958984375,25277710.0,50354.0,-0.1459162902730242,-0.566736270455069,-0.08663023201476902,-0.0014518578090687124,-0.02352544625391748,0.0020697494089975035,25.277710993002984
1606,B,124388557816174.0,3.0694531844933035,2.383834772171646,-1.1885790381055927,32,1970-01-02 10:33:08.557816174,2.0034485,0.09590149,0.59054565,13.395953365476032,2.0908723425093156,-118.1281967163086,65.66891479492188,174.66876220703125,25328064.0,50354.0,0.05510747724397582,-0.439737188205069,-0.08246582529436902,-0.0022862934856323507,-0.025339982268686296,-0.004257331434872169,25.328064997011097
1606,B,124388608170178.0,4.244761284493304,9.945495772171647,-1.7910723381055926,32,1970-01-02 10:33:08.608170178,0.8428955,0.61413574,-0.6395111,6.475115133467578,1.2233601179083808,-118.11259460449219,65.6262435913086,174.63963317871094,25378419.0,50355.0,0.1841536347929103,-0.18305728021979678,-0.07502017252455712,0.0060239966483087,-0.015680407728767057,-0.003965103710086013,25.37841900100466
1606,B,124388658524182.0,5.897257674493304,21.900741772171646,3.8194623618944075,32,1970-01-02 10:33:08.658524182,-0.46798706,1.3625488,-0.86738586,7.027167803058399,1.6816388883576707,-118.22323608398438,65.55585479736328,174.54383850097656,25428773.0,50354.0,0.25534561133040584,0.30832352265393104,0.051068775628930994,0.011065272519646731,0.0031538281857641983,-0.0006030243196411789,25.428773005012772
1606,B,124388708878185.0,8.217478584493303,17.741882572171647,1.8913312618944071,32,1970-01-02 10:33:08.708878185,-0.081588745,0.6641998,-1.1163483,3.602576376420021,1.3015573842684023,-118.23362731933594,65.49099731445312,174.53692626953125,25479127.0,50354.0,0.3553667147925058,0.5046131531175311,0.143780651066131,0.01537590423479655,0.020467306685898103,0.004905724015901576,25.47912700800225
1606,B,124388759232189.0,2.2993725844933035,9.806762772171645,4.7257123618944075,32,1970-01-02 10:33:08.759232189,-0.4724121,-0.10282898,-0.6914215,7.037803467061665,0.8436887352670417,-118.21148681640625,65.46295928955078,174.58721923828125,25529481.0,50354.0,0.2647827618815758,0.20012304383453106,0.166597307316131,0.015613503374223353,0.01774314323066207,0.007814385858190212,25.529481012010365
1606,B,124388809586193.0,4.394099084493304,-3.250717227828355,5.890949761894408,32,1970-01-02 10:33:08.809586193,0.32357788,-1.8172607,2.6297302,18.961267976085274,3.2128834434168048,-118.15574645996094,65.62177276611328,174.6306610107422,25579835.0,50354.0,0.16852153621007582,-0.32840764133006906,0.26729570229063104,0.010909302313053513,-0.0032298213111451603,0.010924124302869449,25.579835016003926
1606,B,124388859935231.0,-2.353993815506696,-4.548751227828353,-2.0610308381055926,32,1970-01-02 10:33:08.859935231,-0.28764343,0.14527893,-0.5467377,21.648713485415108,0.6346391281077773,-118.08233642578125,65.59986877441406,174.71331787109375,25630184.0,50349.0,0.05135863009410335,-0.6897679186369298,0.09641629394692153,0.005535373246624558,-0.02563206063438921,0.009156267649282266,25.630184054010897
1606,B,124388910289235.0,-1.5355428155066964,5.015792772171645,-6.619425838105592,32,1970-01-02 10:33:08.910289235,-0.22636414,-1.2221832,-0.10682678,15.00282844810991,1.2475513853807176,-117.96914672851562,65.6238784790039,174.8500213623047,25680538.0,50354.0,-0.09792686375902418,-0.481710495038069,-0.218547857736969,-0.0011724484189817117,-0.029494312021095443,-0.0030749063815420255,25.68053805800446
1606,B,124388960643239.0,1.2430065844933038,-0.016601227828354936,2.5677228618944072,32,1970-01-02 10:33:08.960643239,-1.2395782,-0.7936859,-0.5888672,15.871080001566588,1.5853252035496976,-117.92333221435547,65.61646270751953,174.96836853027344,25730892.0,50354.0,-0.0073651846882241846,-0.36760455448806906,-0.10200972583206899,-0.002650937903756372,-0.02138320500191958,-0.00807067828151767,25.730892062012572
1606,B,124389010997243.0,0.8424481844933034,6.325851772171646,3.3921857618944076,32,1970-01-02 10:33:09.010997243,-1.4214325,1.3551483,-0.40805054,10.24140509429411,2.005842095042237,-118.10507202148438,65.56661224365234,174.8468017578125,25781246.0,50354.0,0.05250549471877581,-0.33462119904506904,0.150052619421131,0.0011364975856391984,-0.017679937796703817,0.001209575931891814,25.781246066006133
1606,B,124389061351247.0,8.336527684493303,24.607391772171646,4.137638661894407,32,1970-01-02 10:33:09.061351247,-1.0895996,0.31167603,0.1476593,10.073547540958126,1.1428790421007862,-118.19747924804688,65.5657730102539,174.80517578125,25831600.0,50354.0,0.2310990754534758,0.285337072715931,0.18957838951773098,0.007140312263226779,-0.0012408264485887083,0.008550889912053728,25.831600069999695
1606,B,124389111705251.0,11.170481584493304,19.138077072171647,5.869465461894407,32,1970-01-02 10:33:09.111705251,0.675766,0.38694763,-0.97369385,7.939221045018733,1.246783007843161,-118.15066528320312,65.51373291015625,174.81948852539062,25881954.0,50354.0,0.49112797236527583,0.6079104690940311,0.251948860524631,0.01818351038293271,0.022489293360149418,0.011116331574316548,25.88195407400781
1606,B,124389162059255.0,-9.579350815506697,5.9996497721716455,-17.612116838105592,32,1970-01-02 10:33:09.162059255,-0.6071472,-1.4054871,0.13346863,26.28069392935898,1.5368264657821087,-118.05168914794922,65.55269622802734,174.96156311035156,25932308.0,50354.0,0.040059899370775816,0.13942334876003107,-0.295644733698869,0.013373717046698572,0.018815623532111723,-0.0011001309989077904,25.93230807800137
1606,B,124389212413259.0,-10.869602815506695,-4.470825227828355,-2.9260818381055924,32,1970-01-02 10:33:09.212413259,0.9043884,-2.3114166,1.4772186,26.116122088985495,2.888380146205842,-117.85765075683594,65.672119140625,175.1249542236328,25982662.0,50354.0,-0.5148433055680242,-0.45497798444706905,-0.517090228070969,-0.011953621817828122,-0.007944719062692557,-0.020462228132479214,25.982662082009483
1606,B,124389262767262.0,2.5045269844933036,-2.683731227828355,-1.7106890381055928,32,1970-01-02 10:33:09.262767262,0.7440033,0.45941162,-0.14279175,18.482174758440607,0.8859962928082583,-117.8580093383789,65.65509796142578,175.08377075195312,26033016.0,50354.0,-0.21060751419742418,-0.6735994678840691,-0.11673998035036903,-0.018264675289234693,-0.02841419451734107,-0.01595794315742403,26.033016085013514
1606,B,124389313121266.0,0.25507618449330405,1.2063147721716465,-1.7771258381055928,32,1970-01-02 10:33:09.313121266,2.0611267,0.2705078,0.99853516,15.405975601750152,2.306185207018282,-117.95838165283203,65.68547821044922,174.88385009765625,26083370.0,50354.0,0.06947852898557583,-0.530666114104069,-0.08781271513836902,-0.0035532044606787065,-0.030319794557715354,-0.005150023214319959,26.083370089007076
1606,B,124389363475270.0,2.0859935844933037,10.271438772171646,-1.4255938381055926,32,1970-01-02 10:33:09.363475270,0.8952484,0.93981934,-0.3655548,6.855276209675885,1.3484659437092341,-117.98645782470703,65.64730834960938,174.80393981933594,26133724.0,50354.0,0.05894111357377583,-0.20449379901406897,-0.08063487328796902,0.0032332213407167965,-0.01850912113257536,-0.0042410049338099136,26.133724093000637
1606,B,124389413829274.0,6.190440044493304,21.615783772171646,2.2167707218944073,32,1970-01-02 10:33:09.413829274,-1.112381,0.80389404,-0.81307983,6.456005145443486,1.5952228454549384,-118.07815551757812,65.59251403808594,174.76426696777344,26184078.0,50354.0,0.20837576947699582,0.309355401998931,0.019919460403150988,0.006730237164569278,0.002640100578349872,-0.0015286319502010638,26.18407809700875
1606,B,124389464183278.0,9.935374184493304,16.420288372171647,3.1778760618944073,32,1970-01-02 10:33:09.464183278,-0.21122742,0.6009979,-0.9720764,4.671633388809054,1.1622168585084396,-118.09674072265625,65.53551483154297,174.75552368164062,26234432.0,50354.0,0.4059996248431958,0.4641649883781311,0.135821022075451,0.015468129302799465,0.019474922868523294,0.0039210781273637625,26.234432101002312
1606,B,124389514537282.0,2.9558208844933036,8.400650272171646,2.6912275018944074,32,1970-01-02 10:33:09.514537282,-0.33917236,0.13154602,0.06578064,7.386664326897427,0.3696881628678684,-118.12985229492188,65.53530883789062,174.73776245117188,26284786.0,50354.0,0.32456161825187585,0.13144757224863107,0.147766420425511,0.01839334041740462,0.014995737438899991,0.007139881039846721,26.284786105010426
1606,B,124389564891286.0,-0.5281728155066965,-1.1559592278283528,4.023060361894407,32,1970-01-02 10:33:09.564891286,0.09303284,-1.4721832,1.8883209,17.643415050921405,2.3961916252790627,-118.08011627197266,65.65325164794922,174.78724670410156,26335140.0,50354.0,0.06112089543287581,-0.311069613576569,0.16904562554661098,0.009710328647040993,-0.004522344134513493,0.007976376881440116,26.335140109003987
1606,B,124389615245290.0,-3.9246878155066955,-2.5338132278283556,-6.5382948381055925,32,1970-01-02 10:33:09.615245290,-0.4992981,-0.34144592,-0.85435486,21.786613579821488,1.0468075925182603,-118.02743530273438,65.62358093261719,174.8724822998047,26385494.0,50354.0,-0.11210967210702417,-0.586366601116069,-0.06332605840756902,-0.0012837444303250333,-0.02259475157731655,0.0026617015418596594,26.3854941130121
1606,B,124389665599294.0,-4.176976315506696,5.311920772171646,-5.199214438105592,32,1970-01-02 10:33:09.665599294,-1.3781586,-0.50279236,-0.5056915,15.573503449096911,1.5517232927299183,-118.02117919921875,65.61307525634766,174.95501708984375,26435848.0,50354.0,-0.20397559782652416,-0.423524786356069,-0.295515271047169,-0.007958078841116947,-0.02542603546238602,-0.00903454815168194,26.435848117005662
1606,B,124389715953298.0,1.7995403844933038,4.734085772171646,2.9795117618944076,32,1970-01-02 10:33:09.715953298,-1.5054169,-0.71977234,-0.837204,11.23085205335158,1.8668858566743403,-117.98307037353516,65.59300994873047,175.07952880859375,26486202.0,50354.0,-0.05985670443512418,-0.240540893233069,-0.055885454278969,-0.0066425058740415205,-0.01671918161501573,-0.008847216061536177,26.486202121013775
1606,B,124389766307302.0,9.154963384493303,12.898437772171645,6.068821461894407,32,1970-01-02 10:33:09.766307302,-1.1509857,0.79748535,0.347641,6.034395335181043,1.4427769162105804,-118.13619995117188,65.58961486816406,174.97459411621094,26536556.0,50354.0,0.2758015413917758,-0.049535154724069,0.227809885575331,0.005436843160057618,-0.0073032446594168635,0.0043285414067485055,26.536556125007337
1606,B,124389816661305.0,9.817896684493304,21.329239172171647,3.5433545618944073,32,1970-01-02 10:33:09.816661305,-0.29855347,1.1764832,0.108428955,7.623227482428697,1.2186072922043725,-118.27090454101562,65.56656646728516,174.84300231933594,26586910.0,50354.0,0.4776796979568758,0.36828102242773103,0.242005755750931,0.018970397163081004,0.0080250647111751,0.011828548401671298,26.586910128011368
1606,B,124389867015309.0,4.753947124493304,16.672180472171647,5.461872661894407,32,1970-01-02 10:33:09.867015309,0.08078003,0.047454834,-0.08828735,4.130140242958423,0.12873239952238505,-118.26685333251953,65.5615463256836,174.84300231933594,26637264.0,50354.0,0.36687531157885583,0.4632925423856311,0.226724605813331,0.021263361475081118,0.020936527641306022,0.011801224313103426,26.63726413200493
1606,B,124389917369313.0,1.6871593844933037,3.832840272171646,1.6243634918944072,32,1970-01-02 10:33:09.917369313,0.23165894,-1.8256531,0.57185364,12.045616314797817,1.9270941055389026,-118.10771942138672,65.62987518310547,175.00503540039062,26687618.0,50354.0,0.16216773857675582,0.02278570728033105,0.178410167643941,0.013319716873767835,0.01223799209183993,0.010200078191333738,26.687618136013043
1606,B,124389967723317.0,-3.190602815506697,-2.212051227828356,-4.1906542381055925,32,1970-01-02 10:33:09.967723317,0.57518005,-1.7532959,1.6858978,20.4099917842732,2.499425933073363,-118.17147064208984,65.57230377197266,174.93630981445312,26737972.0,50354.0,-0.037852195262624205,-0.45266259423056904,-0.06461150211735901,0.0031298924340198916,-0.010823010382746143,0.002865109001962755,26.737972140006605
1606,B,124390018077321.0,-0.09080981550669609,2.153244772171645,-1.5481218381055926,32,1970-01-02 10:33:10.018077321,1.8917542,0.20394897,0.34873962,14.630697279072827,1.9344116568454206,-118.15143585205078,65.52114868164062,174.8612823486328,26788326.0,50354.0,-0.0826161258110242,-0.4949497701340691,-0.144485165270769,-0.003033030919671246,-0.023858036497608495,-0.005264426794830899,26.788326144000166
1606,B,124390068431325.0,2.5873516844933038,4.156906772171645,-2.937434838105593,32,1970-01-02 10:33:10.068431325,2.1154633,0.2564087,0.78315735,12.37310959192366,2.270300823666679,-118.11109161376953,65.54962921142578,174.78941345214844,26838680.0,50354.0,0.06285543463547583,-0.33459851456806905,-0.11293286043696903,-0.0004975149217267815,-0.020885537163945735,-0.00648101363324372,26.83868014800828
1606,B,124390118785329.0,5.663843975493304,15.188904092171645,-0.3308367381055928,32,1970-01-02 10:33:10.118785329,0.06858826,1.201767,-0.5175934,2.044079938495845,1.3102866859670015,-118.19725036621094,65.49848175048828,174.69100952148438,26889034.0,50354.0,0.2077403531314828,-0.006399719868429013,-0.08228527347426903,0.006812790148608718,-0.008585312548407713,-0.004915006957483241,26.88903415200184
1606,B,124390169139333.0,5.933955064493304,22.150345172171647,2.5138288218944074,32,1970-01-02 10:33:10.169139333,-1.0928497,1.2743225,-1.229187,7.000776120954554,2.080653498727104,-118.3110580444336,65.41416931152344,174.6259307861328,26939388.0,50354.0,0.29199778642974283,0.44662107872837103,0.05496119169355099,0.012581907139732978,0.01108345315201676,-0.0006879384069931383,26.939388156009954
1606,B,124390219493337.0,7.709605184493304,14.966553022171645,3.056629761894407,32,1970-01-02 10:33:10.219493337,-0.182724,-0.061798096,-1.019989,2.45323640515345,1.0380677362129243,-118.26148223876953,65.37071990966797,174.69052124023438,26989742.0,50354.0,0.34350391638873584,0.44102294583898105,0.140247435764051,0.016000026371860838,0.022348213606532222,0.0049147676135000455,26.989742160003516
1606,B,124390269847341.0,6.149393904493303,3.7622687721716463,5.941548161894408,32,1970-01-02 10:33:10.269847341,0.18865967,-1.116333,1.1942444,12.204164255570593,1.6456036961871678,-118.20633697509766,65.4497299194336,174.7407989501953,27040096.0,50354.0,0.34892802006341583,-0.021933653683818985,0.22654712558723103,0.017433358864055823,0.010551411108590515,0.009234786671141228,27.04009616401163
1606,B,124390320201344.0,-0.42879211550669627,-3.5261532278283543,2.4901624618944074,32,1970-01-02 10:33:10.320201344,0.7416687,-1.3232117,1.0980835,19.71014865409207,1.8726315805701959,-118.09812927246094,65.52937316894531,174.8189697265625,27090450.0,50354.0,0.1440275912413158,-0.487524518940069,0.212285178375131,0.01241114342581923,-0.012826628412151627,0.01104848091686039,27.09045016700111
1606,B,124390370555348.0,-4.994877815506696,0.7374577721716449,-4.130153138105593,32,1970-01-02 10:33:10.370555348,-0.09916687,-0.58555603,-0.61820984,18.896297250106723,0.8572592015532895,-118.01438903808594,65.51585388183594,174.91641235351562,27140804.0,50354.0,-0.1365517378531242,-0.563680185487069,-0.041290045254969016,0.00018821956075450047,-0.026466180843362056,0.004305144466566319,27.140804171009222
1606,B,124390420909352.0,-0.6172992155066961,3.927963772171646,-0.9443621381055927,32,1970-01-02 10:33:10.420909352,-1.0636139,-0.9277191,-0.41264343,13.178255583784223,1.4704461421963693,-117.79873657226562,65.35443878173828,175.18194580078125,27191158.0,50354.0,-0.14129778110982416,-0.37600788177806904,-0.127761071109169,-0.006995417338930151,-0.02365852646953438,-0.004256199956699904,27.191158175002784
1606,B,124390471263356.0,3.6246746844933035,3.603500772171646,3.8432051618944074,32,1970-01-02 10:33:10.471263356,-1.0057526,0.12176514,-0.41822815,11.967115125847885,1.0960291178515296,-117.83951568603516,65.33309936523438,175.19241333007812,27241512.0,50354.0,0.07571669218267582,-0.303849517167069,0.072984170809931,-0.0016511350759188137,-0.01711676973324174,-0.0013791180188339155,27.241512179010897
1606,B,124390521617360.0,8.103632784493303,15.473495772171646,2.825352261894407,32,1970-01-02 10:33:10.521617360,-1.0389557,1.2730103,-0.008010864,2.68934914791285,1.6431823831853256,-118.01342010498047,65.3029556274414,175.05819702148438,27291866.0,50354.0,0.29528359714667585,-0.013167658003068983,0.167894270258731,0.009340674284445087,-0.007981541419258564,0.006064596510785703,27.29186618300446
1606,B,124390571971364.0,7.088862284493304,22.264786072171646,4.255421161894407,32,1970-01-02 10:33:10.571971364,-0.5627136,0.6784668,0.19345093,7.640640095933972,0.9024339624842723,-118.11651611328125,65.2955093383789,174.9756622314453,27342220.0,50354.0,0.38250144835187583,0.456667521995031,0.178272632490731,0.017064594090517037,0.01116599607572563,0.008715444110523204,27.342220187012572
1606,B,124390622325368.0,5.7280224424933035,14.803345012171645,5.096424661894407,32,1970-01-02 10:33:10.622325368,0.22117615,-0.16455078,0.21347046,3.406945044613402,0.3486624238716333,-118.10061645507812,65.30880737304688,174.98098754882812,27392574.0,50354.0,0.3226907067713418,0.439795136310511,0.23545142230553098,0.01775462288953725,0.022570240348158632,0.010416330527605488,27.392574191006133
1606,B,124390672679372.0,1.0123851844933034,1.6595457721716453,-0.16707933810559283,32,1970-01-02 10:33:10.672679372,0.78855896,-2.1327667,0.9114685,14.442608043166901,2.449753835902175,-117.77373504638672,65.50985717773438,175.27276611328125,27442928.0,50354.0,0.1697032428246418,-0.07898299872258902,0.12410612721703097,0.01239700246897808,0.009084167188051112,0.009052580424329543,27.442928194999695
1606,B,124390723033376.0,-2.442158815506696,-1.3835902278283552,-1.6722368381055928,32,1970-01-02 10:33:10.723033376,0.049102783,-0.38565063,0.12150574,18.769788842195695,0.40730963230776845,-117.59600067138672,65.440673828125,175.43809509277344,27493282.0,50354.0,-0.03599741070802419,-0.48652146726006906,-0.04630846336846902,0.003366311735200082,-0.014237705940045382,0.0019587117827152447,27.49328219900781
1606,B,124390773387380.0,1.2257946844933034,1.7127227721716451,-1.536921838105593,32,1970-01-02 10:33:10.773387380,1.0653687,0.35131836,0.03514099,14.568353593278832,1.1223501887516927,-117.77338409423828,65.49826049804688,175.22146606445312,27543636.0,50354.0,-0.030624399726524188,-0.4851826299310691,-0.08079698799096903,-0.0016773373213106245,-0.024464594054981286,-0.003200133948876572,27.54363620300137
1606,B,124390823741384.0,2.8160351844933036,3.3751377721716462,-0.4192918381055928,32,1970-01-02 10:33:10.823741384,1.3154602,0.5751648,0.5095062,12.3504438728872,1.5234325232124724,-117.9468994140625,65.70466613769531,174.98812866210938,27593990.0,50354.0,0.10176115061147581,-0.365372135075069,-0.049251591725969025,0.0017910099770304271,-0.021414417318559538,-0.0032742330915333496,27.593990207009483
1606,B,124390874095387.0,3.118037184493304,11.684433272171646,0.12579786189440734,32,1970-01-02 10:33:10.874095387,0.08929443,0.71273804,-0.93977356,4.625639023001853,1.1828539017846371,-117.9633560180664,65.6464614868164,174.96517944335938,27644344.0,50354.0,0.1494021400339758,-0.11431437981656899,-0.007389297839069016,0.006323538168580536,-0.01207706738542677,-0.001426047676578963,27.644344210013514
1606,B,124390924449391.0,6.529673444493303,20.808136272171645,3.4608502618944073,32,1970-01-02 10:33:10.924449391,-0.5214691,1.1905365,-1.2890472,5.936194773748005,1.830559986428989,-118.03858184814453,65.56159210205078,174.91119384765625,27694698.0,50354.0,0.2429004105059958,0.324596223417931,0.09030103981263099,0.009877001314944867,0.005294265976351491,0.00208746892766837,27.694698214007076
1606,B,124390974803395.0,8.574183284493303,17.983093572171647,3.207661161894407,32,1970-01-02 10:33:10.974803395,-0.5137787,0.119125366,-0.5722656,4.290556159976565,0.7782334626201086,-118.04627227783203,65.53355407714844,174.9309844970703,27745052.0,50354.0,0.38026980086569584,0.48317759379103103,0.167893112116731,0.015689556411705084,0.020337321395870037,0.006500554163125548,27.745052218000637
1606,B,124391025157399.0,5.077418184493304,7.887146272171646,5.642338361894407,32,1970-01-02 10:33:11.025157399,-0.1078949,-0.85050964,0.3492279,8.323146637275743,0.925725706306868,-117.98715209960938,65.5689468383789,175.00186157226562,27795406.0,50354.0,0.3437063701846758,0.15786582856103104,0.22281643801043097,0.018227548058535208,0.016139550244557866,0.009836894343551558,27.79540622200875
1606,B,124391075511403.0,-0.046300115506696216,-1.9428252278283527,0.4540296618944073,32,1970-01-02 10:33:11.075511403,0.44882202,-1.5997009,2.1953888,18.115144529265702,2.7532192354157217,-117.61832427978516,65.8576889038086,175.32553100585938,27845760.0,50354.0,0.12666845962287582,-0.34380902906656896,0.153488257734931,0.011842627090064728,-0.004681491959127928,0.009474223324780979,27.845760226002312
1606,B,124391125865407.0,-4.4651078155066966,-2.007202227828353,-4.216594138105593,32,1970-01-02 10:33:11.125865407,0.71417236,-0.41763306,-0.52926636,20.832514339354297,0.9821315657388183,-117.5140151977539,65.8438949584961,175.4007110595703,27896114.0,50354.0,-0.1135837174791242,-0.592919041251069,-0.09473008581756905,0.0003294345529532345,-0.02358400262638717,0.001479354494363422,27.896114230010426
1606,B,124391176219411.0,-2.1117298155066964,4.447448772171645,-2.6347918381055924,32,1970-01-02 10:33:11.176219411,-0.58366394,-1.0163422,-0.7185669,13.967565574535062,1.3747557790868796,-117.40572357177734,65.8354263305664,175.55136108398438,27946468.0,50354.0,-0.1655850410360242,-0.432031112753069,-0.17249734472306902,-0.0070286318331358915,-0.02580517002736218,-0.0067279850187216455,27.946468234003987
1606,B,124391226573415.0,2.4857586844933035,1.8102267721716458,2.6090284118944074,32,1970-01-02 10:33:11.226573415,-0.7236786,-0.838501,-0.47434998,13.792865631900947,1.2049076921594286,-117.33465576171875,65.8336410522461,175.66893005371094,27996822.0,50354.0,0.009416924834475808,-0.335919702820069,-0.0006486457817190046,-0.003931844661606384,-0.0193346976836849,-0.004359296602939048,27.9968222380121
1606,B,124391276927419.0,7.316767584493304,10.468429772171646,3.1023297618944072,32,1970-01-02 10:33:11.276927419,-0.60728455,1.6058044,0.17597961,5.199335330028303,1.7257957929209977,-117.53275299072266,65.80447387695312,175.4850616455078,28047176.0,50354.0,0.24679820387427584,-0.18432946418306898,0.143794864741481,0.00645072829550024,-0.013098313277638005,0.0036039923547499285,28.047176242005662
1606,B,124391327281423.0,7.677851584493304,21.415695472171645,5.728413161894407,32,1970-01-02 10:33:11.327281423,0.15797424,1.3127136,0.6134491,7.666871035497835,1.4575639452248217,-117.6859130859375,65.80121612548828,175.3084716796875,28097530.0,50354.0,0.37751952681757583,0.30927742127683105,0.222331614592231,0.01571844750562875,0.003145814715749648,0.009217966370184868,28.097530246013775
1606,B,124391377635427.0,5.679392681493304,15.853668472171645,2.647465301894407,32,1970-01-02 10:33:11.377635427,1.0896454,0.73905945,0.036727905,1.1399834994762437,1.317150297946727,-117.70611572265625,65.7856674194336,175.22659301757812,28147884.0,50354.0,0.33629533888474483,0.444861576026731,0.21087949208281098,0.01797171687378733,0.018986957535111783,0.010906956032757532,28.147884250007337
1606,B,124391427989430.0,6.232752684493303,7.862839072171646,5.514469661894408,32,1970-01-02 10:33:11.427989430,0.8886566,-0.23149109,0.16436768,8.28295243096973,0.9329069684065666,-117.64737701416016,65.79833221435547,175.24227905273438,28198238.0,50354.0,0.29991208387944485,0.10364131044393099,0.205493036583311,0.016017794282934004,0.013809657172671859,0.010483011154226953,28.198238253011368
1606,B,124391478343434.0,-4.261540815506697,-3.043259227828356,-1.6482805381055927,32,1970-01-02 10:33:11.478343434,0.2283783,-2.3730316,1.4886475,21.042230380856697,2.810606162692614,-117.20838928222656,65.7846908569336,175.66119384765625,28248592.0,50354.0,0.049629201225475796,-0.3721266382589691,0.09733904356963101,0.008800400935086588,-0.006759655098399214,0.007624403282010621,28.24859225700493
1606,B,124391528697438.0,1.7528179844933036,0.5713807721716453,-0.23577443810559262,32,1970-01-02 10:33:11.528697438,0.7945709,0.1995697,0.25595093,15.269452758990946,0.8583017294942175,-117.18820190429688,65.98008728027344,175.63734436035156,28298946.0,50354.0,-0.0631621147164242,-0.5557036838780691,-0.04743485213606902,-0.0003407181629616081,-0.023359984020444213,0.0012564378277227903,28.298946261013043
1606,B,124391579051442.0,2.7968548844933037,2.5820162721716464,-1.3679003381055925,32,1970-01-02 10:33:11.579051442,1.7498016,-0.0619812,0.97117615,13.303229741798846,2.002206388673461,-117.52509307861328,66.18745422363281,175.24154663085938,28349300.0,50354.0,0.11454711382247582,-0.41407612261456894,-0.04037571984066901,0.0012937201224930614,-0.02441614618806515,-0.0022108067706583336,28.349300265006605
1606,B,124391629405446.0,4.416361684493304,8.039306772171646,0.3927350618944072,32,1970-01-02 10:33:11.629405446,0.87802124,0.9720001,-0.11190796,7.389089708084228,1.314621194033669,-117.5728759765625,66.15998077392578,175.14129638671875,28399654.0,50354.0,0.18160715355737583,-0.226056149712569,-0.024551736159169016,0.007456275989822524,-0.016116610220380353,-0.001634678559707922,28.399654269000166
1606,B,124391679759450.0,4.992625084493303,20.546585372171645,-0.04763353810559279,32,1970-01-02 10:33:11.679759450,-0.3028412,0.26852417,-1.0944977,5.669248307307456,1.166937546570903,-117.55770111083984,66.10525512695312,175.17446899414062,28450008.0,50354.0,0.23689005988277584,0.226237806518131,0.008688621064430982,0.010536504342782698,4.573573393634682e-06,-0.0003993856487402195,28.45000827300828
1606,B,124391730113454.0,7.226099884493304,18.188843072171647,3.4780927618944073,32,1970-01-02 10:33:11.730113454,-0.3030243,1.2035217,-1.3339386,3.803367086609303,1.8219990113420315,-117.62342071533203,66.01829528808594,175.11915588378906,28500362.0,50354.0,0.30763083854417583,0.48177268194323103,0.086368671877331,0.013709402659695362,0.017825580067991714,0.0023932574643947416,28.50036227700184
1606,B,124391780467458.0,5.046168184493304,13.093490772171645,3.9775434618944074,32,1970-01-02 10:33:11.780467458,-0.4347229,-0.018692017,-0.3694458,3.155354378446245,0.5708095920896724,-117.6240463256836,66.0023422241211,175.1422576904297,28550716.0,50354.0,0.30897889317287586,0.29412611919903103,0.187710553206331,0.015524383215440212,0.019534804116358735,0.006900492649931359,28.550716281009954
1606,B,124391830821462.0,5.107523784493304,-1.419082227828353,9.578343161894407,32,1970-01-02 10:33:11.830821462,0.5542908,-1.9958649,2.3061981,18.395317655496637,3.099881395547297,-117.51721954345703,66.15074157714844,175.22879028320312,28601070.0,50354.0,0.2556395027031758,-0.19954261607906898,0.341296557527131,0.014215397352971353,0.002381328858051285,0.013318812026936373,28.601070285003516
1606,B,124391881175466.0,0.27767458449330373,-4.544586227828356,-3.604457338105593,32,1970-01-02 10:33:11.881175466,-0.527298,-0.08576965,-0.038970947,21.147722559123697,0.5356475971897935,-117.90699768066406,66.24283599853516,174.89820861816406,28651424.0,50354.0,0.13558313933597582,-0.643616480708069,0.15040452338553098,0.009849812458619722,-0.021228216579809774,0.01237955811413809,28.65142428901163
1606,B,124391931529469.0,-0.5024308155066963,2.258331772171646,-5.136226138105593,32,1970-01-02 10:33:11.931529469,0.31559753,-0.19410706,-0.6014557,15.890776481641439,0.7064193589833411,-117.83981323242188,66.22077178955078,174.95437622070312,28701778.0,50354.0,-0.005658687628224185,-0.5510302284300691,-0.22006418788056906,0.003271107920646063,-0.030077620195970906,-0.0017538213729915739,28.70177829200111
1606,B,124391981883473.0,-1.9440051155066964,0.3997347721716462,1.5166211818944073,32,1970-01-02 10:33:11.981883473,-0.7650757,-0.82092285,-0.7157898,16.64568123561336,1.331018478521862,-117.7578353881836,66.2082748413086,175.08578491210938,28752132.0,50354.0,-0.06159391743512419,-0.426547058613069,-0.09113079398252903,-0.0016932188376799222,-0.02461246335588509,-0.007834956058367221,28.752132296009222
1606,B,124392032237477.0,1.9715069844933035,4.887695772171645,2.812870561894407,32,1970-01-02 10:33:12.032237477,-1.2975769,0.65786743,-0.8371277,11.01109292188326,1.6784749485695951,-117.84437561035156,66.1558837890625,175.06207275390625,28802486.0,50354.0,0.0006924145554758073,-0.360347561185069,0.109003613633371,-0.0015333171380009075,-0.01981164584265772,0.0004499839803492481,28.802486300002784
1606,B,124392082591481.0,9.931254184493303,23.324768772171645,1.3389783618944073,32,1970-01-02 10:33:12.082591481,-1.3624268,1.298172,0.76586914,9.181483886293123,2.031751182243185,-118.08285522460938,66.15928649902344,174.87582397460938,28852840.0,50354.0,0.29967581795157583,0.21683601983293094,0.104531100354231,0.00756237098983004,-0.0036131900766227802,0.005376163494065856,28.852840304010897
1606,B,124392132945485.0,7.784663184493304,21.704529072171646,3.9354749618944074,32,1970-01-02 10:33:12.132945485,0.057266235,0.81062317,0.19081116,7.19107030964904,0.8347444184853647,-118.17105102539062,66.14861297607422,174.77627563476562,28903194.0,50354.0,0.4460336515989759,0.6402334318270311,0.132794911333031,0.018774727314874243,0.021578437584442865,0.005975156996250196,28.90319430800446
1606,B,124392183299489.0,5.219889504493303,9.546280172171645,0.05431036189440719,32,1970-01-02 10:33:12.183299489,0.37779236,0.22384644,-0.5821228,5.909736071009631,0.729178476269619,-118.14341735839844,66.11764526367188,174.7858428955078,28953548.0,50354.0,0.32741562305061583,0.29333242434483103,0.100450825097031,0.019473132387852775,0.02350438756083897,0.005872427906099672,28.953548312012572
1606,B,124392233653493.0,2.6282146844933036,6.773208772171646,5.067341361894407,32,1970-01-02 10:33:12.233653493,0.10682678,-0.49041748,-0.010375977,9.566801680890729,0.5020248265907009,-118.08867645263672,66.12875366210938,174.83987426757812,29003902.0,50354.0,0.19759171916611581,-0.082593426848269,0.12894782544983097,0.013218109854990653,0.0053057757399709434,0.005775569824818344,29.003902316006133
1606,B,124392284007497.0,-7.608036815506697,-3.148895227828353,-4.433772538105593,32,1970-01-02 10:33:12.284007497,0.12019348,-2.4316406,1.1416626,23.46911564081104,2.688999065161911,-117.90016174316406,66.2362289428711,175.03936767578125,29054256.0,50354.0,-0.1253769817925242,-0.40221985789406894,0.015951362276530958,0.0018181504428549159,-0.012206144069957842,0.0036481268493866147,29.054256319999695
1606,B,124392334361501.0,2.5827434844933035,5.105880772171645,-1.0184130381055927,32,1970-01-02 10:33:12.334361501,0.37071228,0.37594604,0.028869629,10.903942636399476,0.52876882946433,-118.23751068115234,66.28092956542969,174.7066192626953,29104610.0,50354.0,-0.12652181019492423,-0.444198174950069,-0.13726967625226902,-0.00634205588586799,-0.021310266812916864,-0.0030544311909671573,29.10461032400781
1606,B,124392384715505.0,2.947901584493304,6.629180772171646,-2.8289598381055927,32,1970-01-02 10:33:12.384715505,0.50639343,0.036499023,0.37760925,10.075222359035982,0.6327363039313313,-118.23619842529297,66.29670715332031,174.68040466308594,29154964.0,50354.0,0.13924505090187583,-0.198015555498069,-0.09686530690436902,0.0003203330312789206,-0.01616901509149277,-0.0058948164709346764,29.15496432800137
1606,B,124392435069509.0,6.569331034493303,12.429489372171645,2.1938367618944072,32,1970-01-02 10:33:12.435069509,-0.1714325,0.9450531,-0.40130615,2.952592548385087,1.0409424047005111,-118.31784057617188,66.25665283203125,174.60060119628906,29205318.0,50354.0,0.23961536564822583,-0.013629061775869013,-0.015990493689769018,0.00953856870748191,-0.005328576529105938,-0.0028413704915586134,29.205318332009483
1606,B,124392485423512.0,7.166041184493304,18.649002372171644,2.8857312618944073,32,1970-01-02 10:33:12.485423512,-0.4868927,0.63775635,-1.2347412,3.937548026403458,1.4725432062442354,-118.33938598632812,66.18714904785156,174.6036376953125,29255672.0,50354.0,0.3458154663574259,0.28899398664733095,0.127888284134931,0.014739392057406294,0.006932862713488797,0.0028172506700378437,29.255672335013514
1606,B,124392535777516.0,6.678904384493304,14.415222472171646,6.490681161894408,32,1970-01-02 10:33:12.535777516,-0.4223938,0.45584106,-0.5677948,4.945533685953552,0.8417829465886106,-118.37539672851562,66.15135955810547,174.58737182617188,29306026.0,50354.0,0.34857419459037586,0.338988788906031,0.236069935593731,0.017482648493682806,0.015810722340106997,0.009163376098108524,29.306026339007076
1606,B,124392586131520.0,1.6377056844933033,0.1585387721716458,5.862476861894407,32,1970-01-02 10:33:12.586131520,0.30007935,0.07156372,0.7427063,16.116413969494367,0.8042273499305721,-118.4074935913086,66.18231964111328,174.53587341308594,29356380.0,50354.0,0.20938729170687584,-0.126545613151169,0.31101545956493104,0.014047796340505908,0.005348681835980161,0.013773968993909636,29.356380343000637
1606,B,124392636485524.0,-8.367390815506697,-2.400497227828355,-12.354167838105592,32,1970-01-02 10:33:12.636485524,-0.16802979,0.010192871,1.6349792,26.54698220841126,1.6436224899225815,-118.50530242919922,66.25394439697266,174.4381561279297,29406734.0,50354.0,-0.16943328254352422,-0.549914988038069,-0.163441303708069,0.0010059220887057038,-0.017031248556141448,0.0037154745220082156,29.40673434700875
1606,B,124392686839528.0,-4.9271598155066965,3.611785772171645,-5.950923338105593,32,1970-01-02 10:33:12.686839528,0.058776855,-0.7094574,-0.95306396,17.474063709187003,1.1895862444351535,-118.37995910644531,66.22894287109375,174.57191467285156,29457088.0,50354.0,-0.33471690123702424,-0.46297258831906907,-0.46086728054346904,-0.012692989177042868,-0.02550147050994367,-0.015718217225700975,29.457088351002312
1606,B,124392737193532.0,-1.1156968155066966,2.8878027721716464,2.0614820218944074,32,1970-01-02 10:33:12.737193532,-1.2834625,-0.86398315,-0.5247803,14.06319156001258,1.6337494409052638,-118.32953643798828,66.22637176513672,174.6971435546875,29507442.0,50354.0,-0.1521410013990242,-0.329829059219069,-0.09792446401824902,-0.012257621414667793,-0.019960367080067702,-0.014068699752830377,29.507442355010426
1606,B,124392787547536.0,0.5106304844933041,5.752395772171646,6.729328661894407,32,1970-01-02 10:33:12.787547536,-1.3152466,0.681839,-0.50860596,11.87645777174973,1.5663518325331898,-118.43589782714844,66.18778228759766,174.6527557373047,29557796.0,50354.0,-0.015233755015924185,-0.275934921249069,0.22132624058575098,-0.004213994242259156,-0.015251319736246313,0.0031068865286399973,29.557796359003987
1606,B,124392837901540.0,10.446421484493303,20.316025072171644,5.111668161894407,32,1970-01-02 10:33:12.837901540,-1.1926727,2.2785645,0.89193726,7.780081662273307,2.722108819603259,-118.77046966552734,66.1723861694336,174.3522186279297,29608150.0,50354.0,0.27586569742317585,0.16285543159803098,0.298120777032531,0.006561930413987376,-0.002847002310944184,0.013078117562575485,29.6081503630121
1606,B,124392888255544.0,8.782206384493303,20.335403772171645,6.101994161894407,32,1970-01-02 10:33:12.888255544,-0.14808655,0.8869934,-0.1795044,7.437258069782388,0.9170107674143323,-118.85603332519531,66.14317321777344,174.26678466796875,29658504.0,50354.0,0.48411916385747583,0.530011824014031,0.28232637632603097,0.01913413885246297,0.017444318894544886,0.014613917980108516,29.658504367005662
1606,B,124392938609548.0,-1.2905322155066967,6.478210772171646,0.6539197618944073,32,1970-01-02 10:33:12.938609548,0.3111267,-1.4619446,0.36044312,11.209521347622356,1.5375308386102,-118.715087890625,66.19414520263672,174.40386962890625,29708858.0,50354.0,0.1886178805525758,0.18161717338293104,0.17009364485923098,0.016937500567111873,0.017916683267463315,0.01139057887338134,29.708858371013775
1606,B,124392988963552.0,-4.826420815506696,-1.5871122278283547,-5.811320838105592,32,1970-01-02 10:33:12.988963552,0.4830475,-0.8327484,1.3785095,21.180726176900215,1.681396213433663,-118.68316650390625,66.27461242675781,174.41236877441406,29759212.0,50354.0,-0.1540065264618242,-0.370326011949069,-0.129847886895769,0.0008714100619428534,-0.004751122428579655,0.0010132674482460822,29.759212375007337
1606,B,124393039317555.0,1.424174184493304,1.7772527721716465,-1.5376543381055927,32,1970-01-02 10:33:13.039317555,1.5628052,0.8095703,0.4460907,14.449258925272092,1.8156985092287816,-118.91134643554688,66.33025360107422,174.11329650878906,29809566.0,50354.0,-0.08565836342902416,-0.48868203151506895,-0.18502514801146902,-0.00603404293278189,-0.021627245510296603,-0.007927558399859534,29.809566378011368
1606,B,124393089671559.0,1.9958294844933038,3.216369772171646,-1.9804796381055927,32,1970-01-02 10:33:13.089671559,1.6748657,0.3210144,0.82951355,13.067680600762046,1.896396078797215,-119.30409240722656,66.38333892822266,173.66311645507812,29859920.0,50354.0,0.08610543237407584,-0.36774476520106897,-0.08857605911906902,1.1255854829565914e-05,-0.021562257460922205,-0.006888457591925557,29.85992038200493
1606,B,124393140025563.0,4.221873184493304,12.194809272171646,0.010563461894407267,32,1970-01-02 10:33:13.140025563,0.47355652,0.85920715,-0.45628357,3.7458036058313495,1.0819830869739036,-119.34048461914062,66.3424072265625,173.5975341796875,29910274.0,50354.0,0.15654310009707584,-0.10546194520056897,-0.04959657956846902,0.006109162102026186,-0.011913925347782038,-0.0034787725242361456,29.910274386013043
