Subject-id_accel,Activity_accel,Timestamp_accel,accel_x,accel_y,accel_z,Segment_accel,DateTime,gyro_x,gyro_y,gyro_z,accel_magnitude,gyro_magnitude,Roll,Pitch,Yaw,Time_Difference,Difference_Microseconds,vx,vy,vz,dx,dy,dz,Time_diff
1602,B,99245969549924.0,-3.0277557,5.94353877382841,5.298663885040459,12,1970-01-02 03:34:05.969549924,-2.695877,0.69454956,-1.6168213,13.396551276298888,3.219357545622866,-92.19164276123047,1.8763422966003418,87.74172973632812,15005493.0,50354.0,-0.07027938798064001,-0.3787080394136443,0.1893255657669273,0.0005134616632000915,-0.023792304584293746,0.0031545880463010084,15.005493668999407
1602,B,99246019903928.0,-4.492859,11.753917773828409,6.6311831850404594,12,1970-01-02 03:34:06.019903928,-2.0290833,0.13668823,-0.99534607,10.068868901998973,2.264194450488709,-92.29325103759766,1.8263431787490845,87.73684692382812,15055847.0,50354.0,-0.18934651630190003,-0.04790033649964432,0.30035775968342726,-0.006536601392121512,-0.010740719080368867,0.012328757084863577,15.05584767300752
1602,B,99246070257932.0,-1.4211578,14.59992587382841,6.438998985040459,12,1970-01-02 03:34:06.070257932,-0.123794556,-0.12625122,0.18621826,7.344872676892751,0.2567911661334033,-92.29925537109375,1.8359018564224243,87.74279022216797,15106201.0,50354.0,-0.1488972009736,0.17004152151705573,0.32906797649612735,-0.008515962069845265,0.0030751486151833676,0.015847051759792646,15.106201677001081
1602,B,99246120611936.0,1.4106903,14.55503457382841,0.7754247150404594,12,1970-01-02 03:34:06.120611936,2.0881042,-0.22842407,0.5581665,3.6888250434556302,2.173454979413021,-92.19451904296875,1.8642362356185913,87.75311279296875,15156555.0,50354.0,-0.00026354024750000187,0.24056523919065573,0.18163754549693728,-0.0037554199817236354,0.010337846414338051,0.012858032927219388,15.156555680994643
1602,B,99246170965940.0,1.1009064,4.05521777382841,-3.6465113149595405,12,1970-01-02 03:34:06.170965940,2.8368225,0.0155181885,1.0434113,14.34487661434103,3.0226660172186177,-92.05277252197266,1.916343092918396,87.75039672851562,15206909.0,50354.0,0.06323447011590001,-0.024918876643044284,-0.07228534732616271,0.0015854191012967072,0.005429328469861213,0.0027531602933455915,15.206909685002756
1602,B,99246221319944.0,5.1142883,-1.50713022617159,-0.9033320149595405,12,1970-01-02 03:34:06.221319944,4.0007935,-0.41693115,1.0912323,20.070960923948572,4.167849343012037,-91.8520736694336,1.9715815782546997,87.76937866210938,15257263.0,50354.0,0.1564799569619,-0.4293159998126443,-0.11455140551737272,0.005531750130537772,-0.011436271484524871,-0.004703988926341692,15.257263688996318
1602,B,99246271673947.0,1.5418091,-1.50713022617159,-1.2898981149595405,12,1970-01-02 03:34:06.271673947,4.683426,-0.6912384,1.7748108,19.49178783948286,5.05591168820295,-91.6672134399414,1.899013876914978,87.79923248291016,15307617.0,50354.0,0.1675805642398,-0.5693592354086443,-0.055218954980972706,0.008158871742295203,-0.025143646397166385,-0.004274308366266843,15.307617692000349
1602,B,99246322027951.0,0.08381653,9.24918777382841,-2.4140436149595406,12,1970-01-02 03:34:06.322027951,3.493332,-3.311615,1.4395142,8.96774397421218,5.024177893193139,-91.48701477050781,1.975516438484192,87.9628677368164,15357971.0,50354.0,0.04092837648651,-0.29854741712264427,-0.09325414093417271,0.005249629600666307,-0.021851285790780255,-0.003738107135855616,15.357971696008462
1602,B,99246372381955.0,2.4972687,22.10840977382841,-3.4651453149595404,12,1970-01-02 03:34:06.372381955,0.65715027,-2.762146,0.1776886,6.0236897396217985,2.8447970474617397,-91.44937896728516,1.987939476966858,88.10077667236328,15408325.0,50354.0,0.06498398283571,0.29602103345735575,-0.14802033968857273,0.002666555470655533,-6.360676154096886e-05,-0.006074567598638862,15.408325700002024
1602,B,99246422735959.0,1.0220032,23.02549357382841,-6.569912214959541,12,1970-01-02 03:34:06.422735959,-2.5888214,0.6005707,-0.18106079,8.425331684548404,2.6637312958464627,-91.57986450195312,1.9780980348587036,88.07099151611328,15458679.0,50354.0,0.0886047086263,0.6428670845839557,-0.2526526434307727,0.0038669024849390258,0.0236383861479261,-0.010087743695995759,15.458679703995585
1602,B,99246473089963.0,1.4137878,11.46445837382841,4.5215031850404594,12,1970-01-02 03:34:06.473089963,-2.282196,1.2542572,0.2197113,7.961820327658255,2.6133986993024103,-91.69615173339844,1.9872868061065674,88.00794219970703,15509033.0,50354.0,0.061325910007,0.37488432018615575,-0.05157279414627273,0.003774803185330595,0.0256239271178971,-0.0076594838418772735,15.509033708003699
1602,B,99246523443967.0,-1.5393982,13.78355017382841,13.60371718504046,12,1970-01-02 03:34:06.523443967,0.9299164,0.78411865,-0.021575928,14.268792352426116,1.216573914292035,-91.65100860595703,1.9850620031356812,87.96875762939453,15559387.0,50354.0,-0.0031624930408000003,0.14219991120435574,0.45633867325752736,0.0014643803489580176,0.013018629693718909,0.010190790538384058,15.55938771199726
1602,B,99246573797971.0,-3.5233154,8.00425327382841,-10.22617781495954,12,1970-01-02 03:34:06.573797971,3.2305756,-0.70274353,-0.2111206,14.661535689307325,3.3128596535344776,-91.4882583618164,1.9754754304885864,88.00418853759766,15609741.0,50354.0,-0.1274639403072,0.05508232740165569,0.08503630872052735,-0.0032887817124025963,0.00496697492138355,0.013630197921261484,15.609741716005374
1602,B,99246624151975.0,5.6679688,2.8848532738284103,-13.06914881495954,12,1970-01-02 03:34:06.624151975,-1.2073517,2.7974548,-0.19648743,20.696466627878287,3.0532046763497425,-91.55342864990234,1.961943507194519,87.86454772949219,15660095.0,50354.0,0.053995938651799996,-0.2193141644496443,-0.5865064385614728,-0.0018497038776780063,-0.004134864961357209,-0.012625513459005483,15.660095719998935
1602,B,99246674505979.0,2.664566,-0.619022226171591,-4.809551514959541,12,1970-01-02 03:34:06.674505979,-3.6382294,1.597168,-0.9369354,19.30367923013369,4.08234083964354,-91.73799133300781,1.9128202199935913,87.78601837158203,15710449.0,50354.0,0.2097882286596,-0.43642237171314435,-0.4501320382063727,0.006641293980399117,-0.01650947877097053,-0.02609944692958405,15.710449724007049
1602,B,99246724859983.0,-2.9379578,-1.50713022617159,2.5227696850404597,12,1970-01-02 03:34:06.724859983,-3.9087372,-0.14932251,-1.2961731,19.76649921890561,4.120750952899259,-91.93311309814453,1.848279356956482,87.79557037353516,15760803.0,50354.0,-0.0068831853485999935,-0.5469993402926443,-0.057574306131872706,0.0051085402754410475,-0.024759608443169743,-0.012782522631404006,15.76080372800061
1602,B,99246775213987.0,1.5647888,6.16021377382841,6.598316185040459,12,1970-01-02 03:34:06.775213987,-3.038971,0.5205231,-1.5729218,13.528760743645643,3.461267401601594,-92.08578491210938,1.768770456314087,87.77230072021484,15811157.0,50354.0,-0.034572275913,-0.3763185155206443,0.2296415789510273,-0.0010437241481833033,-0.02324637365581117,0.004332137727767855,15.811157731994172
1602,B,99246825567990.0,-3.174759,13.241756373828409,3.3899876850404596,12,1970-01-02 03:34:06.825567990,-2.4981232,0.52015686,-1.1434784,6.551818569105086,2.7961984072397046,-92.21143341064453,1.7106631994247437,87.74845123291016,15861511.0,50354.0,-0.0405342197254,-0.004985797592444312,0.2514755265370273,-0.0018909562406879967,-0.009600098691248234,0.012113085364872753,15.861511734998203
1602,B,99246875921994.0,-5.5703278,13.44326377382841,9.60567068504046,12,1970-01-02 03:34:06.875921994,-0.7646942,-0.6680908,-0.260437,11.939294647847756,1.0482986060885895,-92.24864959716797,1.6989511251449585,87.78234100341797,15911865.0,50354.0,-0.2201750503636,0.1783795522575557,0.32719169078352733,-0.006563877293030754,0.00436553456120351,0.014569104530479606,15.911865739006316
1602,B,99246926275998.0,1.5581818,15.90545267382841,2.5846745850404598,12,1970-01-02 03:34:06.926275998,2.1185913,1.1445007,0.18502808,3.590170348018602,2.415066528923099,-92.1444320678711,1.7060046195983887,87.72476959228516,15962219.0,50354.0,-0.10101379984200001,0.24544343400265572,0.30691632286482734,-0.008086571681626391,0.010670591325073343,0.015964937459624625,15.962219742999878
1602,B,99246976630002.0,-0.3735962,8.55628577382841,0.8265111450404594,12,1970-01-02 03:34:06.976630002,2.9707184,-0.66770935,0.66249084,9.365011493220107,3.1160708755193434,-91.81856536865234,1.755079746246338,87.76229858398438,16012573.0,50354.0,0.029824311651200006,0.12240398889665574,0.0858834231262473,-0.001792337744179772,0.009261294566335966,0.009889519204817288,16.01257374700799
1602,B,99247026984006.0,9.636185,-0.5151402261715887,-5.032467114959541,12,1970-01-02 03:34:07.026984006,3.389328,-0.8627777,1.6914368,21.37193479648734,3.884956640632625,-91.64781951904297,1.8409109115600586,87.8028793334961,16062926.999999998,50353.99999999814,0.23320419821759136,-0.29101727854663345,-0.10589335345464879,0.006622268792966316,-0.0042451767935173315,-0.0005037900158781454,16.062927751001553
1602,B,99247077338010.0,5.7744446,-1.50713022617159,-2.1107752149595402,12,1970-01-02 03:34:07.077338010,5.265869,-0.096206665,2.182129,20.34023153575111,5.700905105348836,-91.38447570800781,1.950108528137207,87.80481719970703,16113281.0,50354.00000000186,0.38799342143921434,-0.5443839031786644,-0.17984541214037936,0.015639892470099975,-0.0210328955522986,-0.0071940449013862895,16.113281754995114
1602,B,99247127692014.0,-2.58461,1.0992387738284108,-7.5706141149595405,12,1970-01-02 03:34:07.127692014,3.2745667,-1.6522522,1.8946381,18.598409326541926,4.128241506395349,-91.21793365478516,2.046689748764038,87.88529968261719,16163635.0,50354.0,0.0803104657242,-0.5037386830956443,-0.24374833915937275,0.011790486967113283,-0.026388582354628272,-0.010664819876473858,16.163635759003228
1602,B,99247178046018.0,2.6200714,21.57264317382841,-3.2452051149595404,12,1970-01-02 03:34:07.178046018,1.5856476,-2.906189,0.30325317,5.584164729283817,3.3244812076806527,-91.1334457397461,2.0648322105407715,88.03036499023438,16213989.000000002,50354.00000000186,0.0008928116678000325,0.07734077179615861,-0.2723098807516828,0.0020444549148984606,-0.010735420212787549,-0.012992797802701125,16.21398976299679
1602,B,99247228400022.0,-0.061935425,28.09283077382841,-5.829326814959541,12,1970-01-02 03:34:07.228400022,-1.8223572,0.074905396,-0.32452393,11.77129894745053,1.8525421355219969,-91.22470092773438,2.0485334396362305,88.02696228027344,16264343.0,50353.99999999814,0.06440618944257262,0.7569584375801278,-0.22846949039956424,0.0016440329509557915,0.021005151194465985,-0.01260812222747448,16.264343767004902
1602,B,99247278754026.0,1.2961121,13.49308377382841,0.23120474504045943,12,1970-01-02 03:34:07.278754026,-3.465622,0.68855286,0.25297546,4.578400565498716,3.5424056051305577,-91.39923095703125,2.0603930950164795,87.99222564697266,16314696.999999998,50353.99999999814,0.03107286614647385,0.5535393705663353,-0.1409439193543475,0.002403876182565334,0.03299440331570228,-0.009300721417373892,16.314697770998464
1602,B,99247329108029.0,2.5807953,4.732875773828409,16.42839418504046,12,1970-01-02 03:34:07.329108029,1.9085083,-1.3751984,0.2184906,21.181264793052375,2.362480203688448,-91.30132293701172,2.0729329586029053,88.06074523925781,16365051.000000002,50354.000000003725,0.09760889760980722,-0.03459421646864686,0.41943872226267825,0.003239820766092128,0.013065482144718466,0.007011663652823561,16.365051774002495
1602,B,99247379462033.0,19.044586,-1.4331402261715915,-4.295467814959541,12,1970-01-02 03:34:07.379462033,1.5706787,1.626648,-1.0158691,27.464649537490732,2.4789121248790766,-91.22565460205078,2.0203614234924316,87.9804916381836,16415405.0,50353.99999999814,0.5444622249900799,-0.4103917581166292,0.30547068721951603,0.016165424653696758,-0.01120341188213308,0.01825104420253253,16.415405777996057
1602,B,99247429816037.0,-11.955429,16.64611427382841,-15.12577481495954,12,1970-01-02 03:34:07.429816037,-1.9689941,1.8764038,0.48127747,19.336955120939216,2.7621471701592677,-91.32746124267578,2.042332649230957,87.8861083984375,16465758.999999998,50353.99999999814,0.17848370578899336,-0.11045215240214024,-0.4889686256934546,0.018201609699224054,-0.013113287135130573,-0.004619927596958181,16.46575978200417
1602,B,99247480170041.0,1.6352844,-1.2679332261715892,-2.3748286149595406,12,1970-01-02 03:34:07.480170041,-3.7251434,0.77926636,-0.3610077,19.36579701139855,3.822862274507218,-91.6595458984375,1.8517816066741943,87.84295654296875,16516113.0,50354.00000000186,-0.25983028059420965,-0.1062927357631482,-0.440612692555089,-0.0020480627138710064,-0.005456986049337668,-0.02340406884954445,16.51611378599773
1602,B,99247530524045.0,-2.2721558,-1.50713022617159,-0.5319025549595406,12,1970-01-02 03:34:07.530524045,-4.1025085,0.24435425,-1.1238861,19.526918477445005,4.26068127860305,-91.86447143554688,1.91585111618042,87.83226776123047,16566467.0,50354.0,-0.016034511237800007,-0.5633369725396443,-0.07318277066505272,-0.006945447863954508,-0.01685926716593941,-0.012935828377493509,16.566467790005845
1602,B,99247580878049.0,2.1538239,1.8421127738284113,4.074802185040459,12,1970-01-02 03:34:07.580878049,-3.2615662,0.055252075,-1.5794678,16.680839552310793,3.624304816100749,-92.02754974365234,1.836829423904419,87.8321762084961,16616821.000000002,50354.00000000186,-0.002979242246300117,-0.48503534439766216,0.08919958398655059,-0.0004787092714692065,-0.026394869823531543,0.00040325530899536693,16.616821793999407
1602,B,99247631232053.0,-0.6586151,11.41558447382841,4.414706985040459,12,1970-01-02 03:34:07.631232053,-2.654602,1.1187592,-1.519928,7.842537486720923,3.2571022475772295,-92.16195678710938,1.758839726448059,87.7790298461914,16667175.0,50353.99999999814,0.0376448719575986,-0.15968015639573832,0.21374037237511936,0.0008727765592413296,-0.016232002163474844,0.007627119281317481,16.66717579800752
1602,B,99247681586057.0,-5.4105225,13.46326817382841,8.05232618504046,12,1970-01-02 03:34:07.681586057,-1.3327942,0.14215088,-0.5003357,10.642146996366307,1.4306932113255113,-92.2287826538086,1.7335699796676636,87.77288055419922,16717528.999999998,50353.99999999814,-0.15280267735519434,0.13290567311005083,0.3138824941231157,-0.0028993280664951606,-0.000674101165683729,0.013283960909825573,16.71752980200108
1602,B,99247731940061.0,0.2259674,16.86246857382841,4.291324185040459,12,1970-01-02 03:34:07.731940061,1.6746368,0.94441223,0.4731598,4.394221860021339,1.9799502691794693,-92.14651489257812,1.755411148071289,87.72476959228516,16767883.000000002,50354.000000003725,-0.13053154375270964,0.2700418740957757,0.31077608536755025,-0.007133505684834225,0.010145010396001844,0.015727029055837657,16.767883805994643
1602,B,99247782294065.0,-1.6027222,7.464900773828409,-5.14435981495954,12,1970-01-02 03:34:07.782294065,2.9325562,-1.4251404,0.8544769,11.735479356465413,3.37061445414693,-91.99772644042969,1.8006813526153564,87.79447174072266,16818237.0,50353.99999999814,-0.034662555599598716,0.11902097806595127,-0.02147687805447192,-0.004159091839392914,0.009795435428875437,0.007283686142521104,16.818237810002756
1602,B,99247832648069.0,7.175888,-1.50713022617159,-2.9683649149595404,12,1970-01-02 03:34:07.832648069,2.6970215,-1.6065369,2.2942047,20.887036421334535,3.8882207998036775,-91.86038970947266,1.9180326461791992,87.87092590332031,16868591.0,50354.0,0.1403155953466,-0.3434704109216443,-0.2042540705251727,0.002660026581710252,-0.0056509633710077846,-0.005683228092389713,16.868591813996318
1602,B,99247883002072.0,6.146225,-1.3640942261715914,-1.0421564149595406,12,1970-01-02 03:34:07.883002072,5.0720367,-0.23094177,1.5950928,20.229049810798898,5.321955601833734,-91.60648345947266,1.9980968236923218,87.88008117675781,16918945.0,50354.0,0.335410839001,-0.5657580180366444,-0.10097289552337271,0.011977364437569525,-0.022891644155882837,-0.007684699324204227,16.91894581700035
1602,B,99247933356076.0,-0.47769165,2.0294607738284096,1.0783116850404595,12,1970-01-02 03:34:07.933356076,4.1764526,-1.3561096,1.4768219,15.89208129960843,4.632795321571905,-91.26004791259766,2.0669302940368652,87.95074462890625,16969299.0,50354.0,0.14271666415295003,-0.4767172664296444,0.0009102812348272952,0.012037816146907,-0.026246400237007753,-0.002519276439942708,16.969299821008462
1602,B,99247983710080.0,0.9042511,18.09322729382841,-2.80096081495954,12,1970-01-02 03:34:07.983710080,1.8396759,-3.7482452,0.4295807,2.972275747197026,4.197414570205848,-91.16127014160156,2.092360734939575,88.13778686523438,17019653.0,50354.0,0.010739487272649999,0.013159717479395696,-0.0433711371439727,0.0038635655244423322,-0.011670988409920412,-0.001069036969224554,17.019653825002024
1602,B,99248034064084.0,2.4510956,24.51267617382841,-4.169979314959541,12,1970-01-02 03:34:08.034064084,-1.5489502,-0.8023987,-0.37857056,8.221070942417,1.7850507176941621,-91.23723602294922,2.0742759704589844,88.17831420898438,17070007.0,50354.0,0.08447756386590001,0.5792196316051957,-0.1755073596509727,0.0023972796965152734,0.01491433487190276,-0.00551070391380634,17.070007828995585
1602,B,99248084418088.0,0.42218018,16.54114907382841,-1.2309992149595406,12,1970-01-02 03:34:08.084418088,-3.2637177,1.262146,-0.3210907,1.881357062323227,3.51396712964646,-91.4026870727539,2.056774139404297,88.11554718017578,17120361.0,50354.0,0.07234046431306,0.5401429582602558,-0.13598043644777272,0.0039482074954616765,0.028182191925042475,-0.007842328242378115,17.1203618330037
1602,B,99248134772092.0,1.0176544,2.819514773828409,12.12677318504046,12,1970-01-02 03:34:08.134772092,-0.38842773,0.61735535,0.39483643,19.348075834305057,0.8293970919057531,-91.42324829101562,2.075748920440674,88.08419036865234,17170715.0,50354.0,0.03625071522066001,-0.006025766307544278,0.2743229012447273,0.002734000127120469,0.01344746854179342,0.0034830482361929258,17.17071583699726
1602,B,99248185126096.0,-0.841568,20.28573217382841,-0.8864405149595405,12,1970-01-02 03:34:08.185126096,2.1057281,1.3404999,-0.3377838,2.7065444617585075,2.5189538917122043,-91.32036590576172,2.0572595596313477,88.01754760742188,17221069.0,50354.0,0.004433327292800002,0.08825160240115572,0.2829978556346273,0.0010243021383613826,0.0020701998753288554,0.014031664695951511,17.221069841005374
1602,B,99248235480100.0,10.536041,24.88412077382841,-12.04276681495954,12,1970-01-02 03:34:08.235480100,-0.568985,0.53634644,-0.9922638,17.482655667058168,1.2633284935898952,-91.3497314453125,2.0070345401763916,87.99188232421875,17271423.0,50354.0,0.24407774672100002,0.6437721876631559,-0.3255186529453727,0.006256763310445443,0.018430162962449176,-0.0010705461138926363,17.271423844998935
1602,B,99248285834104.0,5.9547577,-1.2246742261715902,-8.76794081495954,12,1970-01-02 03:34:08.285834104,-3.4554749,2.0266418,-0.7798004,21.856047935620524,4.081136169484842,-91.52596282958984,1.965509295463562,87.89149475097656,17321777.0,50354.0,0.4151888388699,0.10220468573035574,-0.5239511859984727,0.01659835482542209,0.018781459741428447,-0.021387102135089195,17.32177784900705
1602,B,99248336188108.0,0.5183716,-0.5710942261715886,-1.6399653149595406,12,1970-01-02 03:34:08.336188108,-3.9336548,0.77516174,-1.2493591,18.532299449116717,4.199454008496304,-91.81436920166016,1.812879204750061,87.85166931152344,17372131.0,50354.0,0.1629739763861,-0.5386812623246443,-0.2620398526329727,0.014556405199700313,-0.010989170768914404,-0.019788896379623902,17.37213185300061
1602,B,99248386542112.0,-0.05807495,1.4538377738284112,5.4678991850404595,12,1970-01-02 03:34:08.386542112,-3.4044952,0.6051178,-1.3806915,17.304649649883885,3.723313596364417,-91.98545837402344,1.7428770065307617,87.82369995117188,17422485.0,50354.0,0.011588888757050001,-0.47124436570064426,0.0963758910470273,0.004394969255709088,-0.025426897536792694,-0.004170921560849347,17.42248585699417
1602,B,99248436896115.0,-1.3315125,11.14760977382841,5.802234185040459,12,1970-01-02 03:34:08.436896115,-2.4637146,1.0297241,-1.3044128,8.971893002486947,2.9718199987848877,-92.11011505126953,1.6758601665496826,87.7745590209961,17472839.0,50354.0,-0.034985643228650005,-0.17620255509264426,0.2837481478585273,-0.0005890600873314733,-0.016300771124812624,0.00957038292752515,17.472839859998203
1602,B,99248487250119.0,-4.8878937,14.31412877382841,5.322681185040459,12,1970-01-02 03:34:08.487250119,-1.3541718,0.24954224,-0.45144653,8.04332969463839,1.4490881832754343,-92.17816925048828,1.652837872505188,87.76293182373047,17523193.0,50354.0,-0.1565859898974,0.14758099141435574,0.28009199427252723,-0.004823199007214561,-0.0007206051087282702,0.014195803258433563,17.523193864006316
1602,B,99248537604123.0,-2.5137787,15.28191747382841,5.573566185040459,12,1970-01-02 03:34:08.537604123,0.9179535,-0.12580872,0.38623047,6.624298650355581,1.003812949780341,-92.13211059570312,1.6723735332489014,87.76849365234375,17573547.0,50354.0,-0.18635190601480003,0.2516704563772557,0.27433482003652726,-0.008634147405381461,0.010051953701049403,0.013958803903859066,17.573547867999878
1602,B,99248587958127.0,1.2971344,10.84330377382841,-0.026775597959540556,12,1970-01-02 03:34:08.587958127,2.6318054,0.31958008,0.7604828,7.154657567593484,2.7580546006375233,-92.00102996826172,1.709795355796814,87.75115203857422,17623901.0,50354.0,-0.0306314535411,0.16428549535225576,0.1396515466109363,-0.005462990043538896,0.010472522996693911,0.010422934753083191,17.62390187200799
1602,B,99248638312131.0,1.3440857,-1.50713022617159,-0.42156624495954054,12,1970-01-02 03:34:08.638312131,3.414215,-0.84020996,1.2447662,19.437960036658957,3.7299141727083533,-91.81196594238281,1.631759762763977,87.7913589477539,17674255.0,50354.0,0.0664979984577,-0.2584123585906443,-0.011287902579173704,0.0009030120013652383,-0.002369832035752909,0.003231811465787687,17.674255876001553
1602,B,99248688666135.0,7.396591,-1.50713022617159,-0.41845345495954056,12,1970-01-02 03:34:08.688666135,4.48938,-1.0914612,1.3664703,20.75414485432943,4.817993505214337,-91.5859603881836,1.7016724348068237,87.84390258789062,17724609.0,50354.0,0.2200640172759,-0.5693592354086443,-0.021149175984862705,0.007214771870124848,-0.020840805422120093,-0.0008166683270067447,17.724609879995114
1602,B,99248739020139.0,-0.7758179,1.8266407738284087,-3.3653834149595405,12,1970-01-02 03:34:08.739020139,3.932434,-0.8539429,1.7649536,16.424489806080334,4.394122989968461,-91.38811492919922,1.7909979820251465,87.88432312011719,17774963.0,50354.0,0.16669120433870002,-0.4854248829416443,-0.09526566087395272,0.009737336214590785,-0.02655629974770522,-0.002930976347594396,17.774963884003228
1602,B,99248789374143.0,0.45083618,14.48226537382841,-4.036724314959541,12,1970-01-02 03:34:08.789374143,1.7375336,-2.7354584,0.9566498,5.312106165944352,3.378895456965125,-91.29693603515625,1.8420231342315674,88.02000427246094,17825317.0,50354.0,-0.00818206476444,-0.08285986992044432,-0.18636286631617272,0.003990784607061145,-0.014307705222808808,-0.0070905614290657885,17.82531788799679
1602,B,99248839728147.0,1.2192078,24.51388177382841,-3.6849940149595404,12,1970-01-02 03:34:08.839728147,-1.222229,-1.1580048,-0.03425598,7.69736306703999,1.6840404738098786,-91.35619354248047,1.8416507244110107,88.07797241210938,17875671.0,50354.0,0.042046697284460005,0.48833679673655567,-0.19440970239237274,0.0008526098529565437,0.010208692586449237,-0.00958671096237505,17.875671892004902
1602,B,99248890082151.0,0.9205475,15.925838373828409,2.0637700850404594,12,1970-01-02 03:34:08.890082151,-2.887497,0.53990173,-0.384964,2.9716337977415757,2.9626559173083185,-91.50141143798828,1.8217389583587646,88.05143737792969,17926025.0,50354.0,0.053872619188100004,0.5246816341575556,-0.0408175548835727,0.0024149606308296436,0.02550476503462104,-0.0059223166564364785,17.926025895998464
1602,B,99248940436154.0,3.1250916,13.482997773828409,6.879779585040459,12,1970-01-02 03:34:08.940436154,-0.06916809,0.57092285,-0.12635803,8.724542691584546,0.5888153166077216,-91.50578308105469,1.8146746158599854,88.02306365966797,17976379.0,50354.0,0.10185705562070001,0.24695706768955566,0.22517175004362727,0.003920806022661158,0.019427547596404724,0.004641485571544694,17.976379899002495
1602,B,99248990790158.0,-6.6020203,13.91846837382841,-8.15194381495954,12,1970-01-02 03:34:08.990790158,3.6121674,0.102874756,-0.2766266,11.229111890090527,3.6242045771275633,-91.3253173828125,1.8007222414016724,88.01824188232422,18026733.0,50354.0,-0.0875386338799,0.19641751319955572,-0.03202927881667269,0.00036049490416812166,0.01116284182304516,0.004862747998081036,18.026733902996057
1602,B,99249041144162.0,-6.8934784,2.7310597738284095,-14.89583981495954,12,1970-01-02 03:34:09.041144162,1.414032,0.5617523,-0.4016266,22.35036002765335,1.5736442003854778,-91.25548553466797,1.780011534690857,87.99060821533203,18077087.0,50354.0,-0.3397761707699,-0.07428402982644428,-0.5802740484504727,-0.010758504836668016,0.003074954710884827,-0.015415960870604921,18.07708790700417
1602,B,99249091498166.0,1.0577545,3.705836773828409,-6.471904814959541,12,1970-01-02 03:34:09.091498166,-3.43013,2.277542,-0.5184479,15.626220418165433,4.149912963385908,-91.43048095703125,1.7514272928237915,87.87731170654297,18127441.0,50354.0,-0.14692602063030002,-0.33140745561964435,-0.5379757065474727,-0.012253701072882837,-0.010214094529076173,-0.028154174081583275,18.12744191099773
1602,B,99249141852170.0,-1.4420166,-1.50713022617159,-0.5554621149595405,12,1970-01-02 03:34:09.141852170,-3.7469635,0.10066223,-1.0703735,19.448494414490778,3.8981492768213837,-91.62483215332031,1.7602884769439697,87.87338256835938,18177795.0,50354.0,-0.009674566891700005,-0.4381123652496443,-0.1769280171945727,-0.003942732992041395,-0.01937420053002608,-0.01799913105265348,18.177795915005845
1602,B,99249192206174.0,0.8565674,2.895579773828409,4.303470185040459,12,1970-01-02 03:34:09.192206174,-3.225174,0.17100525,-1.2368927,15.606775792861278,3.4584524974498136,-91.78630065917969,1.6982216835021973,87.86668395996094,18228149.0,50354.0,-0.014739854508400005,-0.4585122057386443,0.0943635991804273,-0.0006146818875903179,-0.022574316823772145,-0.002078724352342139,18.228149918999407
1602,B,99249242560178.0,-0.3692932,10.12063207382841,3.9019658850404597,12,1970-01-02 03:34:09.242560178,-2.3545685,0.69677734,-1.1865082,8.682378911348572,2.7271401121682337,-91.90499114990234,1.6378068923950195,87.83375549316406,18278503.0,50354.0,0.0122681025334,-0.1657600343115443,0.20658826393642732,-6.22312994745751e-05,-0.015717302187743597,0.007577065057693049,18.27850392300752
1602,B,99249292914182.0,-5.857086,13.13062677382841,4.001544685040459,12,1970-01-02 03:34:09.292914182,-1.5185242,0.037002563,-0.46113586,8.525772240384928,1.5874291218924228,-91.98095703125,1.6147030591964722,87.83268737792969,18328857.0,50354.0,-0.1567615491184,0.09192774400745575,0.1989866856229273,-0.0036379115046705456,-0.0018588755729860374,0.01021116050505587,18.32885792700108
1602,B,99249343268186.0,-1.5749359,15.97132477382841,5.2666966850404595,12,1970-01-02 03:34:09.343268186,0.42860413,0.42437744,0.23678589,5.798612706505158,0.6479701146944222,-91.96014404296875,1.6258031129837036,87.81106567382812,18379211.0,50354.0,-0.1871160153763,0.23923063411535575,0.2333465129745273,-0.008657805441283061,0.008337574485998025,0.010884852941088114,18.379211930994643
1602,B,99249393605066.0,-0.26115417,10.492565073828409,1.4472233850404594,12,1970-01-02 03:34:09.393605066,2.3890533,-0.09875488,0.5127716,7.527366249775024,2.4454576075514507,-91.84056854248047,1.651592493057251,87.81514739990234,18429548.0,50337.0,-0.046211632926795,0.17275381163075063,0.1689792972838316,-0.005872506916316446,0.010369030522760878,0.010125937155487506,18.429548811007407
1602,B,99249443959070.0,4.364853,0.9047657738284087,-4.061275814959541,12,1970-01-02 03:34:09.443959070,2.9329376,-1.4265442,1.3630371,17.99610917998852,3.534829763372461,-91.69188690185547,1.7219125032424927,87.88436889648438,18479902.0,50354.0,0.10331882544291,-0.20651860124854435,-0.06581399802807272,0.0014377877859782276,-0.0008500961082071926,0.002597392739362241,18.47990281500097
1602,B,99249494313073.0,7.1219788,-1.50713022617159,-3.47434641495954,12,1970-01-02 03:34:09.494313073,4.0326843,-0.70155334,1.9708099,20.947075951864868,4.54299586333398,-91.4892349243164,1.8213887214660645,87.91670989990234,18530256.0,50354.0,0.28920396422860006,-0.5086349298166444,-0.18972436088267272,0.009882546275559609,-0.018005420451628257,-0.006433689262295838,18.530256818005
1602,B,99249544667077.0,0.8805084,0.4499927738284093,-1.3726618149595406,12,1970-01-02 03:34:09.544667077,4.1157684,-0.5927124,1.6281128,17.5071227717604,4.465602848561005,-91.35967254638672,1.7861053943634033,87.94175720214844,18580610.0,50354.0,0.2014786202344,-0.5200847496376443,-0.1220331262046727,0.012353915429024953,-0.025900075369620624,-0.007849118252398096,18.58061082199856
1602,B,99249595021081.0,-1.0334473,12.02036677382841,-1.8367579149595405,12,1970-01-02 03:34:09.595021081,2.4678192,-2.7750702,0.7684021,6.23300925393628,3.792306423022946,-91.23192596435547,1.827651858329773,88.07966613769531,18630964.0,50354.0,-0.0038505426853,-0.1795029576686443,-0.08080356054017271,0.004975682108453691,-0.01761351970685043,-0.005106819262174973,18.630964826006675
1602,B,99249645375085.0,2.5421906,25.69392007382841,-4.332378814959541,12,1970-01-02 03:34:09.645375085,-0.27438354,-1.7385559,-0.1701355,9.300305977966081,1.7682785506836844,-91.24288177490234,1.8210231065750122,88.16680908203125,18681318.0,50354.0,0.0379856300641,0.45606339996345574,-0.15532035544917272,0.0008594190949360477,0.006962962255656469,-0.00594489183286375,18.681318830000237
1602,B,99249695729089.0,1.1411438,19.86649697382841,-3.6218836149595406,12,1970-01-02 03:34:09.695729089,-2.9140778,0.5953064,-0.3630066,4.304850784069144,2.9963332468164086,-91.38951110839844,1.8021931648254395,88.137451171875,18731672.0,50354.0,0.0927353101888,0.6536054200088557,-0.20026446519807273,0.0032911611127472637,0.027938131880442887,-0.0089525590294357,18.73167283400835
1602,B,99249746083093.0,-1.5478973,3.989146773828409,11.341251185040461,12,1970-01-02 03:34:09.746083093,-0.4836731,-1.1372223,0.19325256,17.984666742947987,1.250824040074164,-91.41190338134766,1.813246488571167,88.19407653808594,18782026.0,50354.0,-0.0102408328695,0.10714434263475574,0.19435051731192735,0.0020769634554680164,0.019153396774078204,-0.0001488954659294823,18.78202683800191
1602,B,99249796437097.0,1.4887695,5.2360797738284095,-6.1580012149595404,12,1970-01-02 03:34:09.796437097,0.26016235,1.1621704,-0.2922516,14.151394230761356,1.2262689283742954,-91.40071105957031,1.7972149848937988,88.13632202148438,18832380.0,50354.0,-0.0014886606205999988,-0.26120567120964433,0.13049868449672733,-0.0002953134576002477,-0.00387880206952997,0.0081787283539365,18.832380841995473
1602,B,99249846791101.0,0.78889465,24.67660127382841,-5.7697871149595406,12,1970-01-02 03:34:09.846791101,-0.44647217,1.1599884,-0.46647644,8.965227119561742,1.3275958555954226,-91.4248275756836,1.7724673748016357,88.07888793945312,18882734.0,50354.0,0.05734475030455,0.25964237073685575,-0.3003059267823727,0.0014062887699728094,-3.9359216003397976e-05,-0.004275236939025694,18.882734846003586
1602,B,99249897145105.0,4.3341827,9.547191773828409,-3.1328852149595403,12,1970-01-02 03:34:09.897145105,-2.6722717,1.0681152,-0.55574036,9.907736651276823,2.9309987149135464,-91.56005859375,1.7433006763458252,88.02619934082031,18933088.0,50354.0,0.12898371844095002,0.36818323756085575,-0.22414258125037273,0.0046911918576054545,0.015806765340111485,-0.013204040086740433,18.933088849997148
1602,B,99249947499109.0,1.3610535,-1.50713022617159,-4.372265114959541,12,1970-01-02 03:34:09.947499109,-3.912094,0.75413513,-0.90270996,19.924748197999655,4.085105204400411,-91.75674438476562,1.6970924139022827,87.98978424072266,18983442.0,50354.0,0.14338896180740002,-0.2910445704146443,-0.1889571698563727,0.006857526970612709,0.0019421202227401652,-0.010400612433614531,18.98344285400526
1602,B,99249997853113.0,2.980835,0.5335197738284094,3.1696660850404594,12,1970-01-02 03:34:09.997853113,-3.3345184,0.45095825,-1.2575989,17.87916474595184,3.5922042392468208,-91.92407989501953,1.6335244178771973,87.96926879882812,19033796.0,50354.0,0.10931572676449999,-0.5179817903586443,-0.03027783577627272,0.006362345944174726,-0.020368856685189087,-0.005519679736813114,19.033796857998823
1602,B,99250048207116.0,0.090774536,7.84661477382841,4.924747185040459,12,1970-01-02 03:34:10.048207116,-2.6105652,1.1539459,-1.4941406,11.166699832737066,3.2216607419382646,-92.05613708496094,1.5568598508834839,87.91417694091797,19084150.0,50354.0,0.07733391328787201,-0.2824825524936443,0.2037930429008273,0.00469927798759857,-0.020153290759992074,0.004368592369774911,19.084150861002854
1602,B,99250098561120.0,-7.117462,12.02573777382841,4.655444885040459,12,1970-01-02 03:34:10.098561120,-1.8017731,0.54577637,-0.7980652,10.31442347340472,2.044790016941844,-92.14692687988281,1.5159801244735718,87.88835906982422,19134504.0,50354.0,-0.17691091028112801,0.006857020092355736,0.2412004957484273,-0.0025070500532992064,-0.006939424029267243,0.011203602322572285,19.134504864996416
1602,B,99250148915124.0,-1.8800659,15.63563147382841,6.711963185040459,12,1970-01-02 03:34:10.148915124,0.5407715,-0.10765076,0.15925598,7.30202571361362,0.5739206987960863,-92.11974334716797,1.5241400003433228,87.89344024658203,19184858.0,50354.0,-0.22653075993830002,0.2029610935482557,0.2861972329804273,-0.01015745093111454,0.005282590647129674,0.013278292616206373,19.18485886900453
1602,B,99250199269128.0,1.8321075,12.92678437382841,0.45871328504045944,12,1970-01-02 03:34:10.199269128,2.3404083,-0.19586182,0.38868713,5.298461741451383,2.3805357691642106,-92.00248718261719,1.5439153909683228,87.90253448486328,19235212.0,50354.0,-0.0012074486367999989,0.22564674379645572,0.1805361214872273,-0.005733764877295293,0.0107910595208278,0.01175094566543214,19.23521287299809
1602,B,99250249623132.0,1.793869,1.4140427738284096,-4.185772214959541,12,1970-01-02 03:34:10.249623132,2.537506,-0.9070587,1.7603302,17.088833166189005,3.2187660055235034,-91.87444305419922,1.6334184408187866,87.94490051269531,19285566.0,50354.0,0.09129121034050001,-0.1324101949034443,-0.09383616267857271,0.0022680388684140555,0.0023474165914793487,0.002182844862925497,19.285566877006204
1602,B,99250299977136.0,4.6745605,-1.50713022617159,-0.9488337149595405,12,1970-01-02 03:34:10.299977136,4.5426636,-0.7314148,1.4644623,19.965604223325123,4.828603319858165,-91.64630889892578,1.707733392715454,87.97920989990234,19335920.0,50354.0,0.1628556495215,-0.4958128627876443,-0.12927397349757272,0.006398655490745575,-0.015816771923488536,-0.005617243898506814,19.335920880999765
1602,B,99250350331140.0,0.38206482,-0.3175242261715887,0.40153861504045946,12,1970-01-02 03:34:10.350331140,4.3764343,-0.5930176,1.5947571,18.204707529024827,4.695540146152161,-91.35568237304688,1.715542197227478,88.00871276855469,19386274.0,50354.0,0.12731065568164002,-0.5394085251466443,-0.013779248730662705,0.007305517066099457,-0.026063768884021586,-0.003601650976040283,19.38627488500788
1602,B,99250400685144.0,0.2424469,12.18095007382841,-2.5745661149595405,12,1970-01-02 03:34:10.400685144,2.5078888,-3.0381622,0.8312683,6.266813151392802,4.026281506956408,-91.22569274902344,1.7605156898498535,88.15971374511719,19436628.0,50354.0,0.01572333157444,-0.19478372743354427,-0.054710313365462705,0.003601166697146327,-0.018484758343211408,-0.0017243617048941498,19.43662888900144
1602,B,99250451039148.0,4.9370575,27.24235177382841,-3.7582667149595403,12,1970-01-02 03:34:10.451039148,-0.5046234,-1.390976,-0.28881836,11.23991155061571,1.5076057354217811,-91.248779296875,1.7475800514221191,88.22958374023438,19486982.0,50354.0,0.1304043822788,0.49909127061845576,-0.1594417321588727,0.0036790574516830238,0.007661551014766517,-0.005391706050166193,19.486982892995
1602,B,99250501393152.0,0.35902405,18.444393073828408,-4.5876428149595405,12,1970-01-02 03:34:10.501393152,-3.3417206,1.0625916,-0.5960083,4.658340813785579,3.556883941109663,-91.4174575805664,1.7165517807006836,88.1771469116211,19537336.0,50354.0,0.13333944518435,0.6567859750294557,-0.2101249642347727,0.0066402783440397285,0.029101521413677466,-0.00930458071510281,19.537336897003115
1602,B,99250551747155.0,0.94151306,0.6473807738284094,14.50314718504046,12,1970-01-02 03:34:10.551747155,-0.5450897,-0.361969,0.5018921,22.52813737146315,0.8246453892731711,-91.4441909790039,1.742091178894043,88.19461822509766,19587690.0,50354.0,0.03274362281847,-0.012795609837544342,0.2496426535255273,0.004181473403107,0.01621374542443675,0.0009949368632733288,19.587690900007146
1602,B,99250602101159.0,-3.2195435,20.03036107382841,-2.9352076149595403,12,1970-01-02 03:34:10.602101159,1.4794617,1.1402283,-0.21131897,4.872357584099322,1.8797827547271628,-91.37193298339844,1.7301294803619385,88.13784790039062,19638044.0,50354.0,-0.057353972387879995,0.02713430649845569,0.29124601455592736,-0.0006196147711090355,0.000361005365831765,0.013617953996286784,19.638044904000708
1602,B,99250652455163.0,4.7805786,30.073619773828412,-9.73015981495954,12,1970-01-02 03:34:10.652455163,0.05984497,0.20632935,-0.9245148,16.32998017848019,0.9491474261276608,-91.36922454833984,1.6836737394332886,88.1286392211914,19688398.0,50354.0,0.03930218071270001,0.7679987258014557,-0.3188759557830727,-0.00045448995900600653,0.02001906435421487,-0.0006956390302758385,19.68839890799427
1602,B,99250702809167.0,5.852005,1.6516227738284108,-8.97114181495954,12,1970-01-02 03:34:10.702809167,-3.097702,1.9419098,-0.92099,19.454137064747588,3.77027769961843,-91.5268783569336,1.6351830959320068,88.0326919555664,19738752.0,50354.0,0.26769655729720004,0.3052772316223558,-0.4708426711364727,0.007729307226875254,0.027021868780059306,-0.019882745869953398,19.738752912002383
1602,B,99250753163171.0,0.5619812,-1.50713022617159,-5.172756414959541,12,1970-01-02 03:34:10.753163171,-3.823944,0.61595154,-1.1936188,20.078231971982778,4.052982834219486,-91.71888732910156,1.5746523141860962,88.00358581542969,19789106.0,50354.0,0.1614849305574,-0.4898313111276443,-0.3561009257346727,0.010805502319715266,-0.004646518059704648,-0.020819958938424827,19.789106915995944
1602,B,99250803517175.0,0.89302063,-1.50713022617159,3.3634678850404596,12,1970-01-02 03:34:10.803517175,-3.5901031,0.07524109,-1.4951324,19.692419599008424,3.889720090672818,-91.89844512939453,1.4998143911361694,88.002197265625,19839460.0,50354.0,0.03663258107391,-0.5693592354086443,-0.045552457317772715,0.004988004590341493,-0.026667240390144138,-0.01011242722511142,19.839460920004058
1602,B,99250853871179.0,1.550827,10.447124373828409,7.45273188504046,12,1970-01-02 03:34:10.853871179,-2.4456024,1.1417236,-1.568573,10.623185257586053,3.1216862645070083,-92.02210998535156,1.4194772243499756,87.94780731201172,19889814.0,50354.0,0.06152875178051,-0.26838696734444434,0.2723194616113273,0.002471407877275732,-0.021091936146714514,0.005709312867098824,19.88981492399762
1602,B,99250904225183.0,-5.1213074,13.75475677382841,3.2626988850404595,12,1970-01-02 03:34:10.904225183,-1.8503723,0.80648804,-0.79533386,7.330690146542251,2.169529109307555,-92.11557006835938,1.3782823085784912,87.90892791748047,19940168.0,50354.0,-0.08989398503080001,0.11586156165455569,0.2697824004983273,-0.0007141514775425515,-0.0038401321390543267,0.013648498582334774,19.940168928005733
1602,B,99250954579187.0,-5.8436584,15.84777437382841,8.84729318504046,12,1970-01-02 03:34:10.954579187,0.21073914,-0.55262756,0.49987793,10.77752991176128,0.7743940535028521,-92.1043930053711,1.4042770862579346,87.93563842773438,19990522.0,50354.0,-0.2760649439466,0.2518337267045557,0.30489327034842734,-0.009213747954864,0.00925746427501735,0.014468609364908742,19.990522931999294
1602,B,99251004933191.0,0.61972046,14.78803627382841,-0.8550379149595406,12,1970-01-02 03:34:11.004933191,2.427765,0.9087982,0.22796631,3.2725001061914227,2.6022923936489644,-91.98412322998047,1.4140506982803345,87.8897933959961,20040876.0,50354.0,-0.13152308551538,0.27784860467605577,0.20122101093482733,-0.010261843817764273,0.013335812057169657,0.012742439259868503,20.040876936007407
1602,B,99251055287195.0,-0.8553772,-1.3694192261715905,-2.9723628149595402,12,1970-01-02 03:34:11.055287195,2.7747498,-0.45735168,1.1758881,19.498975798603983,3.04813382834817,-92.01580810546875,1.5013619661331177,87.90637969970703,20091230.0,50354.0,-0.005933129742979998,-0.1556286785911443,-0.0963624681771727,-0.0034607351315597296,0.0030771310790398162,0.002640023531009471,20.09123094000097
1602,B,99251105641198.0,10.729172,-1.50713022617159,-0.5105402449595406,12,1970-01-02 03:34:11.105641198,3.8368073,-1.071991,1.2097015,22.16370370998827,4.163367949210896,-91.82259368896484,1.5636072158813477,87.95794677734375,20141584.0,50354.0,0.24859253167960002,-0.5658920855616443,-0.0876890503395827,0.006109435762558283,-0.01816572827907476,-0.00463386508169635,20.141584943005
1602,B,99251155995202.0,-0.40896606,-1.3685342261715903,-0.7526362149595405,12,1970-01-02 03:34:11.155995202,4.2533875,-0.3343048,2.0793304,19.2676924160788,4.746227958792482,-91.62162017822266,1.6593427658081055,87.97119903564453,20191938.0,50354.0,0.25983182495138,-0.5658698039166443,-0.031802993731382706,0.012800600026898186,-0.028494369091394873,-0.0030084511935746963,20.19193894699856
1602,B,99251206349206.0,0.65193176,5.56653977382841,-6.592220514959541,12,1970-01-02 03:34:11.206349206,2.4164581,-2.464096,1.6653748,13.992119887771151,3.8320375873347916,-91.4971923828125,1.7459349632263184,88.0921401977539,20242292.0,50354.0,0.006117147428899999,-0.3877760143266443,-0.18492145788917272,0.006695797277618311,-0.02400994076591128,-0.005456471518450724,20.242292951006675
1602,B,99251256703210.0,3.0743866,23.19951997382841,-2.94482061495954,12,1970-01-02 03:34:11.256703210,0.7334137,-2.2496948,-0.012191772,6.823590061663452,2.366256745959582,-91.45709991455078,1.7482259273529053,88.20465850830078,20292646.0,50354.0,0.09381751734972,0.23077388626675568,-0.24011408452797275,0.0025160550551313163,-0.003952842578163816,-0.010701119851436472,20.292646955000237
1602,B,99251307057214.0,-0.6320648,24.91152577382841,-6.895366814959541,12,1970-01-02 03:34:11.307057214,-2.393341,1.4097137,-0.37542725,9.884699371900192,2.8029126776072157,-91.57889556884766,1.7275943756103516,88.1346664428711,20343000.0,50354.0,0.06149033595860001,0.7178225987887558,-0.2477463989230727,0.003910185822743574,0.02388281370424261,-0.012282863391846973,20.34300095900835
1602,B,99251357411218.0,1.4930115,9.257045773828409,11.37858918504046,12,1970-01-02 03:34:11.357411218,-1.900238,0.6108093,0.19403076,14.336516528470408,2.0054028007950593,-91.67484283447266,1.7364263534545898,88.10385131835938,20393354.0,50354.0,0.0216760550659,0.36679292585535567,0.11287408961152728,0.0020938802268238373,0.027307365063964792,-0.003395680131536779,20.39335496300191
1602,B,99251407765222.0,-3.5692596,15.663402473828409,10.36085868504046,12,1970-01-02 03:34:11.407765222,1.4269867,1.5119171,-0.23638916,11.159511963817078,2.092382420642748,-91.60575103759766,1.722447156906128,88.02857971191406,20443708.0,50354.0,-0.0522736984137,0.13395292553125568,0.5473340790250273,-0.0007703568665675606,0.012607278300360713,0.016622061061762537,20.443708966995473
1602,B,99251458119226.0,-4.2436066,-0.35498422617159164,-18.90459881495954,12,1970-01-02 03:34:11.458119226,2.6951904,-1.3983765,-0.4668579,26.621852484451352,3.072045642043233,-91.46888732910156,1.7009856700897217,88.0991439819336,20494062.0,50354.0,-0.1967045323174,-0.10804915377874436,-0.21510574525097273,-0.006268524915116905,0.0006521792614129777,0.008364512759429373,20.494062971003586
1602,B,99251508473230.0,6.329056,1.9658927738284095,-12.51096781495954,12,1970-01-02 03:34:11.508473230,-3.2575378,3.0728607,-0.03640747,21.222028769584238,4.478320098419175,-91.63632202148438,1.6950032711029053,87.94554138183594,20544416.0,50354.0,0.0525053595438,-0.4529113554956443,-0.7909497210414729,-0.0036305025729209276,-0.014123302742001284,-0.025329458474844906,20.544416974997148
1602,B,99251558827234.0,1.1938629,-1.50713022617159,-4.779445814959541,12,1970-01-02 03:34:11.558827234,-3.8469849,-0.12060547,-0.86047363,20.007823849887682,3.943888102893806,-91.82846069335938,1.6521835327148438,87.95286560058594,20594770.0,50354.0,0.1894045291453,-0.48191893533764435,-0.4353207439604727,0.0060905652675254714,-0.02353622223230971,-0.030873811497353985,20.59477097900526
1602,B,99251609181238.0,2.1155396,-0.04814522617159156,3.94417168504046,12,1970-01-02 03:34:11.609181238,-3.393158,-0.45166016,-1.3008423,18.472869173162366,3.6619269247985433,-91.99740600585938,1.5879302024841309,87.97761535644531,20645124.0,50354.0,0.0833208267425,-0.5326263700636443,-0.021029696768972702,0.006866406285187141,-0.025543207154088247,-0.011489535046245248,20.645124982998823
1602,B,99251659535241.0,3.8762665,9.62879577382841,6.945987485040459,12,1970-01-02 03:34:11.659535241,-2.3339386,1.2405396,-1.6652985,11.446923587197887,3.1240081596949087,-92.1156997680664,1.5024927854537964,87.9186019897461,20695478.0,50354.0,0.1508557021797,-0.2522571611616443,0.2741815374251273,0.0058958624686742305,-0.019761012665659092,0.006373603892200004,20.695478986002854
1602,B,99251709889245.0,-7.892975,15.83141697382841,2.6729924850404596,12,1970-01-02 03:34:11.709889245,-1.6791229,1.1004791,-0.85905457,8.574298191558464,2.1836855810942897,-92.20104217529297,1.457497477531433,87.86521911621094,20745832.0,50354.0,-0.10112866990450001,0.14754257634775575,0.2421770587067273,0.0012519774915927106,-0.0026363991018592725,0.013000360374811705,20.745832989996416
1602,B,99251760243249.0,-5.6848907,13.34951377382841,7.445499185040459,12,1970-01-02 03:34:11.760243249,0.2915039,0.023376465,0.07115173,10.389404623808407,0.3009710144068679,-92.18648529052734,1.4610110521316528,87.86389923095703,20796186.0,50354.0,-0.3418499247289,0.24121909343375575,0.25475326477762733,-0.011152872077085114,0.009787852560089115,0.012511214754365597,20.79618699400453
1602,B,99251810597253.0,1.8207245,12.27399817382841,-0.6732294549595406,12,1970-01-02 03:34:11.810597253,2.3509216,0.56663513,0.13928223,5.9344232711185585,2.422252521825594,-92.0696792602539,1.4669194221496582,87.83531951904297,20846540.0,50354.0,-0.09728811241740001,0.15165396030615572,0.1705054349942473,-0.011056178361232398,0.009891364874009751,0.010706738284156489,20.84654099799809
1602,B,99251860951257.0,3.919342,-1.50713022617159,-4.5511438149595405,12,1970-01-02 03:34:11.860951257,3.1239777,0.21200562,0.89302063,20.300457170748988,3.256020408199935,-91.9137954711914,1.5111769437789917,87.82316589355469,20896895.0,50355.0,0.14452052430375,-0.22239618224787044,-0.13153665800338765,0.001189194050268577,-0.0017811122929375224,0.0009811363826873688,20.896895002006204
1602,B,99251911305261.0,10.77327,-1.50713022617159,0.18295645504045943,12,1970-01-02 03:34:11.911305261,4.1665955,-0.5780029,1.6614838,22.179265788025756,4.522735215629044,-91.70475769042969,1.5951234102249146,87.84944152832031,20947249.0,50354.0,0.369915892324,-0.5693592354086443,-0.1099778531606827,0.012951965661436861,-0.019934026150338072,-0.0060806108475778,20.947249005999765
1602,B,99251961659265.0,3.992859,-0.028080226171589118,-3.57551221495954,12,1970-01-02 03:34:11.961659265,3.5821838,-0.3340454,2.5349426,18.696493577028882,4.40108635356526,-91.5252685546875,1.7222882509231567,87.86257934570312,20997603.0,50354.0,0.371766829833,-0.5321211935586443,-0.0854143763674827,0.01867334589574679,-0.027731972760109427,-0.0049193901628306206,20.99760301000788
1602,B,99252012013269.0,1.7058563,8.93571077382841,-4.004451814959541,12,1970-01-02 03:34:12.012013269,2.827362,-2.6732635,1.6021576,9.955465922056822,4.207995080167515,-91.37984466552734,1.8057568073272705,87.99423217773438,21047957.0,50354.0,0.1434765551081,-0.26920178570164427,-0.1908407543812727,0.012972282702662076,-0.020174908648836285,-0.0069552754268614155,21.04795701400144
1602,B,99252062367273.0,2.6750183,23.57653417382841,-3.5925104149595404,12,1970-01-02 03:34:12.062367273,0.5354004,-1.6636353,-0.15100098,7.258245722506135,1.754177099293914,-91.3504409790039,1.800187587738037,88.07759857177734,21098311.0,50354.0,0.11029727980420001,0.3250915910471558,-0.19126871806267273,0.006389263841586977,0.0014071376291839436,-0.009620370187721215,21.098311017995
1602,B,99252112721277.0,0.20925903,22.64980677382841,-3.8333398149595403,12,1970-01-02 03:34:12.112721277,-2.2884521,0.5232086,-0.34526062,6.137461124730774,2.3727547595213365,-91.46568298339844,1.7822887897491455,88.05187225341797,21148665.0,50354.0,0.07261745033741,0.6703713860391557,-0.1869606312386727,0.004605244160775316,0.025062771374102066,-0.009522680327359975,21.148665022003115
1602,B,99252163075280.0,-0.9459381,11.66419577382841,6.412753785040459,12,1970-01-02 03:34:12.163075280,-1.7362976,0.39318848,0.20227051,8.964313226887388,1.7917142338515175,-91.55310821533203,1.7918795347213745,88.03193664550781,21199019.0,50354.0,-0.01854736894539,0.37045444214235573,0.06494190552472728,0.0013613224392068878,0.026204871876125916,-0.003072065457300004,21.199019025007146
1602,B,99252213429284.0,4.529236,6.8327597738284105,11.89522118504046,12,1970-01-02 03:34:12.213429284,2.3166199,0.09944153,-0.3581543,16.837575107161392,2.346250387655427,-91.43742370605469,1.7738494873046875,88.02743530273438,21249373.0,50354.0,0.0902166912283,-0.027771350176644255,0.46093988582172735,0.0018044185271168254,0.008627732206420718,0.013240125860729689,21.249373029000708
1602,B,99252263783288.0,11.885849,0.5075947738284086,2.1790043850404595,12,1970-01-02 03:34:12.263783288,1.2791138,1.3908386,-0.7215271,21.1588780980038,2.022662967633216,-91.37557983398438,1.7360795736312866,87.95877075195312,21299727.0,50354.0,0.41328259504500003,-0.3086610935536443,0.35434677717792734,0.012676601530502877,-0.008470359635797476,0.020526472314342306,21.29972703299427
1602,B,99252314137292.0,2.0877228,3.160503273828409,-9.91553881495954,12,1970-01-02 03:34:12.314137292,-3.2330627,3.1125336,-0.28181458,17.881847523208446,4.496663128449899,-91.54190063476562,1.7180328369140625,87.80347442626953,21350081.0,50354.0,0.3518126172086,-0.4011174954541444,-0.1947827273420727,0.019262802158908892,-0.017870095535449097,0.004017344082717313,21.350081037002383
1602,B,99252364491296.0,0.7289276,-0.03001722617159075,-0.34780526495954056,12,1970-01-02 03:34:12.364491296,-3.9707336,-0.114608765,-0.9683838,17.927889191262445,4.088719564275132,-91.73129272460938,1.5686787366867065,87.81102752685547,21400435.0,50354.0,0.0709148071208,-0.4146529527781444,-0.2584002139001227,0.010643008362341305,-0.020538652575144336,-0.011409786911654753,21.400435040995944
1602,B,99252414845300.0,1.0379333,3.053310773828409,4.450748185040459,12,1970-01-02 03:34:12.414845300,-3.5290833,-0.07499695,-1.1976166,15.50792973675835,3.727511100110066,-91.90757751464844,1.5089442729949951,87.8166732788086,21450789.0,50354.0,0.0444842568793,-0.4173517383506443,0.10329979389887729,0.0029054022343305177,-0.020947382108549514,-0.003904963274371356,21.450789045004058
1602,B,99252465199304.0,1.4656372,10.55065527382841,3.8081853850404594,12,1970-01-02 03:34:12.465199304,-2.5236359,0.87950134,-1.4546356,8.377870631287363,3.042733227152516,-92.03483581542969,1.4347456693649292,87.77521514892578,21501143.0,50354.0,0.0630323944785,-0.15096214681814432,0.2079351704939273,0.002706946731235331,-0.014308438686894593,0.007835962698517641,21.50114304899762
1602,B,99252515553308.0,-6.8045654,12.24308377382841,5.442889885040459,12,1970-01-02 03:34:12.515553308,-1.6123962,0.21783447,-0.76060486,10.36584164912958,1.7960493075498347,-92.1156997680664,1.3963465690612793,87.76571655273438,21551497.0,50354.0,-0.13441819529140003,0.08040876800285571,0.2329143220748273,-0.0017972803070663843,-0.0017763224184325216,0.011099267674403536,21.551497053005733
1602,B,99252565907312.0,-6.1054688,14.91430277382841,7.820392185040459,12,1970-01-02 03:34:12.565907312,0.5070648,0.095199585,0.09265137,10.338148655266979,0.5241774019796057,-92.09046936035156,1.4008013010025024,87.76078796386719,21601851.0,50354.0,-0.3250359310534,0.19027232111035575,0.33392965267842734,-0.01156767653898303,0.006814937780603324,0.014271430752362693,21.601851056999294
1602,B,99252616261316.0,-2.1313019,10.45655427382841,-0.09031319495954056,12,1970-01-02 03:34:12.616261316,2.5572052,-0.16879272,0.51498413,7.723415261724726,2.6140003962095903,-91.96240997314453,1.426830530166626,87.76830291748047,21652205.0,50354.0,-0.20737717591389998,0.14529286788885573,0.1946201987332673,-0.013404564794115711,0.008448524763433149,0.013307299608992237,21.652205061007407
1602,B,99252666615320.0,4.351425,0.67481577382841,-2.5002253149595406,12,1970-01-02 03:34:12.666615320,3.1706696,-2.3104095,1.3963623,17.924558317223056,4.164248484770775,-91.80097961425781,1.5004054307937622,87.88150024414062,21702559.0,50354.0,0.0558960392887,-0.2132146963101443,-0.06522198806423271,-0.00381384057681266,-0.0017100678741627825,0.003257858750014284,21.70255906500097
1602,B,99252716969323.0,7.054428,-1.50713022617159,-2.0325128149595404,12,1970-01-02 03:34:12.716969323,4.110626,-1.6112671,2.166397,20.732052587078613,4.917997940323624,-91.5933609008789,1.6110644340515137,87.95885467529297,21752913.0,50354.0,0.28716516098100003,-0.5144243809666443,-0.11412074789697271,0.008637251839190238,-0.01831976904859771,-0.004515312063295269,21.752913068005
1602,B,99252767323327.0,0.7845154,0.6197927738284115,-3.3179133149595406,12,1970-01-02 03:34:12.767323327,4.429413,-1.3325653,1.982193,17.597175765888608,5.0323472547691,-91.37003326416016,1.7118641138076782,88.02293395996094,21803267.0,50354.0,0.1973610779818,-0.5158096950376443,-0.1347076786729727,0.012198917118366416,-0.025938203331559977,-0.006264753295751516,21.80326707199856
1602,B,99252817677331.0,2.1442108,12.63227457382841,-3.4519160149595405,12,1970-01-02 03:34:12.817677331,2.6142273,-3.0501404,0.9335022,6.648193076397986,4.124192914156938,-91.23472595214844,1.761989951133728,88.17440032958984,21853621.0,50354.0,0.07373653953740002,-0.15982190038804425,-0.17044399303937272,0.006825424716280899,-0.01701037667803256,-0.007682803638701721,21.853621076006675
1602,B,99252868031335.0,2.8157196,26.841075773828408,-5.7698178149595405,12,1970-01-02 03:34:12.868031335,-0.5812683,-1.1318207,-0.17320251,11.03594263125983,1.2840911350070447,-91.26203918457031,1.754563808441162,88.23119354248047,21903975.0,50354.0,0.12487616768080001,0.5003513417029556,-0.23217559263587273,0.005000472129632622,0.008573509743985524,-0.010136753308545656,21.903975080000237
1602,B,99252918385339.0,1.4742279,19.88346477382841,-2.2553828149595403,12,1970-01-02 03:34:12.918385339,-3.0594635,1.2830505,-0.4152832,3.373173096626144,3.3435005053962144,-91.4169692993164,1.732309341430664,88.16752624511719,21954329.0,50354.0,0.1080080082075,0.6829145573683557,-0.2020504762594727,0.0058633248963397295,0.029791085540918402,-0.010932509736578113,21.95432908400835
1602,B,99252968739343.0,-2.4225311,7.95823277382841,8.39986018504046,12,1970-01-02 03:34:12.968739343,-0.84181213,-0.33546448,-0.0068511963,13.20900294029251,0.9062179751293551,-91.45854187011719,1.7323895692825317,88.18431091308594,22004683.0,50354.0,-0.0238754296664,0.20750121915735575,0.1546995067465273,0.0021182059299292753,0.022417998005587837,-0.0011921553594274265,22.00468308800191
1602,B,99253019093347.0,6.3103333,1.7869827738284094,0.9322087850404595,12,1970-01-02 03:34:13.019093347,0.56074524,1.1613159,-0.0879364,17.309199262262467,1.2926030536171682,-91.43225860595703,1.7265299558639526,88.12635040283203,22055037.0,50354.0,0.0978831959894,-0.2481139081566443,0.2349535004597273,0.001863293532714171,-0.0010225056709350878,0.009810293762431872,22.055037091995473
1602,B,99253069447351.0,-4.9758453,12.26853547382841,-1.0087244149595407,12,1970-01-02 03:34:13.069447351,-0.80766296,0.72306824,0.105773926,7.569802892399243,1.0891901854470196,-91.4737319946289,1.7308982610702515,88.09004974365234,22105391.0,50354.0,0.03359840437600001,-0.13959341707874431,-0.0019264340144727083,0.0033103122523996764,-0.00976130732745138,0.005866922451892175,22.105391096003586
1602,B,99253119801355.0,-5.33078,8.54447577382841,-0.47533821495954054,12,1970-01-02 03:34:13.119801355,-2.8805542,-0.06677246,-0.009460449,10.761151788389855,2.881343533952065,-91.61766052246094,1.730515480041504,88.09339904785156,22155745.0,50354.0,-0.2594899051781,0.030539984182255696,-0.037364244833472705,-0.005687270315694472,-0.002745638280034894,-0.0009892214213547217,22.155745099997148
1602,B,99253170155359.0,1.3661957,-1.50713022617159,-3.9688685149595404,12,1970-01-02 03:34:13.170155359,-4.0896454,0.4427948,-0.75886536,19.840030656402877,4.182958685817508,-91.82276153564453,1.6919265985488892,88.07239532470703,22206099.0,50354.0,-0.0998163389211,-0.3162899511466443,-0.11189179283917271,-0.009046253307685558,-0.007194326918262413,-0.003757819260484194,22.20609910400526
1602,B,99253220509363.0,3.5844574,0.7329827738284109,2.3001896850404595,12,1970-01-02 03:34:13.220509363,-3.4742432,0.53952026,-1.2606812,17.664386164226624,3.7350722900273494,-91.9971923828125,1.6280221939086914,88.04752349853516,22256453.0,50354.0,0.12464259309870002,-0.5129599104076443,-0.042012326900872705,0.0006250506014294355,-0.020878023764352327,-0.0038748440226951237,22.256453107998823
1602,B,99253270863366.0,-0.34936523,8.50953277382841,5.956592185040459,12,1970-01-02 03:34:13.270863366,-2.4740448,1.2303467,-1.4351501,11.096334883656763,3.1135681274283913,-92.12254333496094,1.5541012287139893,87.98860168457031,22306807.0,50354.0,0.08144991556409,-0.26077038605664427,0.20788099714302727,0.005188791090603064,-0.019480207674081394,0.004176075510686726,22.306807111002854
1602,B,99253321217370.0,-8.726791,12.633571573828409,4.809314485040459,12,1970-01-02 03:34:13.321217370,-1.9185638,0.66874695,-0.5386963,11.251177053095544,2.10197603255566,-92.21934509277344,1.5259199142456055,87.95620727539062,22357161.0,50354.0,-0.22851038540271001,0.038850738160955675,0.2710532322326273,-0.0037025414491269368,-0.005587270975069752,0.012058127092990855,22.357161114996416
1602,B,99253371571374.0,-0.3957367,16.17058937382841,6.8621556850404595,12,1970-01-02 03:34:13.371571374,0.46658325,0.0028381348,0.4338684,7.0611110698483355,0.6371418780054137,-92.19602966308594,1.5475929975509644,87.95521545410156,22407515.0,50354.0,-0.22967787990290003,0.23173316017915568,0.2938526044721273,-0.011535805955599346,0.006812490808508985,0.014222634250715608,22.40751511900453
1602,B,99253421925378.0,2.1345062,9.97716877382841,-0.9761011549595406,12,1970-01-02 03:34:13.421925378,2.4422913,-0.45010376,0.43844604,8.245934348930362,2.5218277337703916,-92.07332611083984,1.5703374147415161,87.97689819335938,22457869.0,50354.0,0.04377699970150001,0.16485290688355572,0.1481931949038473,-0.0046804264608306485,0.009984847410437885,0.011129387090888914,22.45786912299809
1602,B,99253472279382.0,4.531006,0.8816637738284108,-3.7255671149595404,12,1970-01-02 03:34:13.472279382,2.9233856,-1.3881226,1.3080597,17.98593169714845,3.490571285288729,-91.92528533935547,1.6381229162216187,88.04399871826172,22508223.0,50354.0,0.16781760065940002,-0.22007637294764426,-0.1183739020317527,0.00532731725328638,-0.0013903612050955572,0.0007507603366407259,22.508223127006204
1602,B,99253522633386.0,5.816803,-1.50713022617159,-2.8282130149595406,12,1970-01-02 03:34:13.522633386,4.6184235,-0.25205994,1.5345001,20.439947632350577,4.87319816912929,-91.69407653808594,1.715212345123291,88.05419921875,22558577.0,50354.0,0.260526787193,-0.5092165688706443,-0.16500452233097274,0.010784426652959877,-0.018361408396159053,-0.007134618590180338,22.558577130999765
1602,B,99253572987390.0,-1.5314941,-0.40098922617158905,-1.5539668149595407,12,1970-01-02 03:34:13.572987390,4.374237,-0.5396271,1.4141998,18.411852913754085,4.628726370562798,-91.55514526367188,1.8630914688110352,88.07684326171875,22608931.0,50354.0,0.10789122217530002,-0.5415099234516443,-0.11033014157787273,0.009275660221865689,-0.02645414089719826,-0.006932100833233003,22.60893113500788
1602,B,99253623341394.0,-1.8930817,13.63795077382841,-2.7793391149595403,12,1970-01-02 03:34:13.623341394,2.7276154,-3.439804,0.37625122,5.424157128754161,4.406098309080796,-91.41316223144531,1.886350393295288,88.2483901977539,22659285.0,50354.0,-0.0862205449166,-0.16020221911464427,-0.10909964339757272,0.0005456026413422904,-0.017667006613391448,-0.005524583696326791,22.65928513900144
1602,B,99253673695398.0,2.5133057,26.98556127382841,-5.133083814959541,12,1970-01-02 03:34:13.673695398,-0.51394653,-1.5891266,-0.7913208,10.761987223424665,1.8481485316497808,-91.43623352050781,1.8487764596939087,88.32884216308594,22709639.0,50354.0,0.015615379648000003,0.5293089628238558,-0.19921107210657274,-0.0017776262459675424,0.009293000486366818,-0.007762338884247871,22.709639142995
1602,B,99253724049402.0,1.6806488,17.12318027382841,-4.004894514959541,12,1970-01-02 03:34:13.724049402,-3.409195,0.56069946,-0.07119751,4.428848075030185,3.4557290862999506,-91.60758972167969,1.8444747924804688,88.30089569091797,22759993.0,50354.0,0.10559119244650002,0.6170565859453558,-0.23006688041237275,0.003051617865623227,0.028862045421362444,-0.010807931010569491,22.759993147003115
1602,B,99253774403405.0,9.534821,3.374416273828409,13.90709318504046,12,1970-01-02 03:34:13.774403405,-0.032806396,-0.1302185,0.51091003,22.228111705208775,0.528263358671941,-91.60906982421875,1.8701953887939453,88.30670166015625,22810347.0,50354.0,0.28237188315460005,0.022598788280355702,0.24930765591662735,0.009767746354408897,0.01610460335688074,0.00048442500487061804,22.810347150007146
1602,B,99253824757409.0,1.5317535,29.70095477382841,-11.53518281495954,12,1970-01-02 03:34:13.824757409,0.074645996,2.4741364,-0.36238098,16.603483178679294,2.501648041829536,-91.60931396484375,1.8486108779907227,88.1834716796875,22860701.0,50354.0,0.2786231461865001,0.33926941686685574,0.05971758738752733,0.014124171853720878,0.009110755800991344,0.007780328550668704,22.860701154000708
1602,B,99253875111413.0,4.9027557,36.40658177382841,-19.73067881495954,12,1970-01-02 03:34:13.875111413,-0.3527069,3.8877716,-0.11116028,27.522378004176883,3.905320317070528,-91.6332015991211,1.8375555276870728,87.98921966552734,22911055.0,50354.0,0.16200163812840002,1.1709202476603557,-0.7871805982564727,0.01109361019469624,0.0380220451838016,-0.018315336224647438,22.91105515799427
1602,B,99253925465417.0,4.012329,6.813686273828409,-12.79047781495954,12,1970-01-02 03:34:13.925465417,-2.283081,2.6824493,-0.35151672,17.398645177286024,3.539993941247788,-91.7516098022461,1.8160295486450195,87.85560607910156,22961409.0,50354.0,0.22445508749190005,0.5946874886358557,-0.8187851604714727,0.009729820980942296,0.04445270597672972,-0.04043339990749348,22.961409162002383
1602,B,99253975819421.0,-1.122757,-1.4574472261715918,-3.75967051495954,12,1970-01-02 03:34:13.975819421,-3.45047,0.3483734,-0.8088074,19.735017014757155,3.561078018946274,-92.15624237060547,1.8117157220840454,87.83209991455078,23011763.0,50354.0,0.07275075424400002,-0.35861516949714434,-0.41668308450237274,0.007482751477384756,0.005943592778955337,-0.031105384003706507,23.011763165995944
1602,B,99254026173425.0,0.9980316,-1.50713022617159,1.8578831850404594,12,1970-01-02 03:34:14.026173425,-3.5883331,-0.18431091,-1.0197906,19.49861573405516,3.734980296594481,-92.14691162109375,1.6429983377456665,87.84917449951172,23062117.0,50354.0,-0.0031402113958,-0.5681083665176444,-0.0478812996053727,0.001752584637289132,-0.023332118466244337,-0.011696337498680707,23.062117170004058
1602,B,99254076527429.0,3.4680176,7.44602577382841,6.533740785040459,12,1970-01-02 03:34:14.076527429,-2.6832123,0.8792114,-1.4823151,12.777998778564026,3.1890279065021145,-92.2822265625,1.5672422647476196,87.80809783935547,23112471.0,50354.0,0.11244172070840001,-0.3439456267966443,0.21127591669472728,0.002751884099963331,-0.02296278338967385,0.004113786274458681,23.11247117399762
1602,B,99254126881433.0,-6.738739,13.09600437382841,5.469257185040459,12,1970-01-02 03:34:14.126881433,-2.0573578,0.756546,-0.67855835,9.897415217980882,2.294673048974856,-92.38607788085938,1.531802773475647,87.77165222167969,23162825.0,50354.0,-0.0823469526878,0.023717493027555738,0.30219947989272733,0.0007576959744546466,-0.008062383723904344,0.012927770059882344,23.162825178005733
1602,B,99254177235437.0,-5.5425262,13.823238273828409,9.81778318504046,12,1970-01-02 03:34:14.177235437,0.53800964,-1.1168671,0.36470032,11.963342559245834,1.2922278495696653,-92.35769653320312,1.5523332357406616,87.82672119140625,23213179.0,50354.0,-0.3092054139404,0.18427657214005572,0.38488181539752736,-0.009858113934598192,0.005236666578724954,0.017298645771522746,23.213179181999294
1602,B,99254227589441.0,2.2525635,14.78554907382841,0.6199529150404595,12,1970-01-02 03:34:14.227589441,2.3778687,-0.06399536,0.36868286,3.87324357570783,2.4071314903426027,-92.23873901367188,1.5708823204040527,87.82918548583984,23263533.0,50354.0,-0.08283139089790001,0.2268142390519557,0.2627908817917373,-0.009870310635413881,0.010350033353381272,0.016306455497134116,23.263533186007407
1602,B,99254277943445.0,-1.4801941,-0.33560522617159094,-4.547161314959541,12,1970-01-02 03:34:14.277943445,2.7487946,-0.9091797,1.5802307,18.837493431847324,3.2984251613616675,-92.10011291503906,1.6515634059906006,87.87163543701172,23313887.0,50354.0,0.0194459443838,-0.12966296374754432,-0.09887532588476272,-0.001595855386885496,0.002445977658339165,0.0041269019510699,23.31388719000097
1602,B,99254328297448.0,6.4196167,-1.50713022617159,0.6827580850404595,12,1970-01-02 03:34:14.328297448,4.9456177,-1.283783,1.0696564,20.43228646503378,5.2202871606553645,-91.85100555419922,1.7072243690490723,87.93396759033203,23364241.0,50354.0,0.12435984280019999,-0.5398637504836443,-0.09729408011967272,0.0036205983039315683,-0.01685667408419864,-0.004938957134973671,23.364241193005
1602,B,99254378651452.0,-1.8019867,-1.50713022617159,-2.6030390149595406,12,1970-01-02 03:34:14.378651452,4.283966,0.5632477,1.7326508,19.646129043444876,4.655286398864407,-91.78349304199219,1.8819767236709595,87.89875793457031,23414595.0,50354.0,0.11625807051,-0.5693592354086443,-0.04834691297257271,0.006058037203410906,-0.027926907115810154,-0.0036668032830834635,23.41459519699856
1602,B,99254429005456.0,-0.48632813,9.374782773828409,-6.748119814959541,12,1970-01-02 03:34:14.429005456,2.6317902,-2.6924896,0.8349762,10.881220857212591,3.8565535335958505,-91.64747619628906,1.9277371168136597,88.03215789794922,23464949.0,50354.0,-0.05761290247491,-0.2953853118076443,-0.2354341258608727,0.0014765093956194612,-0.021771673465264502,-0.0071447552147096555,23.464949201006675
1602,B,99254479359460.0,2.9389038,25.05688077382841,-3.0830805149595406,12,1970-01-02 03:34:14.479359460,-0.24525452,-1.8774567,-0.29988098,8.354608721767748,1.9170086181655732,-91.65657806396484,1.9154582023620605,88.12648010253906,23515303.0,50354.0,0.06174849764359,0.3734167931393558,-0.24752013070637272,0.00010412187956185635,0.0019645986054884993,-0.01215933931759354,23.515303205000237
1602,B,99254529713464.0,-1.519577,23.09098427382841,-5.180294314959541,12,1970-01-02 03:34:14.529713464,-3.3407288,1.1822662,-0.6469574,7.519231520845298,3.602329268713042,-91.82552337646484,1.8813259601593018,88.06832885742188,23565657.0,50354.0,0.0357343908436,0.7187495983048559,-0.20804698809287273,0.002454326683441983,0.027497473237390917,-0.011469813350008603,23.56565720900835
1602,B,99254580067468.0,0.23774719,1.7144887738284105,18.34769018504046,12,1970-01-02 03:34:14.580067468,-2.2784576,0.59375,0.42478943,24.43714545725171,2.3925622577766883,-91.9404525756836,1.9015763998031616,88.03794860839844,23616011.0,50354.0,-0.03227262912637,0.13105819492085577,0.3315155258210273,8.715677475469968e-05,0.021395610810043743,0.0031085673743817474,23.61601121300191
1602,B,99254630421472.0,-2.2033844,18.83866491382841,9.004230185040461,12,1970-01-02 03:34:14.630421472,2.5151215,2.2892761,0.13034058,9.297849941549936,3.403470271441811,-91.81851196289062,1.9043391942977905,87.92327117919922,23666365.0,50354.0,-0.049488848036170006,0.023997550394135734,0.6886392991575273,-0.00205850871052127,0.003903838499795541,0.02568443802848507,23.666365216995473
1602,B,99254680775476.0,4.4136505,-1.3842812261715913,-19.59228181495954,12,1970-01-02 03:34:14.680775476,3.7129364,-2.6096954,-0.6981354,27.844133732566494,4.591709902417538,-91.62853240966797,1.873373031616211,88.05482482910156,23716719.0,50354.0,0.05564786959970001,-0.05402018189586432,-0.26657537588647273,0.00015506568590499485,-0.0007558797933190207,0.010626303396195342,23.716719221003586
1602,B,99254731129480.0,6.8160553,6.413097273828409,-10.80953581495954,12,1970-01-02 03:34:14.731129480,-2.4123383,3.4823456,0.5159149,17.183128349784777,4.267584227115882,-91.75489807128906,1.8940165042877197,87.87992095947266,23767073.0,50354.0,0.28273030292660006,-0.36685869836814433,-0.7654265624684727,0.008519347249694657,-0.010596467568406947,-0.025982712801962463,23.767073224997148
1602,B,99254781483484.0,3.1034393,0.7677267738284108,-3.8552210149595405,12,1970-01-02 03:34:14.781483484,-3.5838623,1.6865845,-0.67892456,17.81768814661778,4.018653358921709,-91.93682098388672,1.8573698997497559,87.79669189453125,23817427.0,50354.0,0.2497431155442,-0.3126775929521443,-0.36921458270687274,0.013406083256839335,-0.017108685206570908,-0.028566860112079675,23.81742722900526
1602,B,99254831837488.0,-2.9624023,-1.1896552261715918,-1.5066798149595406,12,1970-01-02 03:34:14.831837488,-4.2445374,0.21394348,-1.082016,19.358093862051046,4.3855020438815515,-92.21477508544922,1.9761639833450317,87.78541564941406,23867781.0,50354.0,0.003550888548999997,-0.5040920926446444,-0.1349965771948727,0.006377183141054497,-0.020563810374270353,-0.012694524372846247,23.867781232998823
1602,B,99254882191491.0,5.1811676,4.42206977382841,5.7770571850404595,12,1970-01-02 03:34:14.882191491,-3.0530243,0.26028442,-1.2306061,15.52599052999836,3.301983756629102,-92.36779022216797,1.914164662361145,87.7748794555664,23918135.0,50354.0,0.05586185395810001,-0.4120866989336444,0.1075152910465273,0.001495834618101257,-0.02306663343556658,-0.0006918963413568925,23.918135236002854
1602,B,99254932545495.0,-3.9317474,11.999400773828409,5.868976185040459,12,1970-01-02 03:34:14.932545495,-2.1705475,1.0682983,-1.1378326,9.176832182092673,2.6734249069614617,-92.47798919677734,1.8550668954849243,87.723876953125,23968489.0,50354.0,0.03145665237540001,-0.08002583602164431,0.2932121821585273,0.00219841803395853,-0.012389917292569304,0.01008911559288366,23.968489239996416
1602,B,99254982899499.0,-9.858444,13.38946137382841,4.596057685040459,12,1970-01-02 03:34:14.982899499,-1.2988739,0.21305847,0.49232483,11.758651547549839,1.405293940061822,-92.5433120727539,1.8791954517364502,87.71214294433594,24018843.0,50354.0,-0.3471956488778001,0.14574618229155573,0.2634781577470273,-0.007949360714940927,0.0016546411580375597,0.01401579268780215,24.01884324400453
1602,B,99255033253503.0,7.524521,17.54795447382841,9.07963918504046,12,1970-01-02 03:34:15.033253503,2.2946472,0.022705078,0.8143921,11.779773157042113,2.4349857875513843,-92.42867279052734,1.9198267459869385,87.70924377441406,24069197.0,50354.0,-0.05876117937100001,0.2854421187964557,0.34431302009802733,-0.01022077506482004,0.010856027856492863,0.015302358484604942,24.06919724799809
1602,B,99255083607507.0,-3.0875092,-0.18330722617158912,-3.2894098149595403,12,1970-01-02 03:34:15.083607507,3.1616058,-1.0807343,0.83200073,18.621366894461683,3.443248912946995,-92.2688217163086,1.9636061191558838,87.76155853271484,24119551.0,50354.0,0.11171064608860001,-0.0562794762457443,0.1457806048505273,0.0013331087235490154,0.005769627851499261,0.012339087195329761,24.119551252006204
1602,B,99255133961511.0,9.965988,-1.50713022617159,-1.1378138149595407,12,1970-01-02 03:34:15.133961511,3.9286346,-1.9764252,1.4254913,21.82882329848849,4.623034916360452,-92.06903839111328,2.0385687351226807,87.85767364501953,24169905.0,50354.0,0.17317946074760002,-0.5360293437376443,-0.11146420933047271,0.007172678219815008,-0.014912559160721775,0.0008639838900084142,24.169905255999765
1602,B,99255184315515.0,2.3853912,-1.275120226171591,-1.6038325149595407,12,1970-01-02 03:34:15.184315515,4.796051,0.9122162,1.1912231,19.370682546275713,5.025261790605247,-91.89994812011719,1.8697307109832764,87.80722045898438,24220259.0,50354.0,0.3109706741184,-0.5635179196386443,-0.06902642964837272,0.012189447945521284,-0.02768330145002482,-0.004544212817570391,24.22025926000788
1602,B,99255234669519.0,-0.8170471,3.824596773828409,-3.87141061495954,12,1970-01-02 03:34:15.234669519,2.974289,-1.1594696,1.0084229,14.606891251003523,3.3477875610751604,-91.7493667602539,1.921976089477539,87.86358642578125,24270613.0,50354.0,0.0394861994057,-0.4292810289596444,-0.1378501962819727,0.008823452704716267,-0.024995699128859114,-0.005208532811048307,24.27061326400144
1602,B,99255285023523.0,1.8853455,23.01510227382841,-1.8315241149595407,12,1970-01-02 03:34:15.285023523,0.6995697,-2.3213654,-0.23085022,5.776551785918844,2.4354520955151835,-91.71049499511719,1.9139410257339478,87.98001098632812,24320967.0,50354.0,0.026896548816799995,0.1822739029228557,-0.14358278769517271,0.0016713184519978825,-0.006218898412228229,-0.0070856382375925914,24.320967267995
1602,B,99255335377527.0,2.584259,25.40528477382841,-3.0832788149595403,12,1970-01-02 03:34:15.335377527,-2.6994476,0.19155884,-0.48869324,8.541943129883329,2.7500060394751142,-91.84576416015625,1.889222502708435,87.97118377685547,24371321.0,50354.0,0.1125312324965,0.7256108846988558,-0.12373999336657271,0.0035103732501249544,0.022857815297951833,-0.006730385658791566,24.371321272003115
1602,B,99255385731530.0,-0.9906616,10.24242777382841,3.4302403850404595,12,1970-01-02 03:34:15.385731530,-2.7723541,0.6193695,-0.02998352,8.421159104094507,2.8408563576479273,-91.98538970947266,1.8866921663284302,87.94026184082031,24421675.0,50354.0,0.040122001739799996,0.40403325881235574,0.008735451449927304,0.0038433504783673255,0.028441050601181777,-0.0028954693518353815,24.421675275007146
1602,B,99255436085534.0,3.108673,4.9180717738284105,8.32571768504046,12,1970-01-02 03:34:15.436085534,0.98583984,-0.1904602,0.17134094,15.703553001191171,1.0185838186596865,-91.93579864501953,1.8955814838409424,87.94949340820312,24472029.0,50354.0,0.0533251730178,-0.11177330288864426,0.29597975633042733,0.0023527195188720955,0.007358228910291284,0.007671814786285989,24.472029279000708
1602,B,99255486439538.0,5.909775,11.22343077382841,-13.96282581495954,12,1970-01-02 03:34:15.486439538,-0.6842804,2.9457092,-1.0264435,16.57737953149707,3.1935918047679563,-91.9747543334961,1.839263916015625,87.80396270751953,24522383.0,50354.0,0.227057465296,-0.08707459035764427,-0.14192547138697267,0.007059193684826543,-0.005006393408261807,0.0038786247320213582,24.52238328299427
1602,B,99255536793542.0,-7.38826,13.72095877382841,0.9169804850404595,12,1970-01-02 03:34:15.536793542,-1.8924866,1.0140839,-0.44343567,8.525136353660093,2.1923747126910396,-92.07096862792969,1.815317153930664,87.75404357910156,24572737.0,50354.0,-0.037223816845,0.13455569564135575,-0.3284552478713727,0.004779441767050827,0.001195431787728004,-0.011842775368767362,24.572737287002383
1602,B,99255587147546.0,1.9277649,-1.50713022617159,-3.19295911495954,12,1970-01-02 03:34:15.587147546,-3.6760864,0.31333923,-0.6325226,19.745506479734793,3.743244252360873,-92.2552261352539,1.7831190824508667,87.73957061767578,24623091.0,50354.0,-0.1374788851327,-0.18596163865564427,-0.0573023139654727,-0.004398489927692554,-0.0012942474272707423,-0.009712218134366258,24.623091290995944
1602,B,99255637501550.0,1.2445068,-0.5683942261715913,-0.44724678495954057,12,1970-01-02 03:34:15.637501550,-3.564972,0.3531952,-1.0649567,18.49550945141109,3.7373660488319755,-92.41403198242188,1.5883947610855103,87.72490692138672,24673445.0,50354.0,0.0798682845909,-0.5457246791366444,-0.09164946394226271,-0.0014504620898408993,-0.018421666423056454,-0.003750158912383055,24.673445295004058
1602,B,99255687855554.0,1.4307556,4.37157777382841,4.914966185040459,12,1970-01-02 03:34:15.687855554,-2.846222,0.7805481,-1.3866577,14.43750156423463,3.260836485729835,-92.55732727050781,1.5174355506896973,87.68891143798828,24723799.0,50354.0,0.0673550814448,-0.39771644782064436,0.11248377133583728,0.003706642686680819,-0.023753017253403657,0.000524545357248027,24.72379929899762
1602,B,99255738209558.0,-7.297699,10.735057773828409,4.636157785040459,12,1970-01-02 03:34:15.738209558,-2.0237274,0.7437439,-0.9651642,11.206379301421238,2.3622382418502177,-92.659423828125,1.4675343036651611,87.65394592285156,24774153.0,50354.0,-0.14771203398180002,-0.11312943681664432,0.24046864819472732,-0.0020231469940240497,-0.012861566837513017,0.008886283066521025,24.774153303005733
1602,B,99255788563562.0,-5.9296875,13.595790773828409,7.318744185040459,12,1970-01-02 03:34:15.788563562,-0.45472717,-0.0056915283,0.4214325,10.331828714422691,0.6200117294752161,-92.68218231201172,1.4885988235473633,87.65324401855469,24824507.0,50354.0,-0.3330259099105,0.11910857388435565,0.3009885669007273,-0.01210353921337644,0.00015053673395376823,0.013632268304458262,24.824507306999294
1602,B,99255838917566.0,3.8465424,13.89062107382841,4.426242585040459,12,1970-01-02 03:34:15.838917566,2.5151215,-0.38781738,0.5339966,7.078086097710157,2.6002674571674107,-92.55595397949219,1.5161560773849487,87.6714096069336,24874861.0,50354.0,-0.0524473441827,0.19855619108845568,0.2957035319103273,-0.009705060118304496,0.00799784578772047,0.015022916971765922,24.874861311007407
1602,B,99255889271570.0,1.3190613,3.3752247738284105,-4.895488814959541,12,1970-01-02 03:34:15.889271570,3.087265,-1.117096,1.0643768,15.371753150080757,3.4513774968582096,-92.40013885498047,1.571739912033081,87.72492980957031,24925215.0,50354.0,0.1300544043549,-0.058766999093544284,-0.01181421233067273,0.0019539129539554796,0.0035194724868558847,0.0071474813990569635,24.92521531500097
1602,B,99255939625573.0,5.588974,-1.50713022617159,-4.026348314959541,12,1970-01-02 03:34:15.939625573,4.0392456,-0.84251404,1.7329865,20.578121544922055,4.475329835207538,-92.19708251953125,1.6600090265274048,87.76355743408203,24975569.0,50354.0,0.1739236047481,-0.4464361835736443,-0.22462509341997272,0.007653254335186231,-0.012719500530011807,-0.005952832400884001,24.975569318005
1602,B,99255989979577.0,0.7658386,-0.6439092261715906,-1.9144404149595406,12,1970-01-02 03:34:15.989979577,4.876831,-0.47784424,1.2632599,18.63984969325353,5.06039932171466,-92.04682922363281,1.6238267421722412,87.78224182128906,25025923.0,50354.0,0.15999511683020004,-0.5476259202916444,-0.14957123785317272,0.00840707165317686,-0.02502750158901637,-0.009421141032463984,25.02592332199856
1602,B,99256040333581.0,-0.83995056,8.80881877382841,-2.7786677149595405,12,1970-01-02 03:34:16.040333581,2.7812653,-2.105667,0.68955994,9.53012686674665,3.5559475663634146,-91.90477752685547,1.6619155406951904,87.88631439208984,25076277.0,50354.0,-0.0018659168169199995,-0.2879012723186443,-0.11815838338697272,0.003981218868734352,-0.021036068128349242,-0.006740628673963142,25.076277326006675
1602,B,99256090687585.0,2.6725311,24.22307977382841,-2.7795832149595405,12,1970-01-02 03:34:16.090687585,0.08918762,-2.1306458,-0.17739868,7.4322033076702345,2.1398776246048854,-91.897216796875,1.6565840244293213,87.99311828613281,25126631.0,50354.0,0.04613888025558,0.3381749097343557,-0.1399400836625727,0.0011146604004951429,0.0012657393692153658,-0.006498145104906405,25.126631330000237
1602,B,99256141041589.0,2.7085724,22.44402677382841,-3.1949732149595405,12,1970-01-02 03:34:16.141041589,-3.078415,0.27471924,-0.26356506,6.206836703853092,3.1018665532069525,-92.05154418945312,1.6429402828216553,87.97985076904297,25176985.0,50354.0,0.13548004281950002,0.6814685415503557,-0.15042140723607272,0.004572619626261289,0.025671563172995182,-0.007310431256355197,25.17698533400835
1602,B,99256191395593.0,0.45393372,7.153590773828411,7.306476185040459,12,1970-01-02 03:34:16.191395593,-1.5428314,-0.60635376,0.2241211,12.97320562836256,1.6727892510885247,-92.1278305053711,1.6552430391311646,88.00975799560547,25227339.0,50354.0,0.07962241658324,0.25171001699735573,0.10351531027772728,0.005415634620382786,0.023494636568555733,-0.0011809548031202631,25.22733933800191
1602,B,99256241749597.0,4.7592926,7.62804777382841,1.2305638850404594,12,1970-01-02 03:34:16.241749597,0.5524597,0.513504,-0.08015442,11.366498619023655,0.7585003686127162,-92.1009292602539,1.6502976417541504,87.9842300415039,25277693.0,50354.0,0.13125339905864003,-0.12131188628564428,0.2149370578444273,0.005309220410415614,0.0032830337369287596,0.008017675272211486,25.277693341995473
1602,B,99256292103601.0,4.891144,19.84911717382841,-9.45145781495954,12,1970-01-02 03:34:16.292103601,-0.63349915,2.341034,-1.0905151,10.842341804338782,2.6591322918453555,-92.1358642578125,1.5914815664291382,87.86923217773438,25328047.0,50354.0,0.2429690422782,0.19832338188715576,-0.20697744647357272,0.009421798405537621,0.0019389184247592547,0.00020039913548400564,25.328047346003586
1602,B,99256342457605.0,1.2140198,10.992671773828409,-1.4709284149595405,12,1970-01-02 03:34:16.342457605,-1.7940979,0.8108368,-0.9302368,7.150401459870936,2.17751787480445,-92.22663116455078,1.5434609651565552,87.8304672241211,25378401.0,50354.0,0.1537097089926,0.28303452033515575,-0.2749929181106727,0.009987180920744932,0.012119147904251138,-0.012134567869137549,25.378401349997148
1602,B,99256392811609.0,1.0017853,-1.50713022617159,-4.010845414959541,12,1970-01-02 03:34:16.392811609,-3.4697876,0.6101074,-0.763916,19.82676820990491,3.6048889974178846,-92.40087890625,1.504062533378601,87.801513671875,25428755.0,50354.0,0.0557873250027,-0.2546517204546443,-0.13801461971587273,0.0052745068248996685,0.0007145937525916369,-0.010398290779858935,25.42875535400526
1602,B,99256443165613.0,2.1054382,-0.95120722617159,0.5527837250404595,12,1970-01-02 03:34:16.443165613,-3.4233856,0.32585144,-1.0960693,18.955193170731548,3.6093096344924365,-92.47270202636719,1.2522952556610107,87.79031372070312,25479109.0,50354.0,0.0782305660595,-0.5553627620376443,-0.08706361916709272,0.0033741684432730093,-0.02039373462570835,-0.005666794820356422,25.479109357998823
1602,B,99256493519616.0,1.1864624,5.33860377382841,4.633304185040459,12,1970-01-02 03:34:16.493519616,-2.785736,0.88946533,-1.5267792,13.41401978619026,3.2988677391675845,-92.61285400390625,1.1740601062774658,87.74925994873047,25529463.0,50354.0,0.0828801814062,-0.3830077171196443,0.1305701353121073,0.004056285288943929,-0.023625353553743057,0.0010953635569830318,25.529463361002854
1602,B,99256543873620.0,-4.8892975,12.094219073828409,6.164157585040459,12,1970-01-02 03:34:16.543873620,-2.2516022,0.91101074,-1.1286163,9.751593639753663,2.6783255567734625,-92.72628784179688,1.1155682802200317,87.70637512207031,25579817.0,50354.0,-0.0932262793127,-0.0545630191645443,0.2718476949853273,-0.0002604837069919505,-0.011016718427427017,0.010131673713398511,25.579817364996416
1602,B,99256594227624.0,-5.4251404,13.77808747382841,9.96374868504046,12,1970-01-02 03:34:16.594227624,-0.4201355,-0.37498474,-0.0041656494,12.045053779426663,0.5631560585024734,-92.7469253540039,1.1162549257278442,87.72511291503906,25630171.0,50354.0,-0.2596866030083,0.1579178619503557,0.40605229616182736,-0.008885287638195818,0.0026021648768183737,0.017067488077111913,25.63017136900453
1602,B,99256644581628.0,1.1371765,13.464137773828408,2.9305913850404597,12,1970-01-02 03:34:16.644581628,2.4651947,-0.708786,0.25804138,5.4077857396885545,2.5780123848609406,-92.62299346923828,1.1308060884475708,87.75991821289062,25680525.0,50354.0,-0.10795806711030001,0.19240830506025572,0.32464079994442735,-0.009256189859575993,0.008820161906826164,0.018396660080667177,25.68052537299809
1602,B,99256694935632.0,0.17437744,4.73817077382841,-4.333538314959541,12,1970-01-02 03:34:16.694935632,2.9986115,-0.54504395,1.3186646,13.845259817438428,3.320786076015288,-92.47257232666016,1.197888970375061,87.78421783447266,25730879.0,50354.0,0.03302099354738,-0.03518967769564433,-0.035321994854572714,-0.0018866907010936373,0.003958293381158821,0.00728417955574727,25.730879377006204
1602,B,99256745289636.0,1.7768707,-1.50713022617159,-1.0113184149595407,12,1970-01-02 03:34:16.745289636,4.169815,-1.2967224,1.3336182,19.495034633247688,4.565893518278542,-92.27726745605469,1.106858253479004,87.84566497802734,25781233.0,50354.0,0.04912657442078,-0.41212129213164433,-0.13456745788917274,0.0020682293187343644,-0.011261948287341648,-0.004277306751729279,25.781233380999765
1602,B,99256795643640.0,3.4129486,-0.1948132261715898,-0.2656519449595406,12,1970-01-02 03:34:16.795643640,4.5908966,-0.8008423,1.3492279,18.395704048903742,4.851607559098248,-92.04696655273438,1.175779938697815,87.88314056396484,25831587.0,50354.0,0.1306640805161,-0.5363190302996443,-0.032150282751682704,0.0045265893193458286,-0.02387888199785256,-0.004197452556114817,25.83158738500788
1602,B,99256845997644.0,0.7840271,9.872539773828409,-2.2120325149595406,12,1970-01-02 03:34:16.845997644,2.9999847,-2.4879913,1.1149902,8.349493063953494,4.0537898385592,-91.89439392089844,1.2357760667800903,88.00558471679688,25881941.0,50354.0,0.10566725719890001,-0.2498130787096443,-0.06238066164738271,0.005950114089650556,-0.019792448108526862,-0.00238000558713527,25.88194138900144
1602,B,99256896351648.0,2.6906586,24.48936077382841,-4.415889814959541,12,1970-01-02 03:34:16.896351648,0.21888733,-1.936142,-0.19877625,8.404245249865507,1.9585886512901558,-91.88136291503906,1.2290329933166504,88.1026840209961,25932295.0,50354.0,0.0874821618689,0.37166037008835573,-0.1668712005003727,0.004862922923870001,0.0030677492550418178,-0.005771874133294039,25.932295392995
1602,B,99256946705652.0,0.71466064,20.47874057382841,-5.111110814959541,12,1970-01-02 03:34:16.946705652,-2.637741,0.65486145,-0.3742218,5.798311678646298,2.7434582295658054,-92.01392364501953,1.209222674369812,88.07058715820312,25982649.0,50354.0,0.08573572250548,0.6386926876299557,-0.23986129485947272,0.004361106674893766,0.025437658934173924,-0.01024030403567483,25.982649397003115
1602,B,99256997059655.0,1.1562195,5.151729773828409,11.03908118504046,12,1970-01-02 03:34:16.997059655,-2.3387756,0.42138672,0.3418579,16.87290106335438,2.400896686394508,-92.13133239746094,1.225543737411499,88.04891967773438,26033003.0,50354.0,0.04710314928478,0.1518291519429557,0.14924851000752734,0.003344484275063376,0.019902968354927192,-0.002281358084217429,26.033003400007146
1602,B,99257047413659.0,-4.2402496,15.83129487382841,4.971195185040459,12,1970-01-02 03:34:17.047413659,1.9526672,1.319809,0.3759308,6.831179973864147,2.3866564387916163,-92.0351333618164,1.2419296503067017,87.98226165771484,26083357.0,50354.0,-0.07764662582770002,0.0348204115540557,0.40309072816952735,-0.0007689931089210972,0.004699276060164256,0.013906244999583706,26.083357404000708
1602,B,99257097767663.0,9.005966,28.02463877382841,-8.49714281495954,12,1970-01-02 03:34:17.097767663,1.0879669,-0.2693329,-0.6470337,16.019308926639503,1.294165675427111,-91.98042297363281,1.2100681066513062,87.99686431884766,26133711.0,50354.0,0.11998644180280002,0.6106916414470558,-0.0887727834784727,0.0010659895468050928,0.016252056958408985,0.007913582893486685,26.13371140799427
1602,B,99257148121667.0,9.456924,7.5850787738284104,-9.37278381495954,12,1970-01-02 03:34:17.148121667,-2.2154236,1.0804901,-0.50723267,16.842533150830757,2.5165145668464346,-92.0923080444336,1.1828029155731201,87.94376373291016,26184065.0,50354.0,0.46484018153000006,0.40307665869735576,-0.44991114276147265,0.014724179895649909,0.02552364449273585,-0.013562445210943104,26.184065412002383
1602,B,99257198475671.0,2.7749481,-1.217182226171591,-4.535595214959541,12,1970-01-02 03:34:17.198475671,-3.824417,1.298111,-0.85328674,19.82795192363902,4.127875460678268,-92.28480529785156,1.137694001197815,87.8805160522461,26234419.0,50354.0,0.3079618438617,-0.3331446686196443,-0.3501712588362727,0.019456836593286835,0.0017606777141865413,-0.020143674625026437,26.234419415995944
1602,B,99257248829675.0,-0.32066345,-1.409840226171589,1.1758458850404594,12,1970-01-02 03:34:17.248829675,-3.7944946,-0.010284424,-1.2145691,19.32618384103247,3.984152750269621,-92.33203125,1.0725030899047852,87.88630676269531,26284773.0,50354.0,0.06179152463305,-0.5596097442826443,-0.08458840887937272,0.009309280558592321,-0.02247687785364092,-0.010945944154076806,26.284773420004058
1602,B,99257299183679.0,2.3583984,7.10181777382841,5.749469485040459,12,1970-01-02 03:34:17.299183679,-2.9520264,0.85687256,-1.4208679,12.430392611321528,3.38637801192193,-92.48035430908203,0.9997290968894958,87.84648132324219,26335127.0,50354.0,0.05130405283615,-0.35016228128264426,0.17435866507252729,0.0028474073539420486,-0.02290533028765727,0.0022601457401750526,26.33512742399762
1602,B,99257349537683.0,-3.5445251,12.47414777382841,2.6552311850404595,12,1970-01-02 03:34:17.349537683,-2.4019318,1.4877777,-1.0887299,6.979303504890084,3.027885673472917,-92.60165405273438,0.9420501589775085,87.7745590209961,26385481.0,50354.0,-0.0298631119259,-0.000605115406644291,0.2116051487706273,0.0005398185692973642,-0.00883127074644622,0.009717410941129104,26.385481428005733
1602,B,99257399891687.0,-7.53685,12.50091177382841,7.582233185040459,12,1970-01-02 03:34:17.399891687,-0.7106781,0.2955475,0.3659668,11.953347475249643,0.8522578162024095,-92.637451171875,0.9596521854400635,87.75894927978516,26435835.0,50354.0,-0.27899578089270005,0.1353278742313557,0.2577486404455273,-0.007776140344493894,0.0033919148989297594,0.011816920351095125,26.435835431999294
1602,B,99257450245691.0,4.195038,15.910579573828409,5.304248585040459,12,1970-01-02 03:34:17.450245691,1.8984528,1.1157227,0.39419556,7.026563423618135,2.2370405263756052,-92.54348754882812,0.9768189191818237,87.70233154296875,26486189.0,50354.0,-0.08413680072400001,0.22184691765995565,0.3244429515253273,-0.009142589007363658,0.008992589735447547,0.01465783771105021,26.486189436007407
1602,B,99257500599695.0,-4.2323,1.6784777738284085,-3.0597956149595404,12,1970-01-02 03:34:17.500599695,2.7101746,0.2597046,0.7710571,17.025744706159106,2.8296681595562987,-92.40823364257812,1.0147783756256104,87.68768310546875,26536543.0,50354.0,-0.0009381453740000033,-0.05062950315804435,0.05650859242772729,-0.0021419319179093463,0.004310740844914621,0.009591217022106056,26.53654344000097
1602,B,99257550953698.0,6.5749207,-1.50713022617159,-1.0320246149595407,12,1970-01-02 03:34:17.550953698,4.2040405,-1.2706146,0.58569336,20.49809558398196,4.430739746286335,-92.19690704345703,1.0465881824493408,87.75,26586897.0,50354.0,0.05898016136389999,-0.48915518279264436,-0.10301975792867271,0.0014613238365777119,-0.013590159038180491,-0.001171011613817303,26.586897443005
1602,B,99257601307702.0,1.6361084,-1.50713022617159,-5.698970814959541,12,1970-01-02 03:34:17.601307702,4.732422,0.6907959,1.9097748,20.279072566120067,5.149782203963178,-91.96101379394531,1.1407629251480103,87.71200561523438,26637251.0,50354.0,0.2067290796507,-0.5693592354086443,-0.16946627193907274,0.006689761561024584,-0.026650217507053847,-0.006860380773980227,26.63725144699856
1602,B,99257651661706.0,-0.76626587,8.82287177382841,-5.558086814959541,12,1970-01-02 03:34:17.651661706,3.252655,-3.023117,1.6549683,10.665161847347834,4.738978900429806,-91.7953109741211,1.228418231010437,87.86039733886719,26687605.0,50354.0,0.02190002537781,-0.3092807750546443,-0.2834189399484727,0.005756194977302797,-0.022121519543434217,-0.011402290979692734,26.687605451006675
1602,B,99257702015710.0,3.95961,26.40064577382841,-5.6088528149595405,12,1970-01-02 03:34:17.702015710,0.6478119,-2.4841003,0.19277954,10.954604031612874,2.5744083804408953,-91.76025390625,1.2419092655181885,87.9842758178711,26737959.0,50354.0,0.08039882516101,0.39335330129735574,-0.2811500390624727,0.0025755781600158715,0.002116693993212746,-0.014214153184558573,26.737959455000237
1602,B,99257752369714.0,-2.2607574,23.88648577382841,-6.934246314959541,12,1970-01-02 03:34:17.752369714,-3.252777,1.3283234,0.115478516,9.465312865073505,3.515442583000627,-91.92435455322266,1.2455453872680664,87.9177017211914,26788313.0,50354.0,0.042772011910200004,0.7726099109753557,-0.31579760679397273,0.0031010721649418547,0.02935545579539006,-0.015029350879727729,26.78831345900835
1602,B,99257802723718.0,2.1442413,2.8406332738284092,17.08147018504046,12,1970-01-02 03:34:17.802723718,-2.3288116,0.7478485,0.29512024,22.842313910735594,2.4636835842503126,-92.04161071777344,1.258998990058899,87.87979888916016,26838667.0,50354.0,-0.0029335258497000033,0.17943947626285575,0.2554766553770273,0.0010030135635452086,0.02396974742249645,-0.0015187005938244354,26.83866746300191
1602,B,99257853077722.0,-1.7074127,24.222804773828408,2.8354069850404597,12,1970-01-02 03:34:17.853077722,1.879242,1.900711,0.078201294,7.146307345756501,2.6740172479750903,-91.94974517822266,1.2595951557159424,87.78466796875,26889021.0,50354.0,0.010998033662200004,0.18790697972585566,0.5014472165111273,0.0002030401131953125,0.009248681722427788,0.019057072322528068,26.889021466995473
1602,B,99257903431726.0,-18.799484,-0.008808226171591826,14.92557118504046,12,1970-01-02 03:34:17.903431726,5.325348,-5.2248383,-0.9322815,29.9250552789256,7.518471611803369,-91.67779541015625,1.2212738990783691,88.04732513427734,26939375.0,50354.0,-0.5163021382159,0.11616659108035562,0.4471681473881274,-0.012722041440348506,0.007655660292187982,0.02388328901689154,26.939375471003586
1602,B,99257953785730.0,-4.4754486,11.64512247382841,-4.651073814959541,12,1970-01-02 03:34:17.953785730,-3.1862793,1.5915375,0.0801239,8.98522807882488,3.5625534705974515,-91.83879852294922,1.2228400707244873,87.9676284790039,26989729.0,50354.0,-0.5859929780702,-0.20050171618674434,0.2586810202865273,-0.027752484142735144,-0.002123305444803549,0.017771164494544783,26.989729474997148
1602,B,99258004139734.0,-0.81033325,-1.1626472261715897,-4.808132414959541,12,1970-01-02 03:34:18.004139734,-4.079178,0.3957367,-0.5720825,19.66170880214097,4.138064653701914,-92.04315948486328,1.1935815811157227,87.9488296508789,27040083.0,50354.0,-0.13308012963745,-0.22955192068974428,-0.23815443525067276,-0.018104103632755504,-0.010827460415639355,0.0005167978314477094,27.04008347900526
1602,B,99258054493738.0,-2.3671722,-1.50713022617159,1.5763432850404593,12,1970-01-02 03:34:18.054493738,-3.4396362,-0.53507996,-0.9935303,19.59206862238189,3.6200152222003337,-92.0504150390625,1.2885007858276367,87.98075866699219,27090437.0,50354.0,-0.08000005471465,-0.5606861869176443,-0.08136675492397273,-0.0053647198014328224,-0.019895824835231224,-0.00804458500502705,27.090437482998823
1602,B,99258104847741.0,6.1496735,7.38865277382841,7.200504185040459,12,1970-01-02 03:34:18.104847741,-3.0194855,1.1622772,-1.4384766,14.120792050194325,3.540818535748147,-92.20257568359375,1.2144712209701538,87.92533111572266,27140791.0,50354.0,0.09523203523009999,-0.3453901068176443,0.2209746887542273,0.00038349557343748416,-0.022812282847373362,0.003514908950044319,27.140791486002854
1602,B,99258155201745.0,-8.453842,10.49128327382841,1.3830754850404594,12,1970-01-02 03:34:18.155201745,-1.8825226,0.8500824,-1.0946503,11.309320516838186,2.337689180706154,-92.29754638671875,1.1581100225448608,87.88500213623047,27191145.0,50354.0,-0.05801205032450001,-0.04330605012814429,0.21610878535362732,0.0009370875599682906,-0.00978620314342412,0.011004450627613457,27.191145489996416
1602,B,99258205555749.0,-3.996231,14.872112173828409,8.90666518504046,12,1970-01-02 03:34:18.205555749,-0.53793335,-0.8831024,0.3963623,10.195294898345871,1.1074047186052949,-92.32356262207031,1.1796945333480835,87.92832946777344,27241499.0,50354.0,-0.31345548792100003,0.1451050071856557,0.25906480085062733,-0.009352438210406955,0.002562992341836965,0.01196344537986452,27.24149949400453
1602,B,99258255909753.0,6.5839996,15.33504857382841,3.3143498850404596,12,1970-01-02 03:34:18.255909753,2.2047882,1.2926178,0.27268982,7.7884071895388916,2.570274600440138,-92.21467590332031,1.1907583475112915,87.86319732666016,27291853.0,50354.0,0.06515225004220002,0.2670564861437557,0.30768849641942736,-0.006251530620074548,0.010376989917554593,0.014269147765368166,27.29185349799809
1602,B,99258306263757.0,-3.147232,-1.3054082261715898,-1.1036799149595407,12,1970-01-02 03:34:18.306263757,3.002945,-0.32447815,0.8912964,19.47364957724246,3.1491862465572567,-92.09243774414062,1.4379807710647583,87.87737274169922,27342207.0,50354.0,0.08652749786520002,-0.1402449449670443,0.0556580378367273,0.0038188410130646105,0.0031927341722060637,0.009147975692967205,27.342207502006204
1602,B,99258356617761.0,9.562881,-1.50713022617159,1.0050999850404594,12,1970-01-02 03:34:18.356617761,3.9005432,-1.0113373,0.90301514,21.638974514454002,4.129464460739038,-91.89614868164062,1.484863042831421,87.92634582519531,27392561.0,50354.0,0.16152679487300003,-0.5642804806146443,-0.0024819468955727094,0.006245262928269663,-0.017737836639870174,0.0013388144416254491,27.392561505999765
1602,B,99258406971765.0,0.7010956,-0.9382672261715896,-3.2525904149595406,12,1970-01-02 03:34:18.406971765,4.41008,0.48158264,1.541626,19.11320355741625,4.696524051830818,-91.87503051757812,1.4718540906906128,87.89456176757812,27442915.0,50354.0,0.25841613885820003,-0.5550369716576443,-0.05658506655407271,0.010572903242550424,-0.028181055495859413,-0.0014871301976217227,27.44291551000788
1602,B,99258457325769.0,-0.16003418,7.509608773828409,-5.8856165149595405,12,1970-01-02 03:34:18.457325769,2.3214417,-1.6367188,1.2670898,11.935589814086859,3.110218088500607,-91.75687408447266,1.5377694368362427,87.9743881225586,27493269.0,50354.0,0.013622303371340001,-0.3280225338546443,-0.23007263587457272,0.00684911186001313,-0.02223278917028289,-0.007217180974046006,27.49326951400144
1602,B,99258507679773.0,1.04216,23.12516377382841,-4.93450581495954,12,1970-01-02 03:34:18.507679773,0.5099945,-1.8826752,-0.16523743,7.292200479345723,1.9575146760620454,-91.72885131835938,1.532376766204834,88.06877136230469,27543623.0,50354.0,0.02220928177014,0.2778224684323557,-0.2724182199003727,0.000902131819107042,-0.0012638870471369603,-0.012651212275845803,27.543623517995
1602,B,99258558033777.0,-2.2284698,23.02358617382841,-5.726314814959541,12,1970-01-02 03:34:18.558033777,-2.8820496,1.2677612,-0.33366394,8.029784385955553,3.1661901367324616,-91.87461853027344,1.5137066841125488,88.00591278076172,27593977.0,50354.0,-0.029867721834600004,0.6684178774321557,-0.26840748099947276,-0.00019281654550290948,0.023823493187830808,-0.013616368671555409,27.593977522003115
1602,B,99258608387780.0,0.73809814,8.27080877382841,11.90622318504046,12,1970-01-02 03:34:18.608387780,-1.8263397,0.37776184,0.25508118,15.300110868829789,1.882362110739182,-91.9664535522461,1.5258225202560425,87.9865951538086,27644331.0,50354.0,-0.037523087283820006,0.2944297815971557,0.1555915530335273,-0.0016966984011744606,0.024241615511380977,-0.0028403666183986088,27.644331525007146
1602,B,99258658741784.0,-1.2816315,14.25808327382841,4.56015368504046,12,1970-01-02 03:34:18.658741784,2.701645,1.544632,-0.015670776,5.945342708738896,3.1120763638878532,-91.83341979980469,1.5224814414978027,87.9094009399414,27694685.0,50354.0,-0.013684539404720003,0.07374071508385571,0.4145739704580274,-0.0012892544171373718,0.009269428594937824,0.014355057384946874,27.694685529000708
1602,B,99258709095788.0,-7.749542,-0.4636572261715912,-16.97797781495954,12,1970-01-02 03:34:18.709095788,2.9208527,-1.6893463,-0.36418152,26.182570882119062,3.393803116848485,-91.68513488769531,1.5068758726119995,87.99441528320312,27745039.0,50354.0,-0.2273778552095,-0.14616693539814432,-0.3126435581189727,-0.006069227909202217,-0.0018234749488528444,0.0025663019914603804,27.74503953299427
1602,B,99258759449792.0,2.1714325,4.488460773828409,-10.99793681495954,12,1970-01-02 03:34:18.759449792,-2.7559814,2.7749329,-0.059326172,17.477810065119606,3.9114199047574196,-91.82656860351562,1.4996588230133057,87.85578155517578,27795393.0,50354.0,-0.14044006288150002,-0.39213672108064435,-0.7043496026374728,-0.009260551723777108,-0.013552871159166462,-0.02560483680836503,27.795393537002383
1602,B,99258809803796.0,1.2318268,-0.12320322617159007,-1.9418146149595406,12,1970-01-02 03:34:18.809803796,-3.4707794,0.23362732,-0.7609253,18.151104433647596,3.560884536220577,-92.11002349853516,1.3267581462860107,87.84285736083984,27845747.0,50354.0,0.08568385939610002,-0.3835651107226443,-0.3257841217510727,-0.001378596935151916,-0.0195298450193114,-0.025935676778930414,27.845747540995944
1602,B,99258860157800.0,0.04283142,0.06719577382840924,3.0293004850404595,12,1970-01-02 03:34:18.860157800,-3.4664307,0.08403015,-0.98565674,18.064108857239017,3.6048192843912354,-92.28340148925781,1.2773561477661133,87.84056091308594,27896101.0,50354.0,0.03209207000494,-0.4948792996276443,0.027379631751027297,0.0029652445745299845,-0.022116594919389217,-0.0075129298447311425,27.896101545004058
1602,B,99258910511804.0,2.1952362,7.57676277382841,6.031909685040459,12,1970-01-02 03:34:18.910511804,-2.4385376,1.1504211,-1.5932007,12.12744102643656,3.1318082323826055,-92.406494140625,1.1954107284545898,87.78631591796875,27946455.0,50354.0,0.05634782846874001,-0.3010172556456443,0.22813408845212732,0.0022266513238718413,-0.02003828757211559,0.006433068933554824,27.94645554899762
1602,B,99258960865808.0,-6.93721,11.345790773828409,3.40550588504046,12,1970-01-02 03:34:18.960865808,-1.6511536,1.2220154,-1.4612579,10.112196319240331,2.5208935913565513,-92.49022674560547,1.1198055744171143,87.72838592529297,27996809.0,50354.0,-0.11938867436260002,-0.01705606933064432,0.2376058118079273,-0.0015871793770697135,-0.008008132102928018,0.011725933468847396,27.996809553005733
1602,B,99259011219812.0,-5.929901,15.02209077382841,6.447513185040459,12,1970-01-02 03:34:19.011219812,-0.6048126,0.23390198,0.068115234,9.198366391366513,0.6520338200350924,-92.52070617675781,1.1226918697357178,87.716552734375,28047163.0,50354.0,-0.32395525364700006,0.17039495372535568,0.2480694611274273,-0.011162070075497701,0.003860613092405648,0.012227846346693425,28.047163556999294
1602,B,99259061573816.0,3.9273376,14.894435773828409,3.6934239850404595,12,1970-01-02 03:34:19.061573816,1.8089752,0.699173,0.3274994,6.148974367706618,1.9668477356278498,-92.43096160888672,1.1375435590744019,87.68091583251953,28097517.0,50354.0,-0.05041853872180001,0.2597391888903557,0.2553183751311273,-0.00942560897046928,0.010829487308635765,0.012673795553481632,28.097517561007407
1602,B,99259111927820.0,-2.04187,1.6462667738284082,-1.9169276149595407,12,1970-01-02 03:34:19.111927820,3.0001068,-1.02211,0.7539673,16.475399927593838,3.257885257797691,-92.38849639892578,1.3267102241516113,87.7282943725586,28147871.0,50354.0,0.04747041776520001,-0.07702393195764436,0.044726849109527296,-7.422484132431818e-05,0.004600222023794874,0.007554238610706961,28.14787156500097
1602,B,99259162281823.0,5.2737274,-1.50713022617159,-2.1142084149595406,12,1970-01-02 03:34:19.162281823,3.311554,-1.1539001,1.8919525,20.204149764347598,3.984640460311603,-92.22162628173828,1.4235543012619019,87.78215789794922,28198225.0,50354.0,0.08136847375980001,-0.48996615913964436,-0.10149191182527272,0.0032437767719249258,-0.014275109523556439,-0.0014291739839943226,28.198225568005
1602,B,99259212635827.0,2.6500244,-0.3419232261715912,-2.3305323149595405,12,1970-01-02 03:34:19.212635827,4.104782,-0.50405884,1.908905,18.56256282684726,4.55491260956027,-92.01583099365234,1.5198662281036377,87.80382537841797,28248579.0,50354.0,0.1994962990686,-0.5400228187696443,-0.11190523735717271,0.0070713323855006276,-0.02593203249682216,-0.0053727000249664284,28.24857957199856
1602,B,99259262989831.0,1.6189117,7.421977773828409,-1.0726282149595405,12,1970-01-02 03:34:19.262989831,3.0219727,-2.1136322,1.4088898,10.638316380443433,3.947750061106474,-91.86193084716797,1.593847393989563,87.90709686279297,28298933.0,50354.0,0.1074790041897,-0.31521466665364434,-0.0856813726617727,0.00772871721013422,-0.02153231417050214,-0.0049746380804469885,28.298933576006675
1602,B,99259313343835.0,2.6186676,22.49090177382841,-3.3874171149595402,12,1970-01-02 03:34:19.313343835,0.67349243,-2.772049,0.306839,6.304867912154325,2.8691458456462797,-91.82438659667969,1.613640546798706,88.04518127441406,28349287.0,50354.0,0.10668953403610001,0.25964736837135566,-0.1122905612713727,0.005392121286910967,-0.0013990178688531821,-0.004984339380634801,28.349287580000237
1602,B,99259363692956.0,1.9360199,24.54389577382841,-3.5477258149595405,12,1970-01-02 03:34:19.363692956,-2.1943817,0.0043640137,-0.4643097,7.804570306745529,2.2429698142027132,-91.93408966064453,1.5904293060302734,88.04573059082031,28399636.0,50349.0,0.11466198046875,0.6906573108634865,-0.1745887556892479,0.005572413701902347,0.023923445147397533,-0.007222043364825142,28.39963670099678
1602,B,99259414046960.0,1.3827515,8.76562077382841,5.459399985040459,12,1970-01-02 03:34:19.414046960,-1.4701385,-0.14404297,0.007156372,10.701939252194254,1.4771955862541946,-92.00740814208984,1.5910357236862183,88.05293273925781,28449990.0,50354.0,0.0835567075378,0.3451644981203557,0.048130220580127295,0.00499055190794091,0.026078885684786196,-0.003183846538442329,28.449990705004893
1602,B,99259464400964.0,4.9881744,2.675716773828409,4.049411585040459,12,1970-01-02 03:34:19.464400964,1.252243,-0.19198608,0.15379333,16.499875372304324,1.2761753697338212,-91.94453430175781,1.5990523099899292,88.062255859375,28500344.0,50354.0,0.1604008013843,-0.20541064456264432,0.23940334889992732,0.006142118202131712,0.0035185827710225,0.007239232678799335,28.500344708998455
1602,B,99259514754968.0,-1.5512543,10.64925777382841,-7.722286414959541,12,1970-01-02 03:34:19.514754968,-0.22457886,1.5231628,-0.6253967,10.707839353380235,1.6618007136939223,-91.95783233642578,1.5652060508728027,87.98717498779297,28550698.0,50354.0,0.08653133735770001,-0.15798631581364433,-0.09247196959287274,0.006217010457107334,-0.009149245271393821,0.003699291336813713,28.550698713006568
1602,B,99259565108972.0,-8.633011,11.89959327382841,3.8028447850404596,12,1970-01-02 03:34:19.565108972,-2.046997,0.112457275,-0.4584198,11.161413943013716,2.100712276762686,-92.06031799316406,1.5421030521392822,87.98236083984375,28601052.0,50354.0,-0.2564092474581,0.07424322282685572,-0.09867978191647271,-0.004277016142597771,-0.002108399852128377,-0.00481262764775079,28.60105271700013
1602,B,99259615462976.0,1.1571503,-1.4666632261715904,-4.43287281495954,12,1970-01-02 03:34:19.615462976,-3.6143494,0.94911194,-0.6394043,19.88595255404644,3.7911967660343633,-92.24225616455078,1.5083773136138916,87.93611907958984,28651406.0,50354.0,-0.18821974484390003,-0.2307993201901443,-0.0158622157092727,-0.011194424139187456,-0.003941612863315517,-0.0028838238742233922,28.651406721008243
1602,B,99259665816980.0,0.24327087,-1.2142072261715917,-0.2715265749595406,12,1970-01-02 03:34:19.665816980,-3.693695,0.5528259,-1.0731659,19.097240636106484,3.885959891411467,-92.39356994628906,1.3977147340774536,87.91163635253906,28701760.0,50354.0,0.03525840379709,-0.5609654753786444,-0.1184426634399927,-0.003851107683535536,-0.019934262258035393,-0.003381393942341055,28.701760725001805
1602,B,99259716170983.0,1.6820831,4.831325773828409,5.978076685040459,12,1970-01-02 03:34:19.716170983,-3.001236,0.8391266,-1.3246918,14.44119010970581,3.386201314675606,-92.54456329345703,1.3297369480133057,87.87256622314453,28752114.0,50354.0,0.04847463690269,-0.40240100632564435,0.1436738121215073,0.002108146765698361,-0.02425467790986888,0.0006352446303544929,28.752114728005836
1602,B,99259766524987.0,-3.356903,12.12299717382841,6.839053885040459,12,1970-01-02 03:34:19.766524987,-2.1155243,0.8951111,-1.147934,9.532612119036274,2.5679601658884237,-92.65129852294922,1.270370602607727,87.8304443359375,28802468.0,50354.0,-0.0421669406223,-0.06661021114684433,0.3226968963629273,0.00015880886925137897,-0.011808295422304849,0.011741815327512612,28.802468731999397
1602,B,99259816878991.0,-6.040619,13.53261937382841,5.9611546850404595,12,1970-01-02 03:34:19.816878991,-0.21080017,0.19900513,-0.035232544,9.521119214399578,0.2920292546904466,-92.66205596923828,1.2681485414505005,87.8205795288086,28852822.0,50354.0,-0.236601411394,0.15246225782035572,0.32227085116892734,-0.0070185507987143856,0.0021614969790989965,0.016238352979609506,28.85282273600751
1602,B,99259867232995.0,-1.1765442,13.38370877382841,1.3525578850404594,12,1970-01-02 03:34:19.867232995,2.0982819,-0.37504578,0.58026123,4.833571773954756,2.209106010132726,-92.55675506591797,1.2979868650436401,87.83799743652344,28903176.0,50354.0,-0.18170651788640002,0.18420319377355573,0.1841373413769273,-0.010531738735492633,0.00847622607477991,0.012749839063726984,28.903176740001072
1602,B,99259917586999.0,1.6924286,4.78603777382841,-3.4760248149595405,12,1970-01-02 03:34:19.917586999,2.5769958,-1.1450348,1.268158,13.6577551129835,3.0919632532410017,-92.4266357421875,1.3638237714767456,87.89244079589844,28953530.0,50354.0,0.012988421538800001,-0.036009491169644296,-0.053462526894572704,-0.004247815511743525,0.0037310728504586785,0.003289999804222242,28.953530743994634
1602,B,99259967941003.0,4.524048,-1.50713022617159,-2.0178034149595403,12,1970-01-02 03:34:19.967941003,3.8240662,-0.9124756,1.6249542,20.011492343450286,4.254006367493523,-92.2343978881836,1.4468646049499512,87.93474578857422,29003884.0,50354.0,0.1565122313582,-0.41091614467264426,-0.1383181133446727,0.004267517937987769,-0.0112522467336013,-0.004828461179303482,29.003884748002747
1602,B,99260018295007.0,2.1501617,-1.3069492261715894,-0.8135798149595406,12,1970-01-02 03:34:20.018295007,4.5232697,-0.4578247,1.4194641,19.324366273241147,4.762819602510365,-92.01422119140625,1.3233660459518433,87.95445251464844,29054238.0,50354.0,0.1680365776169,-0.5643192783716443,-0.0712857355796727,0.008171165363566091,-0.024553502245986056,-0.005277196104368245,29.05423875199631
1602,B,99260068649011.0,-0.2936859,7.022670773828409,-2.61890821495954,12,1970-01-02 03:34:20.068649011,2.9281464,-2.347458,1.1631012,11.177079098529095,3.929046296881522,-91.86508178710938,1.3854577541351318,88.06981658935547,29104592.0,50354.0,0.0467404912166,-0.3495644785946443,-0.0864197511292727,0.00540744226202103,-0.02300885134914025,-0.003970551038871119,29.104592756004422
1602,B,99260119003015.0,2.7624512,21.55738437382841,-3.76314951495954,12,1970-01-02 03:34:20.119003015,0.4118042,-2.5731964,0.15440369,5.957335246092744,2.610510086476629,-91.84138488769531,1.3973373174667358,88.19820404052734,29154946.0,50354.0,0.06215610395810001,0.2260908484525557,-0.1606810674661727,0.0027416895767134225,-0.0031086955860873647,-0.006221257309777529,29.154946759997983
1602,B,99260169357019.0,1.9100189,23.205318373828412,-4.120693414959541,12,1970-01-02 03:34:20.169357019,-2.6888275,0.11016846,-0.35139465,7.012851504967215,2.7139286310409205,-91.97594451904297,1.3795957565307617,88.19328308105469,29205300.0,50354.0,0.11763877970770001,0.6335213670777557,-0.1984915134465727,0.004526695786053847,0.02164245675040665,-0.009042888069640192,29.205300764006097
1602,B,99260219711022.0,0.16015625,7.4410357738284105,8.11822868504046,12,1970-01-02 03:34:20.219711022,-2.4008026,0.78012085,-0.05505371,13.21079176162751,2.524969816801034,-92.096923828125,1.3754589557647705,88.15438842773438,29255654.0,50354.0,0.05212079975155,0.2781140583755558,0.10064594549482732,0.004274036932045538,0.022952245106638028,-0.002463457864321094,29.255654766995576
1602,B,99260270065026.0,0.1913147,15.80721657382841,7.662479185040459,12,1970-01-02 03:34:20.270065026,1.0210571,1.7133942,0.081329346,7.918442624050422,1.9962193638412682,-92.04792022705078,1.376423954963684,88.06859588623047,29306008.0,50354.0,0.00884898410815,0.09185204935695572,0.3973108820450273,0.0015350362482356669,0.009314636694381444,0.01253705904697092,29.30600877100369
1602,B,99260320419030.0,2.153366,29.25498577382841,-11.56408331495954,12,1970-01-02 03:34:20.320419030,1.8185425,1.2899475,-0.1723938,16.379556686205987,2.236242607442435,-91.95852661132812,1.3655556440353394,88.00442504882812,29356362.0,50354.0,0.059032025983900005,0.6410618685069557,-0.0982306871789727,0.001709040191087543,0.0184525737100597,0.007529942066142657,29.35636277499725
1602,B,99260370773034.0,6.265396,10.66047277382841,-14.56002481495954,12,1970-01-02 03:34:20.370773034,-1.2250519,2.02919,-0.49874878,17.435897695593997,2.4222127403151643,-92.02214813232422,1.3371086120605469,87.90386199951172,29406716.0,50354.0,0.21195917087400004,0.5114822998543557,-0.6577266703869727,0.006822745363291351,0.029017604526832736,-0.01903273839143781,29.406716779005365
1602,B,99260421127038.0,3.0614014,-1.070545226171589,-6.756313514959541,12,1970-01-02 03:34:20.421127038,-3.257431,1.4455109,-0.8137665,20.35720647646534,3.6554855215555238,-92.18663787841797,1.293793797492981,87.8331069946289,29457070.0,50354.0,0.2348207781398,-0.2520235941326443,-0.5366814501323727,0.011248578776320444,0.006532391833955527,-0.030071613250315557,29.457070782998926
1602,B,99260471481042.0,-0.36224365,-1.2761572261715912,0.33420158504045944,12,1970-01-02 03:34:20.471481042,-3.6571045,0.05973816,-0.9572449,19.161343090914603,3.780780312350408,-92.29157257080078,1.2406384944915771,87.8337631225586,29507424.0,50354.0,0.06795669467175,-0.5525521276426443,-0.16168951205957272,0.007623028432976395,-0.020256802947136443,-0.01758288571510661,29.50742478700704
1602,B,99260521835046.0,2.033783,6.364177773828409,6.363681585040459,12,1970-01-02 03:34:20.521835046,-3.0760956,0.5767212,-1.2461243,13.302079170923369,3.3686491734698776,-92.44593811035156,1.1771975755691528,87.8075180053711,29557778.0,50354.0,0.04208434621495001,-0.3653681066716444,0.16863260457312731,0.0027705032864044463,-0.023110477739330847,0.00017480624021376417,29.5577787910006
1602,B,99260572189050.0,-2.9629517,11.67095577382841,5.04288078504046,12,1970-01-02 03:34:20.572189050,-2.1473541,0.8482208,-0.9857178,8.516314952507033,2.510427799713883,-92.55412292480469,1.1261093616485596,87.76728820800781,29608132.0,50354.0,-0.0233936803599,-0.039398642670644295,0.28718302079152735,0.0004705748942325942,-0.010190812448190803,0.011476069999805912,29.608132794994162
1602,B,99260622543054.0,-6.4218597,13.84914777382841,7.766727185040459,12,1970-01-02 03:34:20.622543054,-0.08262634,-0.34124756,0.15948486,10.837781962749993,0.38563250619854234,-92.55791473388672,1.134834885597229,87.78398132324219,29658486.0,50354.0,-0.2362813966178,0.14905044701935574,0.3225074998627273,-0.0065378394130675525,0.002760703478087508,0.01535017823851217,29.658486799002276
1602,B,99260672897058.0,-0.11021423,15.80039577382841,2.8510777850404594,12,1970-01-02 03:34:20.672897058,2.1137695,0.26686096,0.41389465,3.5121928804414844,2.1703790112330594,-92.4525146484375,1.1549248695373535,87.76974487304688,29708840.0,50354.0,-0.16445802533561002,0.2530173578993557,0.2673244757317273,-0.010089416426521006,0.010122861124438397,0.014850199649541583,29.708840802995837
1602,B,99260723251062.0,-1.7485046,3.5593377738284104,-1.7100184149595405,12,1970-01-02 03:34:20.723251062,2.9370728,-0.2068634,1.0814056,14.529879422324381,3.1366585996041647,-92.41572570800781,1.3531486988067627,87.7756118774414,29759194.0,50354.0,-0.04679696398291,-0.006049188470644285,0.028728451760527296,-0.005318766866072379,0.006217917601706668,0.0074537245554724945,29.75919480700395
1602,B,99260773605065.0,4.655258,-1.50713022617159,1.7528569850404594,12,1970-01-02 03:34:20.773605065,4.0457306,-1.3496704,0.94262695,20.01241722221134,4.367847506870955,-92.21186065673828,1.402967095375061,87.84115600585938,29809548.0,50354.0,0.0731833303518,-0.4418007705726443,0.0010785466789272938,0.0006643295460695435,-0.011275518418832876,0.0007504507997101482,29.809548810007982
1602,B,99260823959069.0,1.167099,-1.50713022617159,-0.17045235495954056,12,1970-01-02 03:34:20.823959069,4.210373,-0.3819275,1.7446594,19.42240887911313,4.5735047651001315,-91.9599838256836,1.369796872138977,87.8578109741211,29859902.0,50354.0,0.146589482189,-0.5693592354086443,0.0398402013715473,0.0055332201013397215,-0.025457975470590904,0.001030211319666799,29.859902814001543
1602,B,99260874313073.0,-0.042129517,6.58159977382841,-4.273678014959541,12,1970-01-02 03:34:20.874313073,2.6927185,-2.165329,1.5948181,12.086923555014264,3.805631008199673,-91.82273864746094,1.4530683755874634,87.96340942382812,29910256.0,50354.0,0.028323356673491003,-0.3657092801986443,-0.11188987032345273,0.004403780544040937,-0.023542220017444708,-0.0018139945152021231,29.910256817995105
1602,B,99260924667077.0,3.5104065,20.93824377382841,-3.6086542149595404,12,1970-01-02 03:34:20.924667077,0.1733551,-2.2780762,0.44995117,5.9046243911725,2.328548736678453,-91.8111801147461,1.4791666269302368,88.07658386230469,29960610.0,50354.0,0.08732080960099102,0.1993979009993558,-0.1984534785526727,0.0029115731742926343,-0.004187221594100486,-0.00781351449465421,29.96061082200322
1602,B,99260975021081.0,0.022842407,23.50080477382841,-6.285961414959541,12,1970-01-02 03:34:20.975021081,-3.0248718,1.0639954,-0.39720154,8.449687036758908,3.2310531844949213,-91.96377563476562,1.457564115524292,88.0240478515625,30010964.0,50354.0,0.08895660773153902,0.6253727252843558,-0.2491167377144727,0.00443813653618111,0.02076525005794501,-0.01126847533495792,30.01096482599678
1602,B,99261025375085.0,0.908844,7.846812773828409,9.28581618504046,12,1970-01-02 03:34:21.025375085,-2.4494934,0.7401123,-0.0030517578,13.68530146827453,2.5588656562001297,-92.08719635009766,1.4561054706573486,87.98706817626953,30061318.0,50354.0,0.023457068669039,0.29576976699735574,0.0755273435463273,0.002830239130737353,0.023191604528176653,-0.004370460176971397,30.061318830004893
1602,B,99261075729089.0,-0.9705353,16.35988987382841,12.47615418504046,12,1970-01-02 03:34:21.075729089,1.7726746,1.7212372,-0.044128418,12.58364486845912,2.4712304735544564,-92.00074005126953,1.450832486152649,87.9011001586914,30111672.0,50354.0,-0.0015532018601000003,0.11598295256005574,0.5479011280075273,0.0005514736546486572,0.01036669822029695,0.0156960586283114,30.111672833998455
1602,B,99261126083093.0,-7.084793,15.20626437382841,-14.712276814959539,12,1970-01-02 03:34:21.126083093,2.6675873,-1.2958374,-0.17012024,16.566458689104184,2.9705483444000214,-91.86571502685547,1.4445194005966187,87.96615600585938,30162026.0,50354.0,-0.20280900060910004,0.3012718654932558,-0.05629885945347265,-0.005145227171567049,0.010505224554128225,0.012377070315385435,30.162026838006568
1602,B,99261176437097.0,4.5738983,0.8745387738284087,-13.64141481495954,12,1970-01-02 03:34:21.176437097,-1.7341919,2.3240814,-0.34848022,22.288509798574754,2.920653071417901,-91.955322265625,1.4232332706451416,87.85055541992188,30212380.0,50354.0,-0.06321679586190002,-0.08860281915144434,-0.7138608941664726,-0.006697731477750369,0.005354368579747787,-0.019390312116889363,30.21238084200013
1602,B,99261226791101.0,1.3969574,0.8299217738284099,-4.679134814959541,12,1970-01-02 03:34:21.226791101,-3.2325134,0.39260864,-0.87120056,17.740741233202737,3.3707973598432948,-92.11738586425781,1.379004716873169,87.83248138427734,30262734.0,50354.0,0.1503282339589,-0.4505559967916443,-0.46125647803247266,0.0021932046769681684,-0.013574401508999145,-0.029585930079852846,30.262734846008243
1602,B,99261277145105.0,-0.7979584,-1.192509226171591,1.8327672850404595,12,1970-01-02 03:34:21.277145105,-3.7082367,-0.23020935,-0.9617615,19.174081267263958,3.8378380568930424,-92.11463928222656,1.3568226099014282,87.85028839111328,30313088.0,50354.0,0.015080997823000002,-0.5025980642876443,-0.07166299530077273,0.004164508228572897,-0.02399755979579325,-0.01341731358011112,30.313088850001805
1602,B,99261327499108.0,4.1056366,7.563426773828409,7.128269185040459,12,1970-01-02 03:34:21.327499108,-2.6889038,0.5872345,-1.3172913,13.182045012525165,3.0512791371325534,-92.24971008300781,1.2898876667022705,87.82345581054688,30363442.0,50354.0,0.08327741404140002,-0.33306860890264434,0.2256120152072273,0.0024763697355099992,-0.021039579830911898,0.0038759744741848064,30.363442853005836
