Subject-id_accel,Activity_accel,Timestamp_accel,accel_x,accel_y,accel_z,Segment_accel,DateTime,gyro_x,gyro_y,gyro_z,accel_magnitude,gyro_magnitude,Roll,Pitch,Yaw,Time_Difference,Difference_Microseconds,vx,vy,vz,dx,dy,dz,Time_diff
1601,B,265306447306878.0,-2.297835,1.228824,1.9482816,7,1970-01-04 01:41:46.447306878,0.35100463,-0.6564692,0.30919302,3.2535911395102426,0.8060746767184771,77.75418853759766,-20.541461944580078,15.55444049835205,15025660.0,39899.0,-0.1388593525785,-0.414700710038,0.1771773187944,-0.005786414814530226,-0.014041528972419377,0.00859573168817125,15.025660462968517
1601,B,265306487174326.0,-3.7924154,1.2497733,1.0947487,7,1970-01-04 01:41:46.487174326,-0.3006709,3.45918,-0.8815063,4.140389182637514,3.582371089020022,77.38748931884766,-19.055932998657227,15.822898864746094,15065527.0,39867.0,-0.12140000634840001,-0.34128948072045,0.06065824448504999,-0.005187879931169361,-0.015069530467483565,0.004740895200630917,15.065527911006939
1601,B,265306527091566.0,1.9620483,4.7022123,0.8367735,7,1970-01-04 01:41:46.527091566,-2.5529063,1.5355787,-2.1728733,5.163392676923423,3.687371814494203,77.30387115478516,-19.015432357788086,15.85689926147461,15105445.0,39918.0,-0.0365322969489,-0.27240071940960003,0.0385512515898,-0.0031521708415108113,-0.012248642704395669,0.0019801223321579313,15.105445150984451
1601,B,265306566783441.0,1.927931,19.612701,3.4368765,7,1970-01-04 01:41:46.566783441,-4.3769054,-2.4839303,-4.3026032,20.004676416588556,6.6211483076923665,77.21478271484375,-18.499528884887695,15.654994010925293,15145137.0,39692.0,0.0772005291878,0.09357216935179997,0.0848148579,0.0008071017370132094,-0.0035490314044471,0.002448323808934571,15.145137025974691
1601,B,265306606788180.0,3.1663318,19.612701,-11.584944,7,1970-01-04 01:41:46.606788180,-3.0703585,0.33182988,-2.8021781,22.997709126481016,4.170061689220278,78.0916748046875,-18.21645164489746,15.316036224365234,15185141.0,40004.0,0.1018954445256,0.392547290804,-0.162977646135,0.0035822776662154266,0.00972336144203631,-0.0015634120902764696,15.185141764988657
1601,B,265306646379899.0,12.44925,19.612701,9.627085,7,1970-01-04 01:41:46.646379899,0.81732416,1.8426412,-3.7257624,25.146026160710285,4.236112703376871,77.79309844970703,-18.311279296875,15.471495628356934,15224733.0,39592.0,0.3091260573128,0.38850445799200006,-0.03875777676400002,0.008136581650392967,0.015461700419165617,-0.0039935544317086045,15.224733483977616
1601,B,265306686480523.0,0.32441434,12.594099,-4.012682,7,1970-01-04 01:41:46.686480523,-2.0442424,-2.4727452,-2.0865867,13.221883039829185,3.827171262263774,78.48719787597656,-17.876522064208984,15.08814811706543,15264834.0,40101.0,0.25611835684917,0.2527726434,0.11257158735149998,0.011333433126154578,0.012857926521460296,0.0014800038091846682,15.264834108005743
1601,B,265306726911252.0,5.566519,-1.2725182,-2.8030117,7,1970-01-04 01:41:46.726911252,-2.1379857,-3.5260253,-0.6069344,6.3609992090102585,4.167997916931814,79.64012145996094,-20.51169204711914,14.505995750427246,15305264.0,40430.0,0.11908521746810001,-0.16734824412800003,-0.1377792481455,0.007584740254823614,0.0017268542312834792,-0.0005095728629507103,15.305264836992137
1601,B,265306766486669.0,1.0348936,-11.84651,-0.6901286,7,1970-01-04 01:41:46.766486669,0.49401638,-2.5848641,0.06471482,11.911636387497687,2.632444226779505,78.86260223388672,-23.29166030883789,14.686241149902344,15344840.0,39576.0,0.13062875252880002,-0.6474441300216,-0.0691222602564,0.004941340038298658,-0.01612311149967228,-0.004094167048256797,15.344840253994334
1601,B,265306806492138.0,4.0120835,-8.030152,-8.486248,7,1970-01-04 01:41:46.806492138,-0.32117724,-2.128931,1.8322549,12.352998027668434,2.82712929326358,81.02094268798828,-25.504440307617188,13.708396911621094,15384845.0,40005.0,0.10095215944275,-0.7896319316550001,-0.18355047294149998,0.004632197191710929,-0.028745113923686193,-0.005054086345790994,15.384845722990576
1601,B,265306845820680.0,4.7321396,-0.51116204,13.82831,7,1970-01-04 01:41:46.845820680,0.86499476,-0.5587312,0.23249397,14.624520138490874,1.0556751085287832,79.58134460449219,-25.861879348754883,14.327704429626465,15424174.0,39329.0,0.17195077514995,-0.55338486993958,0.10504897819900001,0.005366499757298149,-0.02640975389495662,-0.0015436926433638907,15.424174265004694
1601,B,265306886253180.0,-6.1686606,12.78803,18.158224,7,1970-01-04 01:41:46.886253180,1.515605,8.543954,-1.4527544,23.050101598758047,8.798107968015644,78.39905548095703,-24.929838180541992,15.234085083007812,15464606.0,40432.0,-0.029040708536,-0.14804443732064007,0.646639771344,0.0028890699066676136,-0.014180094875572612,0.01519613976076129,15.464606765017379
1601,B,265306926235002.0,5.1158104,9.642049,-8.889671,7,1970-01-04 01:41:46.926235002,-3.396063,-2.509763,0.06258429,14.077175691714235,4.223277283046047,79.48253631591797,-25.09627914428711,14.593483924865723,15504588.0,39982.0,-0.021047528348199996,0.05657610928899995,0.185287643023,-0.001001313943552042,-0.0018285433456805176,0.016631060940610693,15.504588586976752
1601,B,265306965928493.0,18.033127,11.285069,-0.04189853,7,1970-01-04 01:41:46.965928493,2.315086,2.683401,2.8932583,21.273180467896807,4.575063683132278,79.68016052246094,-25.99711799621582,14.700729370117188,15544282.0,39694.0,0.45943696057780004,0.026339310945999974,-0.17726486046190998,0.008700715061460872,0.0016456223454040435,0.0001592281654899535,15.544282077986281
1601,B,265307005937451.0,13.710396,19.612701,-3.105878,7,1970-01-04 01:41:47.005937451,2.3068302,0.21411815,3.5404065,24.130467818571216,4.231050736995919,80.21028137207031,-26.412689208984375,14.555170059204102,15584291.0,40009.0,0.6350133058535,0.22600623996500002,-0.062969695594385,0.021893930354824943,0.005048046573199099,-0.004805772176628154,15.584291036007926
1601,B,265307045392711.0,-0.9187749,19.612701,13.682264,7,1970-01-04 01:41:47.045392711,1.0402308,-7.1900024,2.6628947,23.931287804837563,7.737520456358257,79.74935913085938,-25.9794921875,14.48476791381836,15623746.0,39455.0,0.25234670525024994,0.387160117955,0.20864565481499997,0.017505394619049226,0.012096239325866799,0.0028738224855246815,15.623746295983437
1601,B,265307086198023.0,2.6102784,12.427104,-3.104681,7,1970-01-04 01:41:47.086198023,2.5563684,0.85061365,0.6048039,13.07231851142266,2.7612226885095836,80.49459075927734,-25.697025299072266,14.258417129516602,15664551.0,40805.0,0.03451090015875,0.2538031215125,0.21580913715750003,0.005852612294357122,0.013077252493235669,0.008659938893218932,15.664551607973408
1601,B,265307125580627.0,-1.1641805,7.538144,2.2373815,7,1970-01-04 01:41:47.125580627,2.4881914,1.7923075,0.6332997,7.94888716600371,3.131218792676471,80.38339233398438,-24.914472579956055,14.444252967834473,15703934.0,39383.0,0.02847583679785,0.007192280991999952,-0.017078428104249994,0.0012403033307808891,0.005139390968417362,0.003913305757322073,15.703934211982414
1601,B,265307165551355.0,-5.907094,-0.62129533,5.689222,7,1970-01-04 01:41:47.165551355,2.4274714,0.8908274,0.8026768,8.224780506323546,2.7074860848519533,78.24112701416016,-22.943347930908203,15.410407066345215,15743904.0,39970.0,-0.1413194208825,-0.25347277933005,0.15841317094750001,-0.00225517902793173,-0.004921915759285931,0.0028245748357223514,15.74390493996907
1601,B,265307205450836.0,-2.682703,1.7226281,2.8072014,7,1970-01-04 01:41:47.205450836,1.5403724,0.13795175,0.83996105,4.2479080330535135,1.7599182883096947,77.44073486328125,-21.85090446472168,15.759521484375,15783804.0,39900.0,-0.17136645015000002,-0.3690484112385,0.16950364683,-0.0062380831270983745,-0.012419297751842572,0.006541940514661126,15.783804421022069
1601,B,265307245113649.0,-5.1439424,1.3491327,0.7206547,7,1970-01-04 01:41:47.245113649,0.045007423,1.918275,-0.39547944,5.366530131598922,1.9591346638791356,77.17753601074219,-18.95465087890625,15.935042381286621,15823467.0,39663.0,-0.15521411825009998,-0.3277797756948,0.06996267824715,-0.006476582542226582,-0.013819148189167737,0.0047489764257675,15.823467233974952
1601,B,265307285257139.0,1.4975731,4.4280763,1.4383167,7,1970-01-04 01:41:47.285257139,-1.692439,2.9542446,-2.267149,4.890740213706326,4.090461528183728,76.92250061035156,-18.78469467163086,16.102462768554688,15863610.0,40143.0,-0.07318810140495,-0.27744414955650004,0.043333794455099994,-0.004584375151806336,-0.01214775201568147,0.0022740301518432105,15.863610723987222
1601,B,265307324817554.0,2.2756886,19.612701,3.8618474,7,1970-01-04 01:41:47.324817554,-4.277303,-2.0426445,-4.283961,20.118416052474355,6.389056217995757,76.80919647216797,-18.294700622558594,15.929559707641602,15903171.0,39561.0,0.07463700305684999,0.08784079538265001,0.10483989598005,2.8659999125407847e-05,-0.0037504491472358406,0.0029309496836524844,15.903171139012557
1601,B,265307365055574.0,3.5990837,19.612701,-10.107122,7,1970-01-04 01:41:47.365055574,-3.2381377,-0.06897587,-3.1334753,22.35543242967782,4.506546448280949,77.62481689453125,-18.02190399169922,15.58741283416748,15943409.0,40238.0,0.1181945439037,0.39484346283800004,-0.1256486796774,0.0038795778932993056,0.009711124591141259,-0.00041865191920698486,15.943409158964641
1601,B,265307405006618.0,14.3694,19.612701,7.6961613,7,1970-01-04 01:41:47.405006618,0.9749833,2.9055088,-3.242665,25.502325298509913,4.461776565941119,77.4425048828125,-18.238080978393555,15.76112174987793,15983360.0,39951.0,0.35892944614935,0.392027217651,-0.04816014546285001,0.0095307902633047,0.01571813527810802,-0.0034719181865890646,15.983360202983022
1601,B,265307445039118.0,-1.8303672,14.065336,-2.2517467,7,1970-01-04 01:41:47.445039118,-1.8261296,-2.1459754,-2.2474418,14.361555768115538,3.6042966550755167,77.94284057617188,-17.56381607055664,15.456076622009277,16023392.000000002,40032.00000000186,0.2509812805248117,0.2817859885920131,0.10897540263360507,0.012207973105110589,0.013487045136160778,0.00121727818752989,16.023392702976707
1601,B,265307484520784.0,6.045359,-0.9959879,-2.3361423,7,1970-01-04 01:41:47.484520784,-1.8554244,-2.931874,-0.5616607,6.5571272811862285,3.5148182880365026,78.3785400390625,-18.92121696472168,15.149406433105469,16062874.0,39481.99999999814,0.08320815312379608,-0.12892159915789395,-0.09056951674899574,0.0065972336096568555,0.0030176959118188035,0.0003633505932480556,16.062874368974008
1601,B,265307524756981.0,1.8776526,-9.816826,-0.09636662,7,1970-01-04 01:41:47.524756981,0.5763081,-2.1901836,0.23222765,9.99524579617795,2.2766125953396403,77.34192657470703,-21.62602424621582,15.418797492980957,16103110.0,40236.0,0.1593951473688,-0.6118449900402,-0.04893721445256,0.004880693199310049,-0.014902742241487254,-0.0028065964183128984,16.103110565978568
1601,B,265307564096409.0,2.966416,-7.760206,-6.257246,7,1970-01-04 01:41:47.564096409,-0.43356264,-2.4804683,1.6708673,10.400651352295586,3.0220021648433595,79.2083740234375,-24.038503646850586,14.590874671936035,16142449.0,39339.0,0.09528040732769999,-0.7312536309240001,-0.12497238342909,0.0050093408231028065,-0.02641807832505533,-0.0034207148355331145,16.14244999398943
1601,B,265307604457242.0,4.362834,-0.6781576,19.612701,7,1970-01-04 01:41:47.604457242,1.000017,-0.5091964,-0.16298546,20.103538463598763,1.1339661521550681,77.75518035888672,-24.225088119506836,15.181161880493164,16182810.0,40361.0,0.14790792962500002,-0.5658281966298,0.2695197596275,0.004907662233873963,-0.026175759820949464,0.0029170383253720135,16.18281082698377
1601,B,265307643913075.0,-8.492233,14.660894,14.239514,7,1970-01-04 01:41:47.643913075,0.9291769,8.722385,-1.9489013,22.131958638171206,8.985632202402916,76.86454772949219,-23.070158004760742,15.927313804626465,16222266.000000002,39456.00000000186,-0.08146478347200385,-0.11081737630080526,0.6678364975200316,0.0013107903873063704,-0.01334886386277561,0.018492164241007376,16.2222666600137
1601,B,265307684258857.0,6.2991447,19.199701,4.955399,7,1970-01-04 01:41:47.684258857,-2.1521006,-2.2093585,0.31664985,20.805377230181147,3.1004949768621834,76.76655578613281,-22.974946975708008,15.827801704406738,16262612.0,40345.99999999814,-0.04424117027589797,0.2876789829349867,0.38721897994898213,-0.0025358662049563066,0.003567829190631178,0.021283634146981433,16.262612442020327
1601,B,265307724208023.0,15.045163,14.297574,-7.772177,7,1970-01-04 01:41:47.724208023,1.3371732,1.5001587,2.2548985,22.162677800784227,3.020442937267013,77.55561828613281,-23.655309677124023,15.632569313049316,16302561.0,39949.0,0.42634187415365,0.2775911194874999,-0.056263732161,0.007632270509606158,0.01129098766083796,0.006610665596941049,16.302561607968528
1601,B,265307764118283.0,14.322713,19.612701,0.60932434,7,1970-01-04 01:41:47.764118283,2.7153592,-0.011451593,3.5521243,24.293402897640473,4.47111773124544,77.90955352783203,-24.146060943603516,15.578197479248047,16342471.0,39910.0,0.58603596558,0.28556153762500003,-0.1429347248303,0.020201999791884986,0.011237711272679937,-0.003975005209261391,16.342471867974382
1601,B,265307804523492.0,3.496133,19.612701,-1.0151415,7,1970-01-04 01:41:47.804523492,0.9422264,-7.0797477,2.2453113,19.947719136134644,7.486791096218723,78.50160217285156,-23.99954605102539,15.061572074890137,16382877.0,40406.0,0.359994145738,0.396491996606,-0.008198724083479998,0.019112646338957553,0.013779527552068892,-0.003053349068405097,16.382877076976
1601,B,265307843594326.0,0.28072014,12.590508,-6.287772,7,1970-01-04 01:41:47.843594326,4.3870254,2.6154904,1.9643476,14.076070908426457,5.472242994089634,79.61870574951172,-23.635025024414062,14.83463191986084,16421947.0,39070.0,0.0737808260899,0.246203687815,-0.1426624152225,0.008473794074658026,0.012555060195164235,-0.002947072356342319,16.421947910974268
1601,B,265307883823387.0,-3.799598,5.2103815,3.3602622,7,1970-01-04 01:41:47.883823387,1.5965651,1.1611383,0.22530343,7.271614840590438,1.9869634888026162,79.16862487792969,-22.496484756469727,15.097145080566406,16462176.0,40229.0,-0.07078046871497,-0.036188208152250025,-0.0588853958721,6.035068841802946e-05,0.004224356365676384,-0.004054033446262332,16.46217697201064
1601,B,265307923678648.0,-5.6646814,-1.3263878,4.63278,7,1970-01-04 01:41:47.923678648,2.1481059,-0.53103435,0.50653327,7.437107669510695,2.2700071348151365,77.18230438232422,-20.434297561645508,15.845595359802246,16502032.0,39856.0,-0.18860415988320003,-0.3131885735464,0.15928534496160002,-0.005169016878704333,-0.006962380505690698,0.002000770185455556,16.50203223299468
1601,B,265307963577606.0,-2.0530279,0.8972271,1.7435774,7,1970-01-04 01:41:47.963577606,1.7979001,-0.35952675,0.21358553,2.839014296713488,1.845893559274465,76.47520446777344,-19.254350662231445,16.102840423583984,16541931.000000002,39899.00000000186,-0.1539644416803572,-0.3995717413846686,0.12720514195130594,-0.0068340723168925045,-0.014219211902718017,0.005715341968669284,16.541931190993637
1601,B,265308003565367.0,-3.2848446,3.264494,11.128249,7,1970-01-04 01:41:48.003565367,0.3787015,3.7433393,-0.74248934,12.05342486300828,3.835009043149752,75.1741943359375,-18.573226928710938,16.694419860839844,16581918.000000002,39987.0,-0.10672275382875,-0.30866522918715,0.2573528611284,-0.005212049443411334,-0.014160135871127655,0.0076886604345741015,16.581918951997068
1601,B,265308042946773.0,1.5406688,5.130774,-0.557849,7,1970-01-04 01:41:48.042946773,-4.1143174,1.475125,-2.3473103,5.386065140449977,4.961196133802195,75.47393035888672,-18.420927047729492,16.572917938232422,16621300.000000002,39382.0,-0.034344565677800004,-0.22063237781200004,0.2081417464,-0.002777756588403476,-0.010422399179420264,0.009166054316841725,16.621300357975997
1601,B,265308082951044.0,2.070386,19.612701,3.3387144,7,1970-01-04 01:41:48.082951044,-4.253601,-2.1265342,-4.5976815,20.00228868277739,6.614676435504075,75.44117736816406,-17.917213439941406,16.363569259643555,16661304.000000002,40004.0,0.0722283181096,0.10287978694999997,0.0556228697308,0.0007577508161408634,-0.0023552873224217253,0.005275819851848261,16.66130462900037
1601,B,265308123275836.0,3.6619315,19.612701,-10.49199,7,1970-01-04 01:41:48.123275836,-1.9164108,2.4652882,-1.5547534,22.54217462859769,3.488199305978292,76.31961059570312,-17.711376190185547,16.1602725982666,16701629.0,40324.99999999814,0.11557785159374469,0.39569716782498177,-0.14422791928499332,0.0037866418966435124,0.010052557850650106,-0.0017864993116363404,16.701629420975223
1601,B,265308163546982.0,7.367557,19.612701,5.820903,7,1970-01-04 01:41:48.163546982,0.39547944,0.8378305,-4.025368,21.744467075535766,4.130611512792865,76.27128601074219,-17.558748245239258,16.174358367919922,16741900.000000002,40271.00000000186,0.22208426569176026,0.3951672819710183,-0.09405467228850432,0.006798995562602599,0.015924451128868092,-0.004797939122628383,16.74190056696534
1601,B,265308203026930.0,2.5031378,10.08318,-3.2902317,7,1970-01-04 01:41:48.203026930,-2.0844562,-2.369681,-1.4639397,10.89779071178529,3.4790034689139833,76.97904968261719,-17.469816207885742,15.803621292114258,16781380.0,39479.99999999814,0.19484751535199077,0.19929269093999064,0.049955451461997646,0.008230233357803258,0.011734639865262762,-0.0008705186191152007,16.781380515021738
1601,B,265308242760159.0,5.3444567,-3.3608606,-1.1623849,7,1970-01-04 01:41:48.242760159,-1.644502,-3.1308122,-0.37790257,6.419481291082268,3.5565688819542696,77.13594818115234,-20.34526824951172,15.578530311584473,16821113.0,39733.0,0.15590423613425,-0.2558344416399,-0.0884579076839,0.006968209670901402,-0.0011232866902797492,-0.0007649090465324229,16.82111374399392
1601,B,265308282857607.0,-0.065242,-9.805453,-1.8477252,7,1970-01-04 01:41:48.282857607,0.62717444,-2.2314627,0.89508843,9.978238996360432,2.484744827381771,76.86042785644531,-23.260021209716797,15.599150657653809,16861211.0,40098.0,0.10584297552030002,-0.6569318213664,-0.0603496973949,0.005247769846462073,-0.01830005080701331,-0.0029834436742248614,16.861211191979237
1601,B,265308322732085.0,5.194819,-6.8851256,-5.8987145,7,1970-01-04 01:41:48.322732085,-0.9084043,-1.9190739,1.6335831,10.449207229404852,2.6789245511072743,78.33000946044922,-25.88861846923828,14.90107250213623,16901085.0,39874.0,0.102268376649,-0.7235252655482001,-0.1544407682989,0.004149116028199335,-0.027522172941816386,-0.0042822775145372905,16.901085669989698
1601,B,265308362369377.0,-3.2028434,4.75668,11.95784,7,1970-01-04 01:41:48.362369377,1.8586202,-0.7965515,-0.6530071,13.261755084939683,2.1249427316167133,77.1612777709961,-25.215084075927734,15.404745101928711,16940722.0,39637.0,0.0394779684286,-0.4306251991236,0.12008277872174998,0.0028091999399204154,-0.02287353098409807,-0.0006809238164347476,16.940722961968277
1601,B,265308402503648.0,-8.341997,10.231621,3.3315318,7,1970-01-04 01:41:48.402503648,0.7299725,8.583634,-1.31427,13.615215252432156,8.7142950449025,76.90255737304688,-23.780427932739258,15.892956733703613,16980857.0,40135.0,-0.23167608472699994,-0.0925452696825,0.30681946859649994,-0.0038569356988181406,-0.01049872338276641,0.00856686084805898,16.980857232993003
1601,B,265308441933700.0,10.336368,19.612701,-1.4987702,7,1970-01-04 01:41:48.441933700,0.7888283,-1.4716629,-0.1635181,22.220370295277103,1.6777305943282164,77.39085388183594,-23.910198211669922,15.64417552947998,17020287.0,39430.0,0.03931902426500002,0.20196680823000002,0.036132894944,-0.003792319447008328,0.0021572456324639626,0.0067613058472009565,17.020287284976803
1601,B,265308482119169.0,9.607333,13.031041,-3.721188,7,1970-01-04 01:41:48.482119169,0.025300032,1.4650049,2.7981834,16.611926951678846,3.158593007761331,77.95934295654297,-24.37139320373535,15.505452156066895,17060472.0,40185.0,0.4007188123425,0.2620813861349999,-0.10488201013350001,0.008841460232036193,0.009323888345278761,-0.001381341596945029,17.060472754004877
1601,B,265308522745523.0,11.52868,19.612701,-0.85293436,7,1970-01-04 01:41:48.522745523,0.8828379,-2.3888555,2.8969867,22.76611517321894,3.8572743352701204,78.3842544555664,-24.704513549804688,15.268321990966797,17101099.0,40627.0,0.4293464000755,0.264964053117,-0.09291643455986001,0.016861529692453046,0.0107061375302455,-0.004017978706278569,17.10109910799656
1601,B,265308561623387.0,-0.2896984,18.233044,8.850166,7,1970-01-04 01:41:48.561623387,2.3627565,-8.157263,2.1156151,20.269515457860717,8.752107470821485,78.28679656982422,-24.291744232177734,15.014522552490234,17139976.0,38877.0,0.21846894383159998,0.3546699141825,0.15545418723414,0.012592558562538162,0.01204475487335133,0.0012156401053589917,17.139976972015575
1601,B,265308602054325.0,2.124854,12.465411,-5.080496,7,1970-01-04 01:41:48.602054325,3.8687742,3.6216328,0.9550096,13.627652605135376,5.384763809556891,79.2598876953125,-24.020965576171875,14.866313934326172,17180407.0,40431.0,0.0370985880318,0.22436081705249997,0.076205763885,0.005166425440384563,0.011705395747281142,0.004683121741848975,17.18040790996747
1601,B,265308641779273.0,-2.5785553,6.819285,5.561132,7,1970-01-04 01:41:48.641779273,2.0815268,2.642655,0.04926848,9.169393898606772,3.3643434205301856,78.59471130371094,-23.136634826660156,15.293766021728516,17220132.0,39725.0,-0.009011642071250003,-0.0062627257000000235,0.009546632549999993,0.0005578769641414244,0.00433197333948903,0.0017032569741901875,17.220132857968565
1601,B,265308681900783.0,-5.1648917,0.8523358,4.9823337,7,1970-01-04 01:41:48.681900783,2.0679445,-0.32996565,0.9914949,7.226771871786616,2.3169665344985417,76.69590759277344,-21.00817108154297,16.042238235473633,17260254.0,40122.0,-0.155341290267,-0.23929521513120003,0.21151246540769997,-0.003297084175637633,-0.004926137851014704,0.004434666564129419,17.260254368011374
1601,B,265308721647815.0,-2.5558102,0.29388827,2.1176715,7,1970-01-04 01:41:48.721647815,1.0964234,0.38029942,0.33768883,3.332126749627013,1.2086379386841475,74.9306869506836,-18.717634201049805,16.682729721069336,17300001.0,39747.0,-0.15343736920964998,-0.366741115944855,0.1411019533422,-0.006136512689109202,-0.012044063025639979,0.007007682651026136,17.30000139999902
1601,B,265308761425992.0,-4.677073,1.158195,7.5243773,7,1970-01-04 01:41:48.761425992,0.48203218,2.3947146,-0.8924253,8.934913612235391,2.600660676460657,73.7481918334961,-17.770437240600586,17.15920639038086,17339779.0,39778.0,-0.1438548139648,-0.36094391584297003,0.19177070858320003,-0.005912844231156635,-0.01447292759722805,0.006620504373034281,17.339779576985165
1601,B,265308801675680.0,1.87047,6.347627,0.7350199,7,1970-01-04 01:41:48.801675680,-4.9726543,1.3177321,-3.149188,6.658173984316196,6.031674206555167,73.73521423339844,-17.57040023803711,17.105527877807617,17380029.0,40250.0,-0.056482885375,-0.24339533225000007,0.16622036865,-0.004031796199213475,-0.012162327367871024,0.00720457042931815,17.380029265012126
1601,B,265308841587659.0,1.4676456,19.612701,1.7699136,7,1970-01-04 01:41:48.841587659,-4.12284,-2.3475766,-5.3356433,19.747015426997198,7.139889003570185,73.8754653930664,-17.025205612182617,16.82294273376465,17419941.0,39912.0,0.0666154349136,0.12692670556799998,0.049988452926,0.00020220515859230168,-0.002324247914065994,0.004314663243370657,17.419941244006623
1601,B,265308881962607.0,8.274361,19.612701,-4.3400893,7,1970-01-04 01:41:48.881962607,0.14141385,2.8064392,-1.0894992,21.724628089007567,3.0138193985488084,74.50920104980469,-17.11473274230957,16.753414154052734,17460316.0,40375.0,0.1966667582375,0.39618780287500005,-0.05188542194375,0.005315009274237832,0.010560374139193062,-3.829506204582815e-05,17.460316192009486
1601,B,265308921322658.0,-1.09834,19.612701,1.2419921,7,1970-01-04 01:41:48.921322658,-1.133974,-1.8852518,-3.5537221,19.68265570616586,4.179594734673166,74.80097198486328,-16.479839324951172,16.520235061645508,17499676.0,39360.0,0.14122409328000002,0.38622791136,-0.060970552895999994,0.006649691957864399,0.015397941256144802,-0.0022210055848462798,17.49967624299461
1601,B,265308961026408.0,3.6846764,7.5375457,-3.9600096,7,1970-01-04 01:41:48.961026408,-2.1310616,-2.2967103,-1.2061456,9.27755955973324,3.3572442499049737,75.66676330566406,-16.72127342224121,16.121227264404297,17539379.0,39703.0,0.05134265704459999,0.14988372236505,-0.053956724401249996,0.0038227388440687975,0.01064262009689283,-0.0022814788452663586,17.53937999298796
1601,B,265309001177762.0,4.5513773,-4.4244847,1.8303672,7,1970-01-04 01:41:49.001177762,-0.67511135,-2.518818,-0.24927188,6.6061595707585825,2.6196098797686567,74.26325988769531,-19.272676467895508,16.42545509338379,17579531.0,40152.0,0.16534701408119998,-0.330991787364,-0.042754700822399995,0.00435026183752156,-0.00363592551291892,-0.0019415785727899973,17.579531346971635
1601,B,265309040776826.0,1.1923125,-7.385514,-0.25198972,7,1970-01-04 01:41:49.040776826,0.9060074,-1.9430424,1.602424,7.485380749222976,2.676569792258091,72.94744873046875,-21.92972183227539,16.835779190063477,17619130.0,39599.0,0.11372218619510001,-0.6219022692606501,0.03125108491526,0.005525430630870602,-0.018866825874139757,-0.0002277658431534184,17.6191304110107
1601,B,265309080803023.0,5.74369,-4.226963,-4.8069587,7,1970-01-04 01:41:49.080803023,-0.4575311,-0.6048039,1.6034893,8.600235052774702,1.7737813845389485,74.23277282714844,-24.61624526977539,16.314220428466797,17659156.0,40026.0,0.1388102180325,-0.6246553022010001,-0.10124473472946,0.0050539310058069584,-0.024947356677662003,-0.0014007829137315847,17.659156607987825
1601,B,265309120784012.0,-2.12246,4.1222167,2.8054059,7,1970-01-04 01:41:49.120784012,0.92970955,0.66845345,-0.4788364,5.41920743625059,1.241158394461829,73.81220245361328,-23.55271339416504,16.528554916381836,17699137.0,39981.0,0.07239019831500002,-0.39390773091015,-0.04001204124840001,0.004222001922994699,-0.020361584313408447,-0.002823793580185411,17.69913759699557
1601,B,265309160417814.0,-6.3524156,7.6841903,-4.1946416,7,1970-01-04 01:41:49.160417814,-0.26871297,8.722385,-0.56725335,10.816421897937785,8.744940429274372,74.50891876220703,-22.304719924926758,16.628416061401367,17738771.0,39634.0,-0.16794660976519998,-0.15444563248100004,-0.0275304838669,-0.001893641405708613,-0.01086671860232242,-0.0013384902202099004,17.738771399017423
1601,B,265309200678960.0,6.754043,19.612701,-15.119983,7,1970-01-04 01:41:49.200678960,0.2793656,-0.9507485,0.82158524,25.668833695389026,1.287233527881195,75.73268127441406,-22.386077880859375,16.136205673217773,17779032.0,40261.0,0.008084960375700013,0.15494227031465002,-0.38881305051029996,-0.0032180949330353295,9.997567910290854e-06,-0.008381203518780224,17.779032544989605
1601,B,265309241038232.0,4.1060557,14.750677,1.6256629,7,1970-01-04 01:41:49.241038232,-0.43862265,1.139034,3.4780884,15.397562964127404,3.686039500665122,75.87759399414062,-22.373130798339844,16.163349151611328,17819391.0,40359.0,0.21915136171665,0.29791758635099996,-0.27230863245795,0.004585515361662577,0.009138485477584484,-0.013341105001457802,17.819391816970892
1601,B,265309280184169.0,12.154763,19.612701,-5.298967,7,1970-01-04 01:41:49.280184169,1.1819109,-5.2658687,3.3585124,23.674360717211755,6.356562914196025,76.67793273925781,-22.8689022064209,15.679763793945312,17858537.0,39146.0,0.31827300441510004,0.288963597594,-0.0718975811493,0.010519007118296744,0.011487025413355483,-0.006737148218934705,17.85853775398573
1601,B,265309320338023.0,-0.6194997,19.607914,18.300081,7,1970-01-04 01:41:49.320338023,1.2958943,-6.215818,1.5243934,26.828101608504788,6.529893619643436,76.09355926513672,-22.500871658325195,15.667850494384766,17898691.0,40154.0,0.2315934812741,0.39392308735500003,0.26102336577799995,0.01103966943318207,0.013710315973721075,0.003797078377990409,17.89869160798844
1601,B,265309359935419.0,0.78050977,9.51336,1.5819688,7,1970-01-04 01:41:49.359935419,2.2439797,6.232596,0.9816412,9.675527855101183,6.696589970930393,76.19700622558594,-22.0358943939209,15.961955070495605,17938289.0,39598.0,0.0031878383759300004,0.18851170392600003,0.39364470399019996,0.004648435347750945,0.011531626432572521,0.01296177311334059,17.938289003970567
1601,B,265309400146773.0,-6.071097,2.96881,3.0340521,7,1970-01-04 01:41:49.400146773,1.1635351,-1.0966897,0.07563378,7.407936537594218,1.600706936230111,75.812744140625,-20.70253562927246,16.075288772583008,17978500.0,40211.0,-0.10636990155276499,-0.14310753106500002,0.09280740820494998,-0.0020745269712018556,0.0009128735974568357,0.009780362941739586,17.978500358003657
1601,B,265309440076981.0,-4.8536453,-1.2545617,2.3361423,7,1970-01-04 01:41:49.440076981,1.9254655,-0.83516735,1.0431602,5.530764739452246,2.343737420672442,74.37306213378906,-18.297487258911133,16.564096450805664,18018430.0,39930.0,-0.2181124800195,-0.3570890326905,0.107215931196,-0.0064782907480902705,-0.009986424395378559,0.003993465971139966,18.018430566007737
1601,B,265309479429480.0,-2.6749218,2.9526494,1.7735049,7,1970-01-04 01:41:49.479429480,1.80296,-2.495382,0.58243334,4.361039411167893,3.1331812400605803,74.18504333496094,-17.182573318481445,16.54306411743164,18057783.0,39353.0,-0.14813585054315,-0.35224697737094995,0.0808634731308,-0.0072064852763159834,-0.01395725000197412,0.0037007443992362796,18.05778306501452
1601,B,265309519831095.0,2.4983494,2.1440077,11.406575,7,1970-01-04 01:41:49.519831095,-0.32863408,3.716974,-2.1033647,11.872172167415895,4.283461116482737,72.81049346923828,-17.12814712524414,17.087116241455078,18098184.0,40401.0,-0.003566850766199999,-0.29297477825145,0.26624420401995,-0.0030644704177995247,-0.013033802074450292,0.007011748632283726,18.098184679984115
1601,B,265309559310366.0,1.5005659,13.438056,4.5435963,7,1970-01-04 01:41:49.559310366,-5.167065,0.6154565,-3.561978,14.264547466244855,6.305952322219162,72.52080535888672,-16.673572540283203,17.073047637939453,18137663.0,39479.0,0.07893658856435,-0.07931205359385005,0.31484840637635003,0.001487760939266582,-0.007348755917210301,0.011470477582917766,18.137663950969
1601,B,265309599858803.0,0.93014735,19.612701,-0.7882909,7,1970-01-04 01:41:49.599858803,-3.7627804,-2.497779,-4.990764,19.65056276932383,6.730909416651005,72.89409637451172,-16.150644302368164,16.72767448425293,18178212.0,40549.0,0.049281495787125006,0.2727073727965,0.07613693933230001,0.00259955755118398,0.003920993399174126,0.007927032391570027,18.17821238801116
1601,B,265309639565471.0,10.899005,19.612701,-1.067814,7,1970-01-04 01:41:49.639565471,-0.40719733,5.7865167,0.50147325,22.4630046352669,5.822461730694636,73.24205780029297,-16.430644989013672,16.897104263305664,18217919.0,39707.0,0.234850076180725,0.389632918607,-0.03685017863215,0.00564100616406371,0.013149772975379385,0.0007799797035604281,18.21791905601276
1601,B,265309679000730.0,-0.18016368,19.612701,-2.0458453,7,1970-01-04 01:41:49.679000730,-1.6580842,-2.7161582,-3.260242,19.719938703214172,4.555868356337887,73.7856674194336,-15.925867080688477,16.552377700805664,18257354.0,39435.0,0.21134875372710002,0.386963863935,-0.06139357724775,0.00879792542870754,0.015312547059771883,-0.0019371212565619282,18.257354315021075
1601,B,265309719357709.0,3.7511156,5.747281,-2.8395233,7,1970-01-04 01:41:49.719357709,-1.9888487,-2.1323931,-1.2607405,7.427314434488905,3.176804383773031,74.5913314819336,-16.338211059570312,16.18585777282715,18297711.0,40357.0,0.07205645331772,0.116227796787,-0.09857941029509998,0.0057186919703539,0.010153652925878874,-0.003228014929133398,18.29771129396977
1601,B,265309759384897.0,3.9468415,-6.384139,1.2437878,7,1970-01-04 01:41:49.759384897,-0.90680635,-2.8274782,-0.054328486,7.608008720346744,2.969828667156847,73.16472625732422,-18.89678955078125,16.473529815673828,18337738.0,40027.0,0.15406306442085,-0.405010357583,-0.03193625242925,0.00452544296826087,-0.005779549780490746,-0.0026120752159337784,18.337738481990527
1601,B,265309799246669.0,0.78769237,-9.016563,-3.5488055,7,1970-01-04 01:41:49.799246669,0.5571333,-2.0863204,1.5813851,9.721773916295083,2.676547993204504,73.83441925048828,-21.808094024658203,16.17675018310547,18377600.0,39862.0,0.09436399456297,-0.6975989915620001,-0.045941307778699994,0.004951399712606517,-0.021976106937809,-0.0015521776525046515,18.377600253967103
1601,B,265309839136773.0,4.1760864,-4.613028,-4.291008,7,1970-01-04 01:41:49.839136773,-0.50839746,-1.1984226,0.8024104,7.5586026886662685,1.5292309032822256,75.17922973632812,-24.44388771057129,15.595908164978027,18417490.0,39890.0,0.09900256756765001,-0.662764192495,-0.1563650802575,0.0038566960816952163,-0.02713244370601687,-0.004035000909382009,18.41749035799876
1601,B,265309878758282.0,-6.3177,8.41921,4.4526167,7,1970-01-04 01:41:49.878758282,1.3331785,4.815262,-1.4647386,11.429008084309807,5.206685337893601,74.85871124267578,-23.108659744262695,15.947568893432617,18457111.0,39621.0,-0.04242643622280001,-0.31288343148900005,0.0032015491513500078,0.001120801450007151,-0.019328067254935032,-0.003034246132978385,18.45711186697008
1601,B,265309918980730.0,1.1330559,6.739678,-8.34918,7,1970-01-04 01:41:49.918980730,-1.8213359,0.9057411,-0.5898902,10.789619172547695,2.11792394785886,76.16828918457031,-22.975942611694336,15.432332992553711,18497334.0,40223.0,-0.10427096981715,-0.08931742398800005,-0.07836573280795,-0.0029503048815724547,-0.008088862504925689,-0.001511664479609711,18.497334314975888
1601,B,265309959443334.0,10.764331,16.548721,1.5035586,7,1970-01-04 01:41:49.959443334,1.617604,1.9981698,2.4831314,19.7987796865624,3.574250522852868,76.39170837402344,-23.32576560974121,15.492707252502441,18537796.0,40462.0,0.2406960343739,0.07462000016899997,-0.1384937665434,0.002760015481047609,-0.00029734358128219056,-0.004387284531377162,18.537796919001266
1601,B,265309998617136.0,9.640852,19.612701,0.19871874,7,1970-01-04 01:41:49.998617136,0.076166406,-0.4609932,3.290602,21.85505792577389,3.3236091187522634,76.70462799072266,-23.575159072875977,15.38467788696289,18576970.0,39174.0,0.399676319421,0.324388572714,0.033342506258580006,0.012542973293780705,0.007815380917059321,-0.0020595977351987693,18.576970721012913
1601,B,265310038632761.0,6.3542113,18.775928,-0.59017074,7,1970-01-04 01:41:50.038632761,0.25513083,-6.4706826,1.9667445,19.830778477119445,6.7677846433407955,77.23088073730469,-23.639978408813477,14.911170959472656,18616986.0,40016.0,0.32002922650640003,0.37592288903200005,-0.007832171616000002,0.01439986856291542,0.01401183172661397,0.0005104107755287408,18.616986345965415
1601,B,265310078018074.0,2.0829554,14.912285,-2.3948002,7,1970-01-04 01:41:50.078018074,5.344698,-6.4062343,1.0932276,15.246311525006114,8.414320008360882,78.20503997802734,-23.411054611206055,14.354365348815918,18656371.0,39385.0,0.16614890523975004,0.27743213450250004,-0.05878154023595001,0.009574062859411061,0.012866193800953144,-0.0013117905206445257,18.656371659017168
1601,B,265310118464064.0,1.2491747,7.1939774,8.031948,7,1970-01-04 01:41:50.118464064,1.442368,4.973986,0.283893,10.854765632547524,5.186671130028296,77.25467681884766,-23.06527328491211,14.984063148498535,18696817.0,40446.0,0.06738566701229999,0.05068414451519998,0.11400003995939999,0.004722769654653208,0.006635495510574948,0.0011166837199073289,18.696817649004515
1601,B,265310158386356.0,-5.2480903,1.2515689,3.2255883,7,1970-01-04 01:41:50.158386356,1.5936357,0.3749731,0.18535602,6.285960259936281,1.647615375076459,75.92839050292969,-20.51660919189453,15.52647590637207,18736739.0,39922.0,-0.0798223542916,-0.2226540503057,0.2247116820843,-0.0002482487147821076,-0.003432691289484171,0.006761024683714295,18.73673994099954
1601,B,265310198249169.0,-2.866458,1.5167267,2.8107927,7,1970-01-04 01:41:50.198249169,2.6088326,-1.3161342,0.9550096,4.291572782865296,3.0741275353056774,75.24292755126953,-19.429555892944336,15.757428169250488,18776602.0,39863.0,-0.16173511944145003,-0.3354811162486,0.12031412790150002,-0.004814602787710287,-0.01112447107217703,0.006876881931731973,18.776602754020132
1601,B,265310238161097.0,-4.997896,2.7048495,6.423643,7,1970-01-04 01:41:50.238161097,-0.19680761,3.5657065,-0.48629323,8.576617318961786,3.604091728166751,74.20488739013672,-18.333072662353516,16.246850967407227,18816514.0,39912.0,-0.15694104842400003,-0.3068918253528001,0.18428239882920003,-0.006359501605922922,-0.012819194422597541,0.00607852828743785,18.81651468196651
1601,B,265310277795210.0,1.6897079,3.2495303,4.378995,7,1970-01-04 01:41:50.277795210,-2.9196236,1.8000306,-2.1688783,5.708778955955949,4.058120896033558,73.16046905517578,-18.262920379638672,16.583038330078125,18856148.0,39634.0,-0.0655583635777,-0.27041525550340006,0.21407587724600002,-0.00440927084763769,-0.01144049442132732,0.00789426595698224,18.856148794991896
1601,B,265310318173440.0,2.204461,18.121712,4.1305966,7,1970-01-04 01:41:50.318173440,-4.294081,-1.0135992,-3.6328182,18.716781838323502,5.715232545317196,73.08312225341797,-17.81937599182129,16.44367218017578,18896527.0,40379.0,0.07862132300654999,0.03576049641584994,0.1718043996082,0.000263734619388767,-0.004737562258598093,0.007790729849547871,18.896527024975512
1601,B,265310357574169.0,1.5735891,19.612701,-8.272566,7,1970-01-04 01:41:50.357574169,-3.2671661,-0.5637912,-3.6160402,21.344075791549184,4.905912919141827,73.90323638916016,-17.416669845581055,16.069692611694336,18935927.0,39400.0,0.07442758696999999,0.35724793609999994,-0.08159679717999999,0.003015063526538034,0.007742266120562242,0.0017770897678355399,18.935927753977012
1601,B,265310397268804.0,10.599131,19.612701,8.5700445,7,1970-01-04 01:41:50.397268804,1.9864519,4.1561294,-2.8157604,23.8839963406994,5.3988803812240675,73.7763442993164,-17.449155807495117,16.29070281982422,18975622.0,39695.0,0.24159806218475,0.38951516619500004,0.005904204528750009,0.0062723190715989,0.014821380672800012,-0.0015023087326456839,18.97562238899991
1601,B,265310437632762.0,-2.6659436,15.969325,-3.3315318,7,1970-01-04 01:41:50.437632762,-1.6229304,-2.680738,-2.2125542,16.529540234634997,3.8360989814948465,74.437744140625,-16.7836971282959,15.919440269470215,19015986.0,40364.0,0.16010758810679998,0.322549248732,0.10572366331139998,0.00810722343418406,0.014370884022056716,0.002252873628749907,19.01598634698894
1601,B,265310477072606.0,6.101623,2.4528596,-2.5258827,7,1970-01-04 01:41:50.477072606,-1.9784625,-3.3300166,-0.6783071,7.044601256678795,3.932356156567233,75.05199432373047,-17.882606506347656,15.545581817626953,19055426.0,39440.0,0.06775159776800001,-0.023226519688000036,-0.11550821394,0.004493383145451056,0.00590264421674768,-0.00019295133839599245,19.055426191014703
1601,B,265310517677658.0,3.567959,-8.377312,0.96426475,7,1970-01-04 01:41:50.517677658,0.12197278,-2.7377295,-0.03488741,9.156390898116877,2.7406673102745773,73.66783905029297,-20.44041633605957,15.875619888305664,19096031.0,40605.0,0.196316688555,-0.5182101948510001,-0.031704748429875,0.005361246383072708,-0.01099251889692805,-0.002988791168514388,19.096031242981553
1601,B,265310556796044.0,5.2678423,-7.3106947,-6.0519433,7,1970-01-04 01:41:50.556796044,-0.4135889,-1.4058827,1.8945729,10.854604423961854,2.3951969475967756,74.98812866210938,-23.137483596801758,15.339916229248047,19135149.0,39118.0,0.1728194376267,-0.6901981230452999,-0.09950990475945,0.00721993349198787,-0.02363525828973373,-0.002566427401730008,19.135149628971703
1601,B,265310596808491.0,4.6375685,-2.594716,7.8793178,7,1970-01-04 01:41:50.596808491,0.61226076,-0.551807,-0.07456851,9.503854044872801,0.8275957142037396,73.6665267944336,-23.8059024810791,15.852972030639648,19175162.0,40013.0,0.1981726011702,-0.59029999916955,0.036559367934250006,0.00742225222419018,-0.025618285682091395,-0.0012594199149933637,19.17516207601875
1601,B,265310637081823.0,-10.536881,9.768343,8.664616,7,1970-01-04 01:41:50.637081823,0.808802,8.722385,-1.3265206,16.778616051428852,8.85967367715388,73.02313232421875,-22.38639259338379,16.487548828125,19215435.0,40273.0,-0.11879150615624999,-0.2502236599145001,0.33313692296370007,0.0015984574197484044,-0.016925204661145977,0.007444389361666573,19.215435407997575
1601,B,265310677039845.0,7.5465236,19.612701,1.3036429,7,1970-01-04 01:41:50.677039845,0.6098639,-0.8876316,0.26711506,21.054869835063776,1.1095829347644879,73.39912414550781,-22.390445709228516,16.3203067779541,19255393.0,39958.0,-0.05974435049459998,0.19541547807599996,0.1991558445631,-0.0035669678800273317,-0.0010950126649513939,0.010634677202417939,19.255393430008553
1601,B,265310716993646.0,4.644751,12.6222315,-3.6355953,7,1970-01-04 01:41:50.716993646,-0.50147325,0.9491506,2.4397218,13.932408014301595,2.665446443532708,74.12985229492188,-22.50102424621582,16.10603141784668,19295347.0,39954.0,0.24354509268420002,0.25240804655250004,-0.04658541309479999,0.0036717874267216404,0.008946170551503546,0.0030478995094422295,19.295347230974585
1601,B,265310756969532.0,13.052589,17.981052,-3.7726634,7,1970-01-04 01:41:50.756969532,3.115366,-3.4605117,4.9779806,22.53710939227399,6.816226037461584,74.918212890625,-23.15644645690918,15.768885612487793,19335323.0,39976.0,0.35373443192,0.21993363059799995,-0.1480762748956,0.011938423137788748,0.009441165442884194,-0.0038908978195521145,19.335323116974905
1601,B,265310796813334.0,4.020463,19.612701,-1.7980455,7,1970-01-04 01:41:50.796813334,0.515588,-5.4341803,1.4013554,20.1011226271032,5.6355961065144875,75.57764434814453,-23.03815269470215,15.29587459564209,19375166.0,39843.0,0.34012080541800005,0.3584625503895,-0.11097687735135,0.013822637110628968,0.01152251951954248,-0.005160727372487616,19.375166918965988
1601,B,265310836706303.0,3.1932666,13.678074,-5.623381,7,1970-01-04 01:41:50.836706303,6.980944,1.6215988,1.4604776,15.129741365909483,7.314106686356113,76.7955322265625,-22.92552947998047,15.045943260192871,19415059.0,39893.0,0.1438886574664,0.27308304353749996,-0.14803148368225,0.009654294751423684,0.012597124189264904,-0.005166310273356703,19.415059887978714
1601,B,265310876632605.0,-2.5252843,9.697116,10.647015,7,1970-01-04 01:41:50.876632605,1.0205233,4.816593,0.48629323,14.6208771256552,4.947475825007711,75.88451385498047,-22.208906173706055,15.636518478393555,19454986.0,39927.0,0.013335264646049996,0.07536600556499996,0.10028931735899999,0.0031387397690918954,0.006956262591757756,-0.0009531007373942016,19.454986190015916
1601,B,265310916580574.0,-6.0567317,0.08559271,2.6114755,7,1970-01-04 01:41:50.916580574,1.5741946,-1.1006845,1.2455604,6.596296634088729,2.2893264767738066,74.78262329101562,-19.645174026489258,16.02458953857422,19494934.0,39948.0,-0.17141718758399999,-0.19609057622646003,0.264825089247,-0.0031575283287626128,-0.0024113525743920034,0.007292795157548243,19.494934158981778
1601,B,265310956452293.0,-2.8574798,0.023942016,2.2906525,7,1970-01-04 01:41:50.956452293,1.6666062,-0.14061491,0.7914915,3.662356195578802,1.8503533644590695,73.04885864257812,-17.395959854125977,16.60685920715332,19534805.0,39871.0,-0.17770926335825,-0.388552170469827,0.09772637274399999,-0.006960010362759224,-0.011655145476763829,0.007227644670521579,19.53480587800732
1601,B,265310996070522.0,-7.001843,1.3311762,4.449624,7,1970-01-04 01:41:50.996070522,0.9289106,3.5705001,-0.659665,8.402201450421874,3.7478665636755757,72.36087036132812,-16.04022789001465,16.972457885742188,19574424.0,39619.0,-0.19530825500660004,-0.361421985700148,0.13352150732675,-0.007389290530048497,-0.01485661304664912,0.004580904880261522,19.57442410697695
1601,B,265311036535783.0,0.599149,4.473566,1.074398,7,1970-01-04 01:41:51.036535783,-3.4360106,1.310808,-2.1827269,4.639623189760242,4.276526999348884,72.2872543334961,-15.702686309814453,16.973369598388672,19614889.0,40465.0,-0.129542506355,-0.27911255343850006,0.111764775115,-0.006572543029248573,-0.012959615063122699,0.004962754709502707,19.614889368007425
1601,B,265311076187189.0,2.582745,19.612701,5.1780596,7,1970-01-04 01:41:51.076187189,-4.74815,-0.43063316,-5.0373693,20.44849416146769,6.935810176581686,72.15208435058594,-15.259550094604492,16.851680755615234,19654540.0,39651.0,0.063082639497,0.0889424864085,0.12395809814879999,-0.001317600090393279,-0.003770216663903266,0.004673323823891466,19.654540774005
1601,B,265311116050418.0,0.75956047,19.612701,-7.9289975,7,1970-01-04 01:41:51.116050418,-2.0450413,-0.20932446,-3.42376,21.1684665003867,3.993512637498469,73.01588439941406,-14.857926368713379,16.540115356445312,19694404.0,39864.0,0.06661883262804,0.39117351266399997,-0.0548316942228,0.0025852097423962974,0.009569672093513068,0.0013778274830530317,19.694404002977535
1601,B,265311155946251.0,10.9103775,19.612701,9.680955,7,1970-01-04 01:41:51.155946251,1.3454291,2.5795379,-3.2237566,24.442079850535066,4.342441923239363,72.84874725341797,-14.959547996520996,16.674081802368164,19734299.0,39895.0,0.232786087656575,0.391477706395,0.03494717223125001,0.005972379647377357,0.015611935192179403,-0.00039664650242644345,19.7342998359818
1601,B,265311195313594.0,0.010175358,12.46182,-4.0587707,7,1970-01-04 01:41:51.195313594,-1.7217337,-3.721235,-1.4450313,13.106131421799832,4.347421341084894,73.6684799194336,-14.641343116760254,16.25010108947754,19773667.0,39368.0,0.21496016245687197,0.245548471364,0.11066707576120001,0.008813437187233089,0.012539223283008157,0.002866270857483386,19.773667178989854
1601,B,265311235438178.0,6.927024,-0.88405895,-2.3570917,7,1970-01-04 01:41:51.235438178,-1.6010925,-3.2621062,-0.17603496,7.3702851373512,3.638106974894621,74.03904724121094,-16.054607391357422,15.977935791015625,19813791.0,40124.0,0.139174093520196,-0.16094215781490004,-0.1287150314688,0.007104641443411937,0.001697371862422043,-0.0003620780874058711,19.813791762979236
1601,B,265311275661980.0,1.6118963,-9.10455,0.57041854,7,1970-01-04 01:41:51.275661980,1.1454256,-2.4234767,0.3139867,9.26371511302185,2.6988565668362483,72.28009796142578,-18.35832977294922,16.406436920166016,19854015.0,40224.0,0.17173476507360003,-0.5950861032024001,-0.03593357059392,0.006252998964038426,-0.015205240385579941,-0.003311412684685425,19.85401556501165
1601,B,265311315484063.0,6.63553,-5.3965306,-3.413533,7,1970-01-04 01:41:51.315484063,-0.5270396,-0.7930894,2.1169467,9.208963483461392,2.321255019811785,72.84407806396484,-21.2813777923584,16.201566696166992,19893837.0,39822.0,0.16421450505930002,-0.6789866158266001,-0.05660925201306001,0.006689085917616173,-0.025368061908586426,-0.0018426201409275794,19.893837647978216
1601,B,265311355434792.0,-2.469619,5.1062336,3.2860417,7,1970-01-04 01:41:51.355434792,-0.128897,-0.88496846,-1.1606057,6.5552047746099324,1.4651925479868717,72.4796142578125,-20.272130966186523,16.273178100585938,19933788.0,39951.0,0.0832161551805,-0.3973186277235,-0.0025467024631499993,0.004942551153620126,-0.021499735392535024,-0.001181669768639533,19.933788376976736
1601,B,265311395360366.0,-7.988254,3.6655228,-1.8303672,7,1970-01-04 01:41:51.395360366,0.6490124,8.722385,-1.2615395,8.977666927029077,8.837007360732422,73.3295669555664,-17.36536979675293,16.382463455200195,19973713.0,39925.0,-0.2087652897625,-0.21615881286500002,0.029058902206250004,-0.0025062745990931754,-0.012246543407747933,0.0005292497873716339,19.973713951010723
1601,B,265311435265262.0,6.019622,19.612701,-11.982381,7,1970-01-04 01:41:51.435265262,1.6543556,-1.8461033,0.6351639,23.75860568230901,2.558988672383186,74.51841735839844,-17.488391876220703,15.975391387939453,20013618.0,39905.0,-0.03927912998000001,0.0733897603695,-0.27559885846050003,-0.004949106284912232,-0.0028485995199164648,-0.004919088477162924,20.013618847006
1601,B,265311474677918.0,6.202778,12.969391,-2.3008277,7,1970-01-04 01:41:51.474677918,-0.64075655,1.3568805,3.5028558,14.559305132225655,3.810733840514421,75.03762817382812,-17.869478225708008,15.91504192352295,20053031.0,39413.0,0.2408607256,0.2558315959979999,-0.28147205224655,0.00397246771408553,0.006487800659256137,-0.010977917901848478,20.053031502990052
1601,B,265311515038647.0,11.6825075,19.612701,-1.0899603,7,1970-01-04 01:41:51.515038647,0.24714136,-4.3039346,2.4367924,22.854475173552625,4.952059076141718,75.51180267333984,-18.379405975341797,15.60339069366455,20093392.0,40361.0,0.36093400403275006,0.26198510760599997,-0.068427797234,0.012144518541353712,0.01044979998708052,-0.007061153912442239,20.0933922319673
1601,B,265311554706876.0,0.18255788,18.294096,5.139154,7,1970-01-04 01:41:51.554706876,3.0913975,-6.9729548,1.3877733,19.003109736895226,7.752725448385373,75.74003601074219,-18.09473419189453,15.276839256286621,20133060.0,39668.0,0.23533170674692,0.363097011698,0.08031170784580001,0.011826334107603977,0.012397878754275535,0.00023570548307444143,20.13306046096841
1601,B,265311594465626.0,2.5911248,12.746131,-3.4727895,7,1970-01-04 01:41:51.594465626,3.764911,4.787032,1.1709919,13.462468202734827,6.201729777796725,76.57568359375,-17.9748477935791,15.310798645019531,20172819.0,39759.0,0.055139424837060004,0.22742599264649996,0.03312649307775001,0.005774420860323731,0.011739302064866489,0.0022550947152597126,20.172819210973103
1601,B,265311634657866.0,-4.006098,6.177639,3.5811272,7,1970-01-04 01:41:51.634657866,1.3315805,1.2559468,0.283893,8.187583087975648,1.8523240072566922,76.24718475341797,-16.937665939331055,15.49112606048584,20213011.0,40192.0,-0.028435301427199997,-0.013589518080000007,0.0021771544191999974,0.0005366460640445467,0.004297257792888383,0.0007094621000987072,20.213011451007333
1601,B,265311674685678.0,-5.385158,-0.4854244,2.7497406,7,1970-01-04 01:41:51.674685678,2.212288,-0.48682585,1.3203954,6.066023153629379,2.621957592241603,74.9636001586914,-14.478282928466797,15.863354682922363,20253039.0,40028.0,-0.18795659758399996,-0.27835041699560004,0.1267059881492,-0.004330867466810156,-0.00584288586060306,0.002579467215363958,20.253039263014216
1601,B,265311714589948.0,-3.4763808,0.5895722,2.1098902,7,1970-01-04 01:41:51.714589948,1.2538162,-0.98750013,0.4628574,4.109069907129535,1.661760675568903,74.36153411865234,-13.242193222045898,15.98291301727295,20292943.0,39904.0,-0.1768054221376,-0.3889812430944001,0.0969593537216,-0.007277731817485362,-0.013314601282115682,0.004462570901006202,20.2929435329861
1601,B,265311755002501.0,-2.0608091,2.0039468,9.524733,7,1970-01-04 01:41:51.755002501,0.1323591,3.1489217,-1.5659387,9.94903390511672,3.5192883962871515,73.0643539428711,-12.68259048461914,16.402454376220703,20333356.0,40413.0,-0.11188722771434999,-0.3436414583265,0.2350950136908,-0.005833468029233427,-0.014803740616261418,0.006709656575118661,20.33335608599009
1601,B,265311794109220.0,2.698864,10.470443,5.2564697,7,1970-01-04 01:41:51.794109220,-4.87971,1.1233214,-3.667173,12.022666809562805,6.206575421577262,72.57894134521484,-12.502252578735352,16.455026626586914,20372462.0,39106.0,0.012475887459699997,-0.13932705624060004,0.2890168563931,-0.0019437899359991714,-0.009443483365330508,0.010247959395750498,20.37246280501131
1601,B,265311834343594.0,1.0145429,19.612701,2.0009542,7,1970-01-04 01:41:51.834343594,-3.9920785,-1.5968314,-5.6544237,19.740596635406924,7.10345469819509,72.70842742919922,-12.024673461914062,16.22730255126953,20412697.0,40235.0,0.07470446331075,0.21089464942,0.14600122530825,0.0017538507066245275,0.0014397610557865786,0.008751476258626907,20.412697179010138
1601,B,265311874271250.0,9.431957,19.612701,-2.5264814,7,1970-01-04 01:41:51.874271250,0.47058058,3.7116477,-1.0351708,21.908969889745983,3.881926495486624,73.24857330322266,-12.278609275817871,16.276765823364258,20452624.0,39927.0,0.20854870075365,0.391791712827,-0.010491362257200008,0.005654724540799649,0.012031729192717984,0.002705251151019636,20.45262483501574
1601,B,265311914136146.0,0.3657143,19.612701,-1.1384429,7,1970-01-04 01:41:51.914136146,-1.0551444,-2.4282703,-2.952913,19.649118038761586,3.966046083983701,73.73220825195312,-11.911101341247559,16.009021759033203,20492489.0,39865.0,0.19529208318725,0.391183325365,-0.07305110360974999,0.008049556425901988,0.015606649948762038,-0.0016652102008929807,20.492489730997477
1601,B,265311954127917.0,1.9782091,6.8085113,-2.7060466,7,1970-01-04 01:41:51.954127917,-1.932656,-2.7814054,-0.99948436,7.5889278272310685,3.531337451925229,74.53626251220703,-12.040071487426758,15.6779146194458,20532481.0,39992.0,0.0468690923064,0.1363969611508,-0.076874412042,0.004842254865171025,0.010549495409169937,-0.002997910610972393,20.532481501984876
1601,B,265311993703803.0,4.96318,-5.6299653,0.97144735,7,1970-01-04 01:41:51.993703803,-0.680704,-2.7353327,0.054328486,7.56791747744557,2.8192826214653155,73.40825653076172,-14.727274894714355,15.803784370422363,20572057.0,39576.0,0.1373562075108,-0.36452373175200004,-0.034324249959,0.0036454502327827533,-0.004514172536656547,-0.0022003991236757884,20.572057387966197
1601,B,265312033816041.0,1.5304934,-7.8224554,-3.115455,7,1970-01-04 01:41:52.033816041,0.9235843,-1.3393037,1.5238608,8.55799499821411,2.2291016346987904,74.0794448852539,-17.62224578857422,15.5874662399292,20612169.0,40112.0,0.1302371137104,-0.6628993495592,-0.043000217428399996,0.005366851650412388,-0.020605997318777432,-0.0015508195179216944,20.612169625994284
1601,B,265312073332501.0,5.9944825,-3.8007953,-2.6671407,7,1970-01-04 01:41:52.073332501,-0.5289038,-0.87990844,0.5251754,7.582447155694844,1.1531640356873925,74.71068572998047,-20.45780372619629,15.339999198913574,20651686.0,39517.0,0.14868223632014999,-0.61692459895595,-0.11425541713844999,0.005511027977578622,-0.025287401486736586,-0.003107135455589105,20.65168608597014
1601,B,265312114120626.0,-8.579621,9.531916,4.1180267,7,1970-01-04 01:41:52.114120626,0.9965549,3.7571878,-1.3089437,13.469426975065044,4.101574751598774,74.53744506835938,-19.107912063598633,15.569674491882324,20692474.0,40788.0,-0.052721314568999984,-0.28284192444420003,0.029589369083999992,0.001957027038192953,-0.018349838478222656,-0.001726679384022453,20.692474210984074
1601,B,265312153255886.0,3.6721067,19.612701,-8.824429,7,1970-01-04 01:41:52.153255886,-1.593103,1.7086842,-0.9036106,21.817721130027007,2.5048135619983776,75.3867416381836,-18.91204833984375,15.3333740234375,20731609.0,39135.0,-0.09602778606524999,0.18676429314749998,-0.09209252700525002,-0.0029106480266606867,-0.0018799990503981783,-0.00122303054262406,20.73160947096767
1601,B,265312193279011.0,7.40347,4.657321,-11.295245,7,1970-01-04 01:41:52.193279011,-1.1827098,-0.113983296,1.4828482,14.285816971666899,1.9001666892739446,76.61138916015625,-19.629491806030273,14.92249584197998,20771632.0,40023.0,0.22163890313205004,0.093454145253,-0.40262485625100003,0.0025136668691822695,0.0056075912800516055,-0.009900036915032448,20.77163259597728
1601,B,265312233344532.0,5.701193,18.282124,0.99898064,7,1970-01-04 01:41:52.233344532,1.9867182,-2.5449169,5.347361,19.176486171708305,6.246432653798315,76.99205017089844,-19.867589950561523,14.768953323364258,20811698.0,40066.0,0.262525713879,0.06689910168499995,-0.20626506392388,0.009699269772582364,0.003212356595908953,-0.012197891770863372,20.81169811700238
1601,B,265312273279428.0,8.1319065,19.612701,-6.767211,7,1970-01-04 01:41:52.273279428,1.3478259,-5.716209,2.1901836,22.284099455860098,6.268060640269905,77.9056625366211,-20.142093658447266,14.240585327148438,20851633.0,39935.0,0.27621241426625,0.36530191818749996,-0.11517713971329999,0.010757253573740277,0.008629973864304141,-0.006418397201125392,20.85163301299326
1601,B,265312312866718.0,-2.4061728,19.321806,10.380061,7,1970-01-04 01:41:52.312866718,5.102617,0.035153728,1.6990968,22.065074688493958,5.378184263211102,77.73287963867188,-19.606964111328125,14.40550708770752,20891220.0,39587.0,0.11333230999094998,0.38269756430449997,0.07151094647499999,0.007710453499584887,0.0148055277567054,-0.0008643067958622909,20.89122030301951
1601,B,265312353058177.0,-1.258153,7.7410526,16.042948,7,1970-01-04 01:41:52.353058177,1.8538265,5.860819,0.85966843,17.85729612393992,6.206843147075808,76.52981567382812,-19.18924903869629,15.114550590515137,20931411.0,40191.0,-0.07363645911389999,0.14996987499629993,0.5309835773595,0.0007977079712997581,0.010704218526469226,0.012107428703716193,20.931411761965137
1601,B,265312392992656.0,-5.803545,1.002572,-0.52253455,7,1970-01-04 01:41:52.392992656,0.4149205,-3.0381343,0.7273093,5.912641333461104,3.1514120428822423,76.97587585449219,-16.418222427368164,14.853424072265625,20971346.0,39935.0,-0.14100445481499999,-0.21677467579950002,0.309903855562875,-0.00428584244887531,-0.0013339248600378977,0.01679041981687752,20.971346241014544
1601,B,265312432893803.0,-3.739743,0.008379706,2.3882163,7,1970-01-04 01:41:52.432893803,1.8639464,-0.5478122,1.2389026,4.43726548913938,2.3041861992531247,75.51416778564453,-14.046833038330078,15.251702308654785,21011247.0,39901.0,-0.190393367244,-0.37086080798944704,0.037221283753374995,-0.006611552248988079,-0.011723621719331388,0.006925320091928845,21.011247387970798
1601,B,265312472964948.0,-5.2702365,1.9967642,0.5386954,7,1970-01-04 01:41:52.472964948,1.7584853,1.0199907,-0.1949434,5.661506228055838,2.0422180362552234,75.58502197265625,-12.604220390319824,15.302247047424316,21051318.0,40071.0,-0.18051944427225,-0.352521739271337,0.058642139365349996,-0.007431423635133827,-0.014493331025643439,0.0019206716138952147,21.051318533020094
1601,B,265312512124688.0,0.51834464,4.8374844,0.7745243,7,1970-01-04 01:41:52.512124688,-3.3435988,0.5928197,-2.1787322,4.9264413502396005,4.034595658970843,75.55272674560547,-12.328925132751465,15.274286270141602,21090478.0,39160.0,-0.09304204261880002,-0.24995341241200003,0.025712841726000003,-0.005356333913326759,-0.01179646346995974,0.001651670529768633,21.090478272992186
1601,B,265312552408021.0,1.246182,19.612701,2.3265655,7,1970-01-04 01:41:52.552408021,-4.795554,0.34141725,-5.324458,19.7894900671623,7.173824426292963,75.51911926269531,-11.852510452270508,15.181395530700684,21130761.0,40283.0,0.03554021331956,0.09769000923410001,0.0624606002067,-0.0011581730948306429,-0.003066813335107673,0.0017759453806874771,21.130761605978478
1601,B,265312592546094.0,0.8535329,19.612701,-5.403713,7,1970-01-04 01:41:52.592546094,-2.8032434,-0.32437304,-4.000068,20.36140155080569,4.895297277321,76.12017822265625,-11.465721130371094,14.966821670532227,21170899.0,40138.0,0.0421391783281,0.39386219273800005,-0.06175527317749999,0.0015589477109768885,0.009864961141378076,1.4155208149014983e-05,21.1708996790112
1601,B,265312632360521.0,16.21054,19.612701,7.1466923,7,1970-01-04 01:41:52.632360521,1.442368,2.5169537,-2.6775422,26.429431670731788,3.947747915983052,76.04997253417969,-11.942923545837402,15.083657264709473,21210714.0,39815.0,0.3397030312567501,0.39069269031500004,0.03469836041475,0.007601523787310404,0.0156185263343776,-0.0005386354908244455,21.210714105982333
1601,B,265312672267083.0,0.57879823,13.031041,-4.0839095,7,1970-01-04 01:41:52.672267083,-1.9395802,-2.9771478,-1.7848506,13.668260816172715,3.976313875890237,76.74811553955078,-11.696691513061523,14.758195877075195,21250620.0,39906.0,0.33499766570319,0.26026178412599993,0.061111705208399994,0.013462303006441682,0.012988494628521271,0.0019116982393787118,21.250620667997282
1601,B,265312711866927.0,6.0968347,0.048482586,-3.269881,7,1970-01-04 01:41:52.711866927,-2.3052323,-3.2639704,-0.15153387,6.918516146864899,3.99881998129406,77.34634399414062,-12.990647315979004,14.44968318939209,21290220.0,39600.0,0.132177532014,-0.12910543299720004,-0.1456050519,0.009250068914800362,0.002596895752350238,-0.0016729682644936804,21.290220512019005
1601,B,265312752083907.0,3.8612487,-9.002797,0.3728969,7,1970-01-04 01:41:52.752083907,0.10066749,-2.3600934,0.25672874,9.802991759890972,2.3761490791211832,76.25575256347656,-15.679108619689941,14.611462593078613,21330437.0,40217.0,0.20024212004890002,-0.5741844313939191,-0.05825400477485001,0.006684460573506826,-0.014142104238108818,-0.004099299841146222,21.330437491997145
1601,B,265312792147083.0,5.407903,-9.193734,-3.079542,7,1970-01-04 01:41:52.792147083,-0.41785,-0.34248254,1.8298581,11.101970034634798,1.9079500986242963,76.5433120727539,-18.620845794677734,14.525907516479492,21370500.0,40063.0,0.18567501227855002,-0.7571212107265001,-0.05421816132065001,0.0077304990362173165,-0.026668048970135173,-0.0022529861951420087,21.37050066801021
1601,B,265312832400365.0,-0.9223662,-0.55246204,11.780071,7,1970-01-04 01:41:52.832400365,0.82557994,-1.7198695,-0.30652985,11.829034046682949,1.932225111963323,75.1351089477539,-18.43048667907715,14.903905868530273,21410753.0,40253.0,0.0902781564052,-0.5906362145990599,0.17511119691849997,0.0055539714495134946,-0.02712563982081488,0.0024331536809601272,21.410753950010985
1601,B,265312871863126.0,-8.082825,15.136742,7.5614877,7,1970-01-04 01:41:52.871863126,1.1688614,8.722385,-1.2452941,18.751776304991488,8.888025340655243,74.7892074584961,-17.27107048034668,15.413164138793945,21450216.0,39463.0,-0.1776859301628,-0.09896767996926002,0.38163796548905,-0.0017246864878980841,-0.013606919245674804,0.010985496098044573,21.450216710974928
1601,B,265312911654115.0,9.783307,19.612701,5.3019595,7,1970-01-04 01:41:52.911654115,-0.52810484,-0.39734364,2.9838057,22.549543474564853,3.056120603908224,74.75846862792969,-17.630517959594727,15.43361759185791,21490007.0,39791.0,0.03383193963100002,0.30140574320650004,0.2559247137676,-0.0028620470686254265,0.004027606487136509,0.01268462828515068,21.49000769999111
1601,B,265312951665261.0,4.9901147,12.899959,-4.4244847,7,1970-01-04 01:41:52.951665261,-0.6956177,0.7952199,1.8295918,14.521923143350236,2.1127387033271625,75.4974136352539,-17.839252471923828,15.257463455200195,21530018.0,40011.0,0.29554968781935,0.25832421962999996,0.017554322111399998,0.0065894441479579765,0.0111976777715256,0.005471084852277335,21.53001884598052
1601,B,265312991505053.0,14.11322,18.76695,-6.5247984,7,1970-01-04 01:41:52.991505053,2.000833,-4.0072584,3.415238,24.371179397631593,5.6325219196114595,76.33036804199219,-18.5440616607666,14.884115219116211,21569858.0,39840.0,0.38053842722400005,0.24037282727999998,-0.218109719352,0.013467675251663532,0.009934045174447199,-0.003995063513032752,21.569858637987636
1601,B,265313031142500.0,2.837129,19.612701,-0.18794483,7,1970-01-04 01:41:53.031142500,1.2916331,-4.8285775,1.2330436,19.81773611533784,5.148191260823826,76.83543395996094,-18.41693687438965,14.53596019744873,21609496.0,39638.0,0.335938966831,0.37219390316900003,-0.13303985807537,0.014199865472776045,0.012140460030768732,-0.006959433475033045,21.609496084973216
1601,B,265313070827553.0,1.590947,10.924144,-6.752846,7,1970-01-04 01:41:53.070827553,5.479188,4.655472,1.5699335,12.940980008842493,7.359321427723499,78.08470916748047,-18.28847312927246,14.461150169372559,21649181.0,39685.0,0.08786409802999999,0.21701434691250002,-0.137722642044275,0.008409312314504392,0.011691364702242163,-0.005372604908624055,21.64918113796739
1601,B,265313110906302.0,-3.2626984,7.735666,8.550891,7,1970-01-04 01:41:53.110906302,0.861,0.114782244,0.5968144,11.983466368576313,1.053889648675342,77.2750244140625,-17.594223022460938,14.735264778137207,21689259.0,40078.0,-0.033500226304600006,-0.018840467410000027,0.036031023755,0.0010893976255052903,0.0039712063713505975,-0.002037798338898782,21.68925988697447
1601,B,265313150886199.0,-5.1505265,0.21547815,0.31064767,7,1970-01-04 01:41:53.150886199,1.7345169,-1.6868463,1.0759171,5.164383412877679,2.6479420164123137,77.2301025390625,-14.804794311523438,14.706887245178223,21729239.0,39980.0,-0.16818036575099998,-0.23286062844150002,0.1771421580133,-0.004031595035191444,-0.005031504906071486,0.004261331903548317,21.729239784006495
1601,B,265313191520260.0,-3.775656,1.2725182,2.3355439,7,1970-01-04 01:41:53.191520260,2.010154,-0.221575,0.58429754,4.618402982470721,2.1050458901389897,76.69454193115234,-13.563682556152344,14.859611511230469,21769873.0,40634.0,-0.1813532498525,-0.36798157815705007,0.053762674127689994,-0.00710147446821631,-0.012207311111462744,0.004691293474608494,21.769873844983522
1601,B,265313230934323.0,-1.0229226,1.0761937,9.504981,7,1970-01-04 01:41:53.230934323,0.12836437,3.5401402,-1.0942929,9.620250897761007,3.7076336116358566,75.28630828857422,-13.20290756225586,15.342299461364746,21809287.0,39414.0,-0.0945655884702,-0.3399711345867,0.23334122420429998,-0.00543753254682545,-0.013951624110041081,0.005657956524428526,21.80928790802136
1601,B,265313270911771.0,1.5771804,12.297817,5.353435,7,1970-01-04 01:41:53.270911771,-4.66213,0.72171664,-3.5414717,13.50492751846,5.899012870578753,74.83218383789062,-12.864097595214844,15.381665229797363,21849265.0,39978.0,0.0110790591642,-0.12445130011770003,0.29700487742400006,-0.0016688122342976338,-0.009283340047306252,0.010601088225448089,21.849265355966054
1601,B,265313310408542.0,0.6206968,19.612701,1.5622166,7,1970-01-04 01:41:53.310408542,-3.7374804,-1.9153455,-5.159875,19.684608854083102,6.652940563418511,74.95121002197266,-12.370662689208984,15.1581392288208,21888762.0,39497.0,0.0434047778842,0.24311426472299996,0.1365737456226,0.0010759740559503272,0.0023434155565077654,0.008562527437235781,21.888762126967777
1601,B,265313350597448.0,6.8372416,19.612701,-3.9091327,7,1970-01-04 01:41:53.350597448,0.5422196,4.040548,-0.3584615,21.13497650054007,4.092496167610962,75.5518798828125,-12.49358081817627,15.220653533935547,21928951.0,40189.0,0.1498635431788,0.39436264048900005,-0.04716010557144999,0.0038836302776004534,0.012809779671782534,0.001796722390007834,21.928951032983605
1601,B,265313390577708.0,0.89064306,19.612701,2.4193408,7,1970-01-04 01:41:53.390577708,-0.6791061,-2.4240093,-3.1872714,19.78141793406812,4.061490509505305,75.74112701416016,-12.125174522399902,15.01955795288086,21968931.0,39980.0,0.15448041435340001,0.39231178598000005,-0.029780940080999997,0.006083835711068678,0.01572562178511531,-0.0015380515025924756,21.968931292998604
1601,B,265313430461876.0,4.577115,7.101202,-3.5140896,7,1970-01-04 01:41:53.430461876,-1.8381138,-2.833337,-1.1534151,9.150184549223976,3.5688691892849547,76.50924682617188,-12.604684829711914,14.687641143798828,22008815.0,39884.0,0.10903803123252001,0.14186545362600003,-0.021831480569600003,0.0052550848418744175,0.010652562512222854,-0.0010292548926142651,22.008815461013
1601,B,265313470319739.0,5.729325,-5.711368,0.39145198,7,1970-01-04 01:41:53.470319739,-1.0197244,-2.7374632,-0.37390783,8.099266882853962,2.9450551248906884,75.76531219482422,-15.395249366760254,14.722396850585938,22048673.0,39858.0,0.20539704275999998,-0.362910398214,-0.062231045128980006,0.006266376589596931,-0.004405204700694251,-0.001675282074647001,22.0486733239959
1601,B,265313509833021.0,2.7204118,-8.156446,-2.6240451,7,1970-01-04 01:41:53.509833021,0.36964676,-1.1920309,1.3925669,8.989653185709072,1.8699783326843435,76.1258773803711,-18.3239803314209,14.583501815795898,22088186.0,39513.0,0.1669372250892,-0.6612068672910001,-0.044108225975280003,0.007356021962762719,-0.020232972755949534,-0.002100891809571313,22.088186606008094
1601,B,265313550298332.0,5.401319,-4.6740804,-0.3537433,7,1970-01-04 01:41:53.550298332,-0.14807177,-1.1829761,0.99042964,7.151671751955625,1.5499382484578774,75.77462005615234,-21.23041343688965,14.656825065612793,22128651.0,40465.0,0.164322918411,-0.6561506253880001,-0.060248103803000004,0.006702220853367797,-0.02665343547062787,-0.0021113894422390505,22.128651916980743
1601,B,265313589912082.0,-12.623428,6.477513,-1.7896658,7,1970-01-04 01:41:53.589912082,1.2924321,5.372395,-1.3326459,14.30076965803039,5.684096574119956,76.10216522216797,-19.709909439086914,14.793121337890625,22168265.0,39614.0,-0.14304831296300002,-0.35249661049180003,-0.042454504043700006,0.0004213861101085355,-0.0199782758010712,-0.0020342305536195874,22.16826566698728
1601,B,265313629707865.0,4.51307,19.612701,-16.051926,7,1970-01-04 01:41:53.629707865,-0.45486793,-0.43755737,-0.30919302,25.742769269248736,0.7028240244901438,77.28727722167969,-19.647449493408203,14.362873077392578,22208061.0,39796.0,-0.16137990348400003,0.12914227817199997,-0.35501199363640007,-0.006057512650862406,-0.004444304504499381,-0.00790878837083863,22.208061449986417
1601,B,265313669879063.0,7.3669586,4.5382094,-9.20391,7,1970-01-04 01:41:53.669879063,-1.4998924,-0.0743022,1.3962954,12.632473346912802,2.0505703773740027,78.41476440429688,-20.407808303833008,13.962549209594727,22248232.0,40171.0,0.2386163144453,0.09140731083919998,-0.507276093978,0.0015513319323631903,0.004429848770084456,-0.017319487383779034,22.248232648009434
1601,B,265313709532240.0,6.079477,17.678186,-3.7576995,7,1970-01-04 01:41:53.709532240,1.5456988,-3.732953,4.629639,19.06826175550423,6.144727833749143,79.1238021850586,-20.664196014404297,13.612972259521484,22287885.0,39653.0,0.2665957554234,0.051873963398099965,-0.25698335075175005,0.01001658710325178,0.0028407661836658275,-0.015152589880934389,22.287885824975092
1601,B,265313749653074.0,7.0784574,18.687344,-3.354875,7,1970-01-04 01:41:53.749653074,0.24820662,-4.764395,1.4335797,20.26268914047629,4.981587798934083,79.73548126220703,-20.80362892150879,13.194560050964355,22328006.0,40121.0,0.2639547430311999,0.33632491456499997,-0.14268180075724998,0.0106431082742485,0.007787463591378766,-0.008017482771846295,22.328006658994127
1601,B,265313789535781.0,-0.7146692,15.107412,12.893374,7,1970-01-04 01:41:53.789535781,6.643522,-2.7667582,1.4189322,19.874197908520703,7.335168988506541,79.3449935913086,-20.41015625,13.334547996520996,22367889.0,39883.0,0.1269034823903,0.28306472677399996,0.1902119778085,0.007794299302242841,0.012351558532761667,0.0009478230256675022,22.367889365996234
1601,B,265313829177761.0,-0.4321534,7.507618,11.525687,7,1970-01-04 01:41:53.829177761,0.58030283,6.2823973,0.72917354,13.761996418289918,6.351138579891753,78.15727233886719,-19.993616104125977,14.050477027893066,22407531.0,39642.0,-0.022731170754600002,0.059760909629999984,0.4840102080809999,0.0020647993889312093,0.006795146939163682,0.013363757946515776,22.407531346019823
1601,B,265313869484584.0,-5.819706,2.5210943,0.9540894,7,1970-01-04 01:41:53.869484584,1.0841728,-2.6972497,0.294013,6.413671411845235,2.921819681051336,78.15812683105469,-18.610973358154297,13.947532653808594,22447838.0,40307.0,-0.12599684841790001,-0.19289494666195003,0.2515111736774,-0.002997390134392979,-0.0026831168153234053,0.014823330167267912,22.447838168998715
1601,B,265313909601355.0,-2.5354595,0.89184016,2.321777,7,1970-01-04 01:41:53.909601355,2.1321268,-0.090281166,1.0207896,3.5517013085080897,2.3656134062185052,77.37890625,-17.517318725585938,14.228927612304688,22487954.0,40116.0,-0.167587909599,-0.32468016060132004,0.0657073282512,-0.00588872307630298,-0.010381521501486671,0.006362768711683859,22.487954940006603
1601,B,265313949264479.0,-4.7189717,1.8142064,4.4939165,7,1970-01-04 01:41:53.949264479,0.9166601,2.7598338,0.03355583,6.764268199604013,2.908276867198417,76.5033950805664,-16.35755729675293,14.626565933227539,22527618.0,39664.0,-0.1438698795584,-0.3350408846220801,0.13516883349199998,-0.006176830874569556,-0.013083587768870471,0.003983776039691142,22.527618064021226
1601,B,265313989177396.0,0.78769237,4.0054994,-0.24241292,7,1970-01-04 01:41:53.989177396,-3.0940607,0.6878945,-2.1084247,4.089406893051791,3.8068182480891877,76.77302551269531,-16.13287353515625,14.516050338745117,22567530.0,39912.0,-0.07845261030948,-0.2749995510552001,0.08484300544248001,-0.0044366676078034135,-0.012173966934375804,0.004390556257776484,22.56753098097397
1601,B,265314028686772.0,1.1013328,19.612701,3.7235823,7,1970-01-04 01:41:54.028686772,-3.9492016,-0.46871635,-4.799815,19.99339990088305,6.233306692953979,76.66204833984375,-15.583464622497559,14.416841506958008,22607040.0,39510.0,0.037317692233350006,0.079379548902,0.0687705011019,-0.0008126203065939482,-0.003864473142536468,0.003034634821784227,22.607040357019287
1601,B,265314068464845.0,1.6412252,19.612701,-7.4208283,7,1970-01-04 01:41:54.068464845,-3.0061762,-0.25699505,-3.1470575,21.033790750375857,4.359714750930064,77.3542251586914,-15.221596717834473,14.145613670349121,22646818.0,39778.0,0.054546736062,0.390329620378,-0.073534525694,0.0018270916143662164,0.00934204566780992,-9.475168511227689e-05,22.646818429988343
1601,B,265314108172970.0,13.0280485,19.612701,7.4447703,7,1970-01-04 01:41:54.108172970,2.107892,2.6964507,-2.800314,24.69438586103156,4.422195558745734,77.25318908691406,-15.468243598937988,14.29737663269043,22686526.0,39708.0,0.2912437600398,0.38964273130800003,0.0004753444679999982,0.0068653245096051375,0.015485571070373844,-0.001450516984061004,22.686526554985903
1601,B,265314148645312.0,0.76195467,16.919226,-5.027225,7,1970-01-04 01:41:54.148645312,-1.6676716,-3.1228228,-2.005094,17.666742047101827,4.068605750681971,77.94290924072266,-15.12943172454834,13.92505931854248,22726998.0,40472.0,0.27905450414812,0.342634474772,0.04892144669080001,0.011540555674106749,0.01481836154223488,0.000999593465889477,22.72699889697833
1601,B,265314188692708.0,8.139089,2.3211784,-4.23235,7,1970-01-04 01:41:54.188692708,-1.9510318,-2.7710192,-0.9491506,9.462844468607077,3.519369169732019,78.61498260498047,-16.24452781677246,13.577502250671387,22767046.0,40048.0,0.17823449844808,-0.007200542294400045,-0.1854137298,0.009156754987986309,0.006716729063931461,-0.002733121476978621,22.767046293010935
1601,B,265314228623334.0,4.2957964,-9.743204,1.650802,7,1970-01-04 01:41:54.228623334,0.028229509,-2.098571,-0.34807515,10.775390393812792,2.1274288371804366,77.2376937866211,-18.777334213256836,13.890368461608887,22806976.0,39930.0,0.248262487011,-0.5394947411040001,-0.05154060582,0.008515012314690533,-0.010914771333049059,-0.0047307933106533005,22.806976919004228
1601,B,265314268638958.0,3.7098155,-9.545084,-1.5646108,7,1970-01-04 01:41:54.268638958,-0.20293288,-1.2141352,2.037052,10.359506096652142,2.3801022852743396,76.97091674804688,-21.743053436279297,13.944754600524902,22846992.0,40016.0,0.1601762828952,-0.7780768663040001,0.0017245135296000006,0.00817204290828325,-0.02636197272101927,-0.0009967203745463234,22.8469925429672
1601,B,265314308466822.0,-2.4169466,-0.62249243,6.7360864,7,1970-01-04 01:41:54.308466822,0.71133035,-2.7941887,0.40906155,7.183591558609371,2.9121834952020476,74.19937133789062,-20.744173049926758,14.840215682983398,22886820.0,39828.0,0.025746191274599997,-0.59279151702702,0.10298476509839999,0.0037024601506173978,-0.027299472985653935,0.002085180574597992,22.886820407002233
1601,B,265314348283020.0,-9.764751,14.165893,3.6978445,7,1970-01-04 01:41:54.348283020,0.685764,8.722385,-1.7696706,17.598208446476313,8.926477826356,74.11552429199219,-19.374801635742188,15.251029968261719,22926636.0,39816.0,-0.24251323582079998,-0.12057478145244,0.20771869635719997,-0.0043153983228257494,-0.014201696270129089,0.006185484510658083,22.926636604999658
1601,B,265314388185572.0,5.7760115,19.612701,-7.524976,7,1970-01-04 01:41:54.388185572,-0.0479369,-0.9515475,0.7954862,21.786363009096064,1.2411844687750084,75.004150390625,-19.415403366088867,14.922236442565918,22966539.0,39903.0,-0.07958133613425,0.282884218191,-0.07635701412224999,-0.00642626985236118,0.0032383167270893802,0.0026208626031106047,22.96653915697243
1601,B,265314427571614.0,4.2066126,11.452663,-4.654328,7,1970-01-04 01:41:54.427571614,0.19627498,0.1403486,2.102832,13.058401452307695,2.116630345034286,75.87037658691406,-19.58906364440918,14.668357849121094,23005925.0,39386.0,0.19658781640129996,0.22578741325199994,-0.23984703367199994,0.002304208615899015,0.010017270438006999,-0.006227006313212164,23.00592519901693
1601,B,265314467451770.0,14.999674,17.558477,-4.3221326,7,1970-01-04 01:41:54.467451770,2.2828617,-2.7382622,5.260276,23.49406658877487,6.35452917323162,76.5613021850586,-20.4111328125,14.405708312988281,23045805.0,39880.0,0.38297335480399997,0.1876581316,-0.17899062436399998,0.01155644975383368,0.008244104164348879,-0.008351622901237839,23.04580535501009
1601,B,265314507312551.0,4.522647,19.612701,-1.400608,7,1970-01-04 01:41:54.507312551,0.2894856,-4.718589,0.76086515,20.176076902402855,4.7882982196196675,77.10595703125,-20.337900161743164,14.014361381530762,23085666.0,39861.0,0.3890896186905,0.350202363129,-0.11405708152829999,0.015387601093232131,0.010719828590196335,-0.005840587302286485,23.085666136001237
1601,B,265314547213020.0,0.8912416,13.131,-4.4843397,7,1970-01-04 01:41:54.547213020,7.173491,0.28469193,1.5723304,13.90419990990372,7.349302382461364,78.2535629272461,-20.072694778442383,13.77209758758545,23125566.0,39900.0,0.10800707757,0.26221683495,-0.11740470661499999,0.009917079090396975,0.012217763001676048,-0.0046176626734588345,23.125566605012864
1601,B,265314587329686.0,-1.3976152,6.5020533,11.223419,7,1970-01-04 01:41:54.587329686,0.5368933,4.7308393,-0.045007423,13.045886685575379,4.761420015723721,77.07125091552734,-19.546125411987305,14.39909839630127,23165683.0,40117.0,-0.010157094855599999,0.0006629996180499768,0.13517582213905,0.0019627238782767924,0.00527297516168323,0.000356461920739157,23.16568327101413
1601,B,265314627860676.0,-4.2299557,1.9608512,1.5370775,7,1970-01-04 01:41:54.627860676,1.4375744,-1.799498,0.4316984,4.909182202109652,2.343325994415186,76.84571075439453,-18.204097747802734,14.4180269241333,23206214.0,40531.0,-0.11404553807394999,-0.22569880885525,0.25859784182075,-0.002517028457633795,-0.0045604631920964775,0.007980020186977327,23.206214261008427
1601,B,265314667442551.0,-3.4805708,2.693477,1.2144588,7,1970-01-04 01:41:54.667442551,2.5217474,-0.5861618,1.3904364,4.565534100216434,2.9387257421595097,76.78856658935547,-16.95699119567871,14.462596893310547,23245796.0,39582.0,-0.15259902996150002,-0.2957897905938,0.054455654913300004,-0.005277162645989591,-0.01032078087169615,0.006195641753863584,23.24579613597598
1601,B,265314707402395.0,-5.631162,4.0940847,6.994062,7,1970-01-04 01:41:54.707402395,1.6990968,2.9092371,0.4111921,9.868557050595697,3.394063844845742,75.94381713867188,-15.92271900177002,14.866408348083496,23285755.0,39959.0,-0.18204786547760002,-0.25598611101485,0.16400214132359997,-0.006686077647425499,-0.011024206626190025,0.004364677539915143,23.28575598000316
1601,B,265314747049479.0,1.9626468,3.292626,-0.9307459,7,1970-01-04 01:41:54.747049479,-3.96811,0.644485,-2.16515,3.944573027311454,4.566085019995247,76.38766479492188,-16.198915481567383,14.693964004516602,23325403.0,39648.0,-0.0727246453248,-0.24211624708320004,0.1201991783664,-0.005050610254146779,-0.009874381146935745,0.00563400696153456,23.325403063965496
1601,B,265314787156927.0,0.4141969,19.612701,2.8520927,7,1970-01-04 01:41:54.787156927,-3.9321575,-0.96939063,-4.764662,19.823320417043256,6.253285918025982,76.35902404785156,-15.609782218933105,14.547880172729492,23365510.0,40107.0,0.04766403513794999,0.0662833749945,0.0385297280538,-0.0005025529463819965,-0.0035260645004307456,0.00318307012489748,23.36551051196875
1601,B,265314826824427.0,2.7030537,19.612701,-10.717046,7,1970-01-04 01:41:54.826824427,-3.1505196,-0.7318367,-2.5627599,22.51265454775604,4.126632647873937,77.2122573852539,-15.374094009399414,14.214234352111816,23405178.0,39668.0,0.0618275484004,0.389250223268,-0.1559934837522,0.002171656067899634,0.009035053387938426,-0.002329776130522066,23.405178011977114
1601,B,265314867006042.0,8.103774,19.612701,8.0924015,7,1970-01-04 01:41:54.867006042,1.2282499,2.417884,-3.1294806,22.711586373383945,4.141063834340443,77.01859283447266,-15.337549209594727,14.362080574035645,23445359.0,40181.0,0.21711457190685,0.39428413888100006,-0.05273042032725001,0.005604086668032806,0.015741597102754485,-0.00419336759490819,23.44535962701775
1601,B,265314906891927.0,1.2234371,12.644378,-3.5116954,7,1970-01-04 01:41:54.906891927,-1.8040254,-2.543319,-1.5696672,13.179874731078499,3.490964665871312,77.67178344726562,-15.08452320098877,14.030333518981934,23485245.0,39886.0,0.18601257096729998,0.25242012649699996,0.09135302175229999,0.008039564610339172,0.012897223164433452,0.0007702505402197717,23.48524551198352
1601,B,265314946803697.0,6.553529,0.32920274,-2.396596,7,1970-01-04 01:41:54.946803697,-1.8056233,-2.6144252,-0.6346313,6.985756164158646,3.240100540853265,78.13459014892578,-16.387907028198242,13.751465797424316,23525157.0,39912.0,0.15519713549160002,-0.13223682275256005,-0.1179058631784,0.006809180902093809,0.002398378009524043,-0.0005298885034992518,23.525157282012515
1601,B,265314987242343.0,2.5743654,-7.4812818,-0.28790274,7,1970-01-04 01:41:54.987242343,-0.43223104,-2.0429108,0.4295679,7.9170589597039065,2.13186228199819,77.33709716796875,-19.189931869506836,13.897420883178711,23565595.0,40438.0,0.18455689687360002,-0.5409002865141401,-0.054277880024060005,0.00686948678039198,-0.013610159212263412,-0.003481383103810539,23.565595927997492
1601,B,265315026280363.0,4.2305546,-7.788338,-4.8733974,7,1970-01-04 01:41:55.026280363,-0.76912093,-0.737163,1.4594123,10.114633124545444,1.8068869790123443,78.56086730957031,-21.881221771240234,13.436501502990723,23604633.0,39038.0,0.13282523348,-0.6806201088762001,-0.10074341743266,0.006194981802371919,-0.023842856597624053,-0.003025860705057718,23.604633948008996
1601,B,265315066329531.0,2.617461,-1.9093759,8.533533,7,1970-01-04 01:41:55.066329531,0.5813681,-0.83516735,-0.40240365,9.127869624184541,1.0942678226727471,77.12590026855469,-22.25551986694336,13.944820404052734,23644683.0,40050.0,0.13713151239000002,-0.5866867208475001,0.07329421539000001,0.00540588383604675,-0.025377819265217094,-0.0005496702709042664,23.644683115999214
1601,B,265315106340780.0,-17.812262,18.914194,7.270592,7,1970-01-04 01:41:55.106340780,1.2263857,8.722385,-2.8442562,26.97934247265385,9.256015087748503,76.86961364746094,-20.740205764770508,14.426121711730957,23684694.0,40011.0,-0.30397959140549996,-0.05191791150045007,0.3161694226875,-0.003337879244744584,-0.012775604972436917,0.007791414811559426,23.684694365016185
1601,B,265315146269113.0,15.996859,14.23293,19.612701,7,1970-01-04 01:41:55.146269113,-0.75633776,-2.3246734,1.5917714,29.036766947547417,2.9171714748583666,76.02848052978516,-21.260774612426758,14.625240325927734,23724622.0,39928.0,-0.036242705491999996,0.27045478353599994,0.536698061452,-0.006792197935261688,0.004362870113317718,0.01702664645336098,23.724622697976884
1601,B,265315186237342.0,3.7445314,13.2985935,-3.2196028,7,1970-01-04 01:41:55.186237342,0.38269624,-0.3717773,3.2927325,14.18590662148867,3.3356801539508667,76.72587585449219,-21.332059860229492,14.399117469787598,23764590.0,39968.0,0.3945119457536,0.158503565624,0.3275996744288,0.007159652497387814,0.00857230364961344,0.017272125953841908,23.76459092699224
1601,B,265315225884167.0,13.700221,19.612701,-8.402451,7,1970-01-04 01:41:55.225884167,3.3380063,-3.5140412,5.551892,25.356562834336263,7.369822005571174,77.7085189819336,-22.007665634155273,13.997052192687988,23804237.0,39647.0,0.3458160492014001,0.26387644652075,-0.2303897835043,0.014675892007990446,0.008373050170751451,0.0019270402727418257,23.804237751988694
1601,B,265315266059687.0,-0.729633,19.612701,19.612701,7,1970-01-04 01:41:55.266059687,1.8221349,-5.555354,1.7062874,27.74614289131899,6.0904474671827495,77.06832122802734,-21.663545608520508,14.034524917602539,23844413.0,40176.0,0.26055317174400006,0.39423507537600005,0.22519150200000007,0.0121807449103512,0.013220144251861916,-0.00010442307885837709,23.844413271988742
1601,B,265315306079062.0,1.1133038,10.955867,1.3802572,7,1970-01-04 01:41:55.306079062,2.0780647,5.19636,0.18722023,11.098449306589425,5.599603696825994,77.22512817382812,-21.224878311157227,14.252836227416992,23884432.0,40019.0,0.0076770608725999995,0.21947556139600002,0.4200585971029,0.005367152839541859,0.012280042986489336,0.01291113185799948,23.8844326469698
1601,B,265315346035104.0,-2.6234465,5.6976013,1.2449849,7,1970-01-04 01:41:55.346035104,0.7643272,-1.1819109,0.43915528,6.394929203154007,1.474437792567231,77.29405212402344,-20.238679885864258,14.19308090209961,23924388.0,39956.0,-0.0301696308606,-0.05886581030260004,0.0524470866738,-0.00044935656322026403,0.0032086616073439445,0.009439718550490911,23.924388688988984
1601,B,265315385777604.0,-4.919486,-1.0031705,2.8401217,7,1970-01-04 01:41:55.385777604,1.614142,-0.34514567,0.9552759,5.768360670682542,1.9071266278893382,75.70886993408203,-17.897571563720703,14.733055114746094,23964131.0,39743.0,-0.14988938317375,-0.2961960183578001,0.0811771958019,-0.0035780426973835862,-0.00705561112822514,0.0026553149292158724,23.964131188986357
1601,B,265315426290990.0,-2.1266496,0.81881696,3.5110967,7,1970-01-04 01:41:55.426290990,2.352104,-0.96939063,1.4703313,4.185797387824056,2.9383644348697606,74.68949127197266,-17.110990524291992,15.048395156860352,24004644.0,40513.0,-0.1427300457814,-0.40076175748301,0.1286534555196,-0.005927445462629997,-0.01411792518631937,0.0042504345884939645,24.00464457500493
1601,B,265315465531717.0,-3.027468,3.0693667,10.852318,7,1970-01-04 01:41:55.465531717,0.33316147,4.6189866,-1.1158645,11.677301931662848,4.7635267773397025,73.40870666503906,-16.42486572265625,15.621633529663086,24043885.0,39241.0,-0.10112636437079998,-0.30827369249897,0.28181737812135,-0.00478458469539124,-0.013911630046371437,0.008053642991452259,24.043885301973205
1601,B,265315505479322.0,2.9825768,9.243414,1.9494787,7,1970-01-04 01:41:55.505479322,-5.213937,1.8405106,-2.9228194,9.906408730970467,6.254237887520566,73.2506332397461,-16.287235260009766,15.637008666992188,24083832.0,39947.0,-0.0008966343831999982,-0.14555127468855006,0.25569668638745,-0.0020377563656130185,-0.009064472982119933,0.010736037167466518,24.083832906966563
1601,B,265315545141197.0,2.0272903,19.612701,2.3828292,7,1970-01-04 01:41:55.545141197,-4.176902,-1.3286511,-5.5641427,19.860660146939924,7.083184880341505,73.33592224121094,-15.78640365600586,15.416851043701172,24123494.0,39662.0,0.09935067446010001,0.18355801656499995,0.0859139979649,0.0019524420687650045,0.0007537116981518779,0.006774481481391454,24.123494782019407
1601,B,265315585311249.0,5.4863133,19.612701,-4.9320555,7,1970-01-04 01:41:55.585311249,0.0018642128,5.1343083,-0.05486112,20.95430374878245,5.134601731120527,74.00183868408203,-15.74824333190918,15.471830368041992,24163664.0,40170.0,0.150910728306,0.39417619917,-0.051201210235499985,0.005026500274557118,0.011603791723037472,0.0006972063415449992,24.16366483399179
1601,B,265315625165000.0,-1.1198878,19.612701,1.6519991,7,1970-01-04 01:41:55.625165000,-1.1230551,-2.0114856,-3.473561,19.713987172218378,4.168087462777667,74.27299499511719,-15.149412155151367,15.245237350463867,24203518.0,39854.0,0.0870097609385,0.391075385654,-0.06536168388279999,0.004741041589175151,0.015647708330787848,-0.0023227487910953636,24.203518585010897
1601,B,265315665072395.0,3.6296098,5.7418942,-2.7551277,7,1970-01-04 01:41:55.665072395,-2.2112226,-2.7771444,-1.3132048,7.330357763953747,3.7850420409745995,75.05756378173828,-15.561811447143555,14.862382888793945,24243425.0,39907.0,0.050077737926999995,0.1148243153232,-0.022011276520099998,0.0027353754086127543,0.01009446968344856,-0.0017433963653992648,24.243425979977474
1601,B,265315705487239.0,3.2345665,-6.947375,0.66379243,7,1970-01-04 01:41:55.705487239,-1.1318434,-3.4043188,-0.23622239,7.6921427589243665,3.595310416597475,73.70536041259766,-18.154346466064453,15.078099250793457,24283840.0,40415.0,0.13870784258225,-0.42042675326600004,-0.042260657468525004,0.003814884618140669,-0.006175461264729132,-0.0012987751060751398,24.28384082397679
1601,B,265315744585886.0,2.598906,-8.513782,-6.903681,7,1970-01-04 01:41:55.744585886,-0.30173615,-1.8271948,1.5571504,11.264972600504672,2.4195873428301824,75.55445098876953,-20.53137969970703,14.398191452026367,24322939.0,39099.0,0.11404147063875,-0.6854280887715002,-0.121986701599215,0.00494112269881394,-0.021618909234412113,-0.0032109537460947835,24.322939470992424
1601,B,265315784847134.0,5.477335,-4.8021703,-2.1200657,7,1970-01-04 01:41:55.784847134,-0.829841,0.028229509,0.5075985,7.586614321602462,0.9731850942455043,75.89056396484375,-23.39797019958496,14.265090942382812,24363200.0,40261.0,0.16257876945049998,-0.66261457777515,-0.18165253294435,0.005568503743116647,-0.027136772898917343,-0.006112409610979235,24.363200719002634
1601,B,265315824701354.0,-8.717288,8.037933,11.944673,7,1970-01-04 01:41:55.824701354,2.0157466,5.2168665,-0.8839032,16.830766175797287,5.662174079026894,75.00454711914062,-22.244474411010742,14.871078491210938,24403054.0,39854.0,-0.064562543431,-0.3260901566771,0.19577494966710002,0.001953169335890576,-0.019701919243429986,0.00028141739803423974,24.403054939000867
1601,B,265315864283697.0,1.4287399,19.612701,-11.409568,7,1970-01-04 01:41:55.864283697,-0.6412892,-1.4410365,0.09960223,22.734941833307538,1.5804298898052591,76.09367370605469,-21.96552848815918,14.385856628417969,24442637.0,39583.0,-0.14425129972115,0.15933412281099998,0.010590530607499994,-0.004132739176745777,-0.0033003520442609186,0.004084282402854746,24.44263728201622
1601,B,265315904585677.0,6.4709287,11.11149,-8.265982,7,1970-01-04 01:41:55.904585677,0.018908445,0.76912093,2.1787322,15.286091282107002,2.3105796964340404,77.15192413330078,-22.31305694580078,14.046282768249512,24482939.0,40302.0,0.1591862219586,0.22416357284099997,-0.39648200805,0.0003009536180068548,0.007727862065083451,-0.007776099161943818,24.48293926200131
1601,B,265315944123125.0,11.97041,19.612701,-6.1644707,7,1970-01-04 01:41:55.944123125,0.80400836,-6.575345,4.5327,23.789692202604463,8.026640679759803,77.98250579833984,-22.86441421508789,13.492581367492676,24522476.0,39537.0,0.36455760409095,0.2199085697835,-0.28526840419995003,0.010353629825260528,0.008778640151472429,-0.013477183024563138,24.52247670997167
1601,B,265315984305311.0,4.1359835,16.87553,6.22672,7,1970-01-04 01:41:55.984305311,0.18801917,-6.505304,1.4998924,18.45702885763503,6.678623252758104,77.90225982666016,-22.76459312438965,13.248600006103516,24562658.0,40182.0,0.3235935518085,0.33930144902100007,0.001250650686300008,0.01382564487317585,0.011235088487801212,-0.0057062006858427435,24.562658895971254
1601,B,265316024261562.0,3.8175547,11.897387,-4.505289,7,1970-01-04 01:41:56.024261562,4.074903,1.299889,0.0015978967,13.282287840909866,4.2772126934493055,78.88565063476562,-22.682716369628906,13.006174087524414,24602615.0,39957.0,0.1588997629287,0.18326112228450003,0.0343916092335,0.009639492688477152,0.010440016330826933,0.0007120788898077245,24.60261514701415
1601,B,265316064099635.0,-0.32561144,6.9784994,4.172495,7,1970-01-04 01:41:56.064099635,2.053031,3.6261601,0.4412858,8.137271730173708,4.1903110284410445,78.39096069335938,-22.09552574157715,13.402260780334473,24642453.0,39838.0,0.06955601779594,-0.01442361879840005,-0.006628923686000014,0.004550610696254104,0.0033630742319396257,0.0005530049334206521,24.642453219974414
1601,B,265316103887187.0,-5.061941,-0.6961141,6.306926,7,1970-01-04 01:41:56.103887187,1.9236013,0.21571605,0.8423579,8.116966003204388,2.11100502303564,76.06741333007812,-20.359556198120117,14.297568321228027,24682240.0,39787.0,-0.10717727446514001,-0.2649339680344501,0.2084723616635,-0.0007484184695487303,-0.0055574001536593046,0.004015372433405396,24.682240772002842
1601,B,265316143495729.0,-1.4036007,1.3814543,1.3587095,7,1970-01-04 01:41:56.143495729,1.7065537,-0.5946839,0.69481874,2.3926141380129033,1.9361682657656816,75.53450012207031,-19.264413833618164,14.488676071166992,24721849.0,39609.0,-0.12804682059765,-0.37459538000910003,0.15181407825975,-0.004658495590671025,-0.012665558973328488,0.007135292799460004,24.721849313995335
1601,B,265316183779687.0,-4.1024647,3.5769374,4.754286,7,1970-01-04 01:41:56.183779687,0.619185,3.645335,-0.1438107,7.226889590139097,3.7003430711063117,74.73270416259766,-18.137338638305664,14.92089557647705,24762133.0,40284.0,-0.1109031692868,-0.29491127437860004,0.12312795536099999,-0.004812930696252592,-0.013485203032677055,0.005537882441189146,24.76213327201549
1601,B,265316223710936.0,0.6392518,5.179257,-0.5141548,7,1970-01-04 01:41:56.223710936,-2.928412,2.4775388,-2.8565066,5.243825044203446,4.7826169931422475,75.09331512451172,-17.719289779663086,14.842133522033691,24802064.0,39931.0,-0.06914477715494999,-0.21650200070680004,0.08465633947359999,-0.0035947472746827593,-0.010210621743717556,0.004148517338520206,24.802064521005377
1601,B,265316263633071.0,2.3900118,19.612701,2.622848,7,1970-01-04 01:41:56.263633071,-4.31006,-0.6348976,-5.7114153,19.93111960103206,7.1833123901971465,75.09969329833984,-17.1857967376709,14.675437927246094,24841986.0,39922.0,0.060467130719600005,0.10363667363799998,0.0420916249652,-0.000173214500496021,-0.002252904793620318,0.0025300161181628865,24.841986656014342
1601,B,265316303059687.0,3.1836896,19.612701,-4.2556934,7,1970-01-04 01:41:56.303059687,-0.727043,1.8791265,-2.0026972,20.320060194284682,2.840863249390771,75.7179946899414,-16.90663719177246,14.545592308044434,24881413.0,39427.0,0.1098771625489,0.386885362327,-0.0321890977929,0.0033580822253485745,0.009669906155996026,0.00019521346941113593,24.881413271999918
1601,B,265316342740468.0,6.1728506,19.612701,5.4821234,7,1970-01-04 01:41:56.342740468,-0.6759103,-0.32969934,-3.601659,21.279469025756942,3.679334714418291,75.66912078857422,-16.7352237701416,14.492115020751953,24921094.0,39681.0,0.18563843583810002,0.389377788381,0.024332984414999995,0.005863177229797274,0.015401449041622075,-0.00015586921747422512,24.92109405301744
1601,B,265316382540416.0,2.724003,7.951742,-3.6272156,7,1970-01-04 01:41:56.382540416,-1.8245317,-2.8186898,-1.3179984,9.154621029155514,3.6070830175269726,76.52005004882812,-16.804786682128906,14.073936462402344,24960894.0,39800.0,0.17704738664,0.1584924157,0.03691266522,0.00721744786731419,0.0109026170612119,0.0012187884277365,24.960894001007546
1601,B,265316422957239.0,4.5058875,-8.495825,1.899799,7,1970-01-04 01:41:56.422957239,-0.8836369,-3.3654368,-0.38908786,9.802617040039983,3.5011952799915673,75.00419616699219,-19.29668426513672,14.370003700256348,25001310.0,40416.0,0.146101627224,-0.40707162926400003,-0.0349076346528,0.006530195272163712,-0.005023288747701313,4.05176577019776e-05,25.001310824009124
1601,B,265316462444635.0,3.0376434,-9.69951,-3.2597055,7,1970-01-04 01:41:56.462444635,1.0341054,-1.4666028,1.660481,10.673961383310031,2.444891593228215,75.39028930664062,-22.24457550048828,14.203540802001953,25040798.0,39488.0,0.1489394740896,-0.7462310942400001,-0.026849993936,0.005825291504335719,-0.022770808972862978,-0.0012193426188572673,25.040798219968565
1601,B,265316504516822.0,7.52737,-3.0974984,3.7594953,7,1970-01-04 01:41:56.504516822,0.1635181,-0.02956109,1.0692592,8.966024780560483,1.082093925615627,74.62347412109375,-23.531702041625977,14.516070365905762,25082870.0,42072.0,0.2222456218824,-0.6815034687024001,0.010513578232800006,0.007808249678866992,-0.03003382426605633,-0.00034365284073251503,25.08287040697178
1601,B,265316542135781.0,-8.4826565,14.087482,-0.011971008,7,1970-01-04 01:41:56.542135781,1.5259913,5.108742,-1.2373047,16.44423162395704,5.473464825033754,74.95540618896484,-22.254947662353516,14.62817096710205,25120489.0,37619.0,-0.017968461421749977,-0.16195010347580002,0.070489058170374,0.0038423512496845963,-0.015864939965885855,0.0015236190894255014,25.120489366003312
1601,B,265316582302708.0,0.42317516,7.3088994,-4.0653543,7,1970-01-04 01:41:56.582302708,-1.9531624,1.4559501,0.070307456,8.374138358057495,2.4371247799062243,75.90262603759766,-21.9150390625,14.30095100402832,25160656.0,40167.0,-0.16186259349189,0.036077625846899955,-0.081886962823218,-0.0036116369913580886,-0.002527959904460015,-0.00022890981809539252,25.160656292981002
1601,B,265316621883020.0,8.4826565,15.246277,0.4866215,7,1970-01-04 01:41:56.621883020,1.4940335,2.8495824,1.4274544,17.4539744511668,3.5199264221843287,76.20159149169922,-22.138988494873047,14.361035346984863,25200236.0,39580.0,0.17624640855139997,0.05848294095599994,-0.070823122112,0.0002846557000277024,0.0018713536170293888,-0.003022132580867964,25.200236605014652
1601,B,265316661846041.0,7.213131,19.612701,1.4682442,7,1970-01-04 01:41:56.661846041,-1.0149307,0.03888215,3.8717036,20.948580867672057,4.0027096963986875,76.37146759033203,-22.283493041992188,14.322202682495117,25240199.0,39963.0,0.31362537793124995,0.304897268907,0.03906114898455,0.00978837310160307,0.007260881663377532,-0.000634651866046142,25.240199626015965
1601,B,265316701810000.0,7.1233487,16.274586,0.12808979,7,1970-01-04 01:41:56.701810000,-1.5249261,-6.718889,1.8985676,17.765715667191397,7.146567563281828,76.7443618774414,-22.500518798828125,13.869843482971191,25280163.0,39964.0,0.2864715373654,0.325452568834,0.03189794578818,0.01199113656145766,0.012595650457740661,0.0014179046317486907,25.280163584975526
1601,B,265316742028072.0,1.6531962,16.548124,4.329315,7,1970-01-04 01:41:56.742028072,2.360626,-5.696235,1.1411645,17.18477331722172,6.270718037287377,76.93297576904297,-22.202795028686523,13.59924602508545,25320381.0,40218.0,0.1764875413941,0.26589547538999997,0.08963395292210999,0.009309644114774784,0.011891417821300414,0.002443884951165221,25.320381656987593
1601,B,265316781752343.0,0.90859956,12.100295,-7.716512,7,1970-01-04 01:41:56.781752343,4.9809103,4.4352283,1.3406353,14.380099084971606,6.802795050372536,78.18897247314453,-21.922080993652344,13.435599327087402,25360105.0,39724.0,0.05088238738512,0.179719698178,-0.06727650681399999,0.004516021525412868,0.008850808577407616,0.00044406359459928075,25.360105927975383
1601,B,265316821522448.0,-5.031415,5.479729,9.087193,7,1970-01-04 01:41:56.821522448,0.6018744,2.066613,0.3368899,11.743919423894008,2.1786777847736847,77.16239166259766,-21.0151424407959,13.919601440429688,25399876.0,39771.0,-0.08198424643212,-0.04016823274800005,0.027256677025499988,-0.0006184760180791186,0.002775050665808264,-0.000795814325259217,25.399876033014152
1601,B,265316861855989.0,-7.24665,-0.073023155,2.825158,7,1970-01-04 01:41:56.861855989,1.7749969,-2.8575718,1.2386363,7.778225140006565,3.584766445787304,76.1792984008789,-18.4438419342041,14.1661958694458,25440209.0,40333.0,-0.2476055978225,-0.2862290665768075,0.2402304264415,-0.006646673594160795,-0.0065822911368337315,0.005394278672067256,25.440209574007895
1601,B,265316901570885.0,-3.7834373,0.777517,2.236783,7,1970-01-04 01:41:56.901570885,1.892176,-0.33262882,0.257794,4.463421185302737,1.9384090624289272,75.61064910888672,-17.1767635345459,14.357671737670898,25479924.0,39715.0,-0.21902995855975,-0.3752175134729125,0.1005174934075,-0.00926621556086053,-0.013134675463337315,0.006766401818401518,25.47992447001161
1601,B,265316941520364.0,1.6496049,3.7163997,8.31207,7,1970-01-04 01:41:56.941520364,-1.3813816,2.2849922,-2.2269354,9.253287563950668,3.476872985119324,74.36222839355469,-17.021053314208984,14.783650398254395,25519873.0,39949.0,-0.042622235273800005,-0.30173646087585004,0.21070806424850003,-0.0052263717457282435,-0.013521817160629356,0.006216574901399772,25.519873949000612
1601,B,265316981591405.0,2.8592753,15.6233635,3.1387985,7,1970-01-04 01:41:56.981591405,-5.2296495,1.3821807,-4.3348274,16.1900277429634,6.931838570544866,74.20830535888672,-16.62407112121582,14.759419441223145,25559944.0,40071.0,0.0903376692471,-0.005213974406400025,0.22942387583175003,0.0009560025773720521,-0.0061499054460975216,0.00881826348547785,25.55994498997461
1601,B,265317021703593.0,3.3435028,19.612701,-2.235586,7,1970-01-04 01:41:57.021703593,-3.5260253,-0.63383234,-4.8986187,20.02086152622821,6.068860108740327,74.6188735961914,-16.25149154663086,14.499709129333496,25600057.0,40113.0,0.12440601896265001,0.31360472764425,0.01811528150625,0.004307006782578851,0.006185239142314939,0.004964769109149598,25.600057178002317
1601,B,265317061677654.0,19.612701,19.612701,7.626131,7,1970-01-04 01:41:57.061677654,2.4306672,4.1577272,-1.4351776,28.76584702490026,5.025392845372134,74.57485961914062,-16.772964477539062,14.720390319824219,25640031.0,39974.0,0.45882564535060005,0.39225290977400007,0.10774082291499999,0.011657051274628929,0.014107976599078566,0.0025154859590675238,25.640031239017844
1601,B,265317103802082.0,-2.1350293,17.973272,-3.0831332,7,1970-01-04 01:41:57.103802082,-1.5246598,-2.1715417,-2.3971114,18.36035312369522,3.5757969635572002,75.16870880126953,-16.153627395629883,14.399357795715332,25682155.0,42124.0,0.3681147213454001,0.37882056332600006,0.0956846196636,0.017417018003351156,0.016240349490432203,0.0042845466715904735,25.682155666989274
1601,B,265317141231561.0,4.545392,4.1611223,-3.5895069,7,1970-01-04 01:41:57.141231561,-2.1555626,-2.9728868,-0.5749765,7.131625832471085,3.7168675014970938,76.05733489990234,-16.864173889160156,13.971756935119629,25719585.0,37430.0,0.04510993793049999,0.047431189324499974,-0.12487845947149999,0.00773349949834847,0.007977301550854108,-0.0005463627120048481,25.71958514599828
1601,B,265317181078333.0,3.1848867,-8.170214,1.5975311,7,1970-01-04 01:41:57.181078333,-0.05352954,-2.7289412,0.08894958,8.913361078353109,2.730915141942757,74.4058609008789,-19.273521423339844,14.357635498046875,25759431.0,39846.0,0.1540103425401,-0.4703639339391,-0.039686133863399996,0.003967073347815764,-0.008426089070956676,-0.003278620393011212,25.759431917977054
1601,B,265317221028802.0,1.5412674,-9.111135,-4.1742907,7,1970-01-04 01:41:57.221028802,0.55127436,-1.2479573,1.8714033,10.139674010274407,2.315912596335965,75.42264556884766,-22.094924926757812,13.974478721618652,25799382.0,39951.0,0.09440729122455,-0.7367233869495,-0.0514720613898,0.004962266443265766,-0.02411217277841023,-0.0018209305292802964,25.79938238702016
1601,B,265317260884947.0,2.3307555,-1.8626889,4.19105,7,1970-01-04 01:41:57.260884947,0.3139867,-0.54941016,0.28336033,5.144602146081216,0.6933485763350383,74.08147430419922,-22.78980255126953,14.471094131469727,25839238.0,39856.0,0.07716167235120001,-0.6092751626792,0.00033397933039998963,0.0034190263061375467,-0.026823059097000737,-0.0010190796992797233,25.839238532003947
1601,B,265317300514530.0,-8.719683,13.541006,12.076353,7,1970-01-04 01:41:57.300514530,0.5949502,8.462728,-1.2455604,20.130325801961924,8.57456422522522,73.34834289550781,-21.587825775146484,15.118896484375,25878868.0,39630.0,-0.12659659841249998,-0.15696814666350004,0.32233859044499996,-0.000979553059904659,-0.0151831111746256,0.00639375697009955,25.878868115018122
1601,B,265317340404841.0,13.969568,19.612701,19.612701,7,1970-01-04 01:41:57.340404841,0.1555286,-3.7670414,0.37284255,31.05583537980304,3.7886411313058437,72.77152252197266,-21.844295501708984,15.172374725341797,25918758.0,39890.0,0.10470895632500002,0.270328686115,0.63203818203,-0.0004365490214351868,0.002260975959360167,0.019035044727013874,25.918758425978012
1601,B,265317380327551.0,7.6267295,7.7943234,-5.683835,7,1970-01-04 01:41:57.380327551,-0.9869675,1.5672703,2.7097664,12.297335501529703,3.2822667444751197,73.65067291259766,-22.523645401000977,14.928766250610352,25958681.0,39923.0,0.43109449254625,0.15583991756059998,0.27804105865900003,0.010695440544643456,0.008506964582270488,0.01816654676301347,25.95868113602046
1601,B,265317420564946.0,12.317569,19.612701,2.992752,7,1970-01-04 01:41:57.420564946,1.0226538,-0.18402444,3.5135086,23.352454070582517,3.6639361991505415,73.86126708984375,-22.930673599243164,14.904508590698242,25998918.0,40237.0,0.4012493693722501,0.15706562039139998,-0.05414055333550001,0.016745509986007344,0.006295190065287311,0.0045045423163508356,25.99891853099689
1601,B,265317460415571.0,3.064578,16.519394,-0.56563014,7,1970-01-04 01:41:57.460415571,1.3113406,-5.780125,1.598163,16.810768985998124,6.138695639906117,74.50911712646484,-22.804269790649414,14.443073272705078,26038769.0,39851.0,0.30649697004849996,0.3294102589224999,0.048361616621429994,0.014102199686128154,0.009693275133269112,-0.00011514820349620211,26.03876915597357
1601,B,265317500418852.0,-1.721431,15.547946,4.19105,7,1970-01-04 01:41:57.500418852,5.209143,-2.3853934,1.6988305,16.194654970365285,5.975893032421414,74.81806945800781,-22.22536277770996,14.340678215026855,26078772.0,40003.0,0.0268649547205,0.2493655010099999,0.07251383532978999,0.006667738538267152,0.011576383362289895,0.0024176903522023264,26.078772437002044
1601,B,265317540232967.0,0.29688102,7.07726,7.507618,7,1970-01-04 01:41:57.540232967,1.598962,5.340171,0.8018778,10.321825201075642,5.631794899747135,73.98400115966797,-21.766544342041016,14.9315767288208,26118586.0,39814.0,-0.028358516451859998,0.06022277584199995,0.232885383876,-2.9732333386183476e-05,0.006162973827292762,0.006079582256729662,26.118586551980115
1601,B,265317580234582.0,-6.1010246,3.3877954,2.7299886,7,1970-01-04 01:41:57.580234582,1.3672669,-1.5169365,0.1454086,7.493496953905852,2.047354092926238,73.73474884033203,-20.42713737487793,14.980810165405273,26158588.0,40002.0,-0.11608867574358,-0.18270802694460003,0.2047623696066,-0.0028890882911009955,-0.0024498275073031044,0.008753392717405483,26.15858816698892
1601,B,265317620067498.0,-3.151368,1.6998832,2.3421278,7,1970-01-04 01:41:57.620067498,1.1353056,-0.19094865,0.8277105,4.278584555270479,1.417915675961879,73.16218566894531,-19.21256446838379,15.197047233581543,26198421.0,39833.0,-0.18427527721790002,-0.2890346491631,0.10101880628060002,-0.0059821986691573166,-0.009395463008699008,0.006090090789557419,26.19842108298326
1601,B,265317660011144.0,-4.155137,1.0995371,2.521693,7,1970-01-04 01:41:57.660011144,1.1004182,-0.60933125,0.17789917,4.983280135542694,1.270375102796214,72.593017578125,-17.932662963867188,15.371346473693848,26238364.0,39943.0,-0.14592186460749998,-0.33553277747855,0.0971377971072,-0.006594532217965976,-0.012473548361173713,0.0039574846045594475,26.23836472898256
1601,B,265317699569166.0,-0.7906851,3.8642416,3.4979286,7,1970-01-04 01:41:57.699569166,-1.8538265,2.3787355,-2.2003038,5.271911471300569,3.7331477446461907,71.85460662841797,-17.190046310424805,15.642279624938965,26277922.0,39558.0,-0.09782341531590001,-0.28948982109270005,0.11906209562640001,-0.004821037891604929,-0.012362321977140756,0.004276217678377875,26.27792275097454
1601,B,265317739460208.0,1.7310078,19.612701,2.4067712,7,1970-01-04 01:41:57.739460208,-4.2330947,0.8213189,-4.515656,19.835497879514175,6.243781272994859,71.94076538085938,-16.66828155517578,15.524739265441895,26317813.0,39891.0,0.01875520641285,0.0773275586283,0.1177721898609,-0.0015770549606757842,-0.004231682405983692,0.0047237782411869425,26.317813792964444
1601,B,265317779648853.0,2.5905263,19.612701,-3.5164838,7,1970-01-04 01:41:57.779648853,-3.2458608,-0.116912775,-3.9750342,20.09314622805635,5.133242427657638,72.49835968017578,-16.297805786132812,15.255634307861328,26358002.0,40189.0,0.08683906697245,0.39436264048900005,-0.022299119840700002,0.002121864126540911,0.009478378706162586,0.0019184836055209091,26.35800243797712
1601,B,265317819547654.0,13.759478,19.612701,4.228759,7,1970-01-04 01:41:57.819547654,2.0104203,3.5137749,-2.8173583,24.3282485606335,4.932130535691548,72.67657470703125,-16.558273315429688,15.353601455688477,26397901.0,39899.0,0.3261744107828499,0.391516957199,0.014209534102400001,0.008239412374479355,0.015677905034076754,-0.00016138319068621586,26.397901238990016
1601,B,265317859479531.0,-0.75596917,15.376162,-2.3385365,7,1970-01-04 01:41:57.859479531,-1.7968348,-2.7201529,-2.0394487,15.571339062459167,3.8454126043639505,73.28565979003906,-16.06641960144043,15.003361701965332,26437833.0,39932.0,0.25962805729978,0.30725403865800005,0.037740182435000005,0.01169613207773779,0.013951661703280865,0.0010372280403857287,26.437833115982357
1601,B,265317899404165.0,5.2169657,0.6326678,-1.8716671,7,1970-01-04 01:41:57.899404165,-2.2421153,-3.1816785,-0.5605954,5.578542586855078,3.932483477188111,73.75267028808594,-17.366456985473633,14.683843612670898,26477757.0,39924.0,0.08905041273186,-0.07168693953240002,-0.0840440842632,0.006960319618771598,0.004702390432745228,-0.0009243184882945282,26.477757750020828
1601,B,265317939003436.0,2.8389246,-8.247426,0.20649989,7,1970-01-04 01:41:57.939003436,-0.032756884,-2.4727452,0.54807854,8.724802044432366,2.5329689938056803,72.43583679199219,-19.99030113220215,14.999229431152344,26517357.0,39600.0,0.15950662794,-0.5388522123600001,-0.032970310758000006,0.004921429405302828,-0.012088675207469524,-0.0023168850214197604,26.51735702098813
1601,B,265317978967238.0,2.8742392,-7.760206,-5.0427876,7,1970-01-04 01:41:57.978967238,0.27670243,-1.3728596,2.0343888,9.690807753740984,2.469827019377168,73.68692779541016,-22.73552703857422,14.51541805267334,26557320.0,39963.0,0.1141575824697,-0.7114938988080001,-0.09663628287736499,0.005468221420301421,-0.024983790820303393,-0.0025897341507250455,26.557320823019836
1601,B,265318019125050.0,3.0400376,-2.5659857,1.1414356,7,1970-01-04 01:41:58.019125050,0.87564737,0.16138756,0.42770368,4.138717971904538,0.9877928421466785,72.30825805664062,-25.30915641784668,15.10643482208252,26597478.0,40158.0,0.11875276386719999,-0.6008880031443,-0.07833524680799998,0.004676606844098615,-0.026351316209300236,-0.003513253344552443,26.597478634968866
1601,B,265318059000466.0,-12.651561,17.85835,7.4986396,7,1970-01-04 01:41:58.059000466,0.7470167,6.706905,-1.8176075,23.134654877691805,6.988870127077776,72.09622955322266,-23.901317596435547,15.474540710449219,26637354.0,39876.0,-0.1916345535492,-0.08588564058660002,0.17226581933760002,-0.0014531171226797163,-0.013692892908706684,0.0018727877550951655,26.637354050995782
1601,B,265318098594374.0,10.171766,19.612701,19.612701,7,1970-01-04 01:41:58.098594374,-2.0005667,-0.21758026,0.09614012,29.54286554465491,2.0146590811758127,71.33029174804688,-23.873458862304688,15.736058235168457,26676947.0,39593.0,-0.04909126171749999,0.3537842611215001,0.5367096541879001,-0.0047655286019272275,0.005303455041419149,0.014035232961647564,26.676947959000245
1601,B,265318138509738.0,4.735132,8.866926,-5.125387,7,1970-01-04 01:41:58.138509738,-1.045557,0.77205044,0.7661915,11.28332591245458,1.5087414413428974,72.32620239257812,-24.096755981445312,15.354715347290039,26716863.0,39916.0,0.297511870284,0.17721959566599998,0.289137812812,0.004957978505770207,0.010597774973764927,0.016482263746384007,26.716863323003054
1601,B,265318178702394.0,9.686341,13.686454,2.3523033,7,1970-01-04 01:41:58.178702394,1.5776566,-1.3566142,5.953763,16.931555034242656,6.306876905040577,72.57172393798828,-24.673852920532227,15.309046745300293,26757055.0,40192.0,0.289813921408,0.05935112447999995,-0.0557278900352,0.011802899109842432,0.004754125192054015,0.004690605808122573,26.75705597898923
1601,B,265318218663331.0,9.252393,19.612701,-5.357026,7,1970-01-04 01:41:58.218663331,0.8428905,-5.434447,1.4900386,22.337469514395,5.69770950648497,73.50007629394531,-24.903181076049805,14.722103118896484,26797016.0,39961.0,0.37840537468700003,0.2737159664775001,-0.06003586190735001,0.013351355645626149,0.00665484701087633,-0.0023130176456881207,26.797016915981658
1601,B,265318258511354.0,0.5363012,19.066225,-1.1785458,7,1970-01-04 01:41:58.258511354,6.4720144,-0.9912286,2.7790086,19.110141939044933,7.112833003110595,74.36607360839844,-24.518917083740234,14.489029884338379,26836864.0,39848.0,0.1950299432408,0.380128521624,-0.1302147325432,0.011425125274393488,0.013027197580934288,-0.003790552843832759,26.836864939017687
1601,B,265318298456611.0,-1.9883845,11.4359045,15.297153,7,1970-01-04 01:41:58.298456611,1.3646038,4.91806,0.91426325,19.20251219393883,5.185107036973778,73.37208557128906,-23.88795280456543,15.151534080505371,26876810.0,39946.0,-0.0290024597509,0.21774823250349995,0.2819909416056,0.003316066927743773,0.011941392410188557,0.0030314262236033154,26.87681019597221
1601,B,265318338102604.0,-7.33344,0.8182184,-2.8694508,7,1970-01-04 01:41:58.338102604,0.9084043,-2.2330606,0.25406557,7.917232564306747,2.4241095951689715,74.71147155761719,-21.309663772583008,14.560579299926758,26916456.0,39646.0,-0.1847865270635,-0.14561732175330003,0.24635434071059997,-0.004237939085621851,0.001429851043801213,0.010473388531354034,26.916456189006567
1601,B,265318378009269.0,-4.295198,0.06703765,4.370615,7,1970-01-04 01:41:58.378009269,2.100968,-1.7803233,0.6578008,6.128253860925355,2.8313105590922962,72.76082611083984,-19.272308349609375,15.203465461730957,26956362.0,39906.0,-0.232026214014,-0.37341528603435004,0.029952729282599993,-0.008316664622719357,-0.01035625762318698,0.0055131549675743186,26.956362853990868
1601,B,265318417821977.0,-3.292626,3.9097314,-2.1613655,7,1970-01-04 01:41:58.417821977,2.7033749,0.2066613,0.4213121,5.549674442758981,2.7438018566350797,73.76582336425781,-18.221452713012695,14.940281867980957,26996175.0,39813.0,-0.151047018456,-0.31100384690617505,0.04397842517175,-0.007625647302164056,-0.013624389469880564,0.001471710526145518,26.99617556197336
1601,B,265318458026873.0,2.6120741,3.8726213,2.132635,7,1970-01-04 01:41:58.458026873,-2.6266758,0.2793656,-1.5603461,5.135003298959943,3.067922888299869,73.3534164428711,-18.45813751220703,15.021000862121582,27036380.0,40205.0,-0.013680794569749995,-0.23756425484825,-0.0005775548762499998,-0.003311440861350139,-0.011027590265518328,0.0008724659951152887,27.036380457982887
1601,B,265318497959425.0,0.59256494,16.481684,3.4392707,7,1970-01-04 01:41:58.497959425,-4.356399,-0.37417415,-3.4788873,16.847125085065752,5.587564352007994,73.28559112548828,-17.893096923828125,14.908924102783203,27076313.0,39933.0,0.06398542539216001,0.01506083677245001,0.11125145515905001,0.0010044074113156496,-0.004442614497010461,0.0022097704299965265,27.07631301000947
1601,B,265318537840467.0,2.2517467,19.612701,-1.513734,7,1970-01-04 01:41:58.537840467,-3.8056574,-1.9358518,-4.0954094,19.799489749463696,5.916327289065943,73.68156433105469,-17.47093391418457,14.585929870605469,27116194.0,39881.0,0.05671699625742,0.3289062840925,0.03839616456635,0.0024068666389034502,0.006858876373607535,0.0029840483611343386,27.116194051981438
1601,B,265318577770102.0,13.39077,19.612701,-3.5434184,7,1970-01-04 01:41:58.577770102,-0.7355651,5.7561564,0.8114652,24.01096782026413,5.8594255937258914,74.111572265625,-17.872182846069336,14.718696594238281,27156123.0,39929.0,0.31229502465715,0.391811338229,-0.10096351908979999,0.007367140491548932,0.014388766970837585,-0.0012491259493834174,27.156123686989304
1601,B,265318617745415.0,-0.29388827,19.612701,-1.2599486,7,1970-01-04 01:41:58.617745415,-1.2357068,-1.8865833,-3.2924662,19.655327046510486,3.9908021150575195,74.59517669677734,-17.303937911987305,14.424360275268555,27196099.0,39976.0,0.26178047201924,0.392272535176,-0.09600969959599999,0.011474621027567682,0.01567226846161914,-0.0039371006950917695,27.19609899999341
1601,B,265318657235103.0,2.984971,6.0280013,-2.2200236,7,1970-01-04 01:41:58.657235103,-2.0719395,-1.7680727,-1.4136059,7.083456524056575,3.068761314384087,75.31755065917969,-17.519420623779297,14.078088760375977,27235588.0,39489.0,0.053134082962485,0.11927064656235,-0.0687103111029,0.00621783043083667,0.010100164351832853,-0.003252314251244431,27.235588687995914
1601,B,265318697125363.0,4.8255134,-5.5084596,0.581791,7,1970-01-04 01:41:58.697125363,-1.4631407,-2.4021714,-0.3587278,7.346236281667825,2.8354706447902593,74.3606948852539,-20.260746002197266,14.250805854797363,27275478.0,39890.0,0.15578011135800002,-0.3805597407935001,-0.032674549207000005,0.004166793605722074,-0.005211410984440289,-0.0020221210388809557,27.275478947965894
1601,B,265318737335466.0,0.95109665,-8.152855,-3.7984009,7,1970-01-04 01:41:58.737335466,0.23435818,-1.2817794,1.1302456,9.044417000878887,1.7249166075832862,75.46585083007812,-23.016340255737305,13.80361270904541,27315689.0,40211.0,0.116141633360275,-0.6687353606903,-0.06467155034444999,0.005467122638433278,-0.021096602662882543,-0.0019571920045316775,27.315689050999936
1601,B,265318777327290.0,6.1662664,-5.725135,-3.210026,7,1970-01-04 01:41:58.777327290,-0.6716492,-0.28229508,0.81199783,9.005791414676999,1.0909370449194378,76.07183074951172,-25.86386489868164,13.53648853302002,27355680.0,39991.0,0.14231523286627498,-0.669409149045,-0.14013700007895,0.005167974268632979,-0.02675686854441219,-0.004095249369991095,27.355680875014514
1601,B,265318817130935.0,-6.2003837,5.7454853,4.9996915,7,1970-01-04 01:41:58.817130935,1.4130733,3.2304144,-0.4215784,9.82101188548889,3.5510676837039887,75.51475524902344,-24.557676315307617,13.941116333007812,27395484.0,39804.0,-0.0006790025046000026,-0.3896741883294,0.035617922781,0.002818844256658055,-0.021077876580425307,-0.002080138676383801,27.395484520005994
1601,B,265318857054530.0,10.128072,19.612701,19.612701,7,1970-01-04 01:41:58.857054530,-1.4144049,2.8692899,0.24021713,29.527849963517255,3.2079697662121847,74.62854766845703,-24.495243072509766,14.40866756439209,27435408.0,39924.0,0.0784045138446,0.11494491492060001,0.49131257908500003,0.00155155665736908,-0.005484145755786466,0.010518586678249092,27.43540811497951
1601,B,265318896956195.0,5.8723783,11.291654,-3.846285,7,1970-01-04 01:41:58.896956195,-1.144094,0.9329054,2.385127,13.295870985206344,2.805012365804144,75.3310775756836,-24.731414794921875,14.162047386169434,27475309.0,39901.0,0.31921698371015,0.22552753442749995,0.314547882408,0.00793274768696604,0.006792595600719268,0.016077319137016096,27.475309779983945
1601,B,265318936566561.0,6.6205664,19.612701,-0.21068975,7,1970-01-04 01:41:58.936566561,1.9241339,-1.6692694,3.8117826,20.70107074870682,4.5845870244296085,75.83643341064453,-24.80450439453125,13.96108341217041,27514920.0,39611.0,0.24742901625585,0.22388840295249995,-0.080350413411125,0.011222707352326614,0.008900907347779588,0.004638397972217608,27.5149201459717
1601,B,265318976795415.0,5.602432,19.612701,-0.8912416,7,1970-01-04 01:41:58.976795415,0.27483824,-6.1713433,1.9925772,20.41664998033702,6.49086882339961,76.41468048095703,-24.777875900268555,13.474916458129883,27555149.0,40229.0,0.24585950131680004,0.394755148529,-0.022164798139575004,0.00992225188671507,0.012443705716274631,-0.0020620422227365554,27.55514900002163
1601,B,265319016366873.0,3.354875,15.020024,-5.581483,7,1970-01-04 01:41:59.016366873,4.981443,-0.38935417,0.92970955,16.370988354570716,5.082394207389524,77.52885437011719,-24.603601455688477,13.106613159179688,27594720.0,39571.0,0.17722479764850002,0.2974299804875,-0.1280660925733,0.008370934397177945,0.013695228870155961,-0.0029723932881995886,27.59472045797156
1601,B,265319056277966.0,0.48841715,9.722255,8.2169,7,1970-01-04 01:41:59.056277966,2.1097562,3.5220306,0.4261058,12.738847640482993,4.127630909319344,76.8246841430664,-24.106061935424805,13.601441383361816,27634631.0,39911.0,0.076694816499325,0.10261674858449997,0.05259106394350001,0.005067092860126923,0.007983132501996297,-0.001506141933821974,27.63463155098725
1601,B,265319096492810.0,-5.843049,0.8870517,2.9215245,7,1970-01-04 01:41:59.096492810,1.4596786,-0.6194513,0.7504788,6.592676826523058,1.7543089686879816,75.65812683105469,-21.52690887451172,14.064026832580566,27674846.0,40215.0,-0.10766825992387499,-0.18078036552975002,0.22396587063375004,-0.000622798513659139,-0.0015716749277266155,0.005560868562012056,27.674846394977067
1601,B,265319136378123.0,-3.4045548,0.9415198,2.343325,7,1970-01-04 01:41:59.136378123,2.2205439,-0.5225122,1.0301107,4.238941492356327,2.5029906642315987,75.0395278930664,-20.32679557800293,14.314062118530273,27714731.0,39885.0,-0.1844203387815,-0.35440671286125,0.10499426115375,-0.005824976879681939,-0.010672968310812516,0.00656028742817222,27.71473170799436
1601,B,265319176331144.0,-4.9781437,1.2120646,3.383007,7,1970-01-04 01:41:59.176331144,0.3054646,3.485279,-0.43516052,6.139686608815784,3.5255982482212618,74.26766204833984,-19.0034236907959,14.73173713684082,27754684.0,39953.0,-0.16745697658525002,-0.34851832123340004,0.11439207119800002,-0.007029277190423883,-0.014041981943591776,0.004382571068224735,27.754684728977736
1601,B,265319216092029.0,1.1785458,4.172495,0.45848963,7,1970-01-04 01:41:59.216092029,-3.5782232,1.5827167,-2.1576931,4.3599194337212435,4.468144238413163,74.31228637695312,-18.801258087158203,14.703390121459961,27794445.0,39761.0,-0.07553790605095,-0.28261006287220003,0.076370873752715,-0.004830859764248974,-0.012547147840211383,0.0037924627270926894,27.794445613981225
1601,B,265319255779061.0,1.1731589,19.612701,4.0467997,7,1970-01-04 01:41:59.255779061,-4.2219095,-1.1054782,-4.1968756,20.060182704351682,6.054780481465934,74.24408721923828,-18.233854293823242,14.552924156188965,27834132.0,39687.0,0.04666605221445,0.083048936826,0.089400708819855,-0.0005729186316045877,-0.00395999120469777,0.0032894883987787927,27.83413264597766
1601,B,265319296036248.0,2.086547,19.612701,-7.849989,7,1970-01-04 01:41:59.296036248,-2.8021781,0.17976338,-3.6163065,21.22814278731729,4.578448392070275,75.0302963256836,-17.835464477539062,14.227259635925293,27874389.0,40257.0,0.06561299020815001,0.395029904157,-0.07655249582505,0.0022600087054033043,0.009623009950726315,0.00025861525526593243,27.874389833013993
