Subject-id_accel,Activity_accel,Timestamp_accel,accel_x,accel_y,accel_z,Segment_accel,DateTime,gyro_x,gyro_y,gyro_z,accel_magnitude,gyro_magnitude,Roll,Pitch,Yaw,Time_Difference,Difference_Microseconds,vx,vy,vz,dx,dy,dz,Time_diff
1643,B,710358641631000.0,0.82388675,8.909181692514533,-10.482950571019042,219,1970-01-09 05:19:18.641631,0.63383234,0.34940675,1.0705907,16.00665735750605,1.292282074123884,-90.93789672851562,-18.297618865966797,-79.45597839355469,15034135.0,40316.0,-0.024573913277899997,0.11191547001541585,-0.15309006489020371,0.0019720724078646184,0.005217795381635709,-0.003908102264485068,15.034135000081733
1643,B,710358681936000.0,4.8594947,18.762292492514533,-1.3962463710190431,219,1970-01-09 05:19:18.681936,0.3568636,-0.024501082,0.76059884,5.623670757993622,0.8405132523842062,-90.92025756835938,-18.25957489013672,-79.45532989501953,15074440.0,40305.0,0.114534344671125,0.16266038351379822,-0.23939551637442252,0.0018129275936519668,0.005533389888247487,-0.00790956567643538,15.074439999996684
1643,B,710358722278000.0,4.6774735,20.266364792514533,6.641439428980957,219,1970-01-09 05:19:18.722278,-2.1081583,0.2545982,-0.7254451,7.155014786114425,2.2439746554754443,-91.02165985107422,-18.296056747436523,-79.46809387207031,15114782.0,40342.0,0.19237018556220004,0.39189544609632126,0.10580078917214976,0.0061905712793364,0.011185945639065721,-0.0026947392423970445,15.114782000076957
1643,B,710358762579000.0,3.9469924,15.119467692514533,-3.7912658710190428,219,1970-01-09 05:19:18.762579,-1.8727349,-1.1728562,-1.8194717,7.911010834215022,2.862377497580873,-91.13528442382812,-18.385908126831055,-79.4045181274414,15155083.0,40301.0,0.17378730011795,0.31809241748957817,0.05743242227971154,0.007378256415197863,0.014306610445187664,0.0032892308273607313,15.155083000077866
1643,B,710358802823000.0,-20.997137,-14.890127307485464,8.684391428980957,219,1970-01-09 05:19:18.802823,-1.7598169,-2.5086977,-2.706837,41.196843407051695,4.088702265521409,-91.26608276367188,-18.518592834472656,-79.26932525634766,15195327.0,40244.0,-0.34308300964120003,-0.3897764127724451,0.09845947247730964,-0.0034065682670268377,-0.001442425353081849,0.003136856706300781,15.195326999993995
1643,B,710358843109000.0,5.101392,-10.624598307485467,-0.028689971019043137,219,1970-01-09 05:19:18.843109,-1.1153319,3.7667751,-0.066046394,30.842122886851225,3.9289848596422488,-91.28890991210938,-18.302156448364258,-79.45831298828125,15235613.0,40286.0,-0.320187991535,-0.9087459180623596,0.17435179446772686,-0.013360267776692197,-0.02615613531000547,0.00549523735007387,15.235612999997102
1643,B,710358883325000.0,1.7028589,6.418360692514533,-2.3111437710190432,219,1970-01-09 05:19:18.883325,-4.00859,0.18109496,-0.0127831735,13.918963506997489,4.012698914965105,-91.48633575439453,-18.303010940551758,-79.46782684326172,15275829.0,40216.0,0.1368198770972,-0.4786958259618356,-0.04704937688490185,-0.003687166045115282,-0.027898678588838516,0.0025597970127554455,15.27582900004927
1643,B,710358923627000.0,2.3758595,13.938723092514532,0.6898158289809568,219,1970-01-09 05:19:18.923627,-1.7374463,0.18429075,-2.0751352,6.3177279881172606,2.712723506772906,-91.66889953613281,-18.502559661865234,-79.44366455078125,15316131.0,40302.0,0.08219025447839999,0.015255995352120662,-0.032671379360009474,0.004413273161379915,-0.009338776026616364,-0.001606452959091208,15.316131000057794
1643,B,710358963926000.0,-2.1603076,17.581547692514533,3.453668428980957,219,1970-01-09 05:19:18.963926,-0.27483824,0.36751625,-0.72970617,3.7806034994304496,0.8620181823583706,-91.6768569946289,-18.539569854736328,-79.4619140625,15356430.0,40299.0,0.004343263009049999,0.24018749618294313,0.08348913605580359,0.0017436071106133736,0.005147058632685768,0.0010239523885419036,15.356430000043474
1643,B,710359004237000.0,-2.071692,25.26237569251453,7.781468928980956,219,1970-01-09 05:19:19.004237,0.8692558,0.26205507,-0.61678815,8.78413368537309,1.0975910565993,-91.6292953491211,-18.570775985717773,-79.47479248046875,15396741.0,40311.0,-0.0852980679378,0.4684928977869532,0.22644981101840136,-0.0016316845707414205,0.014283807680660246,0.006246974447754137,15.396741000004113
1643,B,710359044529000.0,-1.4825171,24.924677692514532,-0.6633702710190432,219,1970-01-09 05:19:19.044529,2.4511735,-0.15765914,-0.30040458,5.698575387554762,2.4745405317377136,-91.509521484375,-18.5855770111084,-79.46604919433594,15437033.0,40292.0,-0.0716030965286,0.6162067774947955,0.1434012155633007,-0.003160930859340095,0.021852359658226107,0.007451018781514971,15.437033000052907
1643,B,710359084837000.0,3.0871804,23.875659392514535,-2.0141612710190433,219,1970-01-09 05:19:19.084837,1.639442,0.10439592,0.386691,6.089167759607609,1.6876606616727328,-91.42561340332031,-18.566375732421875,-79.4720687866211,15477341.0,40308.0,0.032340384148199994,0.5885035936116757,-0.05396297069823559,-0.0007913007053145817,0.02427973281927982,0.0018025383870105222,15.477340999990702
1643,B,710359125149000.0,-15.649058,5.357367692514533,-0.7998863710190434,219,1970-01-09 05:19:19.125149,-1.2495552,0.47297743,-0.34621096,21.370520882419367,1.3802021141704452,-91.48030090332031,-18.58428382873535,-79.49655151367188,15517653.0,40312.0,-0.2531972049056,0.19416329392584586,-0.056719944272919674,-0.004451590079186154,0.015775433785206284,-0.0022309248341586055,15.51765300007537
1643,B,710359165439000.0,2.8716285,-24.647436307485464,13.244508428980957,219,1970-01-09 05:19:19.165439,-0.5816344,1.1941614,-0.22050974,46.093866621961105,1.3464563007941206,-91.4894027709961,-18.59685516357422,-79.5592269897461,15557943.0,40290.0,-0.2574013172775,-0.7834404322485894,0.2506969113576427,-0.010286007229378549,-0.011870987951511668,0.0039076660019217455,15.55794299999252
1643,B,710359205753000.0,6.449788,18.618591292514534,-4.014002571019043,219,1970-01-09 05:19:19.205753,3.7870152,2.1859226,1.6767262,8.404060076684384,4.683070839522742,-91.2626953125,-18.51567268371582,-79.67662048339844,15598257.0,40314.0,0.1878917923905,-0.5166006289667691,0.18605930657893832,-0.0014011034931472588,-0.02620492767091798,0.008803695084947664,15.598256999976002
1643,B,710359245955000.0,2.6321266,5.237616692514534,13.290013428980957,219,1970-01-09 05:19:19.245955,-0.6924219,-0.92038846,2.4053671,19.051305969783737,2.666899677652534,-91.311767578125,-18.394399642944336,-79.63096618652344,15638459.0,40202.0,0.1825555653746,0.08555403670706926,0.18645709425589244,0.0074463623384362744,-0.008664467551012226,0.007487952173180933,15.638459000037983
1643,B,710359286319000.0,7.534732,0.7469556925145326,-9.841085571019043,219,1970-01-09 05:19:19.286319,2.4682178,-3.2447956,2.4905882,23.2702938507278,4.777428929455198,-91.2411880493164,-18.266286849975586,-79.46302032470703,15678823.0,40364.0,0.20518754026519997,-0.2747865601253434,0.06960626202938734,0.007825431358022442,-0.0038190907876276088,0.005167870656549516,15.678823000052944
1643,B,710359326651000.0,-2.0381618,14.468022292514533,2.531585928980957,219,1970-01-09 05:19:19.326651,2.8730183,-1.0439591,0.700944,5.8191436775401115,3.136145284540195,-91.114501953125,-18.23017692565918,-79.40882110595703,15719155.0,40332.0,0.1108438346532,-0.08842835395390389,-0.14740336978134005,0.006373088706604454,-0.007324591957322102,-0.0015688564749258783,15.719155000057071
1643,B,710359367046000.0,-0.33769777,8.540348692514533,-11.608609571019043,219,1970-01-09 05:19:19.367046,0.8202536,0.75101143,0.6125271,17.072644936925034,1.2696549076572008,-91.06095123291016,-18.200273513793945,-79.44896697998047,15759550.0,40395.0,-0.047986423665075,0.06884057297012453,-0.18333318501006424,0.0012695625584326546,-0.0003956242064198837,-0.006680051565399388,15.75955000007525
1643,B,710359407349000.0,4.24158,16.384037992514532,-0.9843028710190431,219,1970-01-09 05:19:19.407349,0.7978831,-0.20133498,1.3432984,5.8669056685534136,1.5753107016965795,-91.02395629882812,-18.1329345703125,-79.43965911865234,15799853.0,40303.0,0.078669082757845,0.10729437828336316,-0.2537660750757305,0.0006183016047079545,0.003549383470184657,-0.008808205739618893,15.799852999974973
1643,B,710359447644000.0,5.5396805,19.904716832514534,2.720792528980957,219,1970-01-09 05:19:19.447644,-1.9323897,0.33449304,-0.12996227,5.7332233878306855,1.9654276221977967,-91.11512756347656,-18.139739990234375,-79.45711517333984,15840148.0,40295.0,0.19706794592375,0.33623668783727306,0.03498592538378766,0.0055554117853624345,0.008936042154665516,-0.004407873065918418,15.84014800004661
1643,B,710359487907000.0,-1.3028907,21.272272992514534,0.7449012689809569,219,1970-01-09 05:19:19.487907,-2.1955101,-0.5752428,-1.546764,2.0548347076172537,2.7465701793054276,-91.23487091064453,-18.216472625732422,-79.42517852783203,15880411.0,40263.0,0.0852929338587,0.43437717066257264,0.06976961469367028,0.0056843480513403925,0.015513612892389643,0.0021088861550693444,15.880410999991
1643,B,710359528227000.0,1.094524,4.677181692514534,1.3628163489809568,219,1970-01-09 05:19:19.528227,-1.6788567,-2.3915186,-2.1092236,15.128688908371982,3.6037127005461755,-91.35906219482422,-18.31920051574707,-79.29676818847656,15920731.0,40320.0,-0.004200672672000001,0.12800500645018598,0.04249158717811218,0.0016348199855238722,0.011337624690593214,0.0022631858297351344,15.920731000020169
1643,B,710359568523000.0,-4.0427933,-33.15933830748547,-2.234503171019043,219,1970-01-09 05:19:19.568523,-1.9228023,0.9086706,-2.0591562,53.193595034928535,2.9602322882145735,-91.44094848632812,-18.423242568969727,-79.34198760986328,15961027.0,40296.0,-0.05940172985639999,-0.9687592914784345,-0.01756274609042336,-0.001281461206142203,-0.01693951733474915,0.0005022662902347543,15.961026999983005
1643,B,710359608827000.0,7.3646855,8.130800692514534,-3.966102571019043,219,1970-01-09 05:19:19.608827,-3.435478,2.449043,0.5539375,14.724886162023266,4.255251750277444,-91.57172393798828,-18.398773193359375,-79.47176361083984,16001331.0,40304.0,0.06694277161440002,-0.8993542900168944,-0.1249546069135515,0.00015196707350721646,-0.03764622489429387,-0.0028720096977361016,16.001331000006758
1643,B,710359649150000.0,4.0667434,11.747279692514534,1.6526137289809568,219,1970-01-09 05:19:19.649150,-3.0903323,-0.793622,-1.506284,8.999836516254417,3.5282971943932515,-91.63587188720703,-18.685028076171875,-79.4605484008789,16041654.000000002,40323.00000000186,0.23047475376736065,0.005606517682763766,-0.04664340528875303,0.005996383437984645,-0.018019295711915406,-0.0034596733230169226,16.04165400005877
1643,B,710359689471000.0,-0.49097902,14.630883692514534,2.122037558980957,219,1970-01-09 05:19:19.689471,-0.71159667,0.07456851,-0.76485986,5.231490910266193,1.047349458813976,-91.67056274414062,-18.723360061645508,-79.46331787109375,16081975.0,40320.99999999814,0.07208919778298667,0.13665116292387214,0.07609885729095264,0.006099840545230495,0.0028679859698699504,0.0005938366400903179,16.08197499997914
1643,B,710359729772000.0,-2.7590625,21.059116292514535,3.024960028980957,219,1970-01-09 05:19:19.729772,0.7765778,0.24820662,-0.28122982,3.526283078726206,0.8624209049657231,-91.6276626586914,-18.737775802612305,-79.47599029541016,16122276.0,40301.0,-0.06548996164876,0.3242215446983282,0.10371457489622653,0.00013297790772273443,0.009286815494941147,0.0036233305652877534,16.122275999980047
1643,B,710359770213000.0,-3.0871804,25.858735692514532,9.795680428980956,219,1970-01-09 05:19:19.770213,1.6863136,0.02876214,-0.30040458,10.93978302764475,1.7131035374218677,-91.54300689697266,-18.752832412719727,-79.47706604003906,16162717.0,40441.0,-0.11821395455945,0.5523806260632801,0.25923976038021884,-0.0037145850376881103,0.017725334193885098,0.007339118136457363,16.162716999999247
1643,B,710359810469000.0,-0.51732427,26.174878092514533,-6.186285571019043,219,1970-01-09 05:19:19.810469,2.1784658,-0.20559604,0.7286409,9.830864718226408,2.3062741672633225,-91.43724060058594,-18.71614646911621,-79.46722412109375,16202973.0,40256.0,-0.07255146999775999,0.6528237782650651,0.07264989970105738,-0.0038397264654875226,0.024258354250320933,0.006680275078115928,16.20297300000675
1643,B,710359850789000.0,4.4212065,15.890663792514534,-36.92636257101905,219,1970-01-09 05:19:19.850789,0.6530071,1.6895094,0.9491506,38.62664328947763,2.0449320641085196,-91.37562561035156,-18.6707763671875,-79.55760955810547,16243293.000000002,40320.00000000186,0.07870226575680364,0.4529053244022069,-0.869150986543528,0.00012400004250232567,0.022291498709773233,-0.016057461910744947,16.24329300003592
1643,B,710363146312000.0,4.169729,18.199462892514532,-1.0393883710190432,219,1970-01-09 05:19:23.146312,-0.05219796,0.18216023,0.5763081,5.00824475590184,0.6066613573876487,-91.37493133544922,-18.64218521118164,-79.56794738769531,19538816.0,3295522.999999998,14.155812765883242,23.876272881713504,-62.55850272087906,23.455085840307735,40.088683174676504,-104.51364581442314,19.538815999985673
1643,B,710363187683000.0,5.5803957,20.067578172514533,4.912235428980956,219,1970-01-09 05:19:23.187683,-2.1624868,0.5475459,-0.58269966,6.68146817237715,2.3055790089574386,-91.47405242919922,-18.671993255615234,-79.59607696533203,19580187.0,41371.0,0.20168620448185,0.3861370779506587,0.08011177781747116,0.2969920449514871,0.501880081220633,-1.2923967558527005,19.580186999985017
1643,B,710363222181000.0,0.14370118,20.299895092514532,-2.2512682710190433,219,1970-01-09 05:19:23.222181,-2.1156151,-0.62744075,-1.748099,3.5449308488002194,2.8152014599153596,-91.59123992919922,-18.75852394104004,-79.56049346923828,19614685.0,34498.0,0.09873494708312,0.35821814634848637,0.045899022507685044,0.005181964443344168,0.012839383263935954,0.0021735602948086195,19.614685000036843
1643,B,710363263369000.0,-6.574329,-13.122604307485467,-3.846351571019043,219,1970-01-09 05:19:23.263369,-2.014415,-2.4362597,-2.6429212,33.924101551474365,4.120468612606888,-91.73478698730469,-18.887083053588867,-79.42780303955078,19655873.0,41188.0,-0.13243234932508,-0.2558332735731115,-0.12557438302693236,-0.0006939643017709242,0.0021085140699360705,-0.0016408343745333792,19.65587300003972
1643,B,710363304555000.0,5.125342,-14.253054307485463,-2.747037371019043,219,1970-01-09 05:19:23.304555,-2.670618,1.3315805,-1.4892397,34.63423560687593,3.335137480518658,-91.97586059570312,-18.70728874206543,-79.45416259765625,19697059.0,41186.0,-0.029838989290999995,-0.9673697378580962,-0.1357776584833903,-0.0033416536761209353,-0.025189419614402863,-0.005382022590822075,19.697059000027366
1643,B,710363339778000.0,2.8764186,8.674469692514533,-2.6512364710190433,219,1970-01-09 05:19:23.339778,-3.850931,0.4857606,-0.056459017,12.104260335030537,3.88185787321921,-92.59930419921875,-18.6069393157959,-79.3393783569336,19732282.0,35223.0,0.1409230068069,-0.4434326429465605,-0.09507169976905376,0.001956356174481273,-0.024846346129541206,-0.004065603472862918,19.732282000011764
1643,B,710363380792000.0,3.283572,13.284882692514532,-0.6298399710190432,219,1970-01-09 05:19:23.380792,-1.9185413,0.24181503,-1.3411679,7.50459512054349,2.353296956299821,-93.01178741455078,-18.86865234375,-79.24604797363281,19773296.0,41014.0,0.12632292723420002,0.04838323935979102,-0.06728503459687504,0.005480412369380839,-0.008101278119353883,-0.0033294495516421017,19.773296000086702
1643,B,710363416755000.0,0.6993457,15.351784692514533,3.551864228980957,219,1970-01-09 05:19:23.416755,0.027696876,0.9832391,-0.165116,5.026936629887026,0.9973913665983727,-92.23283386230469,-18.67108917236328,-79.54229736328125,19809259.0,35963.0,0.07161883462255,0.16249283458390015,0.05254237919454215,0.003559289790827151,0.003791868123618483,-0.00026509505811704885,19.809259000001475
1643,B,710363457621000.0,-1.8202149,22.71886489251453,4.394911128980957,219,1970-01-09 05:19:23.457621,0.8681905,0.62104917,-0.36005938,4.682161022328381,1.1265431962308072,-89.25432586669922,-17.98603057861328,-80.49395751953125,19850125.0,40866.0,-0.0229027203636,0.3774107829708988,0.1623764608892358,0.0009954163626531255,0.011031850617497207,0.004391436659431835,19.850124999997206
1643,B,710363498512000.0,-1.1232642,23.815783992514532,7.158763928980957,219,1970-01-09 05:19:23.498512,1.6767262,0.1470065,-0.34301516,7.250832950299902,1.7177546567535527,-86.15646362304688,-18.05499839782715,-81.433837890625,19891016.0,40891.0,-0.06018090193905,0.5506923637788615,0.23622066339756032,-0.0016986861997888305,0.018975532886872225,0.008149517504605689,19.891016000066884
1643,B,710363535023000.0,1.101709,23.514011392514533,-7.608927571019043,219,1970-01-09 05:19:23.535023,2.457565,0.13741912,0.5028048,9.682347005033309,2.5122345453141146,-88.94609832763672,-18.77660369873047,-80.51921844482422,19927527.0,36511.0,-0.0003935009535999979,0.5062212796513981,-0.00821796236722629,-0.001105816012006772,0.019294487017641103,0.004162303308659263,19.927527000079863
1643,B,710363575750000.0,-10.744058,11.948461692514533,-9.208800571019044,219,1970-01-09 05:19:23.575750,-0.7456851,0.92464954,0.3888215,16.909683537615393,1.2498820740559773,-89.91065216064453,-17.684829711914062,-80.27288818359375,19968254.0,40727.0,-0.19635197386150002,0.3230154706669893,-0.34246780702039253,-0.004006426476397289,0.01688616256510848,-0.007141189664924776,19.968254000064917
1643,B,710363612689000.0,2.1052222,-11.407770307485467,16.32689942898096,219,1970-01-09 05:19:23.612689,-1.5478293,0.30253512,0.17789917,34.6919175919745,1.587120397278856,-89.33308410644531,-17.366409301757812,-80.4847183227539,20005193.0,36939.0,-0.15955497780810002,-0.3520159004642057,0.13146772685712757,-0.006573423443861678,-0.0005356234381396883,-0.0038970659805754224,20.00519300007727
1643,B,710363653258000.0,9.390872,11.258695692514532,0.19883672898095694,219,1970-01-09 05:19:23.653258,4.5753107,1.7896442,1.9110844,12.714750026682857,5.27148346749295,-89.21197509765625,-17.993846893310547,-80.53755950927734,20045762.0,40569.0,0.2331925227999,-0.40060010402737795,0.3352162950961785,0.0014937007813861666,-0.01526643934310953,0.009466452043311837,20.045762000023387
1643,B,710363693860000.0,1.331631,4.943028692514533,1.8897206289809567,219,1970-01-09 05:19:23.693860,1.4721955,0.43995422,3.202185,14.896203585094359,3.5517471869688384,-89.08819580078125,-17.51466941833496,-80.57136535644531,20086364.0,40602.0,0.217677533403,-0.06898839325952498,0.042399802923984806,0.009153113010975072,-0.009533116083421417,0.007665984405907335,20.086363999987952
1643,B,710363731205000.0,7.7430983,1.2930196925145339,2.033421828980957,219,1970-01-09 05:19:23.731205,0.5187838,-3.552657,1.5947009,20.04526755438891,3.9285594498813747,-89.0821533203125,-17.56795883178711,-80.39481353759766,20123709.0,37345.0,0.16944788285425,-0.2495383865305448,0.07325487754629384,0.007228599335063501,-0.005947691295630078,0.002159562021081278,20.12370900006499
1643,B,710363771694000.0,1.2406201,15.344599192514533,-5.268992771019043,219,1970-01-09 05:19:23.771694,2.5992453,-1.1068097,0.57098174,7.974129234525391,2.8822081793304952,-90.21098327636719,-17.51467514038086,-79.96215057373047,20164198.0,40489.0,0.18187088714879995,-0.059971924482029086,-0.06550251593609004,0.007112272839326745,-0.0062658814912940515,0.0001569426846177709,20.164197999984026
1643,B,710363809289000.0,-3.1997461,8.595433692514533,-2.806912771019043,219,1970-01-09 05:19:23.809289,1.0290455,0.65726817,0.48149952,12.307565110706644,1.312546332944338,-90.63755798339844,-16.743438720703125,-79.85244750976562,20201793.0,37595.0,-0.036826670985000004,0.08158176815633385,-0.15180683442646092,0.0027264686533390297,0.0004062110364677438,-0.004084872513440052,20.201792999985628
1643,B,710363849557000.0,4.3062453,16.199621392514533,-4.900160271019043,219,1970-01-09 05:19:23.849557,0.7254451,-0.2130529,1.0034791,8.311977551943524,1.2564364032648967,-91.70670318603516,-17.220380783081055,-79.52007293701172,20242061.0,40268.0,0.02227825489279999,0.10459723908197519,-0.15517420862839482,-0.00029291780960035503,0.0037485281317361143,-0.006180756320866465,20.242061000084504
1643,B,710363889919000.0,6.9886675,19.15028563251453,2.105272428980957,219,1970-01-09 05:19:23.889919,-1.5968314,0.5411543,-0.098004326,7.0676305074828765,1.6888822766401346,-91.59154510498047,-18.543460845947266,-79.60476684570312,20282423.0,40362.0,0.2279426352168,0.31784887367211156,-0.056403631540170626,0.005049707783301837,0.008525385001490225,-0.00426985239244182,20.282423000084236
1643,B,710363927792000.0,-1.092129,21.051931192514534,-0.969932671019043,219,1970-01-09 05:19:23.927792,-2.380866,-0.035153728,-1.4849787,2.7885619146644136,2.8062288634396855,-94.60348510742188,-17.80583953857422,-78.6993179321289,20320296.0,37873.0,0.11165980130525,0.39013387890716283,0.021499361326645778,0.0064308815391998,0.013406715394217427,-0.0006609647128984133,20.320295999990776
1643,B,710363968041000.0,-2.1531227,2.023499692514534,6.128905428980957,219,1970-01-09 05:19:23.968041,-1.9686087,-2.3552997,-2.1827269,18.526376714509404,3.766583811694543,-94.23246765136719,-17.337738037109375,-78.7213134765625,20360545.0,40249.0,-0.06530906783665,0.06994130884576745,0.10382174726760454,0.0009327853356888407,0.009258783115933845,0.002522024649904991,20.360545000061393
1643,B,710364006081000.0,-1.8992506,-23.382868307485467,-5.1684020710190435,219,1970-01-09 05:19:24.006081,-1.6074841,0.13422333,-1.973935,43.66479498080385,2.54920387931097,-94.42326354980469,-16.951852798461914,-78.68846893310547,20398585.0,38040.0,-0.07707614016599999,-0.7790471910567471,0.018268773868435593,-0.0027081666562104026,-0.013487193879652833,0.002322161712007483,20.3985850000754
1643,B,710364046210000.0,4.869075,7.599106692514534,-2.002186171019043,219,1970-01-09 05:19:24.046210,-3.4301515,1.5947009,0.07882957,13.502399777419033,3.783546533943972,-94.82611846923828,-17.06522560119629,-78.69696044921875,20438714.0,40129.0,0.05958804167379998,-0.7099574849235843,-0.14387426778237317,-0.0003508899521967471,-0.029876134321207358,-0.0025202114326362004,20.438714000047185
1643,B,710364086295000.0,1.6549586,11.306596692514534,1.290965761980957,219,1970-01-09 05:19:24.086295,-2.5374599,-0.13528858,-1.6543556,8.619672999118718,3.032144158056768,-94.82643127441406,-16.999088287353516,-78.72099304199219,20478799.0,40085.0,0.13075794342799998,-0.01391543990555495,-0.01425463504814584,0.0038150094064028257,-0.014508223095888026,-0.0031692985349806775,20.478799000033177
1643,B,710364124473000.0,-0.728086,15.167367692514533,2.572301228980957,219,1970-01-09 05:19:24.124473,-0.44315,0.6359629,-0.5837649,4.839789208325156,0.9703670393971654,-94.31392669677734,-16.437150955200195,-78.90287017822266,20516977.0,38178.0,0.0176930710614,0.13121710614581983,0.07374590359047196,0.002833781415588156,0.002239171506860416,0.0011356288252044634,20.516977000050247
1643,B,710364164466000.0,-2.2225783,21.813547692514533,3.9446474289809568,219,1970-01-09 05:19:24.164466,0.72970617,0.80107886,-0.2972088,4.0488117752995,1.1236242722869636,-91.71427917480469,-14.981646537780762,-79.63381958007812,20556970.0,39993.0,-0.05900295867494999,0.34755747449673374,0.1303161638389354,-0.0008260531676643524,0.009573815901818822,0.004080527131352144,20.556970000034198
1643,B,710364202848000.0,-1.2454102,24.01936069251453,7.3072549289809565,219,1970-01-09 05:19:24.202848,1.555286,0.24607609,-0.36432046,7.505403401370861,1.6162293715436244,-88.66889953613281,-14.952622413635254,-80.41175842285156,20595352.0,38382.0,-0.06655416730349999,0.5034357448170926,0.21593525815164707,-0.0024095668046524334,0.01633141087185164,0.006644911039421267,20.59535199997481
1643,B,710364242727000.0,-0.52690434,23.648132492514534,-5.410299171019044,219,1970-01-09 05:19:24.242727,2.3979104,0.31957933,0.4165184,7.7274193971577105,2.4547082947124226,-91.50247955322266,-15.144885063171387,-79.65992736816406,20635231.0,39879.0,-0.03533906577033,0.559651780362887,0.03782434933588156,-0.002031700120875633,0.0211974337083262,0.005059839693497577,20.63523100002203
1643,B,710364282594000.0,1.7531544,22.61587899251453,-25.379973571019043,219,1970-01-09 05:19:24.282594,0.1257012,0.72437984,0.7254451,26.839621801653394,1.0328589145637828,-94.44552612304688,-15.332296371459961,-78.92045593261719,20675098.0,39867.0,0.02444345557101,0.5315070729368268,-0.6137579017034163,-0.00021718764590814517,0.02175061500224984,-0.011480371466118253,20.67509799997788
1643,B,710364320916000.0,4.984036,0.19849569251453403,21.68455742898096,219,1970-01-09 05:19:24.320916,-2.4021714,0.008522116,-0.32277513,28.72770680119882,2.423774710237235,-93.43408966064453,-15.349226951599121,-79.2190170288086,20713420.0,38322.0,0.1290913052544,0.061590633339841896,-0.07080786869759173,0.0029418795521756807,0.01136434514996725,-0.013116964726653715,20.713420000043698
1643,B,710364360691000.0,5.5468655,-7.906250307485468,4.854755028980957,219,1970-01-09 05:19:24.360691,3.5079157,1.3667343,0.13102753,28.451763628176856,3.767041733073962,-92.9657211303711,-15.250283241271973,-79.36233520507812,20753195.0,39775.0,0.20943330358124995,-0.5430829699052344,0.5278005765077176,0.006732408158218988,-0.009575678843444244,0.009088442476573878,20.753194999997504
1643,B,710364399227000.0,-0.3161426,14.400961692514533,-0.4238683710190432,219,1970-01-09 05:19:24.399227,2.5630262,1.8002969,2.7899277,5.628869428613902,4.19450459545145,-93.17858123779297,-14.673613548278809,-79.36735534667969,20791731.0,38536.0,0.1007855688372,-0.25251270103326,0.08537432412561015,0.005977297233758693,-0.01532953738764291,0.01181465398540296,20.79173100006301
1643,B,710364438817000.0,7.8436894,-10.658129307485467,4.418861428980957,219,1970-01-09 05:19:24.438817,-0.25992453,-2.6290727,2.6993802,31.578147190061966,3.7770673130529526,-92.99650573730469,-14.52883243560791,-79.29681396484375,20831321.0,39590.0,0.149007788906,-0.3138926329383497,0.07908088758235608,0.004944659516526644,-0.011211993585968015,0.0032553909157591915,20.83132100000512
1643,B,710364478414000.0,8.066426,18.041391592514533,-7.944229571019044,219,1970-01-09 05:19:24.478414,2.3552997,-2.5960495,1.0503508,12.352299173520484,3.6592549086297583,-94.00540161132812,-15.307499885559082,-78.88471221923828,20870918.0,39597.0,0.31499641974689996,-0.24187308164985208,-0.06979700116014105,0.009186587325014439,-0.011003327500274513,0.0001838070253302243,20.87091800000053
1643,B,710364516888000.0,-9.649534,9.682772692514533,4.608067828980957,219,1970-01-09 05:19:24.516888,1.8482338,0.644485,-0.08948222,14.354650765100061,1.959422405297941,-93.48780822753906,-14.126129150390625,-79.02251434326172,20909392.0,38474.0,-0.03045424859599999,0.1562845483511041,-0.06417774343158668,0.005473737746429863,-0.0016464666150680146,-0.0025772721617110662,20.909392000059597
1643,B,710364556333000.0,4.169729,10.408463692514534,-7.917884571019043,219,1970-01-09 05:19:24.556333,0.773382,-0.024501082,1.2697952,13.747770314368434,1.4869767553281423,-94.37091827392578,-14.230640411376953,-78.79932403564453,20948837.0,39445.0,-0.10807545411249998,0.00968840960373574,-0.06527786069484615,-0.0027321520616683903,0.003273401663264329,-0.002553188152383571,20.948837000061758
1643,B,710364594733000.0,6.71324,18.882043452514534,-0.9124523710190431,219,1970-01-09 05:19:24.594733,-0.58909124,0.35260254,0.91186637,7.108158017065859,1.1414277537348416,-94.8315658569336,-15.4456148147583,-78.70899963378906,20987237.0,38400.0,0.20895300479999998,0.18605773718455806,-0.16954246928713124,0.0019368489731999999,0.0037583260183352406,-0.004508550335653966,20.987237000023015
1643,B,710364634030000.0,4.4523416,20.13703373251453,6.785140428980957,219,1970-01-09 05:19:24.634030,-2.3627565,0.46978164,-0.737163,7.11309800950843,2.5192702030830953,-93.79316711425781,-16.39042091369629,-79.04483032226562,21026534.0,39297.0,0.2193869300676,0.38155573807004356,0.11538951130686466,0.008416237210246038,0.011152753368540038,-0.001064024394875268,21.026534000062384
1643,B,710364673287000.0,2.3016138,16.922917292514533,-4.797174571019043,219,1970-01-09 05:19:24.673287,-1.768339,-1.0290455,-1.9409119,7.06758725944222,2.820123483741955,-95.1360855102539,-16.741613388061523,-78.63146209716797,21065791.0,39257.0,0.1325700135689,0.34271264869478296,0.03902078784300543,0.00690838686816904,0.014216302029613397,0.003030842556863225,21.065791000030003
1643,B,710364728007000.0,-19.991228,-26.867621307485464,-0.46218867101904326,219,1970-01-09 05:19:24.728007,-2.198706,-2.6088326,-2.6972497,50.766703245173616,4.349192057544579,-95.21489715576172,-15.945296287536621,-78.50497436523438,21120511.0,54720.0,-0.483987844512,-0.8083431018496047,-0.14389617830216203,-0.009614791854603216,-0.012739649198315921,-0.0028693906829625245,21.120511000044644
1643,B,710364768260000.0,6.3803325,-1.590584307485468,-1.9902111710190433,219,1970-01-09 05:19:24.768260,-2.5555694,2.227468,-0.93636745,22.523423985347584,3.5170062056612665,-95.39723205566406,-16.015615463256836,-78.59244537353516,21160764.0,40253.0,-0.27393968828075,-0.9672434753097123,-0.04935822542077955,-0.015254428488753281,-0.03573634324519699,-0.0038895347565297837,21.160764000029303
1643,B,710364808581000.0,2.7710378,9.639662692514532,-0.945982571019043,219,1970-01-09 05:19:24.808581,-3.435478,-0.11504856,-0.42397526,10.725710323133235,3.463452075709167,-95.74266815185547,-16.012659072875977,-78.537109375,21201085.0,40321.0,0.18449620093315,-0.2328723552186216,-0.05919513393635884,-0.0018032254266712898,-0.024194935201366476,-0.0021884900013195885,21.201085000066087
1643,B,710364848929000.0,0.2921924,12.894494692514533,1.0035634089809569,219,1970-01-09 05:19:24.848929,-1.6000272,-0.15978967,-0.96299905,6.88194345684235,1.8742963878958554,-95.73064422607422,-15.72426986694336,-78.55018615722656,21241433.0,40348.0,0.06179760605480001,0.05919369108557633,0.0011616358250436496,0.004968731262174904,-0.003503793370220056,-0.0011707677908976727,21.24143300007563
1643,B,710364889238000.0,-1.5519727,16.202016592514532,3.058490228980957,219,1970-01-09 05:19:24.889238,-0.0053263223,0.2727077,0.004261058,4.287066967651444,0.2727929910459813,-94.98207092285156,-14.920225143432617,-78.76117706298828,21281742.0,40309.0,-0.02539024205635,0.1913974366941182,0.08186866004630337,0.0007337722177067607,0.005050538884835853,0.0016734340981390636,21.28174200002104
1643,B,710364929378000.0,-3.422483,23.760698492514532,5.106232028980957,219,1970-01-09 05:19:24.929378,0.8309063,0.42290998,-0.38029942,6.52235789176885,1.0069189537473346,-92.44309997558594,-13.40313720703125,-79.39056396484375,21321882.0,40140.0,-0.099837325899,0.4086796917565333,0.16386597571729558,-0.002513317288863875,0.012043547968004577,0.004931894139775431,21.321882000076585
1643,B,710364969552000.0,-1.2022998,23.123623092514535,4.9721108289809575,219,1970-01-09 05:19:24.969552,1.6511599,0.79681784,0.099069595,5.154872194139343,1.8360453344522132,-89.42485809326172,-13.098457336425781,-80.10231018066406,21362056.0,40174.0,-0.0928980121036,0.5480601676784789,0.20244367298788096,-0.0038714747344582266,0.01921803355647109,0.007358061913540882,21.362056000041775
1643,B,710365009847000.0,1.6813037,22.697309692514533,-5.676146571019043,219,1970-01-09 05:19:25.009847,2.1060278,0.18216023,0.9853696,7.706845868139487,2.3322711446936553,-92.11477661132812,-13.946966171264648,-79.45772552490234,21402351.0,40295.0,0.009650731075249998,0.5282862432863731,-0.014184560112712324,-0.0016772245945186816,0.021685689314914353,0.00379295047665246,21.402350999996997
1643,B,710365050155000.0,-3.3458424,13.984228092514533,5.870243128980957,219,1970-01-09 05:19:25.050155,-1.2964269,0.7499462,0.43782368,8.121923014810767,1.5603946887588387,-91.29568481445312,-13.113764762878418,-79.70216369628906,21442659.0,40308.0,-0.0335471129598,0.3442613125194758,0.003911822029164415,-0.00048160768050122075,0.017585323439711077,-0.00020703676333582452,21.442659000051208
1643,B,710365090415000.0,-5.733677,-5.015464307485466,10.475865928980957,219,1970-01-09 05:19:25.090415,-1.015197,0.06178534,-1.1835088,27.05731649863063,1.5604920559635527,-90.81532287597656,-12.581816673278809,-79.82219696044922,21482919.0,40260.0,-0.182770725522,-0.2140067850073649,0.3290471753367733,-0.004354478088638634,0.002622023638818792,0.006702464616976326,21.48291900008917
1643,B,710365130713000.0,16.559166,6.406385692514533,0.9844032489809569,219,1970-01-09 05:19:25.130713,4.4251084,2.4096282,2.0485036,21.27794059760178,5.439141422430453,-90.57081604003906,-13.372870445251465,-79.94792175292969,21523217.0,40298.0,0.218122777861,-0.36689472501304937,0.2309129636667546,0.0007123085025785114,-0.011704584525401327,0.011282636840782085,21.523217000067234
1643,B,710365171020000.0,1.8226099,-0.36673030748546864,5.221192928980956,219,1970-01-09 05:19:25.171020,0.97897804,-0.38775626,3.3609095,20.601196493824826,3.521997386024254,-90.2283935546875,-13.004680633544922,-79.99748992919922,21563524.0,40307.0,0.37045712060065006,-0.2732884051978168,0.12506448257255542,0.011861944983646865,-0.012901930714704692,0.007174191462783935,21.563523999997415
1643,B,710365211329000.0,8.487949,3.4868576925145334,-2.378204271019043,219,1970-01-09 05:19:25.211329,1.6000272,-2.7164245,0.6945524,18.714035099979295,3.2282273992526997,-90.46038818359375,-13.321386337280273,-79.7944564819336,21603833.0,40309.0,0.20780415935005,-0.33214359261843174,0.05729901490689338,0.011654566966766384,-0.01220217919998758,0.0036754451099495506,21.60383300005924
1643,B,710365251643000.0,-1.6501685,12.997480392514532,-3.520628871019043,219,1970-01-09 05:19:25.251643,3.2756882,-1.1622036,0.60507023,8.443611356533461,3.528024996326479,-91.1304702758789,-12.750816345214844,-79.54925537109375,21644147.0,40314.0,0.13782914153850004,-0.06280239722006915,-0.1189027796440617,0.006966930446010503,-0.007960926317174663,-0.001241747085807102,21.64414700004272
1643,B,710365291950000.0,-2.5985963,6.609962692514532,-6.2557410710190435,219,1970-01-09 05:19:25.291950,0.6668556,0.59122175,0.588026,15.36778501180619,1.067714440101108,-91.7813949584961,-12.211478233337402,-79.43061065673828,21684454.0,40307.0,-0.0856274813968,0.00015000421413322547,-0.19702807162686461,0.0010520461576657518,-0.0012626650024451299,-0.006367112411088615,21.684454000089318
1643,B,710365332327000.0,5.604346,16.367272792514534,-2.565015971019043,219,1970-01-09 05:19:25.332327,0.27377295,-0.10865697,1.2229236,7.583862977603655,1.2578951056102585,-92.48727416992188,-13.043331146240234,-79.26994323730469,21724831.0,40377.0,0.060681577818449996,0.06818131858950928,-0.17807785354318595,-0.0005036203743915191,0.0013795069104213368,-0.007572825970295567,21.72483100008685
1643,B,710365372518000.0,6.215076,19.133520492514535,2.244183568980957,219,1970-01-09 05:19:25.372518,-1.973935,0.45380265,-0.053263225,6.325729787677094,2.026127636776475,-92.34221649169922,-14.387763977050781,-79.34857940673828,21765022.0,40191.0,0.23751719480099998,0.3195343914593016,-0.00644728753515636,0.005992453435174157,0.0077913410512858786,-0.0037081249725398275,21.765022000065073
1643,B,710365412821000.0,-0.49337405,21.164497092514534,1.5089125589809569,219,1970-01-09 05:19:25.412821,-2.4884577,-0.37071204,-1.4572818,1.50554365036139,2.9074936605092523,-89.99210357666016,-12.911223411560059,-79.91337585449219,21805325.0,40303.0,0.11530087684542499,0.41709610136471326,0.07563051662262452,0.0071098133707829326,0.014844209376143135,0.0013941458409561145,21.80532500008121
1643,B,710365453130000.0,0.8047266,6.284240692514533,1.489752398980957,219,1970-01-09 05:19:25.453130,-2.0314593,-2.058091,-2.05383,13.50768451451271,3.546939965764502,-90.09127044677734,-12.777591705322266,-79.8137435913086,21845634.0,40309.0,0.006275154968974999,0.1581873856883683,0.06043659289524339,0.0024503041332033246,0.011594551039811331,0.0027423645587778688,21.84563400002662
1643,B,710365493436000.0,-5.1971927,-31.492404307485465,-0.7711461710190433,219,1970-01-09 05:19:25.493436,-2.3936493,0.16831179,-2.2903185,51.56065310466426,3.3171440519648443,-90.26421356201172,-12.436349868774414,-79.81048583984375,21885940.0,40306.0,-0.0885213693133,-0.9030189213325093,0.014482071312116446,-0.0016575079576811817,-0.015010589937836372,0.0015098358397709227,21.885940000065602
1643,B,710365533901000.0,5.52052,7.994283692514534,-0.7519859710190433,219,1970-01-09 05:19:25.533901,-3.1489217,1.5968314,-0.20240025,13.1549922792972,3.5364592821008007,-90.62137603759766,-12.757697105407715,-79.84441375732422,21926405.0,40465.0,0.006541719597249997,-0.8719827253423995,-0.030816771063785588,-0.0016586532628799816,-0.035912720816350094,-0.00033049181272564593,21.92640500003472
1643,B,710365574330000.0,2.1219873,10.741371692514534,-0.05503527101904315,219,1970-01-09 05:19:25.574330,-2.5587652,-0.41225734,-1.2612731,9.361998177757874,2.8823680014700632,-90.9436264038086,-12.831642150878906,-79.78053283691406,21966834.0,40429.0,0.15448946381585,-0.01747229421932994,-0.016313530897178897,0.00325516485710411,-0.01797988849293058,-0.0009527154889899166,21.96683400007896
1643,B,710365614623000.0,0.3424878,14.903915692514534,1.8154750789809568,219,1970-01-09 05:19:25.614623,-0.6924219,0.3898868,-0.5251754,4.906602813578501,0.9525066956084928,-90.7808837890625,-12.641045570373535,-79.84268188476562,22007127.0,40293.0,0.04965054760214999,0.1217913823024881,0.0354667005911047,0.004112706740032737,0.0021016645080673456,0.00038586933323867613,22.007127000018954
1643,B,710365654929000.0,-1.6501685,21.207607492514533,1.2622255269809568,219,1970-01-09 05:19:25.654929,0.6892261,0.30146983,-0.30253512,2.1913447724736512,0.8108293125898035,-90.7608871459961,-9.792223930358887,-79.8535385131836,22047433.0,40306.0,-0.0263536891471,0.3327567267478908,0.062024900311950446,0.00046950158844462255,0.009160508041692286,0.00196474823299927,22.047433000057936
1643,B,710365695284000.0,-1.2621753,25.69826929251453,10.756083428980958,219,1970-01-09 05:19:25.695284,1.1100056,0.18535602,-0.14061491,11.275995382986997,1.1341260243446971,-87.79862213134766,-9.721739768981934,-80.35525512695312,22087788.0,40355.0,-0.0587638170245,0.5509643288299241,0.24249942895892154,-0.001717458480777459,0.01783128159892136,0.006144539653863019,22.087788000004366
1643,B,710365735616000.0,0.38559815,22.381167192514532,-3.2475965710190433,219,1970-01-09 05:19:25.735616,1.8876486,0.18535602,0.9310411,5.217224295003491,2.112915431606625,-90.56015014648438,-10.207747459411621,-79.86874389648438,22128120.0,40332.0,-0.0176770548069,0.5743163161570961,0.15141614597765995,-0.0015415066213520124,0.02269240948680825,0.007943701484171102,22.128120000008494
1643,B,710365775923000.0,6.576724,23.367915092514533,-22.125140571019045,219,1970-01-09 05:19:25.775923,1.1590078,0.65726817,0.9683254,24.54867399890726,1.6471049171322234,-93.288818359375,-10.976744651794434,-79.38958740234375,22168427.0,40307.0,0.14031515945002498,0.5269955298313332,-0.5113494579920647,0.0024715870419252193,0.022195288288127814,-0.007253916003682305,22.16842700005509
1643,B,710365816266000.0,-2.8524685,6.205204692514533,24.702282428980958,219,1970-01-09 05:19:25.816266,-2.223207,0.39521313,-0.69987875,27.240122631033017,2.3640374463351796,-92.10182189941406,-10.740811347961426,-79.65177917480469,22208770.0,40343.0,0.07512381981824999,0.2011727857437138,0.05198481698787871,0.004345727370310009,0.01468824717762206,-0.009266073856015937,22.20877000002656
1643,B,710365856574000.0,-8.768167,-23.248747307485466,10.986005428980956,219,1970-01-09 05:19:25.856574,1.824798,1.5595472,-0.34088463,44.96573637504142,2.4245159394819567,-91.63037109375,-10.232627868652344,-79.7965316772461,22249078.0,40308.0,-0.23420228786699998,-0.7385139578621243,0.7192617534893643,-0.0032060674450545066,-0.010829573982874444,0.015543703381398355,22.24907800008077
1643,B,710365896887000.0,7.3790555,17.301330492514534,-1.0872887710190433,219,1970-01-09 05:19:25.896887,3.3779535,2.1326594,3.6645098,8.12331136883426,5.421018173633681,-91.8473892211914,-11.253768920898438,-79.83609008789062,22289391.0,40313.0,-0.027999625949750008,-0.5149465070309617,0.1995234823162093,-0.005285072875847322,-0.025265375860617487,0.018519494605515045,22.28939100005664
1643,B,710365937169000.0,6.1647806,-8.301430307485468,9.390922428980957,219,1970-01-09 05:19:25.937169,0.12357068,-2.4341292,2.582201,29.867118996271074,3.5507769121206847,-91.42253112792969,-11.150800704956055,-79.80220031738281,22329673.0,40282.0,0.2727864028901,-0.2134966103733296,0.1672434855050109,0.004930250474355588,-0.014671572827639829,0.007387053498887196,22.32967300002929
1643,B,710365977477000.0,9.654325,10.930578692514533,-10.645812571019043,219,1970-01-09 05:19:25.977477,2.8858013,-2.4266725,0.5400891,17.68568749715778,3.808974245289242,-92.26814270019531,-11.742706298828125,-79.48812866210938,22369981.0,40308.0,0.31881825426239996,-0.3420305434481242,-0.02529105592263558,0.011923200260251484,-0.01119609425811758,0.0028609092658031915,22.3699810000835
1643,B,710366017841000.0,-7.31439,12.106532992514534,4.507477128980957,219,1970-01-09 05:19:26.017841,2.102832,0.094808534,0.20772657,11.080355821915566,2.115192995030759,-91.69429779052734,-10.608351707458496,-79.5829849243164,22410345.0,40364.0,0.04722456816999999,0.06936778802725661,-0.12388388589121264,0.007387476242330695,-0.005502879729903949,-0.0030106486756870843,22.410344999982044
1643,B,710366058134000.0,3.1949563,8.432572692514533,-10.152437571019043,219,1970-01-09 05:19:26.058134,0.79894835,0.17789917,1.171791,16.391193050432378,1.429356753345858,-92.635986328125,-10.635436058044434,-79.4124984741211,22450638.0,40293.0,-0.08299217103705,0.01891969268343808,-0.1137261955455203,-0.0007205920111610232,0.001778683730138011,-0.004787011505665141,22.450638000038452
1643,B,710366098445000.0,8.464,17.773149292514532,-1.312420571019043,219,1970-01-09 05:19:26.098445,-0.69135666,0.5581986,0.89801794,9.065167300315089,1.2633273245403025,-93.0631103515625,-11.84459114074707,-79.36503601074219,22490949.0,40311.0,0.23499209370465,0.1331416294692533,-0.23107994828184864,0.0030636344413268114,0.0030648719786485704,-0.0069497402319125354,22.49094899999909
1643,B,710366138717000.0,4.8211746,20.034047892514533,6.919262028980957,219,1970-01-09 05:19:26.138717,-2.7643614,0.26312032,-0.6348976,7.446702016495662,2.848512105484655,-92.08535766601562,-12.805065155029297,-79.61333465576172,22531221.0,40272.0,0.26751027574560005,0.36662012251774523,0.1128993595975211,0.010118387711250235,0.010063202638010202,-0.0023796843337476194,22.53122100001201
1643,B,710366179037000.0,3.271597,18.711996992514532,-2.3135386710190433,219,1970-01-09 05:19:26.179037,-2.1252027,-1.3369069,-1.7992316,4.951207171577806,3.0888575437843455,-93.25752258300781,-13.736493110656738,-79.2994613647461,22571541.0,40320.0,0.163150275456,0.38598426488218596,0.09285138289651218,0.008682116712224257,0.015172504449982614,0.004147934968679712,22.57154100004118
1643,B,710366219362000.0,-14.803617,-16.116377307485465,-3.046414571019043,219,1970-01-09 05:19:26.219362,-2.1326594,-2.815494,-2.561961,39.05303398265495,4.363357279202033,-93.48382568359375,-13.014487266540527,-79.12883758544922,22611866.0,40325.0,-0.23251435324999997,-0.3428508181006015,-0.10807005724259292,-0.0013985532185215245,0.0008696781207336972,-0.00030684652150285283,22.611865999992006
1643,B,710366259661000.0,8.076006,-11.917908307485465,-4.634312971019043,219,1970-01-09 05:19:26.259661,-2.5129588,1.5158713,-1.1675298,33.222096444301215,3.158473296158948,-93.76754760742188,-13.10616397857666,-79.16327667236328,22652165.0,40299.0,-0.13555799784449998,-0.9598070379988569,-0.15476281960829644,-0.007416473838378628,-0.026247904471476038,-0.005295951052106995,22.652164999977686
1643,B,710366299971000.0,0.80712163,9.713908692514533,-0.6657652710190431,219,1970-01-09 05:19:26.299971,-3.6996634,0.16085494,-0.46978164,10.264657558188162,3.7328378446301484,-94.130126953125,-12.918354988098145,-79.12989807128906,22692475.0,40310.0,0.17903943738264996,-0.4394596122397392,-0.10682307696827763,0.0008763684138914128,-0.028202219335558904,-0.0052722637455008495,22.692475000047125
1643,B,710366340227000.0,0.9196875,13.026220292514534,0.03358052898095676,219,1970-01-09 05:19:26.340227,-1.6927053,-0.18002969,-1.3582122,6.910001599646373,2.1777057427849216,-94.37274169921875,-12.855582237243652,-79.0811996459961,22732731.0,40256.0,0.03475721416864,0.06320451621066503,-0.012724614487742604,0.0043032990024243645,-0.0075732625728732045,-0.0024062559336267752,22.732731000054628
1643,B,710366380547000.0,-0.91729254,17.23426979251453,3.0034048289809565,219,1970-01-09 05:19:26.380547,0.32277513,0.7126619,-0.43995422,3.2130437231957836,0.897569208447981,-93.46365356445312,-12.242683410644531,-79.30813598632812,22773051.0,40320.0,4.828239359999892e-05,0.21491548011418593,0.06122562481651217,0.0007016788106947584,0.005606899125908995,0.0009777803682279945,22.773051000083797
1643,B,710369646123000.0,2.3662794,-10.274925307485468,8.974188928980958,219,1970-01-09 05:19:29.646123,1.0482203,-2.0090888,2.9060414,31.10794148067351,3.685143175255405,-92.98261260986328,-11.909823417663574,-79.30823516845703,26038627.0,3265576.0,2.3658883571656797,-20.639510636978365,19.556871356875117,3.863072953832717,-33.34903387698595,32.032193334542306,26.038627000059932
1643,B,710369686449000.0,10.3440895,10.731791692514532,-7.177823571019044,219,1970-01-09 05:19:29.686449,3.2842102,-3.1318774,1.3784522,16.11353554890057,4.7428707713893745,-93.57506561279297,-12.557461738586426,-78.99930572509766,26078953.0,40326.0,0.2562791681307,-0.38598300307865896,0.03622011471258608,0.05287076381255091,-0.42393702826446983,0.3950555033416228,26.078953000018373
1643,B,710369726596000.0,-4.902605,12.985505092514533,4.1290639289809565,219,1970-01-09 05:19:29.726596,1.7971011,0.017044231,0.27803403,8.848478919010184,1.8185614620544537,-92.94051361083984,-11.536544799804688,-79.11389923095703,26119100.0,40147.0,0.10922963911075001,0.08264855701428091,-0.06119927667445155,0.0073370410421612475,-0.006088984003073293,-0.0005014192076415065,26.119100000010803
1643,B,710369766931000.0,0.9580079,8.073319692514533,-10.061427571019044,219,1970-01-09 05:19:29.766931,0.850081,0.2876214,0.78723043,16.296811564608042,1.1937736494901137,-93.85367584228516,-11.363656997680664,-78.9401626586914,26159435.0,40335.0,-0.07955266201425001,0.029420848852073647,-0.11964094375080313,0.0005985104355936637,0.0022601597428097055,-0.0036470951454263237,26.159435000037774
1643,B,710369807239000.0,4.6032276,17.033088192514533,-1.1830893710190433,219,1970-01-09 05:19:29.807239,0.37603834,0.2972088,0.8362326,5.880356439406718,0.9638583221875275,-94.39057159423828,-12.283079147338867,-78.84373474121094,26199743.0,40308.0,0.112081140267,0.11097614451487575,-0.2266219944498356,0.0006555789507059231,0.0028295610043174977,-0.006978583256495673,26.19974299997557
1643,B,710369847398000.0,5.599556,19.914296912514533,3.4967788289809567,219,1970-01-09 05:19:29.847398,-2.030394,0.4910869,-0.26844665,6.035227161554041,2.1061172195497173,-93.94281005859375,-13.612462043762207,-78.98857879638672,26239902.0,40159.0,0.2048667932962,0.3483268192164311,0.04645772747114624,0.006364156031982275,0.009222573860242776,-0.003617608398798593,26.239902000059374
1643,B,710369887679000.0,-0.14370118,21.296223292514533,-0.5963096710190432,219,1970-01-09 05:19:29.887679,-1.9771309,-0.6945524,-1.3070794,2.4026261179041493,2.4697988156902437,-96.98844909667969,-13.934053421020508,-78.24853515625,26280183.0,40281.0,0.10988364400220998,0.43524668218938783,0.058416899075931915,0.006339231182408626,0.015781562105063894,0.0021122274159714274,26.280183000024408
1643,B,710369927874000.0,4.385281,4.265238692514533,-0.6490001710190432,219,1970-01-09 05:19:29.927874,-2.091114,-2.0335898,-1.9867182,16.220524640468643,3.529205922282133,-97.12114715576172,-14.063922882080078,-78.13192749023438,26320378.0,40195.0,0.08524515043245001,0.11981048224412162,-0.02502761455036044,0.00392160094615058,0.011155261362202457,0.0006710411457526727,26.320378000033088
1643,B,710369968202000.0,-9.7621,-28.283079307485465,-1.0250181710190431,219,1970-01-09 05:19:29.968202,-2.8165593,-0.029827405,-2.5875273,49.08330462953132,3.824812870291933,-97.15509033203125,-13.575661659240723,-78.14105224609375,26360706.0,40328.0,-0.10841817831600001,-0.8795101381602739,-0.03375490584885597,-0.0004672609342439021,-0.015318583861893297,-0.0011852907413298,26.360706000006758
1643,B,710370008499000.0,4.840335,6.990770692514532,-2.878763571019043,219,1970-01-09 05:19:30.008499,-3.0104373,1.0620687,0.2428803,14.271619346649,3.2015173747582675,-97.5513687133789,-13.731703758239746,-78.13552856445312,26401003.0,40297.0,-0.09916618210250001,-0.8239186801287418,-0.07865534642945438,-0.004182513485892148,-0.03432153554529623,-0.002264897968029536,26.40100299997721
1643,B,710370048794000.0,2.9458742,12.185568692514533,-1.2693101710190433,219,1970-01-09 05:19:30.048794,-2.7334685,-0.53263223,-1.0428939,8.513891789039077,2.9737476052254723,-97.95660400390625,-13.94769287109375,-78.03874206542969,26441298.0,40295.0,0.156872649857,-0.008535702240126938,-0.08357331571771234,0.0011626410590837885,-0.01677187466877678,-0.003268501970610041,26.441298000048846
1643,B,710370089105000.0,-0.47181886,14.906310992514534,2.253763628980957,219,1970-01-09 05:19:30.089105,-0.567786,0.9044095,-0.65194184,4.984409746254217,1.2511457342087833,-97.48255157470703,-13.530263900756836,-78.19725036621094,26481609.0,40311.0,0.04986582240537,0.15100258099160332,0.019842151671951348,0.004166917277684199,0.0028714911746753826,-0.0012845334769243358,26.481609000009485
1643,B,710370129319000.0,-1.0226734,20.172959032514534,0.7856166089809569,219,1970-01-09 05:19:30.129319,0.46232477,0.8490158,-0.15765914,1.194788396339916,0.979504173564734,-98.87998962402344,-11.043472290039062,-77.93428802490234,26521823.0,40214.0,-0.03004975587182,0.31124168239325944,0.0611128184447002,0.0003984416497900898,0.009294345403879436,0.0016277615841355127,26.521823000046425
1643,B,710370169625000.0,-1.9208057,25.240820392514532,9.800470928980957,219,1970-01-09 05:19:30.169625,1.067395,0.3749731,-0.3930826,10.333032038128442,1.1976856190884861,-95.91645812988281,-10.827386856079102,-78.5015869140625,26562129.0,40306.0,-0.05931993430230001,0.5202250967526107,0.21334142215254645,-0.0018010673660790407,0.016756550000126724,0.005531076310756312,26.562129000085406
1643,B,710370209962000.0,1.0274634,22.60390399251453,2.292083928980957,219,1970-01-09 05:19:30.209962,2.2221417,-0.10865697,0.6327671,3.19310194646596,2.3130314037753315,-94.53849029541016,-13.377653121948242,-78.76760864257812,26602466.0,40337.0,-0.018017374177549998,0.5696537237594587,0.24388869265280486,-0.0015597775060758549,0.02198122099149767,0.009221645570451728,26.60246600001119
1643,B,710370250324000.0,6.452183,23.097278092514532,-31.015454571019042,219,1970-01-09 05:19:30.250324,2.376605,-0.6689861,0.62104917,33.07272430515024,2.5458781981029452,-95.87208557128906,-13.619439125061035,-78.3987808227539,26642828.0,40362.0,0.1509467439984,0.5267479556579715,-0.5796663429269706,0.002682647612354574,0.022126482292323158,-0.006776328760182939,26.642828000010923
1643,B,710370290631000.0,-9.251961,3.884430692514533,42.190714428980954,219,1970-01-09 05:19:30.290631,-2.8623655,1.2048141,-0.9076053,44.87692554945628,3.235500062082699,-94.61296844482422,-13.29241943359375,-78.7791976928711,26683135.0,40307.0,-0.056425325923,0.14876726799908327,0.2252205995474354,0.0019049373991825737,0.013613996059972454,-0.0071433222891994635,26.68313500005752
1643,B,710370330867000.0,8.293953,-26.00781130748547,3.400978128980957,219,1970-01-09 05:19:30.330867,1.5744609,1.0322412,0.41545314,46.56865146499784,1.9279653347874566,-94.33772277832031,-13.202470779418945,-78.87586975097656,26723371.0,40236.0,-0.01927320494399999,-0.8393909712119852,0.9172136708810777,-0.0015229030439823058,-0.013893967661237162,0.022983492652480828,26.723371000029147
1643,B,710370371169000.0,-0.021555176,19.552648952514534,-1.314815571019043,219,1970-01-09 05:19:30.371169,2.3212113,2.0250678,2.6961844,2.5739976701185685,4.093694152308876,-95.64740753173828,-13.009957313537598,-78.66058349609375,26763673.0,40302.0,0.166697088551424,-0.5250375766150193,0.04203826170549052,0.0029707386785732016,-0.027494599667261962,0.019329885693551936,26.76367300003767
1643,B,710370411449000.0,7.8700347,-6.359068307485465,13.848053428980958,219,1970-01-09 05:19:30.411449,0.85540736,-2.8293424,1.9856529,30.052472911923388,3.560859110840857,-94.8958969116211,-12.996855735778809,-78.69241333007812,26803953.0,40280.0,0.15806837761336,-0.1290252858091146,0.25241941045935296,0.006540776488558751,-0.013172826049222056,0.005930377517399948,26.80395299999509
1643,B,710370451778000.0,6.2701616,9.210953692514533,-10.674552571019044,219,1970-01-09 05:19:30.451778,4.3856936,-2.6951191,0.5336975,17.114927806474313,5.17521094621002,-95.6513900756836,-13.250746726989746,-78.34294128417969,26844282.0,40329.0,0.28512998829134995,-0.33771735715358137,0.063992058050373,0.008936873449285523,-0.009411632024021283,0.006380279056764368,26.844281999976374
1643,B,710370492116000.0,-3.666775,14.920680992514534,4.5841177289809565,219,1970-01-09 05:19:30.492116,1.0695255,0.35473305,0.7584683,6.930739025037978,1.3583057439389123,-94.79068756103516,-12.262825965881348,-78.54158782958984,26884620.0,40338.0,0.052507704335399995,0.09139853996235121,-0.12283798032906618,0.006809814622588919,-0.004968004223929921,-0.0011868634064389626,26.88462000002619
1643,B,710370532391000.0,2.8907888,8.597829692514534,-11.388267571019043,219,1970-01-09 05:19:30.532391,0.5635249,0.4293016,1.144094,17.111764522079696,1.3456638724133787,-95.7556381225586,-12.22591495513916,-78.35651397705078,26924895.0,40275.0,-0.015626422102499996,0.07890900891977282,-0.13701856744404195,0.0007426968209650237,0.0034295682656137723,-0.005232861230780965,26.92489500006195
1643,B,710370572702000.0,5.257068,18.161142592514533,0.19883672898095694,219,1970-01-09 05:19:30.572702,-0.03195793,0.1768339,0.89162636,5.596175335858706,0.9095543432505528,-95.98710632324219,-13.405152320861816,-78.3184585571289,26965206.0,40311.0,0.1642241277324,0.14429266589090334,-0.22552857333669862,0.0029950610558234494,0.0044987413566465835,-0.007307318896006216,26.96520600002259
1643,B,710370613004000.0,4.047583,22.333266692514535,3.281226928980957,219,1970-01-09 05:19:30.613004,-2.4543693,0.34301516,-0.43675843,5.2057323857419195,2.516415304942406,-95.04157257080078,-16.101472854614258,-78.60214233398438,27005508.0,40302.0,0.187498022301,0.4210432415026207,0.07012676277159052,0.007087553045323043,0.011392083869886901,-0.0031315018846974933,27.005508000031114
1643,B,710370653265000.0,-0.38320315,20.970500592514533,1.2598305079809569,219,1970-01-09 05:19:30.653265,-2.2817965,-0.91825795,-1.5126755,1.2642097271297903,2.8875560771092745,-97.95802307128906,-15.171685218811035,-77.79718780517578,27045769.0,40261.0,0.073765798570425,0.47716868733127765,0.0914137567347618,0.00525937134605222,0.01808145523339079,0.0032518914279226255,27.04576900007669
1643,B,710370693567000.0,-0.08861572,-0.8026223074854677,-0.9890929710190433,219,1970-01-09 05:19:30.693567,-1.8503643,-2.2381206,-1.8983012,20.690160511705525,3.469377366153801,-98.03860473632812,-14.869498252868652,-77.68087005615234,27086071.0,40302.0,-0.00950762204937,0.011443315321620663,0.005455632107319521,0.0012948665150757793,0.009846020465458554,0.0019520150545567806,27.086071000085212
1643,B,710370733831000.0,3.283572,-26.350298307485467,-4.8235191710190435,219,1970-01-09 05:19:30.733831,-2.5363946,0.72011876,-1.6511599,46.630114415170425,3.1109801688183594,-98.14520263671875,-14.687142372131348,-77.70952606201172,27126335.0,40264.0,0.06432085982896,-0.9412297978205948,-0.11701950764351077,0.001103500102978706,-0.01871846146566935,-0.0022460039422946025,27.126335000037216
1643,B,710370774125000.0,3.6260598,10.013285692514533,-2.433289571019043,219,1970-01-09 05:19:30.774125,-3.174488,1.1824435,-0.11504856,11.037591356594792,3.389510711591619,-98.5927734375,-14.821513175964355,-77.69160461425781,27166629.0,40294.0,0.1392083518746,-0.7240229931538196,-0.14620292572584134,0.0041005030281916245,-0.03354984797976153,-0.005303142365092338,27.166628999984823
1643,B,710370814421000.0,1.7435743,12.844199192514534,-2.1219371710190433,219,1970-01-09 05:19:30.814421,-2.13479,-0.94808537,-1.4444987,7.894323092580928,2.7464105132353627,-99.14656829833984,-14.849844932556152,-77.52136993408203,27206925.0,40296.0,0.10818738784679999,0.0656318054635656,-0.09177870839858336,0.004984529363906767,-0.013265265649583236,-0.004794853964338908,27.206925000064075
1643,B,710370854686000.0,0.98435307,14.975766692514533,4.109903928980957,219,1970-01-09 05:19:30.854686,-0.5933523,0.3121225,-0.23329292,5.664895650230609,0.7098682930260137,-98.23503112792969,-14.825462341308594,-77.7755126953125,27247190.0,40265.0,0.054919997776524995,0.16548846318034766,0.04002274075466823,0.0032837594410615907,0.004653028808473584,-0.0010419770185911214,27.247190000023693
1643,B,710370894990000.0,-2.5387208,21.277063092514535,0.8766273589809568,219,1970-01-09 05:19:30.894990,0.7946873,-0.18429075,-0.12250541,2.9780188763410527,0.8249233666202701,-98.99031066894531,-12.071600914001465,-77.5799560546875,27287494.0,40304.0,-0.03132361849496,0.33558782582790575,0.10048857851500849,0.00047551423528209775,0.010097689376094322,0.0028315841059225254,27.287494000047445
1643,B,710370935254000.0,0.36164796,24.766606692514532,11.613500428980958,219,1970-01-09 05:19:30.935254,1.1227888,0.17576863,0.00958738,11.512417228847866,1.1365039456828916,-96.04534912109375,-12.571099281311035,-78.20536041259766,27327758.0,40264.0,-0.043828830414880005,0.5323639601122052,0.25145125262724927,-0.0015129691014528991,0.017473605354546312,0.007085252680555933,27.32775799999945
1643,B,710370975551000.0,0.119750984,23.298459692514534,-2.715901971019043,219,1970-01-09 05:19:30.975551,2.0240026,0.531567,0.7765778,5.312659356848576,2.232089397794945,-98.82905578613281,-13.037007331848145,-77.59607696533203,27368055.0,40297.0,0.009699466623184,0.5735283900587581,0.17927326253024561,-0.0006876554863569869,0.022282072017419653,0.008678452893650785,27.368055000086315
1643,B,710371015869000.0,10.521321,18.587456092514532,-39.00763457101905,219,1970-01-09 05:19:31.015869,1.5776566,0.58269966,0.67218184,41.62672228314507,1.8111785299394043,-100.14234161376953,-13.300812721252441,-77.31214904785156,27408373.0,40318.0,0.214513370125456,0.44926177631040093,-0.8411047731509459,0.004519906576015834,0.020618426963835874,-0.013341861422602696,27.40837299998384
1643,B,710371056092000.0,-2.9650342,-6.6440763074854665,22.482100428980957,219,1970-01-09 05:19:31.056092,-2.7686224,-1.2602079,-1.3454291,34.015654476778685,3.326195034589971,-99.19367980957031,-13.017375946044922,-77.48809814453125,27448596.0,40223.0,0.15196826197820001,-0.15398611745338797,-0.33235327989759905,0.007370495344052678,0.005938436413102817,-0.023600001633885814,27.44859600008931
1643,B,710371096379000.0,6.550379,2.052239692514533,5.690616728980957,219,1970-01-09 05:19:31.096379,2.569418,2.034655,0.23861924,19.400895297850887,3.2861328289415175,-98.49424743652344,-13.212682723999023,-77.7175521850586,27488883.0,40287.0,0.07222139297880002,-0.4873082608536671,0.5674971280714058,0.004515964314626331,-0.012917913309428165,0.004736620105689078,27.488882999983616
1643,B,710371136642000.0,8.109536,5.680694692514534,-0.06222037101904321,219,1970-01-09 05:19:31.136642,1.555286,0.78083885,3.1957934,16.305750691656904,3.6389173262041665,-98.33100128173828,-13.470235824584961,-77.79801940917969,27529146.0,40263.0,0.2951260788225,-0.23890183142778737,0.11330806128031026,0.007395255628567872,-0.0146196984727641,0.013705629669434073,27.52914600004442
1643,B,710371176928000.0,-6.191126,2.382752692514533,-3.6188245710190428,219,1970-01-09 05:19:31.176928,2.21575,-2.884736,1.0482203,19.08424649034669,3.7855007131855216,-98.4284896850586,-12.63239574432373,-77.61878204345703,27569432.0,40286.0,0.03864253263000002,-0.23238077932335954,-0.07414728826747316,0.006723101140487709,-0.009493045628360354,0.0007888154507975778,27.569432000047527
1643,B,710371217217000.0,4.84752,12.417885292514534,-4.042743071019043,219,1970-01-09 05:19:31.217217,3.9020636,-2.0676782,0.25246766,10.271619373116316,4.423249189967266,-98.85136413574219,-13.018213272094727,-77.38426208496094,27609721.0,40289.0,-0.02706627106699999,-0.096680748110582,-0.1543384493650362,0.00023319800105585408,-0.006628779939393036,-0.004602730941738085,27.609721000073478
1643,B,710371257823000.0,-1.8729054,11.376052692514532,2.411834928980957,219,1970-01-09 05:19:31.257823,0.8969527,0.46978164,0.6625945,8.674388081530502,1.2100621499528978,-98.3879165649414,-12.385595321655273,-77.50364685058594,27650327.0,40606.0,0.06039360022380001,0.0851495229100451,-0.033112328007799265,0.0006766447638705109,-0.00023411846524650068,-0.003805813133000679,27.6503270000685
1643,B,710371298121000.0,2.4764502,10.058790692514533,-10.432655571019042,219,1970-01-09 05:19:31.298121,0.793622,0.26205507,1.0354371,15.389907030522991,1.330653496088713,-99.30998229980469,-12.334220886230469,-77.31780242919922,27690625.0,40298.0,0.012160824175199998,0.03697025936495061,-0.16161151511642538,0.0014618990972154512,0.0024605914930588882,-0.003923490715110002,27.690625000046566
1643,B,710371338414000.0,5.8270826,18.934733892514533,0.6107802289809569,219,1970-01-09 05:19:31.338414,-0.87351686,0.47723848,0.52411014,5.920683583900261,1.1249354249679355,-99.47096252441406,-13.641642570495605,-77.31809997558594,27730918.0,40293.0,0.1672871235552,0.18924664305228808,-0.1978764115783703,0.0036152480789505043,0.0045574788245489,-0.007242423515156702,27.73091799998656
1643,B,710371378720000.0,3.0728102,21.533330192514534,6.310927028980957,219,1970-01-09 05:19:31.378720,-2.380866,0.08522116,-0.46978164,6.178733934481388,2.4282669427698504,-97.23055267333984,-15.394137382507324,-77.90825653076172,27771224.0,40306.0,0.1793595395984,0.42055409550559075,0.13949316636970646,0.0069859702025345015,0.012289314284156933,-0.0011765975406902024,27.77122400002554
1643,B,710371419033000.0,2.078877,19.174235852514535,-8.193312071019044,219,1970-01-09 05:19:31.419033,-1.4317155,-1.107875,-1.1888351,9.687752946278765,2.165762032993759,-98.74668884277344,-15.667105674743652,-77.46110534667969,27811537.0,40313.0,0.10383998304679999,0.4254546549866284,-0.0379422940998407,0.0057083111781979735,0.017052575379296414,0.0020469101569075493,27.811537000001408
1643,B,710371459349000.0,-8.51669,-20.19509730748547,-1.8033996710190432,219,1970-01-09 05:19:31.459349,-2.4820662,-2.3798008,-2.1358552,40.97233891376887,4.047960215247937,-98.79664611816406,-15.090574264526367,-77.35249328613281,27851853.0,40316.0,-0.129773434454,-0.4156753252093041,-0.20151371529600376,-0.0005227665134663377,0.0001971317296513025,-0.004826954237401432,27.85185300000012
1643,B,710371499651000.0,5.8749833,-7.628428307485468,-6.614993971019043,219,1970-01-09 05:19:31.499651,-3.0242858,1.6266588,-1.4008228,29.10019853357991,3.7087232262193575,-99.11174011230469,-15.089164733886719,-77.37708282470703,27892155.0,40302.0,-0.053233031711700005,-0.9556314646672793,-0.16963905028070947,-0.00368776329970502,-0.02763320312280303,-0.007479099379136348,27.892155000008643
1643,B,710371539953000.0,3.4847536,11.160499692514533,-2.411734571019043,219,1970-01-09 05:19:31.539953,-3.0764837,0.039414786,-0.13422333,9.980227108967709,3.0796625438572653,-99.60053253173828,-15.239523887634277,-77.29013061523438,27932457.0,40302.0,0.18860805827189997,-0.32378482952027937,-0.18189760685060946,0.002727942160214589,-0.025781517744173494,-0.007083815177853207,27.932457000017166
1643,B,710371580258000.0,2.7327175,13.019035292514534,-0.7352207710190433,219,1970-01-09 05:19:31.580258,-1.5542208,-0.54435015,-1.2069446,7.545114422667946,2.0417234505257618,-99.85236358642578,-15.446374893188477,-77.20831298828125,27972762.0,40305.0,0.12529758634275,0.09228907878579824,-0.06341901753042253,0.006325983503096734,-0.0046652181166766315,-0.004943743272838748,27.972762000048533
1643,B,710371620564000.0,0.6346802,15.823603392514533,3.719515628980957,219,1970-01-09 05:19:31.620564,0.014913702,0.7190535,-0.20240025,4.694789511610544,0.7471453778011728,-98.85914611816406,-15.365386962890625,-77.50445556640625,28013068.0,40306.0,0.06786316584810001,0.18626689741939081,0.06014249427250645,0.0038927686389022007,0.005613738588463176,-6.603177321678277e-05,28.013068000087515
1643,B,710371660872000.0,-2.2201831,22.436252592514535,2.222628388980957,219,1970-01-09 05:19:31.660872,0.8319715,-0.221575,-0.35579833,3.6063858002630527,0.931592458679244,-97.75009155273438,-12.712193489074707,-77.74935150146484,28053376.0,40308.0,-0.031954225446599996,0.37607073752227577,0.1197579705380044,0.0007237087848518312,0.011333352694614347,0.0036257139677910357,28.05337600002531
1643,B,710371701176000.0,1.0106983,24.155876692514532,10.274684428980956,219,1970-01-09 05:19:31.701176,1.2729911,-0.22370553,-0.05752428,10.086359276717237,1.2937772403398158,-94.84243774414062,-13.431195259094238,-78.38191223144531,28093680.0,40304.0,-0.024373537689599996,0.5439453893519056,0.2518458479075685,-0.0011351170827207022,0.018540164988768502,0.007488560149315184,28.093680000049062
1643,B,710371741461000.0,1.7890797,22.309316692514532,-2.974563971019043,219,1970-01-09 05:19:31.741461,2.3020365,0.101200126,0.5550028,5.245885158342722,2.37015645492919,-97.36528015136719,-14.6871919631958,-77.74935913085938,28133965.0,40285.0,0.056394528365,0.5411321577579479,0.14704267632449786,0.0006449828046792447,0.021856174492660224,0.008034612099344396,28.133965000044554
1643,B,710371781767000.0,-7.4940166,5.105890692514533,-7.960995571019042,219,1970-01-09 05:19:31.781767,-0.018109497,0.700944,-0.08522116,18.86585395577991,0.706337802421291,-97.92487335205078,-13.842429161071777,-77.64480590820312,28174271.0,40306.0,-0.11497159334570001,0.15749987443049077,-0.22038433145069353,-0.0011805035905560473,0.014079531344693605,-0.0014780543757582213,28.174271000083536
1643,B,710371822057000.0,-5.2187476,-17.711464307485464,13.143917428980957,219,1970-01-09 05:19:31.822057,-2.0879183,0.922519,-0.9757822,39.66409469371883,2.4824574587840837,-97.39058685302734,-13.406720161437988,-77.8334732055664,28214561.0,40290.0,-0.256098634809,-0.6487812804735894,0.10440996082864278,-0.007475209746176432,-0.009896863924738222,-0.002336303696181212,28.214561000000685
1643,B,710371862365000.0,7.237749,15.133837692514533,3.357867828980957,219,1970-01-09 05:19:31.862365,4.0394826,2.763296,1.9302592,8.847722263091658,5.261095421915801,-96.70257568359375,-14.304798126220703,-78.0967788696289,28254869.0,40308.0,0.04069095421559999,-0.44696788679812416,0.33257698008896436,-0.004341326394679384,-0.02208372871719411,0.008807034807253453,28.254869000054896
1643,B,710371902685000.0,12.710369,-5.216644307485467,11.575179428980956,219,1970-01-09 05:19:31.902685,0.71585774,-1.4519554,3.1883366,29.87106370676649,3.575768038115256,-96.0283203125,-14.44829273223877,-78.2035140991211,28295189.0,40320.0,0.40215405888000005,-0.19520538135781407,0.3010502327205122,0.008927755464007297,-0.012946213086023716,0.012773924610239048,28.295189000084065
1643,B,710371943011000.0,-3.7697608,7.345233692514533,-10.880524071019043,219,1970-01-09 05:19:31.943011,3.0562437,-2.7526433,0.7030745,17.76618685217092,4.172767000849056,-96.80254364013672,-13.828120231628418,-77.84730529785156,28335515.0,40326.0,0.1802694831366,-0.35227605222965896,0.014006335982586061,0.011743405877680708,-0.011038868145424218,0.0063524855947605695,28.335515000042506
1643,B,710371983318000.0,-0.28979737,13.953092992514534,2.270528728980957,219,1970-01-09 05:19:31.983318,2.8943236,-0.98856544,0.63383234,5.908686762543018,3.123477895857313,-96.24488067626953,-13.394906997680664,-77.8999252319336,28375822.0,40307.0,-0.081814305579095,0.03422722684673329,-0.1735215411257646,0.001984216420905177,-0.006409797002354793,-0.003214789686853049,28.3758220000891
1643,B,710372023622000.0,-0.122146,10.930578692514533,-7.007777571019043,219,1970-01-09 05:19:32.023622,0.8681905,0.11611383,0.95660746,12.094262368397214,1.2970485720801554,-97.08015441894531,-13.066949844360352,-77.70938873291016,28416126.0,40304.0,-0.00830148279224,0.10647655179670575,-0.0954650386647515,-0.0018160133672591428,0.002835462547222583,-0.00542061755593848,28.41612599999644
1643,B,710372063932000.0,3.4847536,12.997480392514532,-3.942151971019043,219,1970-01-09 05:19:32.063932,0.6988135,0.40906155,0.8809737,9.214921470249154,1.1965727389349727,-97.72892761230469,-13.294148445129395,-77.57860565185547,28456436.0,40310.0,0.067773356178,0.08723203085876079,-0.2206958299197776,0.0011986556080899927,0.003904196483420928,-0.006372222306321183,28.456436000065878
1643,B,710372104238000.0,5.7791824,20.381325752514535,1.623873498980957,219,1970-01-09 05:19:32.104238,-1.6106799,0.5784386,-0.011717909,5.8238654135521015,1.7114374845799372,-97.7294692993164,-14.719197273254395,-77.62479400634766,28496742.0,40306.0,0.18669610220799998,0.27768428024077074,-0.04672026604698355,0.005128322994853058,0.00735415841758886,-0.005389236582018137,28.496741999988444
1643,B,710372144509000.0,0.99393314,21.530935092514532,2.7830630289809566,219,1970-01-09 05:19:32.144509,-2.0751352,-0.3749731,-1.0972224,2.5402951309352577,2.3771175652593226,-95.86536407470703,-16.914688110351562,-78.1343002319336,28537013.0,40271.0,0.13638006795567,0.44926852824508284,0.08873587045877711,0.006505300224330577,0.014637558275266907,0.0008460052026336692,28.53701299999375
1643,B,710372184815000.0,8.490345,7.2206926925145325,1.7388344289809567,219,1970-01-09 05:19:32.184815,-1.5883093,-2.1763353,-2.0612867,15.156006490063602,3.3923538480072315,-95.8064956665039,-17.432052612304688,-78.06112670898438,28577319.0,40306.0,0.19113665735542,0.18443275475169071,0.09112979947030643,0.006600444565194397,0.012770981956233978,0.0036248328460808206,28.57731900003273
1643,B,710372225126000.0,-10.281819,-35.654947307485465,2.476500428980957,219,1970-01-09 05:19:32.225126,-2.9134984,-1.4775218,-2.7366643,56.379777882661706,4.261557823985531,-95.7976303100586,-16.892789840698242,-78.02406311035156,28617630.0,40311.0,-0.036108054207000015,-0.9681544188920467,0.08496218172965135,0.003124679010757979,-0.015796302001580945,0.003549221927075749,28.61762999999337
1643,B,710372265471000.0,1.1112891,7.709276692514534,1.698119098980957,219,1970-01-09 05:19:32.265471,-3.4951327,1.901497,0.5209143,12.115916859123264,4.012853740115976,-95.73782348632812,-16.591588973999023,-78.18509674072266,28657975.0,40345.0,-0.18499251440775,-0.9591150404805011,0.0842125124278117,-0.004460151220381045,-0.038877843169192725,0.0034126765178914232,28.65797499998007
1643,B,710372305799000.0,5.079837,10.695865692514532,0.3880433689809568,219,1970-01-09 05:19:32.305799,-3.2107072,-0.45912898,-1.3731259,10.431296974225347,3.522061169494149,-95.90046691894531,-16.968835830688477,-78.155517578125,28698303.0,40328.0,0.1248378666804,-0.02409310894827394,0.04206538000398403,-0.0012129583167742853,-0.019825409125081822,0.0025462674229947296,28.698303000070155
1643,B,710372346108000.0,0.60594,15.457165192514534,1.290965761980957,219,1970-01-09 05:19:32.346108,-1.0290455,-0.386691,-0.7861652,4.351230168605374,1.35148817687847,-95.79273223876953,-16.78535270690918,-78.17955017089844,28738612.0,40309.0,0.1145939925465,0.13207306097231825,0.03383958952997189,0.0048256294067885565,0.002176281943068601,0.0015298267084721145,28.738612000015564
1643,B,710372386428000.0,-1.1759547,18.721577092514533,1.7771547689809568,219,1970-01-09 05:19:32.386428,0.2247708,0.020240024,0.008522116,1.6585870519875903,0.22584108918723808,-95.21684265136719,-15.56615924835205,-78.33776092529297,28778932.0,40320.0,-0.011491496351999997,0.293907444466186,0.06185330990419219,0.0020785463232811203,0.008587766989640247,0.001929168852592748,28.778932000044733
1643,B,710372426707000.0,-2.2824538,24.153481692514532,8.176647428980957,219,1970-01-09 05:19:32.426707,0.9267801,0.36218992,-0.37390783,8.510950089838351,1.0629722278784735,-92.22357940673828,-15.191703796386719,-79.13504791259766,28819211.0,40279.0,-0.06965061798575001,0.46874804640109285,0.20046459936585395,-0.0016341616117051163,0.015359500258321564,0.005282951533744095,28.81921099999454
1643,B,710372467016000.0,-1.2957057,23.224214092514533,2.234603498980957,219,1970-01-09 05:19:32.467016,1.5329156,0.5411543,0.4463458,3.8220927367898176,1.6857944080787224,-89.39251708984375,-14.102595329284668,-79.8579330444336,28859520.0,40309.0,-0.07211601564275,0.5598455696993683,0.20983355682760835,-0.002857235617465603,0.020730790035696743,0.008269354189001136,28.859520000056364
1643,B,710372507320000.0,8.921448,22.527263392514534,-29.410790571019042,219,1970-01-09 05:19:32.507320,2.1869879,0.8841695,0.96406436,32.0517911862859,2.5483508137026325,-92.10475158691406,-14.879605293273926,-79.1948471069336,28899824.0,40304.0,0.1536739588296,0.5270045742783057,-0.5476545218757115,0.0016435556711014011,0.021902204101438085,-0.006807768087649375,28.899824000080116
1643,B,710372547627000.0,-4.3541455,3.731148692514534,23.521538428980953,219,1970-01-09 05:19:32.547627,-2.3915186,-0.83729786,-0.6593987,27.786310970003974,2.6182504780994944,-91.01917266845703,-14.490373611450195,-79.45917510986328,28940131.0,40307.0,0.09204713093375001,0.1341903079556333,-0.11868904304456462,0.0049521399825456745,0.013325391059101691,-0.013429155035620786,28.940131000010297
1643,B,710372587887000.0,-13.943805,-16.504370307485466,16.482575428980958,219,1970-01-09 05:19:32.587887,0.50173956,0.535828,-1.1014835,41.7370230114059,1.3236767477089124,-90.42670440673828,-13.77269458770752,-79.6225357055664,28980391.0,40260.0,-0.36833774356499993,-0.6516729511093647,0.8052828119607732,-0.0055617300322670605,-0.010416925606684613,0.013821132568283278,28.980391000048257
1643,B,710372628194000.0,15.045513,10.604855692514533,-6.298851571019044,219,1970-01-09 05:19:32.628194,3.1009848,1.5414376,4.1321607,19.16453514547308,5.39137168586523,-90.82905578613281,-14.494654655456543,-79.563720703125,29020698.0,40307.0,0.02220327217800001,-0.5139044677928167,0.20523767877143548,-0.006975821069097904,-0.023490464511845117,0.02036552470997157,29.020697999978438
1643,B,710372668495000.0,-3.0728102,-1.8779873074854656,2.5842764289809566,219,1970-01-09 05:19:32.668495,1.7821875,-2.2050974,1.9568908,21.9014968283163,3.4450063035889573,-90.65657043457031,-13.846841812133789,-79.47827911376953,29060999.0,40301.0,0.2412559477714,-0.2190990386074718,-0.07485054639963847,0.0053088350115903845,-0.014770387155719013,0.002627365910857895,29.060998999979347
1643,B,710372708835000.0,6.4905033,11.953251692514533,-4.519351871019043,219,1970-01-09 05:19:32.708835,3.4663706,-1.8780613,-0.0777643,11.681221844926677,3.943207662481972,-91.22570037841797,-14.38990306854248,-79.20674133300781,29101339.0,40340.0,0.068934869827,-0.19211391735396374,-0.03903047166590821,0.006256548790959728,-0.008294165321742155,-0.0022969801343820768,29.10133900004439
1643,B,710372749147000.0,-2.193838,12.164013392514534,2.514820828980957,219,1970-01-09 05:19:32.749147,2.0090888,-0.23755397,0.60507023,8.012447169194905,2.1116296261845857,-90.86573791503906,-13.642910957336426,-79.25809478759766,29141651.0,40312.0,0.08660358578680001,0.09104999505384583,-0.04040332768331966,0.0031350331113517535,-0.0020370444178811767,-0.001601067659683037,29.141651000012644
1643,B,710372789440000.0,1.1951149,9.677982692514533,-10.832623571019043,219,1970-01-09 05:19:32.789440,1.200553,0.4133226,1.0524813,15.785699750198185,1.6492058586875835,-91.91360473632812,-13.474074363708496,-79.01911926269531,29181944.0,40293.0,-0.020120774934149998,0.04516837412703806,-0.1675746129424703,0.0013393959488429135,0.002744323374702677,-0.004190027580817478,29.181944000069052
1643,B,710372829696000.0,4.277505,17.023508292514535,-0.4166832710190431,219,1970-01-09 05:19:32.829696,-0.18855181,0.6498113,0.84688526,5.347514564287549,1.0839839271258747,-92.34996032714844,-14.372271537780762,-78.94927215576172,29222200.0,40256.0,0.11015289334719999,0.14293881054666505,-0.2264260481165426,0.0018121664794178702,0.003786221413112296,-0.007930445305795812,29.222200000076555
1643,B,710372870016000.0,5.144502,19.823286162514535,7.074938428980957,219,1970-01-09 05:19:32.870016,-2.1497037,0.6040049,-0.11717909,7.771498898525266,2.2360185276850744,-91.338134765625,-15.30874252319336,-79.26411437988281,29262520.0,40320.0,0.18994766112000003,0.34769537621338603,0.1342304239845122,0.006050027178058753,0.00989118520508263,-0.0018586637825017327,29.26251999998931
1643,B,710376165745000.0,-1.9902613,22.235070892514532,1.2047450539809568,219,1970-01-09 05:19:36.165745,0.9267801,0.24927188,-0.5422196,3.171826194696459,1.1022975635185375,-91.52692413330078,-12.481277465820312,-79.21794891357422,32558249.000000004,3295729.0000000037,5.197761273985155,37.00832931930699,13.643796482809309,8.878214290492599,61.5576669568714,22.70432141975037,32.55824899999425
1643,B,710376207147000.0,-1.9399658,25.590493692514535,6.983927428980957,219,1970-01-09 05:19:36.207147,1.4636734,-0.38242993,-0.19920446,8.400327942577162,1.5258685690816416,-88.54496765136719,-12.167571067810059,-79.81983947753906,32599651.0,41401.999999996275,-0.08135963119709268,0.5842974124746341,0.16951370906977933,0.10591463040734615,0.7782049659745414,0.28594933428206326,32.59965099999681
1643,B,710376241619000.0,0.17483643,24.086420992514533,-0.15802117101904312,219,1970-01-09 05:19:36.241619,1.8716697,0.46658584,0.9214538,4.547693178658362,2.1377387393039955,-90.70675659179688,-13.952887535095215,-79.33314514160156,32634123.000000004,34472.000000003725,-0.030423769821323284,0.5184057015112169,0.11765132026224424,-0.0019266986999536256,0.019006190872662178,0.004949576445567293,32.63412300008349
1643,B,710376282831000.0,-0.8167017,10.509054692514534,-34.289445571019044,219,1970-01-09 05:19:36.282831,0.7520767,0.8905611,0.7520767,36.73451282534178,1.3872050310602937,-92.08025360107422,-13.790353775024414,-79.03843688964844,32675334.999999996,41211.99999999255,-0.013226275753617608,0.30899677196565306,-0.7098244996863085,-0.0008994528391170694,0.017049455368461298,-0.012202320535210061,32.675335000036284
1643,B,710376324048000.0,0.5388794,-8.758877307485466,23.023373428980953,219,1970-01-09 05:19:36.324048,-2.5118935,0.07243799,-0.64341974,35.88895117485829,2.5940017693824258,-91.26929473876953,-13.578300476074219,-79.26261138916016,32716552.0,41217.000000003725,-0.005725500869550516,-0.3678580693606617,-0.23217684773921296,-0.0003905676885385956,-0.0012130430473651446,-0.019413234768420613,32.71655200002715
1643,B,710376359263000.0,8.998089,5.450773692514533,1.762784628980957,219,1970-01-09 05:19:36.359263,3.9414785,2.666357,1.2452941,16.915922620983896,4.918889083208327,-90.96662902832031,-13.974955558776855,-79.41931915283203,32751767.0,35215.0,0.16792217110300003,-0.40335443440060076,0.4364222780055644,0.002855877871135463,-0.013579124159976431,0.003596251413414783,32.75176700006705
1643,B,710376400293000.0,10.312955,2.445023692514532,6.833041428980957,219,1970-01-09 05:19:36.400293,0.96299905,-0.47830373,3.6996634,20.91731544135695,3.852745891144701,-90.5087661743164,-14.189759254455566,-79.4989242553711,32792797.0,41030.0,0.39616606766,-0.24011171664612876,0.17634337157908866,0.011572270218222946,-0.013200708088723655,0.012570887301229157,32.79279700003099
1643,B,710376436242000.0,-6.0330544,4.236498692514534,-6.866470571019043,219,1970-01-09 05:19:36.436242,2.0474384,-2.7302728,0.30786142,18.53208787712408,3.4265393939277593,-91.07398223876953,-13.424088478088379,-79.20670318603516,32828746.000000004,35949.000000003725,0.07692907333470798,-0.23220317589031916,-0.0006008721135636411,0.008503648611810261,-0.008489624035897264,0.003158883556643407,32.82874600007199
1643,B,710376477122000.0,0.85741705,13.557914692514533,-0.22029167101904323,219,1970-01-09 05:19:36.477122,3.9212384,-0.94275904,0.34940675,6.437046584683391,4.048084766168051,-91.1986312866211,-13.269121170043945,-79.08689880371094,32869625.999999996,40879.99999999255,-0.10579002743398072,-0.03690619040999917,-0.14485342022723208,-0.0005899179017890272,-0.005500595447177504,-0.002973085735445322,32.869626000057906
1643,B,710376518001000.0,-1.0633887,9.464825692514534,-4.8235191710190435,219,1970-01-09 05:19:36.518001,1.0183928,0.59122175,0.91186637,12.00548464834185,1.4893513116460735,-91.85733032226562,-12.814427375793457,-78.95625305175781,32910505.0,40879.000000003725,-0.004209957540175383,0.06995910209980796,-0.10309297170584687,-0.0022483446928794684,0.0006755849884839083,-0.005067900277916628,32.91050500003621
1643,B,710376554415000.0,3.8727467,12.470575692514533,-4.869024571019043,219,1970-01-09 05:19:36.554415,0.48363006,0.5496765,1.2420983,10.279303200163223,1.4418219295220696,-92.6673812866211,-13.046895980834961,-78.79837799072266,32946919.0,36414.0,0.051149981106000005,0.0425206530172242,-0.17647214391128746,0.0008546370090629689,0.0020479189014158045,-0.005090042060041165,32.946919000009075
1643,B,710376595137000.0,7.278465,19.222136232514533,1.0155384989809568,219,1970-01-09 05:19:36.595137,-1.28897,0.8990832,0.5251754,7.302514561987946,1.6569862589012014,-92.76306915283203,-14.389019012451172,-78.83517456054688,32987640.999999996,40721.999999996275,0.22704982142367922,0.24621970750549427,-0.0784608299127603,0.005664426179306281,0.005879042480602533,-0.005190690280030962,32.98764100007247
1643,B,710376632064000.0,2.1507277,21.710561592514534,6.593539428980957,219,1970-01-09 05:19:36.632064,-2.2743397,-0.23435818,-0.8149273,6.07934556409266,2.4272724057703727,-90.22154235839844,-15.699100494384766,-79.5099868774414,33024568.000000004,36927.00000000745,0.17409589941648515,0.39387626629250366,0.14049021032295317,0.00740655401673387,0.011818412012221719,0.0011452794652038274,33.02456799999345
1643,B,710376672675000.0,4.2990603,17.679743492514532,-7.491570571019043,219,1970-01-09 05:19:36.672675,-1.3720607,-1.0908308,-1.6575515,9.96258045695722,2.412455051159582,-91.61414337158203,-16.289464950561523,-79.0920181274414,33065179.0,40610.999999996275,0.130966170233988,0.4018520399040208,-0.018234971354652678,0.006194437855287113,0.016157661121472044,0.002482453754870598,33.065179000026546
1643,B,710376713274000.0,-7.9083548,-16.415754307485464,-1.104053871019043,219,1970-01-09 05:19:36.713274,-2.7718182,-2.4650218,-2.3659523,37.110512101199596,4.39966349783728,-91.84227752685547,-15.718695640563965,-78.94654846191406,33105778.0,40599.0,-0.07326687370275001,-0.3722118515385025,-0.17448687836115215,0.0011712668699358655,0.0006016810037258386,-0.0039121571883059805,33.10577800008468
1643,B,710376750481000.0,10.035132,-19.342470307485463,-5.5683702710190435,219,1970-01-09 05:19:36.750481,-2.7089674,1.4114754,-1.1472899,40.94697442058532,3.2629804310951562,-92.16036987304688,-15.743745803833008,-78.96311950683594,33142985.000000004,37207.000000003725,0.03956549964020398,-1.0298567316247147,-0.12413044252641796,-0.0006269635123726378,-0.02608338288687952,-0.005555327329132466,33.142985000042245
1643,B,710376790951000.0,0.50774413,11.287435692514533,-1.5279723710190432,219,1970-01-09 05:19:36.790951,-3.4450653,0.30786142,-0.57098174,8.936390987691244,3.5056060421276567,-92.73709869384766,-15.477696418762207,-78.86843872070312,33183455.000000004,40470.0,0.21333509849055002,-0.5595996254339368,-0.14359449336164068,0.005117443603175807,-0.032162649385081815,-0.005417414077694866,33.183455000049435
1643,B,710376828535000.0,2.7183473,13.567494692514533,-1.439356671019043,219,1970-01-09 05:19:36.828535,-2.3297334,-0.9257148,-1.171791,7.283025308792268,2.7672549130312514,-93.35576629638672,-15.7166109085083,-78.68592834472656,33221038.999999996,37583.99999999255,0.06062471015254797,0.09875065179544659,-0.05576204735796866,0.005148252724020076,-0.00866027391261279,-0.003746308113202156,33.22103900008369
1643,B,710376868892000.0,0.7209009,15.809233192514533,2.471710428980957,219,1970-01-09 05:19:36.868892,-0.05965481,0.38029942,-0.16618125,4.203109395076109,0.419288150393062,-92.84015655517578,-15.60380744934082,-78.84370422363281,33261395.999999996,40357.0,0.06939886980369998,0.19727970362805897,0.020831350305034475,0.0026236808081471497,0.005973448526913206,-0.0007048490704826323,33.26139600004535
1643,B,710376909241000.0,-2.562671,22.311711492514533,1.990311468980957,219,1970-01-09 05:19:36.909241,0.5251754,0.48043427,-0.59228706,3.6873580433205184,0.9259752966462099,-91.84912872314453,-12.925121307373047,-79.10258483886719,33301744.999999996,40349.0,-0.037156790882450004,0.3736507985481189,0.09001906078043263,0.0006504678211967578,0.011518237416153302,0.0022363516184437564,33.30174500006251
1643,B,710376947105000.0,-1.3124708,25.209685292514532,13.393000428980956,219,1970-01-09 05:19:36.947105,0.88843054,0.022370555,0.0010652645,13.371790540636239,0.8887127775182231,-88.86589813232422,-12.914496421813965,-79.76091003417969,33339609.000000004,37864.00000000745,-0.07336418455761443,0.5286078839342742,0.29123686085227224,-0.0020923831070317114,0.017081561376760025,0.007217937108351788,33.339609000016935
1643,B,710376987355000.0,0.7568262,24.227727392514534,-5.8940929710190435,219,1970-01-09 05:19:36.987355,2.747317,-0.28868666,1.2133362,8.457137445439852,3.0171634725982934,-91.58991241455078,-13.534443855285645,-79.09169006347656,33379859.000000004,40250.0,-0.011182347575000001,0.6004779302862099,0.1509155125914835,-0.0017014989591688653,0.02272285201118724,0.008898316515555584,33.37985899997875
1643,B,710377025389000.0,-1.9040406,14.846435692514532,-25.516488571019046,219,1970-01-09 05:19:37.025389,0.8607337,1.1888351,0.6530071,27.28156682629261,1.6064276111789504,-92.96881103515625,-13.33353328704834,-78.81990051269531,33417893.0,38033.999999996275,-0.021816576244797867,0.37034015938796144,-0.5973350291848798,-0.0006275405342810346,0.018462047611331907,-0.008489559947055785,33.417893000063486
1643,B,710377065509000.0,2.3255641,-14.36083130748547,17.356756428980958,219,1970-01-09 05:19:37.065509,-2.6876621,-0.6018744,-0.84155893,37.808135855143846,2.879930865457453,-92.41612243652344,-13.168647766113281,-78.94622039794922,33458013.0,40120.0,0.008455761409999995,-0.38343477603631704,-0.16368422676928407,-0.00026801794558604534,-0.0002626780099660132,-0.015266046274440528,33.458013000083156
1643,B,710377105628000.0,10.109378,11.174869692514534,-2.224923071019043,219,1970-01-09 05:19:37.105628,3.7497308,2.3776703,0.85966843,13.71424572326463,4.52248017546892,-92.53386688232422,-13.951143264770508,-78.9933090209961,33498132.0,40119.0,0.24943872105495,-0.4570749970155095,0.30353701124403704,0.005173234371005665,-0.016860205792533115,0.002805376930171307,33.498131999978796
1643,B,710377143846000.0,3.6931202,6.935685692514532,4.174569428980957,219,1970-01-09 05:19:37.143846,1.8429075,1.1835088,2.9252162,13.667580533503692,3.654297600083514,-92.04891967773438,-13.862027168273926,-79.15130615234375,33536350.0,38218.0,0.2637519381038,-0.028461797147479605,0.03725579225429422,0.009806560305864553,-0.009278122599660559,0.006512209682049612,33.536350000067614
1643,B,710377183823000.0,-2.1291726,-0.38828430748546694,-5.134871871019043,219,1970-01-09 05:19:37.183823,2.385127,-3.0264163,1.6564863,21.24830596717414,4.194278637515918,-92.35767364501953,-13.3048677444458,-78.90626525878906,33576327.0,39977.0,0.0312609666026,-0.26090186741534654,-0.019195005362678274,0.005896865445723876,-0.00578394560911405,0.0003610080387830653,33.57632700004615
1643,B,710377222144000.0,5.9468336,13.342362692514534,-3.815215971019043,219,1970-01-09 05:19:37.222144,3.8328216,-1.8492991,0.479369,10.113575020232307,4.2825486823675885,-92.88772583007812,-13.879624366760254,-78.64864349365234,33614648.0,38321.0,0.0731482935905,-0.12733918110365058,-0.17148815809737078,0.0020005336299298926,-0.007438892610148244,-0.0036535847534762697,33.61464799998794
1643,B,710377262024000.0,-4.7325587,10.657546692514533,1.8466103289809568,219,1970-01-09 05:19:37.262024,0.6125271,0.8692558,0.4644553,10.28168950077538,1.1603938209789553,-92.69586944580078,-12.915447235107422,-78.72904205322266,33654528.0,39880.0,0.02421264150599999,0.08773419313747957,-0.039253996502239444,0.0019413770458242097,-0.00078972346004545,-0.004202198562716228,33.654528000042774
1643,B,710377301896000.0,5.609136,11.747279692514534,-7.642457571019044,219,1970-01-09 05:19:37.301896,0.9257148,0.41438788,1.3997575,13.222685863788643,1.728579261947853,-93.59049987792969,-13.233261108398438,-78.5396957397461,33694400.0,39872.0,0.0174754450528,0.05591701881193943,-0.11554601061727131,0.0008310936936362365,0.0028638305614236167,-0.0030860929419345663,33.694400000036694
1643,B,710377340168000.0,6.957532,20.055603062514532,0.2227870289809568,219,1970-01-09 05:19:37.340168,-0.813862,0.32277513,0.5368933,7.0389569600206014,1.02703921793445,-93.84630584716797,-14.596046447753906,-78.50480651855469,33732672.0,38272.0,0.24047575884800002,0.23351436440023612,-0.14198281549244085,0.004936154237845709,0.005538558949148191,-0.004928071616435452,33.732672000071034
1643,B,710377379905000.0,2.9674294,22.03628439251453,7.383895428980956,219,1970-01-09 05:19:37.379905,-1.9941751,-0.37710363,-0.8213189,7.182082689384956,2.1894077310351303,-91.38993072509766,-16.085689544677734,-79.1590576171875,33772409.0,39737.0,0.19719409557589998,0.4468800659002449,0.15113337041601627,0.008695843502621257,0.01351841673842511,0.00018180780049905816,33.772409000084735
1643,B,710377418376000.0,4.9289503,15.346994392514533,-7.680777571019043,219,1970-01-09 05:19:37.418376,-0.8223842,-0.958738,-1.5776566,11.116820836087166,2.021013278674141,-92.63175964355469,-16.60416030883789,-78.77308654785156,33810880.0,38471.0,0.15189081171935,0.34207025906942656,-0.0057106764431736085,0.006714822734277781,0.015175853975954114,0.002797278229914615,33.810880000004545
1643,B,710377457967000.0,-20.6307,-32.208514307485466,6.840226428980957,219,1970-01-09 05:19:37.457967,-2.408563,-3.025351,-2.8112328,56.19789634526346,4.7808947127045,-92.5865478515625,-15.85746955871582,-78.66914367675781,33850471.0,39591.0,-0.31082398618635004,-0.7217740174768071,-0.01663913013221493,-0.003146161655161499,-0.007516425749553302,-0.00044242559606310375,33.850471000070684
1643,B,710377497560000.0,4.471502,-2.2827463074854677,-0.8861070710190431,219,1970-01-09 05:19:37.497560,-3.7007287,1.6405072,-0.48043427,22.598606125168747,4.0764535900763015,-92.82366943359375,-15.774788856506348,-78.73286437988281,33890064.0,39593.0,-0.319895563207,-1.0708176407642722,0.11787072386989304,-0.012486039559565456,-0.035487040762369526,0.002004031245427945,33.890064000035636
1643,B,710377536047000.0,3.3099172,8.937921692514534,-2.694346771019043,219,1970-01-09 05:19:37.536047,-3.9510658,-0.26631612,-0.20026971,11.989932062299587,3.9650918259789365,-93.44808959960938,-15.806434631347656,-78.60337829589844,33928551.0,38487.0,0.1497417403752,-0.2491037324781932,-0.06890046350925991,-0.003274355089663744,-0.025399906945991386,0.0009423592052498437,33.92855100007728
1643,B,710377575439000.0,3.5542092,12.908864692514534,0.18686172898095688,219,1970-01-09 05:19:37.575439,-1.7257284,0.09054748,-1.4764565,7.796206670050078,2.272941079987152,-93.65858459472656,-16.162918090820312,-78.56898498535156,33967943.0,39392.0,0.13519583357440002,0.0442527046395325,-0.04938742538798215,0.0056121304565113226,-0.004034745844310262,-0.0023297982597200798,33.967943000025116
1643,B,710377613826000.0,-0.083825685,15.921799192514534,4.421256428980957,219,1970-01-09 05:19:37.613826,-0.24074976,0.7701862,-0.29827404,4.983843072323202,0.8602991529394989,-92.64106750488281,-15.863656044006348,-78.88902282714844,34006330.0,38387.0,0.0666088059951525,0.1771687472773054,0.08844591586484199,0.003873337349578206,0.004249852637365828,0.0007496691369676092,34.0063300000038
1643,B,710377653083000.0,-5.6498513,24.93425799251453,4.646388428980957,219,1970-01-09 05:19:37.653083,0.70627034,0.1917476,-0.60933125,8.376602664835607,0.9522969639225141,-90.77372741699219,-13.642013549804688,-79.36288452148438,34045587.0,39257.0,-0.1125434787000725,0.417224518456343,0.17798426709450543,-0.0009016287231885223,0.011667048216452917,0.0052296248462175505,34.045587000087835
1643,B,710377692369000.0,-0.44547364,24.651645692514535,6.868966628980957,219,1970-01-09 05:19:37.692369,1.3699301,0.066046394,0.4527374,7.459212492326337,1.4443135942049334,-87.77836608886719,-13.978682518005371,-80.06542205810547,34084873.0,39286.0,-0.11973046779642,0.589013106085026,0.2261961194035459,-0.004562557131030603,0.01976552565886611,0.007939315331981223,34.084873000043444
1643,B,710377747123000.0,4.471502,24.155876692514532,-3.726600571019043,219,1970-01-09 05:19:37.747123,2.0921793,0.2876214,1.7108147,8.002255894261692,2.7178718201604988,-89.64119720458984,-16.033140182495117,-79.56842803955078,34139627.0,54754.0,0.11022057841171999,0.7996143403349406,0.0860285555688233,-0.0002603522416849323,0.038016453600639426,0.00854777492671855,34.13962700008415
1643,B,710377787448000.0,-4.2799,8.614593692514534,-14.681419571019044,219,1970-01-09 05:19:37.787448,-0.3834952,1.5350461,0.35792887,19.911935668534188,1.6222047261451702,-90.83317565917969,-15.496837615966797,-79.32352447509766,34179952.0,40325.0,0.00386317532500001,0.26554960913814857,-0.3711517061138429,0.002300213684716617,0.02147636813125116,-0.005748795522863957,34.17995200003497
1643,B,710377827728000.0,-2.7638526,-14.849414307485468,10.334560428980957,219,1970-01-09 05:19:37.827728,-2.0655477,-1.128115,-1.1973573,35.893969201232494,2.6406050931677725,-90.5557861328125,-15.081855773925781,-79.36907196044922,34220232.0,40280.0,-0.141861177364,-0.5203132871855146,-0.08754574312064707,-0.0027792797610654597,-0.005130940475873953,-0.009238166627582629,34.22023199999239
1643,B,710377868041000.0,10.6817875,11.541307692514533,2.1651479289809568,219,1970-01-09 05:19:37.868041,3.6985981,3.053048,1.5084145,13.51221628685193,5.027528647301561,-90.21833801269531,-15.874116897583008,-79.55911254882812,34260545.0,40313.0,0.15959785481185002,-0.4617472509846617,0.25195037151725935,0.00035750933897758883,-0.01979490323762716,0.003313821892276316,34.260545000084676
1643,B,710377908359000.0,7.2736745,1.0151976925145334,6.856991428980957,219,1970-01-09 05:19:37.908359,1.2495552,-0.9779128,3.3598442,20.878869359778445,3.715676881878256,-89.7646484375,-15.834230422973633,-79.61953735351562,34300863.0,40318.0,0.361964158458,-0.1419898079431991,0.1818773073171542,0.010514168625506906,-0.012170735370926746,0.008745532177622943,34.3008629999822
1643,B,710377948737000.0,-1.3028907,4.595751692514533,-7.884353571019043,219,1970-01-09 05:19:37.948737,3.1915324,-3.1925976,0.9768475,17.755817434741733,4.618743285140642,-90.41915893554688,-15.34978199005127,-79.24630737304688,34341241.0,40378.0,0.1205441541382,-0.2824249428656482,-0.020741414285606906,0.009741360323004681,-0.008568509404079817,0.003253172544413908,34.34124099998735
1643,B,710377989049000.0,-1.3555812,14.896730692514534,-0.46218867101904326,219,1970-01-09 05:19:37.989049,2.7324033,-0.9960223,0.51984906,5.336472563091395,2.9543749357742435,-90.76116943359375,-14.62522029876709,-79.0738754272461,34381553.0,40312.0,-0.05358415961640001,-0.002167125047354151,-0.1682329054305197,0.0013496456495814006,-0.005736237720854475,-0.003808966388198248,34.38155300007202
1643,B,710378029346000.0,-0.19639161,9.953410692514533,-4.440316071019043,219,1970-01-09 05:19:38.029346,0.74781567,0.60933125,0.6221144,11.344787895391683,1.1478410931881953,-91.44010925292969,-14.254474639892578,-78.92498779296875,34421850.0,40297.0,-0.031269924162285,0.10578247369625812,-0.09877811679495438,-0.0017096825070148348,0.0020876938522524416,-0.005379871581309964,34.42185000004247
1643,B,710378069646000.0,3.6308498,13.725566392514533,-4.605572571019043,219,1970-01-09 05:19:38.069646,0.8692558,0.2130529,1.1068097,9.16287204312892,1.4233850132856325,-92.31428527832031,-14.509849548339844,-78.70882415771484,34462150.0,40300.0,0.0692043325285,0.08219138826333566,-0.18227465613706745,0.0007643783285792323,0.003787673318485815,-0.0056632133745802395,34.46215000003576
1643,B,710378109954000.0,5.5660257,19.899926792514535,1.1376845089809569,219,1970-01-09 05:19:38.109954,-1.257012,0.74248934,0.27164245,5.568779188374338,1.4849778479154623,-92.39860534667969,-15.892097473144531,-78.73888397216797,34502458.0,40308.0,0.185353828827,0.2826697896510758,-0.06989181600231559,0.005130365183958747,0.007353412179687048,-0.005082163079497126,34.50245800008997
1643,B,710378150310000.0,2.2513185,21.085461492514533,6.152855428980957,219,1970-01-09 05:19:38.150310,-2.25623,-0.10972224,-0.85753787,5.553869120256697,2.4161920414848557,-89.86751556396484,-17.26683807373047,-79.48517608642578,34542814.0,40356.0,0.1577383712676,0.4315143648153165,0.1471085148681955,0.00692291441350884,0.014410807868822864,0.0015580785497157253,34.54281400004402
1643,B,710378190618000.0,7.2593045,11.004823692514533,1.655008728980957,219,1970-01-09 05:19:38.190618,-1.5520903,-1.7662084,-1.784318,11.384908287266224,2.951654982667969,-89.92240142822266,-17.90117645263672,-79.40750122070312,34583122.0,40308.0,0.19167709594199997,0.2517292076190757,0.1573596942395644,0.007042119326142278,0.013770090958842738,0.0061362522863577925,34.58312199998181
1643,B,710378230926000.0,-19.802023,-39.30016930748547,6.006759428980957,219,1970-01-09 05:19:38.230926,-2.6482475,-2.3329291,-2.8911278,62.47826738522952,4.562279360453051,-89.97908020019531,-17.197568893432617,-79.32029724121094,34623430.0,40308.0,-0.25278594864899995,-0.9652827955241241,0.1544152754555644,-0.0012315878174568775,-0.014380959010638345,0.006283512739235626,34.623430000036024
1643,B,710378271238000.0,2.3135889,8.822961692514534,-1.3172105710190434,219,1970-01-09 05:19:38.271238,-3.1957934,3.2724924,-0.24820662,11.475643092788317,4.580819630781498,-90.42415618896484,-17.082246780395508,-79.39269256591797,34663742.0,40312.0,-0.3524968777196,-1.0093561966873543,0.09452254678108032,-0.012200080648285498,-0.03980082352701456,0.005017590745001812,34.66374200000428
1643,B,710378311544000.0,5.4055595,9.469616692514533,-1.566292571019043,219,1970-01-09 05:19:38.311544,-3.4621096,-1.1227888,-0.46552056,11.965136685496336,3.669273356347318,-90.95854949951172,-17.36016845703125,-79.23149108886719,34704048.0,40306.0,0.1555639977052,-0.026348467806509242,-0.058111238821493556,-0.003968788330930203,-0.020872556103544836,0.0007337970893095522,34.70404800004326
1643,B,710378351864000.0,1.219065,15.162578092514533,1.118524338980957,219,1970-01-09 05:19:38.351864,-1.0855045,0.30360037,-1.1163971,4.763735464361288,1.5864538093095548,-91.02561950683594,-17.352970123291016,-79.24128723144531,34744368.0,40320.0,0.13355242992,0.10144904686618594,-0.009027007557887814,0.0058285871809240315,0.0015140276738430825,-0.0013535070470083285,34.74436800007243
1643,B,710378392218000.0,-0.8262818,18.443754892514534,3.860821828980957,219,1970-01-09 05:19:38.392218,0.3898868,0.83729786,-0.44847634,3.040664888686328,1.026747510693167,-89.69730377197266,-16.820751190185547,-79.66534423828125,34784722.0,40354.0,0.007925186626400002,0.28260578063893144,0.10046826763096754,0.002854593869056713,0.007749074254570753,0.0018450103044945299,34.78472200001124
1643,B,710378432520000.0,-3.547024,25.588098692514535,6.260631428980957,219,1970-01-09 05:19:38.432520,1.3986923,-0.3536678,-0.551807,8.460756041843187,1.5446397729196055,-86.8137435913086,-15.905498504638672,-80.44086456298828,34825024.0,40302.0,-0.08812648517579999,0.49232628159192077,0.20395740460119052,-0.001616136367068959,0.015615655986013902,0.006134481721150217,34.825024000019766
1643,B,710378472828000.0,1.5998731,23.559516892514534,0.6826307289809569,219,1970-01-09 05:19:38.472828,1.9686087,-0.49960902,0.3888215,4.15620388442833,2.067900274540168,-87.13497161865234,-18.72454071044922,-80.2932357788086,34865332.0,40308.0,-0.039242879238599995,0.5955026445006758,0.1399345055315644,-0.0025670021704078173,0.02192410417647019,0.006930797556815541,34.86533200007398
1643,B,710378513136000.0,5.3001785,24.850432392514534,-19.275067571019044,219,1970-01-09 05:19:38.513136,1.7608821,-0.17470337,0.5901565,21.799862380559635,1.8653449364881596,-89.92477416992188,-19.607255935668945,-79.33920288085938,34905640.0,40308.0,0.1390636399464,0.5806357178904757,-0.3747119721144356,0.002011787611305001,0.023703892555631267,-0.004731705061511185,34.90564000001177
1643,B,710378553442000.0,-8.557405,2.265397692514533,38.852057428980956,219,1970-01-09 05:19:38.553442,-2.2295985,-0.23116238,-0.7978831,42.34842795388913,2.379319852057542,-88.69451141357422,-19.170896530151367,-79.77421569824219,34945946.0,40306.0,-0.06564288565449998,0.15146652370359076,0.3945350766075064,0.0014796484612446612,0.014754056474845224,0.0003994950248488567,34.94594600005075
1643,B,710378593747000.0,7.0269876,-26.067686307485467,0.9963783589809568,219,1970-01-09 05:19:38.593747,1.901497,-0.46658584,-0.20985709,46.369731449217426,1.969119901204793,-88.64986419677734,-18.922208786010742,-79.73577117919922,34986251.0,40305.0,-0.030841736653499985,-0.8746646213132017,0.8030456022169025,-0.0019444063510619693,-0.014574249662077684,0.024134244630008902,34.98625100008212
1643,B,710378634071000.0,-2.1627028,23.650527492514534,0.8287269789809568,219,1970-01-09 05:19:38.634071,3.2969935,3.8402784,1.4945661,4.466097724347619,5.27746455751415,-89.58382415771484,-16.20210075378418,-79.58032989501953,35026575.0,40324.0,0.0980737101376,-0.44390995602744404,0.036797773823988106,0.0013555310493864243,-0.026585100628342098,0.016932922147736434,35.02657500002533
1643,B,710378674366000.0,14.453943,-9.463013307485468,16.959184428980954,219,1970-01-09 05:19:38.674366,-0.350472,-3.0381343,2.1252027,36.194073213695724,3.724188121417577,-89.00688171386719,-16.322141647338867,-79.60017395019531,35066870.0,40295.0,0.2476377619295,-0.10904805795712691,0.35838194509191257,0.006965221883471896,-0.011140721586754141,0.007961883386858108,35.066869999980554
1643,B,710378714638000.0,5.0367265,10.410858692514534,-14.829911571019045,219,1970-01-09 05:19:38.714638,4.764928,-2.9752836,0.8127968,19.27317454792685,5.676045276748874,-90.07096862792969,-16.449247360229492,-79.0896224975586,35107142.0,40272.0,0.39246412105200007,-0.37557978532705477,0.042875038267921016,0.012889091515715486,-0.009758466252370283,0.008079710616933609,35.10714199999347
1643,B,710378754941000.0,-4.87147,13.050170692514534,5.202032928980957,219,1970-01-09 05:19:38.754941,2.098571,0.21944448,0.4111921,9.189535262538103,2.14970580892965,-89.3229751586914,-15.403114318847656,-79.27571105957031,35147445.0,40303.0,0.0033301663597499983,0.07780553365241323,-0.19401619645503052,0.00797584858277788,-0.006000597832621539,-0.003045721049207537,35.14744500000961
1643,B,710378795246000.0,1.5328126,9.333099692514534,-10.985905071019044,219,1970-01-09 05:19:38.795246,0.37923414,0.5273059,0.9672601,16.15284403346157,1.1651017750258386,-90.43280029296875,-15.240620613098145,-79.00225830078125,35187750.0,40305.0,-0.06728229325350002,0.05608985643429826,-0.11655948334242254,-0.0012887952372262973,0.002698326848722453,-0.006258876387118173,35.18775000004098
1643,B,710378835553000.0,2.6441016,16.03436519251453,-1.0896835710190431,219,1970-01-09 05:19:38.835553,0.50600064,0.30253512,1.2080098,5.137140508154202,1.3441918848921324,-91.07244110107422,-15.61600399017334,-78.84049224853516,35228057.0,40307.0,0.0841794403297,0.11623460356043325,-0.2433653756973146,0.00034053665360019627,0.0034729410045038216,-0.007253745646657343,35.228057000087574
1643,B,710378875858000.0,5.3289185,19.923876992514533,5.8822184289809565,219,1970-01-09 05:19:38.875858,-1.4146712,0.773382,0.00958738,7.062399483783818,1.6122984338790087,-90.15235900878906,-16.6680965423584,-79.152587890625,35268362.0,40305.0,0.16067628756525001,0.3296594756337982,0.09658155872507745,0.00493445505640298,0.008985880430961749,-0.0029580608715330087,35.268362000002526
1643,B,710378916167000.0,1.8824854,20.515446792514535,-5.7839220710190435,219,1970-01-09 05:19:38.916167,-1.1515509,-0.74781567,-1.212271,7.3201977992250065,1.8316382636943789,-93.10885620117188,-17.494733810424805,-78.2645034790039,35308671.0,40309.0,0.14534223990255,0.4200061512253683,0.001981113946543374,0.006167650411849775,0.01510913587653307,0.001986481386360182,35.30867100006435
1643,B,710378956483000.0,-3.6260598,-8.536141307485465,1.7053041489809568,219,1970-01-09 05:19:38.956483,-2.1241374,-3.04133,-2.4266725,28.536916223587838,4.432875735370326,-93.15966033935547,-17.00794792175293,-78.13028717041016,35348987.0,40316.0,-0.035146972755200005,-0.15361796003278405,-0.08221678007244373,0.0022213161951562805,0.005369853158060113,-0.0016173905577658992,35.34898700006306
1643,B,710378996755000.0,-4.517007,-14.75121430748547,-0.778331171019043,219,1970-01-09 05:19:38.996755,-3.2192292,1.0024139,-1.5616777,34.8703766143457,3.715791639438781,-93.31190490722656,-16.495853424072266,-78.17720031738281,35389259.0,40272.0,-0.1639687930848,-0.8635797926630546,0.018665527884241098,-0.004009395060954241,-0.02048229394828341,-0.0012796680140616484,35.38925900007598
1643,B,710379037062000.0,3.6500099,9.582182692514532,-3.079944971019043,219,1970-01-09 05:19:39.037062,-4.24934,0.6487461,0.34088463,11.652439310222054,4.312071922966434,-93.99341583251953,-16.5467586517334,-78.07573699951172,35429566.0,40307.0,-0.017473026054850006,-0.49918267865231686,-0.07775776822856457,-0.003656687702030937,-0.02746443346565434,-0.0011909154657793232,35.42956600000616
1643,B,710379077297000.0,1.5232325,10.152197692514534,1.5639980089809569,219,1970-01-09 05:19:39.077297,-3.1968586,0.3291667,-1.1153319,9.738589916958004,3.401796712318427,-93.99886322021484,-16.417490005493164,-78.1317367553711,35469801.0,40235.0,0.10407270398200001,0.002703397395822211,-0.0304970630088012,0.0017421690206994402,-0.009987921940677531,-0.002177816567417706,35.46980100008659
1643,B,710379117603000.0,1.3603711,15.972094492514533,2.1651479289809568,219,1970-01-09 05:19:39.117603,-0.65194184,0.6860303,-0.61572284,4.132782553465268,1.1290617126438844,-93.59634399414062,-16.537864685058594,-78.28587341308594,35510107.0,40306.0,0.0581132633508,0.13148406040489075,0.07515347808774644,0.0032685337996579186,0.002704279837057768,0.0008999607330859835,35.51010700000916
1643,B,710379157862000.0,0.05269043,20.819614392514534,0.46228892898095686,219,1970-01-09 05:19:39.157862,0.406931,0.5390238,-0.62744075,1.3168797906762504,0.9218575760322212,-96.36399841308594,-17.602497100830078,-77.49137115478516,35550366.0,40259.0,0.028444222068135003,0.3460605040011926,0.05288899023234434,0.0017423589027404523,0.009612733309212255,0.0025774308660492674,35.5503660000395
1643,B,710379198165000.0,-2.2441335,25.715034692514532,9.098729728980956,219,1970-01-09 05:19:39.198165,0.6583334,0.38562572,-0.6508766,10.100895414902173,1.0028710833943906,-93.32179260253906,-17.578292846679688,-78.41582489013672,35590669.0,40303.0,-0.04416086502510499,0.5427735810369632,0.1926688674859195,-0.0003167139305473806,0.017911340064646394,0.004948359169809594,35.59066900005564
1643,B,710379238475000.0,1.707649,22.457807692514532,2.0669521289809567,219,1970-01-09 05:19:39.238475,2.0559604,0.11611383,0.48682585,3.2908876525928212,2.1159997627867666,-92.42339324951172,-20.31849479675293,-78.68346405029297,35630979.0,40310.0,-0.010812845097499996,0.5758856382702606,0.22504431784722234,-0.0011079951275211033,0.022546576565137096,0.008419009250389473,35.630979000008665
1643,B,710379278798000.0,6.0737696,21.032771092514533,-45.191575571019044,219,1970-01-09 05:19:39.278798,2.2381206,-0.29933932,0.36005938,46.85444568760746,2.2865761753697176,-93.83243560791016,-20.460336685180664,-78.1403579711914,35671302.0,40323.0,0.1568850711039,0.4816699041743634,-0.8694570955266508,0.0029450351846280333,0.02132190606899729,-0.012992328217183798,35.67130200006068
1643,B,710379319144000.0,-0.07424561,-8.651102307485466,31.255057428980955,219,1970-01-09 05:19:39.319144,-3.2522523,0.10546118,-0.8948221,41.32571373610282,3.374755350242546,-92.81840515136719,-20.18027114868164,-78.55147552490234,35711648.0,40346.0,0.12102839745027,-0.14561539559960865,-0.28114138047933435,0.005606348401143271,0.006779227601478527,-0.02321102305646874,35.71164800005499
1643,B,710379359400000.0,7.846084,2.1456456925145346,3.221351628980957,219,1970-01-09 05:19:39.359400,2.9252162,2.179531,0.7030745,19.388561382972625,3.715044945791866,-92.40815734863281,-20.247880935668945,-78.74657440185547,35751904.0,40256.0,0.15643156311392,-0.525450630746135,0.6939411615186574,0.005584714086236016,-0.013507216978287127,0.008308833992759494,35.751904000062495
1643,B,710379399720000.0,2.668052,7.443429692514533,-1.7770545710190433,219,1970-01-09 05:19:39.399720,2.8048413,1.2559468,3.3747578,12.966264971961087,4.5643758928550975,-92.53707885742188,-19.882871627807617,-78.71929931640625,35792224.0,40320.0,0.21196498176000003,-0.20182024023781403,0.02911702868851218,0.007426874344658228,-0.014661780759036413,0.014576853114576538,35.79222399997525
1643,B,710382695393000.0,4.2152348,18.525185592514532,1.2502504289809568,219,1970-01-09 05:19:42.695393,-0.34194988,0.4463458,0.92997587,4.394012136038663,1.086742569513089,-92.52596282958984,-20.992162704467773,-78.75190734863281,39087897.0,3295673.0,11.3425312290082,10.49443672112879,-0.8680870936015432,19.03992059521553,16.960549117713704,-1.382485495371062,39.08789700001944
1643,B,710382736769000.0,3.661985,22.187170492514532,5.055936628980957,219,1970-01-09 05:19:42.736769,-1.6682042,0.33129725,-0.26312032,5.8100248784126975,1.721015811534602,-90.5855941772461,-23.17613410949707,-79.52640533447266,39129273.0,41376.0,0.16296392322240003,0.4367724226870813,0.1304623978551161,0.23802568370934665,0.2261448547672628,-0.015259979705602087,39.129273000056855
1643,B,710382771232000.0,2.1459377,20.28791999251453,-6.643734571019043,219,1970-01-09 05:19:42.771232,-1.0226538,-1.087635,-1.176052,8.197112365630398,1.9004917770365226,-92.16683197021484,-23.601131439208984,-78.86824798583984,39163736.0,34463.0,0.10007922000505001,0.3941721216927782,-0.027360140238229278,0.004532627922523806,0.01431842091648155,0.0017766065521253854,39.163736000075005
1643,B,710382812370000.0,-4.711004,-15.73796730748547,1.063438888980957,219,1970-01-09 05:19:42.812370,-2.0591562,-3.141465,-2.4437168,35.81544854493689,4.481146996118927,-92.28874969482422,-22.976299285888672,-78.71321105957031,39204874.0,41138.0,-0.0527608487247,-0.30956442322163724,-0.1147811018838414,0.0009732915788655195,0.0017402957498528985,-0.002923703209208872,39.2048740000464
1643,B,710382853546000.0,-0.6179151,-11.302389307485466,1.9184609289809569,219,1970-01-09 05:19:42.853546,-3.5388086,0.958738,-1.6245283,31.081522885810198,4.010166711943389,-92.35152435302734,-22.47523307800293,-78.79914093017578,39246050.0,41176.0,-0.1097117864308,-0.9602316619890217,0.06139135345219987,-0.003344986612581434,-0.026142561802317044,-0.0010991881407106357,39.24605000007432
1643,B,710382888837000.0,2.0094216,11.541307692514533,-3.115870571019043,219,1970-01-09 05:19:42.888837,-3.2969935,-0.13635385,0.48363006,9.525920171048652,3.335064698980767,-93.1725082397461,-22.245634078979492,-78.54444885253906,39281341.0,35291.0,0.024553827945750003,-0.3416359656369697,-0.021128891838583047,-0.0015026547564479498,-0.02297210522327443,0.0007104512664030757,39.28134099999443
1643,B,710382929854000.0,1.2310401,9.182214692514533,1.681353958980957,219,1970-01-09 05:19:42.929854,-2.0644825,0.26418558,-0.86179894,10.66366299339338,2.252682717666052,-93.1241226196289,-21.9062557220459,-78.6117172241211,39322358.0,41017.0,0.06645700877445,0.02304175883336856,-0.02941978393798308,0.0018664957448762218,-0.006533889290231653,-0.0010366775171637066,39.32235799997579
1643,B,710382965790000.0,0.44307864,14.453652392514533,2.589066328980957,219,1970-01-09 05:19:42.965790,-0.46019423,1.2996227,-0.551807,5.496154963064447,1.4850215004940444,-92.66622161865234,-21.534940719604492,-78.84855651855469,39358294.0,35936.0,0.030080565520320002,0.07251645978380224,0.07673091173409967,0.0017345871349284275,0.0017169900721133251,0.0008500863442406229,39.35829400003422
1643,B,710383006624000.0,-1.1520045,21.933298592514532,3.391398028980957,219,1970-01-09 05:19:43.006624,0.5187838,0.6412892,-0.793622,3.2572462118415952,1.1446503169366091,-89.57711791992188,-21.211877822875977,-79.99314880371094,39399128.0,40834.0,-0.014474139283620003,0.3427391782613384,0.1221031407965084,0.0003186364044747039,0.008478274361967636,0.004059594850517425,39.39912800001912
1643,B,710383047491000.0,-3.1949563,24.632485392514532,8.169462428980957,219,1970-01-09 05:19:43.047491,1.6852484,0.23329292,-0.99708754,9.042555599068539,1.9719714294705029,-86.4730453491211,-20.732656478881836,-81.08513641357422,39439995.0,40867.0,-0.0888236235068,0.5510053470580913,0.23622884216776477,-0.002110734835978047,0.01826232875811457,0.007321976573900476,39.43999500002246
1643,B,710383083966000.0,0.033530276,22.891306392514533,-3.173350571019043,219,1970-01-09 05:19:43.083966,2.3616912,0.5592638,0.34621096,5.41646791851573,2.4515756873839325,-89.29943084716797,-21.49224281311035,-80.0501708984375,39476470.0,36475.0,-0.0576565071127,0.5092601526794676,0.0911165900095804,-0.002671431382173131,0.019336592051463732,0.005969962319334333,39.47646999999415
1643,B,710383124578000.0,5.688172,20.113083542514534,-41.534379571019045,219,1970-01-09 05:19:43.124578,0.38242993,0.18748654,0.90654004,43.16248911779283,1.0016080561597827,-90.80387115478516,-21.626296997070312,-79.4985122680664,39517082.0,40612.0,0.116184886416456,0.4752495420207003,-0.9078351682642255,0.0011884772701420694,0.019991453860581612,-0.016584287450038825,39.51708200003486
1643,B,710383161464000.0,3.051255,4.119141692514534,37.074953428980955,219,1970-01-09 05:19:43.161464,-3.9063249,0.89588743,-0.80533993,39.2114472627845,4.087855295193853,-89.5660400390625,-21.56123161315918,-80.06719207763672,39553968.0,36886.0,0.161181252161,0.08543213000964107,-0.0822451963376085,0.0051154636937840205,0.010340652077255586,-0.018260052164351625,39.55396799999289
1643,B,710383202060000.0,-6.255791,-14.169224307485464,10.669862428980958,219,1970-01-09 05:19:43.202060,4.699947,1.7449032,-0.60293967,35.76940413771419,5.049527227953024,-88.90513610839844,-20.856040954589844,-80.30126953125,39594564.0,40596.0,-0.065045671728,-0.60183737691868,0.9691242722849108,0.0019513600116290335,-0.010481993701759671,0.018001871483578343,39.594564000028186
1643,B,710383242677000.0,-0.44547364,7.462589692514532,-13.352184571019043,219,1970-01-09 05:19:43.242677,3.6474655,2.6162896,4.8160605,19.09970362691044,6.583571567501842,-89.86174774169922,-20.258363723754883,-80.01835632324219,39635181.0,40617.0,-0.13609263294144003,-0.5342482890781373,-0.054473939221580454,-0.004084817260379323,-0.023072195747896363,0.018575176289016643,39.63518099999055
1643,B,710383279972000.0,9.17053,-3.7317323074854656,13.745068428980957,219,1970-01-09 05:19:43.279972,-2.062352,-3.9457395,3.294863,28.148772431412848,5.538797537600852,-89.36341094970703,-20.117252349853516,-80.04056549072266,39672476.0,37295.0,0.1627004884731,-0.29591983691267054,0.007326301741344797,0.0004961699860266295,-0.01548056012941359,-0.0008791855699126944,39.67247600003611
1643,B,710383320450000.0,7.0341725,13.761491292514533,-12.722294571019043,219,1970-01-09 05:19:43.320450,3.134008,-0.9193232,-0.44421527,16.75599558220366,3.296132354172601,-90.50487518310547,-20.528039932250977,-79.54729461669922,39712954.0,40478.0,0.3279669738975,-0.19369210790199673,0.020699920111291174,0.009930618770918572,-0.009909256151104051,0.0005672227040754994,39.7129539999878
1643,B,710383358082000.0,-8.025711,11.622739692514534,5.7648624289809565,219,1970-01-09 05:19:43.358082,2.5118935,0.51452273,0.47830373,12.292407512217489,2.6082785612661876,-89.80426788330078,-19.29621124267578,-79.76618194580078,39750586.0,37632.0,-0.01865678841599998,0.10883609021430689,-0.13091104318458863,0.005819980450019904,-0.001596650828811572,-0.0020737324917471647,39.75058600003831
1643,B,710383398436000.0,4.505032,12.511290992514533,-11.828952571019043,219,1970-01-09 05:19:43.398436,0.44741106,-0.037284255,1.5180018,15.620142379912837,1.583002285874682,-91.05648803710938,-19.38737678527832,-79.34202575683594,39790940.0,40354.0,-0.07103674018299999,0.09148313713183147,-0.12235514679590247,-0.0018097463265420225,0.0040418410501630335,-0.00511015191523637,39.79093999997713
1643,B,710383438789000.0,4.399651,18.477285092514535,1.3101259209809568,219,1970-01-09 05:19:43.438789,-0.16937704,0.60933125,0.8809737,4.5848445265862185,1.0844758245334074,-91.02571105957031,-20.506948471069336,-79.38483428955078,39831293.0,40353.0,0.1796653365495,0.229781605379589,-0.21223310590449346,0.0021917448745886877,0.006481998077281675,-0.006750819880609538,39.83129300002474
1643,B,710383476650000.0,4.8523097,20.388510792514534,6.780350728980957,219,1970-01-09 05:19:43.476650,-1.2293152,0.5294364,-0.30040458,7.38340574493507,1.371773186164891,-89.92721557617188,-21.449243545532227,-79.82420349121094,39869154.0,37861.0,0.17514424203135,0.3647111490015428,0.153156768222104,0.006716722727324782,0.011254045086812015,-0.0011183446104964735,39.86915400007274
1643,B,710383516891000.0,4.4355764,18.700021992514532,-5.271387971019043,219,1970-01-09 05:19:43.516891,-0.78723043,-1.2357068,-1.4444987,7.958768768834612,2.057493509050737,-91.2592544555664,-22.189165115356445,-79.28606414794922,39909395.0,40241.0,0.18687691227505002,0.3921190239011773,0.03036108517157269,0.007284046635221922,0.015227801493889179,0.0036924709692074714,39.90939500008244
1643,B,710383554967000.0,-12.636124,-13.357317307485467,-1.896805471019043,219,1970-01-09 05:19:43.554967,-1.8237327,-3.1819448,-2.8186898,35.59096609891659,4.625557897153636,-91.51922607421875,-21.35085678100586,-79.07391357421875,39947471.0,38076.0,-0.1561220252088,-0.2714303882064167,-0.13646806674952108,0.0005855115399672678,0.002297670246356853,-0.0020200647152809814,39.947471000021324
1643,B,710383595081000.0,-1.5136524,-12.418467307485464,1.4418519989809568,219,1970-01-09 05:19:43.595081,-3.6400087,0.9672601,-0.9896307,32.220417180542235,3.8941782649886725,-91.63311004638672,-20.818344116210938,-79.14301300048828,39987585.0,40114.0,-0.2838020652548,-0.9101021120224718,-0.009125001788667892,-0.008823557482428425,-0.023697997357090817,-0.0029201601756704562,39.987584999995306
1643,B,710383635211000.0,3.0943654,8.034999692514534,-3.2212515710190432,219,1970-01-09 05:19:43.635211,-3.8413436,0.0053263223,0.3323625,12.929858343166686,3.8556988801482484,-92.31436920166016,-20.654499053955078,-78.97074890136719,40027715.0,40130.0,0.031717006345,-0.48122827769439175,-0.0357036524129442,-0.005058086707025136,-0.02791704426966887,-0.0008994869465553467,40.027714999974705
1643,B,710383673446000.0,0.5005591,9.244484692514533,2.0741371789809566,219,1970-01-09 05:19:43.673446,-2.6248116,0.57417756,-1.0588728,10.565393716017372,2.8879971281983563,-92.25518798828125,-20.27088165283203,-79.06258392333984,40065950.0,38235.0,0.06872596912875001,-0.044362457269206845,-0.02192995938978812,0.0019202185836194156,-0.010047980875666596,-0.0011018105736387352,40.065950000076555
1643,B,710383713563000.0,1.0801538,14.970976292514532,2.550746028980957,219,1970-01-09 05:19:43.713563,-0.73290193,0.30253512,-0.18535602,5.084133162337328,0.8142662905839708,-91.83992004394531,-20.10296058654785,-79.23241424560547,40106067.0,40117.0,0.03170672970465,0.09257922416820547,0.09276821982690403,0.002014529289549754,0.0009671560188435638,0.0014209092469778895,40.10606700007338
1643,B,710383751936000.0,-0.43349856,20.280734922514533,0.5101893889809569,219,1970-01-09 05:19:43.751936,0.55606806,0.77231675,-0.7584683,1.0003816553477718,1.2169465936464163,-94.69254302978516,-19.258909225463867,-78.29705047607422,40144440.0,38373.0,0.01240705076226,0.3003015572271551,0.058728637396726256,0.0008463890489283686,0.007538007112242086,0.0029066944511211825,40.14444000006188
