Subject-id_accel,Activity_accel,Timestamp_accel,accel_x,accel_y,accel_z,Segment_accel,DateTime,gyro_x,gyro_y,gyro_z,accel_magnitude,gyro_magnitude,Roll,Pitch,Yaw,Time_Difference,Difference_Microseconds,vx,vy,vz,dx,dy,dz,Time_diff
1639,B,185283215164060.0,-1.3410522,-3.393732027043068,2.9443865106935263,200,1970-01-03 03:28:03.215164060,-0.065006964,-0.79514503,4.3277597,20.08872286424212,4.400680123008975,-95.641357421875,-43.24143981933594,111.11329650878906,15032659.0,49882.0,-0.2153428287136,-0.5235945700559623,0.1944040516586145,-0.015695421238271882,-0.018783150309397575,0.01034224916046861,15.032659630000126
1639,B,185283265046470.0,19.511847,-3.393732027043068,-3.2565958893064737,200,1970-01-03 03:28:03.265046470,0.82342356,-2.2012942,6.5744023,28.17837893013162,6.98186852614413,-95.81484985351562,-42.92143249511719,111.31625366210938,15082542.0,49883.0,0.45320687850419994,-0.6581429347049894,-0.007786970216674827,0.005932686197852248,-0.029474305974995275,0.004654509936784138,15.082542040006956
1639,B,185283314928880.0,19.511847,-3.393732027043068,-5.514328289306474,200,1970-01-03 03:28:03.314928880,1.4466033,-0.790884,7.378677,28.588879069513762,7.560623841942931,-96.03286743164062,-42.567874908447266,111.51492309570312,15132424.0,49882.0,0.973289952054,-0.6581297409729624,-0.21875561993878553,0.03557825745095207,-0.0328291568040838,-0.005650198741067337,15.132424450013787
1639,B,185283364811290.0,16.847698,16.102252852956934,-5.4137718893064735,200,1970-01-03 03:28:03.364811290,0.39518726,-0.87717044,5.569858,17.953659000623038,5.6523374891667695,-96.02622985839844,-42.286312103271484,111.53437042236328,15182306.0,49882.0,0.906843411845,-0.17188038208088233,-0.27255774655478554,0.046892406229004965,-0.020701282479085942,-0.012253846673716156,15.182306859991513
1639,B,185283414693700.0,11.721712,32.033270972956934,-2.385106589306474,200,1970-01-03 03:28:03.414693700,1.5446076,-2.020199,2.4603512,19.689119624883375,3.5384099062884444,-96.02843475341797,-42.153377532958984,111.65258026123047,15232189.0,49883.0,0.712563939515,0.7117187675040306,-0.1945157275743248,0.04039044845394544,0.013464379090031453,-0.011649513054991206,15.232189269998344
1639,B,185283464584330.0,10.857406,35.832270972956934,-2.746630889306474,200,1970-01-03 03:28:03.464584330,1.7054626,-1.7357733,-1.2084194,22.42252224010672,2.7169448053444167,-96.02710723876953,-42.204349517822266,111.77759552001953,15282079.0,49890.0,0.56323609851,1.2039839438408213,-0.12801119140399997,0.03182483194853362,0.04778720413449733,-0.00804543399391431,15.282079900003737
1639,B,185283514474960.0,16.069582,29.36613097295693,-1.2598316893064738,200,1970-01-03 03:28:03.514474960,-1.6501204,-1.5397646,-4.964542,20.665818806104003,5.45348050584884,-96.20340728759766,-42.44296646118164,111.91690063476562,15331970.0,49891.0,0.671707179154,1.1374749357417941,-0.09994321225478929,0.030806277532967313,0.05840886248062813,-0.005686436576470328,15.33197053000913
1639,B,185283564365590.0,19.294573,17.993672172956934,-3.5343232893064735,200,1970-01-03 03:28:03.564365590,-2.3766308,-1.065722,-6.551786,19.823925410329394,7.050534528004855,-96.40401458740234,-42.76271057128906,112.03771209716797,15381861.0,49891.0,0.8821765285524998,0.6924821693763942,-0.11959259301898928,0.03876240603059249,0.04564919496572576,-0.005476430430457043,15.381861160014523
1639,B,185283614256220.0,19.511847,-3.393732027043068,5.254791010693526,200,1970-01-03 03:28:03.614256220,-0.48472115,0.41712612,-5.8178186,28.2459151148266,5.852859305993057,-96.43924713134766,-43.05411911010742,112.05384826660156,15431751.0,49890.0,0.9680261469,-0.12472649306017863,0.04291706731000002,0.046153305739162605,0.014162665345707995,-0.0019126709888107366,15.431751790019916
1639,B,185283664146850.0,19.511847,-3.393732027043068,1.598845070693526,200,1970-01-03 03:28:03.664146850,-5.4957247,2.2493808,-2.7583792,27.900603337807567,6.547622451897435,-96.40888214111328,-43.24494934082031,111.77513122558594,15481642.0,49891.0,0.9734655586769999,-0.6582484845612058,0.17096737886824068,0.04843148134147105,-0.01953170230425424,0.005335454452139303,15.481642419996206
1639,B,185283714037480.0,0.23193829,-3.393732027043068,0.8111527346935261,200,1970-01-03 03:28:03.714037480,-0.657294,2.1843998,-3.1993988,19.92757518086207,3.929349891536446,-96.35613250732422,-43.41607666015625,111.6503677368164,15531533.0,49891.0,0.49251859595169495,-0.6582484845612058,0.0601186002542827,0.03656970772929011,-0.03284067514324312,0.005764555292200907,15.531533050001599
1639,B,185283763928110.0,-6.845322,2.1967294729569335,0.0617676106935261,200,1970-01-03 03:28:03.763928110,-1.0024396,1.633658,-1.9573003,15.90222227744458,2.739479526660539,-96.33954620361328,-43.522369384765625,111.55341339111328,15581423.0,49890.0,-0.16497085664595001,-0.5187812287116785,0.021774998015680017,0.008170678356981808,-0.0293610061975921,0.0020428358088442197,15.581423680006992
1639,B,185283813818740.0,-14.705486,5.000338972956934,0.8566425706935261,200,1970-01-03 03:28:03.813818740,-0.10655227,1.0743942,-0.085630745,18.688172268702367,1.0830553576456967,-96.29461669921875,-43.53254318237305,111.48043060302734,15631314.0,49891.0,-0.537595680964,-0.30939732908245565,0.02291020117979071,-0.017525873563949006,-0.020659328213453572,0.0011146946365306152,15.631314310012385
1639,B,185283863709370.0,-8.631396,5.967596972956933,2.319499810693526,200,1970-01-03 03:28:03.863709370,-0.1896429,-0.70672786,0.968981,13.729606239938711,1.2142293341793344,-96.33235168457031,-43.480491638183594,111.521484375,15681204.0,49890.0,-0.58213852149,-0.2153268378291786,0.07922887170370001,-0.02793176968021503,-0.013089244343610716,0.002547859173078676,15.681204940017778
1639,B,185283913600000.0,-2.4998457,-3.393732027043068,4.158246710693526,200,1970-01-03 03:28:03.913600000,0.55497694,-1.1871622,3.3359985,20.36534144960763,3.584165102927438,-96.34297943115234,-43.308162689208984,111.57733917236328,15731095.0,49891.0,-0.27767438982735,-0.4247254519917057,0.1615906258492607,-0.021448462979266954,-0.015966424395726868,0.006007362776207382,15.731095569994068
1639,B,185283963490630.0,7.37863,-3.393732027043068,-0.2734206893064738,200,1970-01-03 03:28:03.963490630,-0.24610192,-1.6995543,6.1120777,21.274328115940047,6.348743559517385,-96.40266418457031,-42.99501037597656,111.6466064453125,15780986.0,49891.0,0.12170371375565,-0.6582484845612058,0.09690892751651072,-0.003890766499946592,-0.02701532633428065,0.00644840060848585,15.780986199999461
1639,B,185284013381260.0,19.511847,-3.393732027043068,-2.265396289306474,200,1970-01-03 03:28:04.013381260,2.049543,-1.5024804,7.096382,28.053712911291335,7.537686074065247,-96.38842010498047,-42.66142272949219,111.73247528076172,15830876.0,49890.0,0.670782948765,-0.6582352908291786,-0.06333078953149998,0.019768579796577614,-0.03283968777711314,0.0008376066520360927,15.830876830004854
1639,B,185284063271890.0,19.511847,1.7705609729569325,-3.091396089306474,200,1970-01-03 03:28:04.063271890,1.0162364,-0.441477,6.5051603,24.77048116955443,6.598844511799778,-96.32471466064453,-42.33572769165039,111.71338653564453,15880767.0,49891.0,0.9734655586769999,-0.5294226135297058,-0.1336278642806893,0.04101660114239441,-0.02962672025318455,-0.004913232098671967,15.880767460010247
1639,B,185284113162520.0,9.382577,24.431680472956934,-5.119284889306473,200,1970-01-03 03:28:04.113162520,0.084130056,-0.35519058,3.5852704,13.60793298521544,3.6038038314480243,-96.31861877441406,-42.15559768676758,111.7105712890625,15930658.0,49891.0,0.720785853892,0.16469621398904433,-0.20481954235198926,0.042263948612239984,-0.009098282399741569,-0.008442739782155484,15.93065809001564
1639,B,185284163053150.0,9.274838,29.143469972956932,-0.5990320893064739,200,1970-01-03 03:28:04.163053150,1.3304894,-1.7964934,0.54820156,15.714604382694471,2.3017635695575587,-96.33013153076172,-42.11845397949219,111.8268814086914,15980548.0,49890.0,0.465409217175,0.8475101278733214,-0.14264341703149996,0.02958963604776631,0.02524948719775671,-0.008667463521821139,15.98054871999193
1639,B,185284212943780.0,12.473492,32.23198997295693,-1.2957446893064737,200,1970-01-03 03:28:04.212943780,1.2090493,-1.8167334,-2.1437216,20.15817923030124,3.0590623979926614,-96.36217498779297,-42.21494674682617,111.96468353271484,16030439.000000002,49891.00000000186,0.5425229660150204,1.0421097360808333,-0.04726615413089105,0.02514337227576759,0.04713751231627013,-0.004737389207431602,16.030439349997323
1639,B,185284262834410.0,14.379276,23.509912972956933,-1.2765910893064736,200,1970-01-03 03:28:04.262834410,-1.4956571,-1.2659917,-4.446823,16.113920203609943,4.859419712123898,-96.51693725585938,-42.42877960205078,112.0834732055664,16080328.999999998,49889.999999996275,0.6698422977599501,0.9015597689857542,-0.06416691599749519,0.030242451504864383,0.04848483580388241,-0.0027796979343523874,16.080329980002716
1639,B,185284312725040.0,19.026423,8.634737972956934,0.3418892106935261,200,1970-01-03 03:28:04.312725040,-0.41228315,-1.065722,-4.609809,20.60501379314045,4.749324140710858,-96.6103286743164,-42.65168762207031,112.19110107421875,16130220.000000002,49891.000000003725,0.8333218644045621,0.3129325901713177,-0.023316605712941023,0.037497181607277635,0.030296119145355002,-0.00218232019082785,16.13022061000811
1639,B,185284362615670.0,19.511847,-3.393732027043068,0.6986252566935262,200,1970-01-03 03:28:04.362615670,-1.0258754,0.08263309,-4.3839726,27.88854981169189,4.5031615917529395,-96.52580261230469,-42.917823791503906,112.11447143554688,16180111.0,49890.99999999814,0.9613564142849641,-0.3581922861761923,0.025956153646202747,0.04476914700104791,-0.0011290257466895577,6.584484296917787e-05,16.180111240013503
1639,B,185284412506300.0,15.861287,-3.393732027043068,4.084026310693526,200,1970-01-03 03:28:04.412506300,-3.505811,1.4941084,-3.4614537,25.682321965390077,5.1482747008988605,-96.650390625,-43.09831237792969,112.0401382446289,16230001.000000002,49890.00000000186,0.882382827630033,-0.6582352908292033,0.11930324334847446,0.04599207538957132,-0.02535478590840054,0.0036234956580323587,16.230001870018896
1639,B,185284462396930.0,2.532766,-2.383379027043066,1.2780220506935263,200,1970-01-03 03:28:04.462396930,-1.7417332,2.1013093,-3.4955423,19.091272786217576,4.43485639962987,-96.65850830078125,-43.284095764160156,111.92476654052734,16279892.0,49890.99999999814,0.4588488491114829,-0.6330447237996821,0.13375897739897571,0.033457694792154234,-0.03221162560492366,0.006312763627655283,16.279892499995185
1639,B,185284512292520.0,-4.5421,-1.9428450270430666,0.7728455089935261,200,1970-01-03 03:28:04.512292520,-2.954004,2.4049096,-2.0957847,19.02544637941086,4.347648022200308,-96.70501708984375,-43.40216064453125,111.7773208618164,16329788.0,49896.0,-0.05012886463199999,-0.5969114377013409,0.051165043879072586,0.01019674617279414,-0.030684946317127523,0.00461348448284475,16.32978808999178
1639,B,185284562188110.0,-12.299314,9.295537272956933,-0.26863228930647376,200,1970-01-03 03:28:04.562188110,-0.20668714,2.0288713,-0.35194686,14.30859386042534,2.069518040044331,-96.62191009521484,-43.431400299072266,111.64140319824219,16379683.0,49895.0,-0.42015117576500005,-0.3055397101950639,0.01257885929814274,-0.01173231130780416,-0.02251390001214556,0.0015902510245135795,16.37968368001748
1639,B,185284612083700.0,-13.225869,5.426507972956934,1.0769091306935261,200,1970-01-03 03:28:04.612083700,-1.2367978,0.45760617,0.6845554,17.273008055412152,1.4858291626482734,-96.65852355957031,-43.40005874633789,111.60468292236328,16429579.0,49896.0,-0.636802265484,-0.1216952152049409,0.020164890638924182,-0.026368874452280054,-0.010658656918879319,0.0008168910734299455,16.429579270014074
1639,B,185284661979290.0,-8.03524,0.9852639729569326,1.2492916306935262,200,1970-01-03 03:28:04.661979290,0.73500663,-1.363996,2.8576949,17.50728824339351,3.2507137640287502,-96.6700210571289,-43.250213623046875,111.67499542236328,16479474.0,49895.0,-0.5304115167775,-0.3290133193793139,0.05803289349470348,-0.02911906583296877,-0.011244051166540696,0.001950839219673676,16.47947486001067
1639,B,185284711874880.0,5.52073,-3.393732027043068,-0.5750900893064738,200,1970-01-03 03:28:04.711874880,-0.096964896,-2.4452393,4.534421,20.720883614723505,5.152627604490915,-96.7637710571289,-43.01074981689453,111.8050308227539,16529370.0,49896.0,-0.06273199548,-0.549067261013341,0.016819980054524186,-0.01479774434380011,-0.021906354319635956,0.001867429489306132,16.529370450007264
1639,B,185284761770470.0,19.511847,-3.393732027043068,-1.9086602893064737,200,1970-01-03 03:28:04.761770470,3.1148074,-1.956283,5.3823714,28.017292160996895,6.5191249568267775,-96.69116973876953,-42.76036834716797,111.90972137451172,16579266.0,49896.0,0.624512730996,-0.658314453221341,-0.06196460444563581,0.01401530578965317,-0.030121759006726846,-0.0011262680893094528,16.57926604000386
1639,B,185284811666060.0,19.511847,7.116813472956933,-2.2965212893064737,200,1970-01-03 03:28:04.811666060,0.9192974,-0.53522027,4.7570615,21.881551746546364,4.874546395496496,-96.64425659179688,-42.521018981933594,111.90830993652344,16629161.0,49895.0,0.973543606065,-0.39608942562806393,-0.10490876743244651,0.039867510468829304,-0.026304740767595532,-0.004163073444928459,16.629161630000453
1639,B,185284861561650.0,8.161534,27.738072972956935,-1.5950200893064737,200,1970-01-03 03:28:04.861561650,0.6998529,-1.1946189,2.7447767,14.063943580916273,3.0742003075171453,-96.64901733398438,-42.37778854370117,111.96720123291016,16679057.0,49896.0,0.690395509188,0.3805789070526591,-0.09708617431363582,0.04151195304733185,-0.0003869564174191992,-0.005039369806681263,16.67905721999705
1639,B,185284911457240.0,7.294833,35.07869497295693,-2.0235819893064737,200,1970-01-03 03:28:04.911457240,2.7803142,-1.3086022,-0.005735916,20.12487980061088,3.072884584441602,-96.56932067871094,-42.37054443359375,112.05522155761719,16728952.0,49895.0,0.3855977157325,1.0781503183306864,-0.09027507535619651,0.026843340978704174,0.036391647350251015,-0.004674194776138142,16.728952809993643
1639,B,185284961352830.0,12.619538,29.528935972956933,-1.4058780893064737,200,1970-01-03 03:28:04.961352830,-0.28019038,-1.0880926,-2.8681014,18.246050986899764,3.0803340396621377,-96.6478271484375,-42.50672912597656,112.15080261230469,16778848.0,49896.0,0.496823727708,1.122850376838659,-0.08555817004123582,0.022014650170953595,0.05491056534308484,-0.0043866878061751425,16.778848400019342
1639,B,185285011248420.0,14.822204,19.674401772956934,-1.7362777893064738,200,1970-01-03 03:28:05.011248420,-1.5244192,-0.121897675,-4.453215,15.358295594275,4.708485613944684,-96.75353240966797,-42.7271728515625,112.19435119628906,16828743.0,49895.0,0.684602858545,0.7385292684161862,-0.07838893378169651,0.02947363976054672,0.04643676869999525,-0.004090070372622604,16.828743990015937
1639,B,185285061144010.0,14.06803,13.743964272956934,-1.6357214893064738,200,1970-01-03 03:28:05.061144010,0.38133883,0.13802685,-4.5160656,14.542967916993986,4.5342385488734545,-96.75272369384766,-42.95222091674805,112.22119903564453,16878639.0,49896.0,0.720753557832,0.34474059611345914,-0.08412463800283582,0.0350608318757734,0.02702541658028559,-0.004054388588880513,16.878639580012532
1639,B,185285111039600.0,19.511847,-3.393732027043068,1.084091730693526,200,1970-01-03 03:28:05.111039600,-0.5678118,0.5087389,-5.254294,27.890154721602322,5.309315487614994,-96.59961700439453,-43.25823211669922,112.10135650634766,16928535.0,49896.0,0.837750771396,-0.23076320592894092,-0.01376205921787582,0.03888156600558015,0.0028435079303233608,-0.002442077322262314,16.928535170009127
1639,B,185285160935190.0,15.248371,-3.393732027043068,4.565260910693526,200,1970-01-03 03:28:05.160935190,-4.8810673,1.4312578,-2.4100378,25.37578070372101,5.628640961601563,-96.78987121582031,-43.3862419128418,112.02294921875,16978430.0,49895.0,0.8671805385550001,-0.658301259489314,0.1409372250210035,0.04253377385500258,-0.022179935751021916,0.003172702448873528,16.978430760005722
1639,B,185285210830780.0,-3.3473933,-3.393732027043068,4.981852310693526,200,1970-01-03 03:28:05.210830780,-1.2165579,1.556959,-2.854253,20.638648185978962,3.4714398510909574,-96.79344940185547,-43.53716278076172,111.93970489501953,17028326.0,49896.0,0.2969055916596,-0.658314453221341,0.23818138064716418,0.029041620776593845,-0.03284692880070542,0.009458250974209447,17.028326350002317
1639,B,185285260726370.0,-9.241918,-0.6978610270430678,1.835871110693526,200,1970-01-03 03:28:05.260726370,-1.9963313,1.2991651,-0.9218633,19.58116399780856,2.554016554430411,-96.83712768554688,-43.590641021728516,111.85824584960938,17078221.0,49895.0,-0.31407184365675,-0.591046017716814,0.1700851550550535,-0.00042825507169889953,-0.03116842034872962,0.010185229399431077,17.07822193999891
1639,B,185285310621960.0,-13.783718,5.579736972956933,1.2157728106935262,200,1970-01-03 03:28:05.310621960,-0.141706,0.6514843,1.1884255,17.610994132526866,1.362669274854592,-96.80673217773438,-43.53550338745117,111.8038558959961,17128117.0,49896.0,-0.574443566928,-0.3671877589013409,0.07613241255076418,-0.022166682463268344,-0.02390601625906973,0.00614263587662994,17.128117529995507
1639,B,185285360517550.0,-8.557177,6.120825972956933,2.223731710693526,200,1970-01-03 03:28:05.360517550,0.34725037,-1.0891578,2.0342455,13.554539854108585,2.333452867969745,-96.82918548583984,-43.42804718017578,111.86174011230469,17178013.0,49896.0,-0.55736064846,-0.19707515562534092,0.08580875879956418,-0.028236251565499828,-0.01407723119161166,0.004040108342847993,17.1780131199921
1639,B,185285410413140.0,-0.44322658,-2.6299820270430665,2.8079169106935264,200,1970-01-03 03:28:05.410413140,0.7296803,-2.230056,4.0561175,19.275047292519602,4.685901436986307,-96.87430572509766,-43.21339416503906,111.98065948486328,17227908.0,49895.0,-0.22453756831204996,-0.4018831706593139,0.1255270539820535,-0.019506405762920717,-0.014942512844986428,0.005272300189369407,17.2279087100178
1639,B,185285460308730.0,10.816704,-3.393732027043068,0.1000748106935262,200,1970-01-03 03:28:05.460308730,1.0279543,-1.8092766,5.810608,22.682815092908044,6.171980005465025,-96.87433624267578,-42.91413116455078,112.05599212646484,17277804.0,49896.0,0.25879751467416,-0.6392604182213409,0.0725485774651642,0.0008547171418419215,-0.025974450255394577,0.004941590853345187,17.277804300014395
1639,B,185285510204270.0,19.511847,-3.393732027043068,-1.125756489306474,200,1970-01-03 03:28:05.510204270,2.074044,-1.2521433,5.350414,27.953159524051525,5.873367971536169,-96.76399230957031,-42.67512130737305,112.0737075805664,17327699.0,49895.0,0.7566215260725,-0.658301259489314,-0.025588193677196513,0.0253321665190273,-0.032370919954686564,0.001171544174550324,17.32769984001061
1639,B,185285560099810.0,15.109508,5.795214472956934,-3.057877289306474,200,1970-01-03 03:28:05.560099810,-0.11400913,-0.5277634,4.815651,18.92824556950578,4.845825713116797,-96.76770782470703,-42.43289566040039,112.07077026367188,17377595.0,49896.0,0.86373356454,-0.429068615939341,-0.10437329550883583,0.04042461880060066,-0.027127703652194086,-0.0032422792322131353,17.377595380006824
1639,B,185285609995350.0,5.044284,23.258521972956935,-4.3435632893064735,200,1970-01-03 03:28:05.609995350,0.7957267,-1.4257814,2.572204,9.84311138823421,3.0466813091124005,-96.77864837646484,-42.29678726196289,112.14604187011719,17427490.0,49895.0,0.50278672592,0.23584708998443615,-0.1846474388349465,0.03409126494625085,-0.004820394018759989,-0.00721034477004151,17.427490920003038
1639,B,185285659890890.0,7.134422,28.870530972956935,-2.174416789306474,200,1970-01-03 03:28:05.659890890,0.40264413,-2.5773323,0.41397828,14.55432657552304,2.6412387427793242,-96.87261199951172,-42.26091384887695,112.31565856933594,17477386.0,49896.0,0.303834357288,0.8115348128946595,-0.1626105670012358,0.020123582783873183,0.026130083713027677,-0.008663392729601076,17.477386459999252
1639,B,185285709786430.0,11.470321,26.880948972956933,-0.7953565893064739,200,1970-01-03 03:28:05.709786430,0.27587765,-2.0361779,-1.4832577,15.528240095605126,2.534202502332287,-96.95887756347656,-42.3222770690918,112.46435546875,17527282.0,49896.0,0.464151128364,0.9019071216906591,-0.07408990624963582,0.0191597018960461,0.042746949384034526,-0.0059052034066627455,17.527281999995466
1639,B,185285759681970.0,12.344205,22.48758867295693,-1.0251999893064738,200,1970-01-03 03:28:05.759681970,-0.5220054,-0.96984816,-3.381559,13.823332670476695,3.556407788986739,-97.04776000976562,-42.48418045043945,112.55745697021484,17577177.0,49895.0,0.594112887385,0.7426505929214361,-0.04541833524494651,0.026401041532898177,0.04102760358528525,-0.002981431854686093,17.57717753999168
1639,B,185285809577510.0,18.207605,8.764024572956934,3.1311343106935263,200,1970-01-03 03:28:05.809577510,-0.7947131,-0.7269679,-3.7639887,19.935288392776744,3.9150558326376026,-97.14199829101562,-42.66645050048828,112.63800811767578,17627073.0,49896.0,0.7622065558800001,0.2906844472590591,0.05253884944996419,0.033837457470575226,0.025779642582422997,0.00017764258838678105,17.627073080017
1639,B,185285859473050.0,19.511847,-3.393732027043068,2.695389510693526,200,1970-01-03 03:28:05.859473050,-0.96941644,0.887973,-4.5448275,27.95446862451687,4.73114376103998,-96.86909484863281,-42.953887939453125,112.4080810546875,17676968.0,49895.0,0.9410060287700002,-0.35499562671081386,0.1453572030340535,0.04249089595555588,-0.0016044031493726515,0.004937011769345032,17.676968620013213
1639,B,185285909368590.0,13.005004,-3.393732027043068,4.330629310693526,200,1970-01-03 03:28:05.909368590,-4.270671,1.5132833,-3.4241695,24.058763304065597,5.679224762327173,-97.03182220458984,-43.132991790771484,112.33365631103516,17726864.0,49896.0,0.8112303987480001,-0.658314453221341,0.17528511755596418,0.04371479439371907,-0.0252800598741474,0.007999384614079761,17.726864160009427
1639,B,185285959264130.0,-2.0281882,-1.1455770270430676,3.226902210693526,200,1970-01-03 03:28:05.959264130,-0.3089525,2.2078357,-3.5253696,17.962105219543993,4.171117469222714,-96.96446990966797,-43.3213996887207,112.21275329589844,17776759.0,49895.0,0.2738441121705,-0.6022154126268139,0.18854151762980348,0.02706989636113928,-0.03144706882824685,0.009076564981296938,17.77675970000564
1639,B,185286009159670.0,-9.799767,3.0490649729569324,1.112822150693526,200,1970-01-03 03:28:06.009159670,-2.9486778,2.2525768,-2.0861974,16.67187340555648,4.2568794438975885,-97.01825714111328,-43.43864440917969,112.076416015625,17826655.0,49896.0,-0.2950838263296,-0.4414925827253409,0.10826744336788419,-0.0005298883888412276,-0.02603842706804556,0.007404789958970312,17.826655240001855
1639,B,185286059055210.0,-13.245023,6.870210972956933,1.3259061106935262,200,1970-01-03 03:28:06.059055210,0.20024388,1.633658,0.03687466,16.404052633941344,1.6462976076613762,-96.93124389648438,-43.44673156738281,111.96443939208984,17876550.0,49895.0,-0.574909898525,-0.2415098633393139,0.06084017330095349,-0.02170416845081013,-0.017039203523197977,0.004218812266845828,17.87655077999807
1639,B,185286108950750.0,-9.5795,6.886969972956933,3.322670210693526,200,1970-01-03 03:28:06.108950750,-0.039440617,-0.27636102,0.83688825,13.830824958526923,0.8822204478659762,-96.94140625,-43.40352249145508,111.97635650634766,17926446.0,49896.0,-0.569426199804,-0.1457666497613409,0.11597268206596419,-0.028548896981111894,-0.009661774448835137,0.004411127115693862,17.926446319994284
1639,B,185286158846290.0,-2.6530747,-1.8255290270430677,2.7887633106935263,200,1970-01-03 03:28:06.158846290,0.90864474,-1.1083325,3.022811,18.657676154645763,3.345358356859085,-96.9306411743164,-43.246795654296875,112.0268783569336,17976341.0,49895.0,-0.30517215732825,-0.36270070200181387,0.1524649877748035,-0.021819042514556807,-0.012684989258111306,0.006696848768352552,17.976341860019602
1639,B,185286208741830.0,15.758336,-3.393732027043068,4.237255310693526,200,1970-01-03 03:28:06.208741830,0.26842082,-1.1743789,4.586619,25.639108271872256,4.7421819227583075,-96.94586944580078,-43.012046813964844,112.06878662109375,18026237.0,49896.0,0.32695005891240003,-0.619190924777341,0.1752851125663642,0.0005433150887213755,-0.024496232304886355,0.008176709503311452,18.026237400015816
1639,B,185286258637370.0,18.260277,-3.393732027043068,-2.413836989306474,200,1970-01-03 03:28:06.258637370,-0.8522374,1.089308,5.649753,27.215089450311584,5.816580564715988,-96.9608383178711,-42.71697235107422,111.98538970947266,18076132.0,49895.0,0.8486793478175001,-0.658301259489314,0.045489728572803485,0.029329014624394186,-0.031870236266992376,0.005507780349319386,18.07613294001203
1639,B,185286308532910.0,13.316251,10.523762972956934,-1.075478189306474,200,1970-01-03 03:28:06.308532910,-0.07672487,-0.6555952,4.404459,14.725900620864769,4.45364467089827,-96.97003936767578,-42.49440002441406,111.99332427978516,18126028.0,49896.0,0.787771220544,-0.31110078796134094,-0.08705143507603583,0.040826168779482704,-0.024184642279798937,-0.0010368814538426405,18.126028480008245
1639,B,185286358428450.0,5.1831474,30.242408972956934,0.33231241069352613,200,1970-01-03 03:28:06.358428450,1.7810963,-2.1863801,2.0534203,14.663692431509741,3.4884232684698384,-96.96881103515625,-42.37921905517578,112.12346649169922,18175924.0,49896.0,0.4615229912832,0.5280536577066591,-0.018540499844835825,0.031167391996664986,0.005412540194406198,-0.0026343075924059062,18.17592402000446
1639,B,185286408323990.0,7.134422,35.832270972956934,0.1024690106935261,200,1970-01-03 03:28:06.408323990,1.1909398,-2.2971675,-0.89310116,20.587259742980912,2.7373245719632218,-97.01830291748047,-42.40955352783203,112.28518676757812,18225819.0,49895.0,0.3072925626065,1.1594270779506861,0.010846709510053485,0.01918002603066329,0.04209842565281162,-0.00019194083437698242,18.225819560000673
1639,B,185286458219530.0,12.870929,27.153887972956934,-0.6014262893064738,200,1970-01-03 03:28:06.458219530,-0.96302485,-1.448152,-3.4816937,16.744274666730895,3.891882847342815,-97.1519546508789,-42.57337951660156,112.4117660522461,18275715.0,49896.0,0.4990934967480001,1.082397893382659,-0.01244798618683582,0.020117719408776068,0.0559290493848243,-3.9948650532365705e-05,18.275715099996887
1639,B,185286508115070.0,14.606726,19.67679597295693,-1.7530372893064738,200,1970-01-03 03:28:06.508115070,-1.1398587,-0.518176,-4.7301836,15.153727977630785,4.893099336070202,-97.2600326538086,-42.80477523803711,112.48710632324219,18325610.0,49895.0,0.6854987981125,0.6793374877406861,-0.058737980127446514,0.029552616276032326,0.043950893420574656,-0.0017759118946255588,18.3256106399931
1639,B,185286558018400.0,19.511847,4.3922129729569335,1.3833669506935262,200,1970-01-03 03:28:06.558018400,-0.2972346,-0.047329165,-4.5064783,22.98842346906249,4.516518031146079,-97.30362701416016,-43.02798843383789,112.52930450439453,18375513.0,49903.0,0.8513095742095,0.11150847671396977,-0.009223829453900963,0.03834567410199239,0.01973279308209035,-0.0016957490917689918,18.375513970007887
1639,B,185286607921730.0,19.511847,-3.393732027043068,2.125569510693526,200,1970-01-03 03:28:06.607921730,-1.9366766,0.6514843,-4.0079346,27.921116227569165,4.498742913749485,-97.12135314941406,-43.27653884887695,112.33356475830078,18425417.0,49904.0,0.9737192126879999,-0.4641451034375572,0.08755498258452972,0.04553811829066642,-0.008798989110006953,0.0019545189329154486,18.42541729999357
1639,B,185286657825060.0,10.215759,-3.393732027043068,2.5493431106935263,200,1970-01-03 03:28:06.657825060,-3.0882275,1.3598851,-2.4941936,22.462465187356923,4.196121815586294,-97.22679138183594,-43.40876388549805,112.26221466064453,18475320.0,49903.0,0.7417483611090001,-0.6584068093455303,0.11664608227253906,0.04280348916759585,-0.028009354051807208,0.005095122869781152,18.475320630008355
1639,B,185286707728390.0,-2.5860372,-1.8207420270430674,3.346612210693526,200,1970-01-03 03:28:06.707728390,-1.3550422,1.5995697,-2.2438564,18.712017670276744,3.070774191105541,-97.23273468017578,-43.530128479003906,112.17236328125,18525223.0,49903.0,0.19037300349270003,-0.6191583493605303,0.14711292920158905,0.023257826228859323,-0.031877167057454275,0.006581182974796708,18.525223959994037
1639,B,185286757631720.0,-13.1277075,2.5989549729569337,3.796722210693526,200,1970-01-03 03:28:06.757631720,-1.5989877,2.0949175,-0.45953855,19.38062563890543,2.6751853534836876,-97.21662902832031,-43.566097259521484,112.03296661376953,18575127.0,49904.0,-0.39208935775439996,-0.4696412305735573,0.17824048048244973,-0.005033226471537936,-0.02716772711851535,0.008118218278436135,18.575127290008822
1639,B,185286807535050.0,-12.112566,8.926830572956934,1.6299697106935263,200,1970-01-03 03:28:06.807535050,0.26096395,0.7867729,1.0861601,14.327959807964989,1.366329953637123,-97.16004943847656,-43.51713943481445,111.96975708007812,18625030.0,49903.0,-0.6297826842352501,-0.20146376195113017,0.13540410347648904,-0.025497240255704757,-0.01674507622097974,0.007825902836651463,18.625030619994504
1639,B,185286857438380.0,-6.644209,1.0834249729569336,3.698560010693526,200,1970-01-03 03:28:06.857438380,0.3227493,-0.7525342,2.027854,17.069388628224768,2.186930880969065,-97.16731262207031,-43.411834716796875,112.00376892089844,18674933.0,49903.0,-0.46800967141249994,-0.2392785087461302,0.13295480934318907,-0.027391565961944836,-0.010997180767302692,0.006695957413220198,18.67493395000929
1639,B,185286907341710.0,3.2653918,-3.393732027043068,2.894108310693526,200,1970-01-03 03:28:06.907341710,0.42927572,-1.2052716,4.77091,20.30284598830475,4.939487777254649,-97.17413330078125,-43.16764450073242,112.0450210571289,18724837.0,49904.0,-0.08430824677439999,-0.5467059816135572,0.1645002599552497,-0.013781436694599525,-0.01961188500345492,0.007422098889134645,18.724837279994972
1639,B,185286957245040.0,19.511847,-3.393732027043068,-1.137727489306474,200,1970-01-03 03:28:06.957245040,1.1440681,-1.0199156,5.8819804,27.953976181089764,6.078389019678251,-97.08866119384766,-42.89724349975586,112.03594207763672,18774740.0,49903.0,0.5683262739182,-0.6584068093455303,0.043824336064839035,0.012076975804278528,-0.030069371803615675,0.005198011157595245,18.774740610009758
1639,B,185287007148370.0,19.511847,-3.393732027043068,-2.1815992893064737,200,1970-01-03 03:28:07.007148370,1.2314198,-0.7749048,5.4590707,28.044754192122618,5.649630526016154,-97.06460571289062,-42.65151596069336,112.06500244140625,18824643.0,49903.0,0.973699700841,-0.6584068093455303,-0.08282218211656096,0.03847586110920418,-0.032856475006770004,-0.0009730547557595397,18.82464393999544
1639,B,185287057051700.0,12.169428,14.148584172956934,-2.1097732893064736,200,1970-01-03 03:28:07.057051700,0.83194566,-0.7972753,3.4553082,12.731894849351027,3.6423805734945063,-97.03987884521484,-42.47517013549805,112.08993530273438,18874547.0,49904.0,0.7905111737999999,-0.22070412925515726,-0.10707832858155024,0.04402058974404223,-0.021935576139964354,-0.00473839754293927,18.874547270010225
1639,B,185287106955030.0,5.506365,29.737230972956933,0.5286369406935262,200,1970-01-03 03:28:07.106955030,0.6615034,-1.8572134,1.2502109,14.308976874406383,2.334492590656464,-97.08403778076172,-42.40171813964844,112.20439147949219,18924450.0,49903.0,0.4410375490395,0.60596751661327,-0.03945172360241596,0.030728987957929783,0.00961289940966595,-0.0036561445970682326,18.924450599995907
1639,B,185287156858360.0,6.0594254,29.70371197295693,-0.8863362893064738,200,1970-01-03 03:28:07.156858360,0.90225315,-1.6910322,-1.4470387,14.593125912118424,2.401576908495635,-97.12378692626953,-42.463050842285156,112.3301773071289,18974353.0,49903.0,0.28858381916560005,0.9940912879149699,-0.008925135296915963,0.018205147568769554,0.03992386726118638,-0.0012070751948266806,18.974353930010693
1639,B,185287206761690.0,11.4798975,23.670324572956932,-0.15610473930647384,200,1970-01-03 03:28:07.206761690,-0.9438501,-1.2095326,-2.9426699,13.550075493046414,3.318603360165053,-97.242919921875,-42.601478576660156,112.43657684326172,19024257.0,49904.0,0.4376411850008,0.8427297598936425,-0.02601098854595027,0.018120766303960013,0.04583235878492049,-0.0008717261621271982,19.024257259996375
1639,B,185287256665020.0,13.100773,18.194785172956934,-0.8408463893064738,200,1970-01-03 03:28:07.256665020,-1.0695513,-0.6097888,-3.9749112,13.304334227087347,4.161213934877967,-97.34758758544922,-42.79473876953125,112.51206970214844,19074160.0,49903.0,0.6133245999807501,0.5555478858251698,-0.024875426085585964,0.02622317278396715,0.03488912467715295,-0.0012696923746787763,19.07416059001116
1639,B,185287306568350.0,19.511847,2.8264039729569337,3.1526821106935263,200,1970-01-03 03:28:07.306568350,-0.080985926,0.18809427,-3.6255045,23.962896406819766,3.631283664785383,-97.36451721191406,-42.9757194519043,112.53099822998047,19124063.0,49903.0,0.8137337879300001,0.035460800974269825,0.05768376900218904,0.03560724736595509,0.01474655324867622,0.0008186173682836217,19.124063919996843
1639,B,185287356471680.0,19.511847,-3.393732027043068,2.803128510693526,200,1970-01-03 03:28:07.356471680,-3.7572134,0.45334512,-3.5818286,27.96207563486344,5.210726480131665,-97.23233795166016,-43.206329345703125,112.31298828125,19173967.0,49904.0,0.9737192126879999,-0.5032151696055572,0.14860938662484974,0.04460052727142033,-0.011671407006087882,0.005147426819205872,19.17396725001163
1639,B,185287406375010.0,8.994717,-3.393732027043068,2.3458360106935263,200,1970-01-03 03:28:07.406375010,-0.9683512,1.2512282,-2.9927373,21.918596536295652,3.3852256352905,-97.24005126953125,-43.3626594543457,112.25362396240234,19223870.0,49903.0,0.7112815316459999,-0.6584068093455303,0.12847438825538904,0.0420432960722498,-0.02898421080779806,0.006913655808924279,19.22387057999731
1639,B,185287456278340.0,-1.3051392,-0.7481390270430666,2.8198879106935264,200,1970-01-03 03:28:07.456278340,-2.780366,1.2980998,-2.7828803,17.450017505811847,4.142453493866181,-97.33482360839844,-43.508914947509766,112.18927001953125,19273773.0,49903.0,0.1918665004767,-0.5923952956060302,0.12889256042448904,0.022534898123509547,-0.031209388721698865,0.0064216914199859785,19.273773910012096
1639,B,185287506181670.0,-9.038411,2.2853149729569324,3.061702210693526,200,1970-01-03 03:28:07.506181670,-0.7936478,2.3601685,-1.3788618,17.0265073727451,2.846319033828838,-97.27157592773438,-43.59230041503906,112.03987121582031,19323677.0,49904.0,-0.25809226459039997,-0.4507035857975572,0.14675743670884972,-0.0016524652661650413,-0.026027403288782315,0.006878018728471069,19.323677239997778
1639,B,185287556093540.0,-13.010391,8.103224972956934,2.2069724106935262,200,1970-01-03 03:28:07.556093540,-1.8866091,0.85068876,0.026222017,15.568306010636682,2.069698735750857,-97.32556915283203,-43.59639358520508,111.98138427734375,19373589.0,49912.0,-0.550249902712,-0.2298811971097736,0.13148504385133528,-0.020172987127198696,-0.016984673842235346,0.006943819344859976,19.373589110007742
1639,B,185287606005410.0,-9.522039,4.897388972956934,2.5661026106935263,200,1970-01-03 03:28:07.606005410,0.6572423,-0.5309592,1.6827081,15.141047423784835,1.8829210452856326,-97.30757141113281,-43.50957489013672,112.00293731689453,19423500.0,49911.0,-0.562308056865,-0.1646909786727465,0.11911447369622458,-0.027764440160223818,-0.00984674593274068,0.006253836260158129,19.423500980017707
1639,B,185287655917280.0,0.011671733,-3.393732027043068,2.721725710693526,200,1970-01-03 03:28:07.655917280,0.208766,-1.678249,3.6704917,20.021041717423103,4.041362674708357,-97.35369873046875,-43.316837310791016,112.08526611328125,19473412.0,49912.0,-0.23734072551525198,-0.45161233725777356,0.13196304358853528,-0.019956035013081568,-0.015380465552362057,0.0062658905213584665,19.473412849998567
1639,B,185287705829150.0,19.511847,-3.393732027043068,-1.5279822893064736,200,1970-01-03 03:28:07.705829150,0.21941864,-1.5770489,5.6689277,27.983391009774746,5.888290842035399,-97.3633804321289,-43.047977447509766,112.12991333007812,19523324.0,49912.0,0.487228933500748,-0.6585255529337737,0.02979106082413528,0.006236210118486038,-0.02770460118762025,0.004036735429722606,19.52332472000853
1639,B,185287755741020.0,19.511847,-3.393732027043068,-3.883876989306474,200,1970-01-03 03:28:07.755741020,1.5360855,-0.86225647,5.9703975,28.274948439367257,6.2248446720679995,-97.43354797363281,-42.76466751098633,112.23340606689453,19573236.0,49912.0,0.973875307464,-0.6585255529337737,-0.1350583601570647,0.03646331743751625,-0.032868327398030514,-0.0026270507221525866,19.573236590018496
1639,B,185287805652890.0,12.325051,12.288289372956934,-2.7897266893064736,200,1970-01-03 03:28:07.805652890,-0.12040071,-0.9986103,4.803933,13.514024572864166,4.908104637303854,-97.45649719238281,-42.52002716064453,112.25839233398438,19623148.0,49912.0,0.794521626488,-0.2671650268753736,-0.1665464534034647,0.04413211388370611,-0.02310153410971708,-0.00752684972721657,19.623148459999356
1639,B,185287855564760.0,6.2916627,28.980663972956933,-0.9174608893064738,200,1970-01-03 03:28:07.855564760,1.367774,-2.3120813,2.224928,14.050196183008287,3.4880983727626846,-97.4797592163086,-42.39469528198242,112.3941650390625,19673060.0,49912.0,0.4645987070971999,0.5407703997006265,-0.09251657321186471,0.03142260704495225,0.00682809568422701,-0.006465176892212161,19.67306033000932
1639,B,185287905476630.0,4.4936175,33.390782972956934,-0.508052289306474,200,1970-01-03 03:28:07.905476630,1.19094,-2.076658,-0.0632602,17.494069202139745,2.394754347624833,-97.51456451416016,-42.384281158447266,112.53411865234375,19722972.0,49912.0,0.26915745267119995,1.0674042299822264,-0.035575106885464725,0.018311618723180188,0.04013360605836528,-0.0031966559685089532,19.722972200019285
1639,B,185287955388500.0,12.107179,26.306339972956934,-0.8863362893064738,200,1970-01-03 03:28:07.955388500,0.012757607,-1.1701179,-2.4782147,15.648428957836567,2.7405997073145993,-97.58184051513672,-42.499427795410156,112.63475799560547,19772884.0,49912.0,0.414289477454,1.0006638002382264,-0.034798361367864725,0.01705610158820449,0.05161070576218162,-0.0017562402737300897,19.772884070000146
1639,B,185288005300370.0,14.5923605,18.807700672956933,-1.4729156893064737,200,1970-01-03 03:28:08.005300370,-1.9175016,-0.66092145,-3.7842288,14.938805285462607,4.293485432585292,-97.73100280761719,-42.68254852294922,112.71349334716797,19822795.0,49911.0,0.66630035799225,0.6367156413391034,-0.05887631275227541,0.02696665963847889,0.04086162265428306,-0.002337698330005157,19.82279594001011
1639,B,185288055212240.0,19.511847,-3.393732027043068,3.5692730106935264,200,1970-01-03 03:28:08.055212240,0.6391331,0.3287092,-3.9717155,28.02805670941471,4.036219130649438,-97.70864868164062,-42.88153839111328,112.7276382446289,19872707.0,49912.0,0.85110460237,-0.10446659847257361,0.05231669331253529,0.03786835819080031,0.013282807113777119,-0.00016370186273815447,19.872707810020074
1639,B,185288105124110.0,19.511847,-3.393732027043068,3.090432710693526,200,1970-01-03 03:28:08.105124110,-4.173732,0.78464234,-3.6148517,27.98437884699082,5.576993385556197,-97.90401458740234,-43.065948486328125,112.70808410644531,19922619.0,49912.0,0.973875307464,-0.6585255529337737,0.16619961598293526,0.045544198629817303,-0.019041232130496803,0.005453293014777763,19.922619680000935
1639,B,185288155035980.0,8.520664,-3.393732027043068,3.1000094106935263,200,1970-01-03 03:28:08.155035980,-0.02985297,1.6581591,-4.0452185,21.795858244909358,4.371976156553565,-97.85447692871094,-43.27766036987305,112.63349151611328,19972531.0,49912.0,0.699579344516,-0.6585255529337737,0.15448867358133528,0.04176273429481288,-0.032868327398030514,0.008003096954365935,19.9725315500109
1639,B,185288204947850.0,-0.23971945,-2.0769190270430684,1.8598131106935263,200,1970-01-03 03:28:08.204947850,-2.0155058,2.0331323,-3.6979425,18.642499533568344,4.676608740577213,-97.88399505615234,-43.47472381591797,112.5297622680664,20022443.0,49912.0,0.20665925218979997,-0.6256631677057737,0.12377733084373528,0.022616090419389945,-0.032048213712280546,0.00694440640643206,20.02244341999176
1639,B,185288254859720.0,-10.994473,0.6285269729569336,0.29400516069352617,200,1970-01-03 03:28:08.254859720,-1.9803522,3.0504599,-1.9189508,19.34024663535082,4.112112913135228,-97.85195922851562,-43.59064865112305,112.33948516845703,20072355.0,49912.0,-0.2803605067822,-0.5252836721017736,0.05375068878073528,-0.0018392885096079345,-0.02872302933423715,0.004430389257748287,20.072355290001724
1639,B,185288304771590.0,-17.011103,2.792885972956933,-1.5207995893064736,200,1970-01-03 03:28:08.304771590,-0.84478027,0.6216569,0.15085796,21.98693573293874,1.0596551939165137,-97.86390686035156,-43.587425231933594,112.29554748535156,20122267.0,49912.0,-0.698907154656,-0.40375281852177364,-0.030615881760464717,-0.024438603758851714,-0.023185034660001245,0.0005773522439978722,20.12226716001169
1639,B,185288354683460.0,-8.121431,-1.4400640270430678,3.313093410693526,200,1970-01-03 03:28:08.354683460,0.23539788,-1.3096675,2.35489,19.884918852386342,2.704837894322827,-97.89840698242188,-43.46181106567383,112.36274719238281,20172179.0,49912.0,-0.6272075185039999,-0.45537657551777355,0.04472848460653528,-0.033094517783380954,-0.02144043315765094,0.00035219411662653694,20.17217902999255
1639,B,185288404595330.0,3.871125,-3.393732027043068,2.6618706106935264,200,1970-01-03 03:28:08.404595330,1.383753,-1.8444302,4.911525,20.386224574248878,5.42584306382944,-97.88360595703125,-43.205902099609375,112.44198608398438,20222090.0,49911.0,-0.10606851138299997,-0.6097575974277466,0.14910821463572457,-0.018299269963845025,-0.026580955852941925,0.0048372917479402155,20.222090900002513
1639,B,185288454507200.0,19.511847,-3.393732027043068,-0.8528173893064738,200,1970-01-03 03:28:08.454507200,0.22687575,-0.8036669,6.4242,27.93592509199433,6.478248122146424,-97.78987884521484,-42.91069793701172,112.38265991210938,20272002.0,49912.0,0.5835454492319999,-0.6585255529337737,0.04514673219293529,0.011915914460959642,-0.031651274300422104,0.004847826453056035,20.272002770012477
1639,B,185288504419070.0,19.511847,-3.393732027043068,-2.4449615893064736,200,1970-01-03 03:28:08.504419070,1.1057189,-0.60233194,6.08225,28.073742843396918,6.211214302715804,-97.75817108154297,-42.63347625732422,112.39043426513672,20321914.0,49912.0,0.973875307464,-0.6585255529337737,-0.0822993721902647,0.03886699240410537,-0.032868327398030514,-0.0009271812837733528,20.321914639993338
1639,B,185288554330940.0,11.094432,19.140494972956933,-3.996404289306474,200,1970-01-03 03:28:08.554330940,0.5645646,-0.7280331,3.8515866,12.35543804203299,3.9602379624927,-97.73921966552734,-42.437744140625,112.40414428710938,20371826.0,49912.0,0.763810298724,-0.09616138392177362,-0.1607507268666647,0.043365681988027725,-0.018833967196167038,-0.00606555827206473,20.371826510003302
1639,B,185288604249300.0,7.6755114,35.832270972956934,-1.9110545893064739,200,1970-01-03 03:28:08.604249300,1.4519298,-2.4058247,1.0105263,20.943073278624667,2.9861774954362343,-97.76924896240234,-42.37145233154297,112.55634307861328,20421744.0,49918.0,0.46847901732059993,0.8828688652440642,-0.14744426615130055,0.03075670903915717,0.01963543202632305,-0.007692238830735395,20.421744869992835
1639,B,185288654167660.0,10.407295,35.832270972956934,-1.6045968893064737,200,1970-01-03 03:28:08.654167660,0.23007154,-2.350431,-2.7232254,22.05579464666428,3.6046380370966693,-97.88113403320312,-42.4903564453125,112.73920440673828,20471663.0,49919.0,0.45133780634079995,1.2995049346990373,-0.08774890308043987,0.02295816801017671,0.054470958859679834,-0.005870303907439625,20.471663230011472
1639,B,185288704086020.0,16.423923,24.091703672956932,-2.4449615893064736,200,1970-01-03 03:28:08.704086020,-2.1124449,-1.5195246,-5.078525,18.36456079844966,5.706381922125978,-98.08840942382812,-42.73126983642578,112.88936614990234,20521581.0,49918.0,0.669680370062,1.006446083187364,-0.10107293006770056,0.027979492664837482,0.05755423145542668,-0.004712804133544437,20.521581590001006
1639,B,185288754004380.0,18.138172,14.785441972956933,-1.535164789306474,200,1970-01-03 03:28:08.754004380,-1.0162878,-0.348799,-5.811427,18.367997382446603,5.90992262311097,-98.1934585571289,-43.01643753051758,112.96907043457031,20571499.0,49918.0,0.862635329105,0.4811382781763641,-0.09933997428380055,0.03824506753550915,0.03712861807527729,-0.005002105679709116,20.571499950019643
1639,B,185288803922740.0,19.511847,-3.393732027043068,-0.6660697893064739,200,1970-01-03 03:28:08.803922740,-0.97687304,0.3606671,-5.524871,27.925664072667068,5.622149167350708,-98.16301727294922,-43.32684326171875,112.93064880371094,20621418.0,49919.0,0.9397256492305,-0.2048748156049629,-0.054941714464889865,0.04498602883876491,0.006895397894050888,-0.0038507938103229384,20.621418310009176
1639,B,185288853841100.0,19.511847,-3.393732027043068,1.2516858606935262,200,1970-01-03 03:28:08.853841100,-4.7851934,1.4280621,-2.6316128,27.892514080995063,5.644716393760081,-98.1196517944336,-43.50344467163086,112.6988525390625,20671336.0,49918.0,0.973992378546,-0.6586047153259359,0.014616391525749438,0.047764488255273664,-0.021551585612504302,-0.001006479735238006,20.67133666999871
1639,B,185288903759460.0,4.3403883,-3.393732027043068,1.9627638106935263,200,1970-01-03 03:28:08.903759460,-0.8863256,1.516479,-3.0097816,20.427979624919022,3.484833842000924,-98.11274719238281,-43.663124084472656,112.62455749511719,20721255.0,49919.0,0.59533986697035,-0.6586179090579629,0.08023105657298514,0.039169748181965336,-0.03287721809330992,0.0023673448808203654,20.721255030017346
1639,B,185288953677820.0,-3.0648775,-0.992348027043068,0.9931120606935262,200,1970-01-03 03:28:08.953677820,-1.7875392,1.2277924,-1.6004368,17.792129522274216,2.6952121474623554,-98.15485382080078,-43.75101852416992,112.55614471435547,20771173.0,49918.0,0.03183547405719999,-0.5986685720699358,0.07377570587394944,0.01565366933670662,-0.03138061328247122,0.0038438547839130394,20.77117339000688
1639,B,185289003596180.0,-15.600918,5.220605972956934,3.111980710693526,200,1970-01-03 03:28:09.003596180,-0.92254454,1.6485718,0.34580135,19.411518860842136,1.9205353372695007,-98.12052917480469,-43.745574951171875,112.43980407714844,20821091.0,49918.0,-0.4658795898845,-0.38366330992793585,0.10245901048104944,-0.01083330708693358,-0.02451802144278488,0.0043986422855044165,20.821091749996413
1639,B,185289053514540.0,-11.233893,5.9077419729569325,3.1071923106935264,200,1970-01-03 03:28:09.053514540,0.10543561,-0.30938423,1.38763,15.637231490678163,1.425605936620904,-98.12051391601562,-43.67469787597656,112.4474105834961,20871010.0,49919.0,-0.6697834651545,-0.2114481994439629,0.15522744902731014,-0.02834558202224592,-0.014853685718167906,0.0064317251860989,20.87101011001505
1639,B,185289103432900.0,-3.5916018,0.33164597295693454,4.699336310693526,200,1970-01-03 03:28:09.103432900,0.7222237,-1.2542738,2.882196,17.05181938328341,3.2251920284882467,-98.12415313720703,-43.5231819152832,112.50504302978516,20920928.0,49918.0,-0.37002952471319994,-0.3334675162579358,0.1948431478611994,-0.02595269241410792,-0.013600551348203689,0.00873741202774031,20.920928470004583
1639,B,185289153351260.0,7.6300216,-3.393732027043068,0.6914426506935262,200,1970-01-03 03:28:09.153351260,1.1483295,-1.2372296,5.081967,21.33723081932096,5.354977713564773,-98.09075164794922,-43.26289749145508,112.54000854492188,20970846.0,49918.0,0.10079491978819999,-0.5656230058239358,0.1345484520972594,-0.006719826504323074,-0.02244040034064143,0.008221284943363173,20.970846829994116
1639,B,185289203269620.0,19.511847,-3.393732027043068,-2.183993589306474,200,1970-01-03 03:28:09.203269620,1.5584563,-0.53308976,6.157884,28.04500673111859,6.3743631908358145,-98.00593566894531,-42.97489547729492,112.52310180664062,21020765.0,49919.0,0.6774474693217,-0.6586179090579629,-0.03725332515230987,0.019424540910988546,-0.03055644111499475,0.002428437720982468,21.020765190012753
1639,B,185289253187980.0,19.511847,1.3228459729569337,-4.152027289306473,200,1970-01-03 03:28:09.253187980,-0.30895224,0.17744163,6.2686715,25.225434027761008,6.278788051333659,-97.97285461425781,-42.665733337402344,112.45171356201172,21070683.0,49918.0,0.973992378546,-0.5408836450239358,-0.15814074510930054,0.04121828716292992,-0.029938359288330108,-0.004876840599659534,21.070683550002286
1639,B,185289303106340.0,10.155905,21.972835372956933,-4.618896689306474,200,1970-01-03 03:28:09.303106340,-0.013874004,-0.96771765,4.1828837,12.721508852451636,4.293388636710425,-97.99087524414062,-42.45188522338867,112.47733306884766,21120601.0,49918.0,0.7404774221679999,0.09224051071266415,-0.21891349158220053,0.04279145175602072,-0.01119768398927503,-0.009410896693583174,21.12060190999182
1639,B,185289353024700.0,6.356306,35.832270972956934,-0.9725274893064738,200,1970-01-03 03:28:09.353024700,1.6809617,-2.597572,1.0190485,20.394606693612207,3.2575254991178717,-98.01787567138672,-42.38335418701172,112.64195251464844,21170520.0,49919.0,0.4121365304545,0.953580351840837,-0.13955915178608985,0.028768667950481285,0.02610316581890411,-0.008947297942150843,21.170520270010456
1639,B,185289402943060.0,11.367371,34.10904297295693,0.6698948306935262,200,1970-01-03 03:28:09.402943060,0.31209692,-2.2982328,-2.1703532,20.93237816871526,3.176430623076721,-98.12019348144531,-42.47467041015625,112.81673431396484,21220438.0,49918.0,0.44236525424300005,1.256468854776064,-0.007553408526320559,0.0213275100442649,0.05516061814795123,-0.003671782392837451,21.22043862999999
1639,B,185289452861420.0,14.376882,24.728560972956934,-0.4505915893064739,200,1970-01-03 03:28:09.452861420,-1.4754168,-1.0934188,-4.4968905,16.5943801820973,4.857411200928529,-98.27314758300781,-42.68941879272461,112.93375396728516,21270356.0,49918.0,0.6425508106269999,0.979331356886064,0.005473589601779437,0.02707842006309033,0.055803337482875054,-5.1910200537621864e-05,21.270356990018627
1639,B,185289502779780.0,19.511847,13.380045472956933,0.5477905506935261,200,1970-01-03 03:28:09.502779780,-1.3656945,0.015521435,-5.182921,19.766173882581167,5.359853773613205,-98.37547302246094,-42.94594955444336,112.98385620117188,21320275.0,49919.0,0.8458457314754999,0.4619655625867871,0.0024260374767401294,0.037149633492607345,0.03597405046158263,0.00019717074206630913,21.32027535000816
1639,B,185289552698140.0,19.511847,-3.393732027043068,1.1966192106935263,200,1970-01-03 03:28:09.552698140,-1.6991223,1.0552195,-4.8793206,27.89162780311824,5.273355127537107,-98.21101379394531,-43.24067687988281,112.8014144897461,21370193.0,49918.0,0.973992378546,-0.23994800270343586,0.04353872323445944,0.04542133938802661,0.005541336277128564,0.00114723446259083,21.370193709997693
1639,B,185289602616500.0,16.21084,-3.393732027043068,0.0019125106935261593,200,1970-01-03 03:28:09.602616500,-3.2096672,1.9148879,-2.7605097,25.699076558061556,4.646415070580365,-98.14158630371094,-43.29182815551758,112.58921813964844,21420112.0,49919.0,0.8916204061765,-0.6586179090579629,0.02991475249996013,0.04656476230028123,-0.022427755874608633,0.0018333620275932452,21.42011207001633
1639,B,185289652538080.0,0.50966567,-1.7728580270430676,0.7656629036935262,200,1970-01-03 03:28:09.652538080,-1.8077793,1.8658857,-2.9075162,18.31241531044362,3.8991339931112163,-98.1642074584961,-43.4489631652832,112.49053955078125,21470033.0,49921.0,0.41735218177603506,-0.618186471045017,0.01915906613080802,0.03267261028158925,-0.03186967572956043,0.0012249070499332885,21.470033649995457
1639,B,185289702459660.0,-6.304232,2.503186972956934,-1.8823242893064736,200,1970-01-03 03:28:09.702459660,-0.94065404,1.9468459,-1.843317,15.60853985775082,2.841277273305816,-98.13218688964844,-43.55398178100586,112.37569427490234,21519955.0,49922.0,-0.14463817016313002,-0.471005859181044,-0.027872984846284782,0.006807214443869723,-0.027187329754772706,-0.00021750812505701546,21.51995523000369
1639,B,185289752381240.0,-14.123695,5.383411972956933,-0.8959130893064738,200,1970-01-03 03:28:09.752381240,-1.6607728,1.6070265,-0.09734866,18.07132551138333,2.3130450117811985,-98.1402359008789,-43.5701789855957,112.26687622070312,21569876.0,49921.0,-0.5098912718835,-0.29237234701051695,-0.06934619408886848,-0.01633738213820491,-0.019054301715644456,-0.002426639315810893,21.56987681001192
1639,B,185289802302820.0,-12.914623,5.170327972956933,-0.24947858930647382,200,1970-01-03 03:28:09.802302820,0.4079707,-0.12509347,1.4611332,17.231819437777688,1.5221690761664326,-98.11589050292969,-43.49696731567383,112.26116180419922,21619798.0,49922.0,-0.674903455598,-0.225803697210044,-0.02859012168985779,-0.029573661192665725,-0.012934192239789422,-0.0024445883781527866,21.61979839002015
1639,B,185289852224400.0,-3.404854,-3.393732027043068,1.8406595106935262,200,1970-01-03 03:28:09.852224400,0.2705516,-1.9743925,3.6641,20.243056033731595,4.1709774300898355,-98.17024993896484,-43.301631927490234,112.35995483398438,21669719.0,49921.0,-0.4073423056585,-0.444881076892017,0.03971667138828152,-0.027013395323842868,-0.016740627303974492,0.00027772424374750555,21.669719969999278
1639,B,185289902145980.0,13.050494,-3.393732027043068,-2.133715289306474,200,1970-01-03 03:28:09.902145980,0.6753521,-2.1885107,6.133383,23.996470163532592,6.547065492850816,-98.19706726074219,-42.98250198364258,112.44855499267578,21719641.0,49922.0,0.24076482004000002,-0.6586574902540441,-0.007314965289957788,-0.004157940618523378,-0.027545426174532834,0.0008087789859202588,21.71964155000751
1639,B,185289952067560.0,19.511847,-3.393732027043068,-4.966056289306474,200,1970-01-03 03:28:09.952067560,2.850622,-1.4982194,6.0545535,28.473282574797626,6.857720119819896,-98.27801513671875,-42.685672760009766,112.62344360351562,21769563.0,49922.0,0.8127885937010001,-0.6586574902540441,-0.1772173983737578,0.026297746760389103,-0.03288149922846239,-0.004606112329410005,21.76956313001574
1639,B,185290001989140.0,16.591518,9.879722372956934,-3.311662289306474,200,1970-01-03 03:28:10.001989140,0.25350738,-0.8856923,5.3621316,18.336852739275024,5.440695924025925,-98.2701416015625,-42.413978576660156,112.63054656982422,21819484.0,49921.0,0.9011580420824999,-0.327332237970817,-0.20661599458146848,0.04278096500247405,-0.024610796611356647,-0.009580673404858926,21.819484709994867
1639,B,185290051910720.0,10.105626,25.951998972956932,-1.099420189306474,200,1970-01-03 03:28:10.051910720,0.7499206,-2.1459,2.6265326,13.941510776310723,3.4736063702105224,-98.31214904785156,-42.26856231689453,112.74857330322266,21869406.0,49922.0,0.666387411384,0.405159996515356,-0.1101050297486578,0.039127502063977304,0.001942658681030238,-0.007905673488304283,21.8694062900031
1639,B,185290101832300.0,6.7034655,32.82814597295693,-1.7817675893064737,200,1970-01-03 03:28:10.101832300,1.6841575,-1.8497566,-0.23157197,17.8051701946701,2.512292089176633,-98.31263732910156,-42.26664733886719,112.87450408935547,21919327.0,49921.0,0.41956332838575,0.977956007922483,-0.07191588754806848,0.027105873440022847,0.034523267028770684,-0.004543333106184936,21.91932787001133
1639,B,185290151753880.0,11.013028,27.290356972956936,0.23893851069352612,200,1970-01-03 03:28:10.151753880,-0.36647654,-1.3139286,-2.3365345,15.404763258574325,2.705569605454382,-98.40560913085938,-42.37267303466797,112.98538208007812,21969249.0,49922.0,0.4422213942535,1.0113823520329561,-0.038510556631257783,0.02151100846179832,0.04965587480284772,-0.002756354473160163,21.96924945001956
1639,B,185290201675460.0,13.127109,20.653629972956935,-0.6995884893064738,200,1970-01-03 03:28:10.201675460,-0.99817836,-0.554395,-4.065459,13.837635016286464,4.222756295961003,-98.50798034667969,-42.56966018676758,113.06307220458984,22019171.0,49922.0,0.6025619596570001,0.707494258156956,-0.011498284116157786,0.026078837296959992,0.0429048790669504,-0.0012482706738962401,22.019171029998688
1639,B,185290251597040.0,19.511847,3.6476149729569336,4.701730510693526,200,1970-01-03 03:28:10.251597040,-0.4271966,0.5406968,-3.6105907,23.70967650132767,3.675760488321878,-98.52934265136719,-42.7522087097168,113.06307220458984,22069092.0,49921.0,0.814684661238,0.11734542447248308,0.09989546592483152,0.03537518428084965,0.020588410898272114,0.0022064378565354007,22.06909261000692
1639,B,185290301518620.0,19.511847,-3.393732027043068,2.2309143106935263,200,1970-01-03 03:28:10.301518620,-2.6014013,1.1958344,-3.8065994,27.926409174216136,4.763140521540952,-98.32266235351562,-43.00524139404297,112.81145477294922,22119014.0,49922.0,0.974070425934,-0.48289842778704406,0.17304574738664222,0.044649115730900295,-0.009124568515734757,0.006812885625467696,22.11901419001515
1639,B,185290351440200.0,7.062596,-3.393732027043068,2.432027310693526,200,1970-01-03 03:28:10.351440200,-2.4362853,1.8371236,-3.1440048,21.205621303889657,4.38124130436753,-98.38082122802734,-43.17411422729492,112.7182846069336,22168935.0,49921.0,0.6633113845015,-0.6586442965220171,0.11638935434063151,0.040869868679375296,-0.028493477170116317,0.007224444856663616,22.168935769994278
1639,B,185290401361780.0,-2.9355905,-1.5813200270430663,2.4607577106935263,200,1970-01-03 03:28:10.401361780,-1.9292195,1.790252,-3.103525,18.427363474680128,4.069245326631125,-98.415283203125,-43.34070587158203,112.6278076171875,22218857.0,49922.0,0.10301418428550001,-0.6134178743220441,0.1221288069188422,0.019128252522492308,-0.03175194384643861,0.0059536518231977234,22.21885735000251
1639,B,185290451283360.0,-10.721535,6.247718972956934,2.329076710693526,200,1970-01-03 03:28:10.451283360,-0.23971006,2.3612337,-2.0329342,14.937926234432878,3.1250131136381705,-98.33080291748047,-43.45845413208008,112.48741149902344,22268778.0,49921.0,-0.34088868104275,-0.37275014911051696,0.11955666207503152,-0.005937466376309338,-0.02461524694888844,0.006032590148821585,22.26877893001074
1639,B,185290501204940.0,-11.650485,6.654732972956934,1.2564742606935262,200,1970-01-03 03:28:10.501204940,-0.8831298,0.45441037,-0.32211944,15.281848640440158,1.0441110868281642,-98.35588073730469,-43.47769546508789,112.45966339111328,22318700.0,49922.0,-0.55842799122,-0.167177496978044,0.08949893779679222,-0.0224478434563505,-0.01347713397401657,0.005218236828400592,22.31870051001897
1639,B,185290551126520.0,-7.7311764,3.242994972956934,3.145499510693526,200,1970-01-03 03:28:10.551126520,1.0077146,-0.5448077,1.5239838,15.556321114343486,1.9065232145701478,-98.320556640625,-43.39834976196289,112.48157501220703,22368622.0,49922.0,-0.4837856502054,-0.242178412742044,0.1098776673075922,-0.02601469470361941,-0.010217932862523116,0.00497663944001054,22.368622089998098
1639,B,185290601048100.0,-1.5206174,-3.393732027043068,2.218943410693526,200,1970-01-03 03:28:10.601048100,0.7019837,-1.4225855,3.728016,20.036210348362424,4.051497737396868,-98.32633972167969,-43.203609466552734,112.54119873046875,22418543.0,49921.0,-0.2309293991449,-0.49298827223851704,0.13389917753928152,-0.01783964498930816,-0.018350128040457294,0.006084791935800392,22.41854367000633
1639,B,185290650975430.0,15.976209,-3.393732027043068,-1.743460389306474,200,1970-01-03 03:28:10.650975430,0.31742322,-1.19888,5.5070076,25.663909906299743,5.644927232609197,-98.29866027832031,-42.805179595947266,112.54735565185547,22468471.0,49928.0,0.36086938870240004,-0.6587366526462064,0.011869958145906372,0.0032438218993134315,-0.028751661024822236,0.0036389807032450308,22.468471000000136
1639,B,185290700902760.0,19.511847,-3.393732027043068,-2.933378689306474,200,1970-01-03 03:28:10.700902760,2.222116,-0.36477795,5.806347,28.13395086477327,6.22772253353272,-98.22071075439453,-42.54344177246094,112.5525131225586,22518398.0,49927.0,0.885906085956,-0.6587234589141793,-0.11675027233895434,0.03112387956163497,-0.032888415494937685,-0.002618179723358153,22.518398329993943
1639,B,185290750830090.0,13.989021,11.117524972956932,-2.3898949893064736,200,1970-01-03 03:28:10.750830090,-0.12572677,-0.119767144,4.789019,15.33076378044098,4.792165937427203,-98.2011489868164,-42.30558395385742,112.51420593261719,22568325.0,49927.0,0.836298918318,-0.2964716947946793,-0.1328875424760543,0.042992264624194,-0.02384501421961109,-0.006231833590134468,22.568325660016853
1639,B,185290800757420.0,6.5957265,26.84742997295693,-0.9102782893064739,200,1970-01-03 03:28:10.800757420,0.35790327,-1.6047457,2.4496987,12.358930554950426,2.9503096842750036,-98.23945617675781,-42.17288589477539,112.59782409667969,22618252.0,49927.0,0.5138673442162499,0.4584535527923207,-0.08238387564065432,0.033704875494773745,0.0040436341121241216,-0.005373928046156456,22.61825299001066
1639,B,185290850684750.0,6.5382657,31.305433972956934,0.018672010693526198,200,1970-01-03 03:28:10.850684750,1.8545998,-2.0468304,-0.038759112,16.172879901464945,2.7623463528832204,-98.23871612548828,-42.160133361816406,112.7348403930664,22668180.0,49928.0,0.3278769812808,0.9624336955457938,-0.022258059139293625,0.021013305341708356,0.035471029267512694,-0.0026122812598466205,22.668180320004467
1639,B,185290900612080.0,13.431172,27.63512197295693,0.6196166006935262,200,1970-01-03 03:28:10.900612080,0.13739355,-1.3650613,-2.1863322,17.4266944980071,2.5811466113136876,-98.30738067626953,-42.25849151611328,112.8472671508789,22718107.0,49927.0,0.49850705802395,0.9820779683558207,0.015933917750360682,0.020629437965184128,0.04854181692180795,-0.00015787270356262752,22.718107649998274
1639,B,185290950539410.0,14.824597,16.973742272956933,0.2580921706935262,200,1970-01-03 03:28:10.950539410,-1.1718165,-0.7546647,-3.6244392,14.840176783861665,3.8831987115772195,-98.42402648925781,-42.43230056762695,112.93345642089844,22768034.0,49927.0,0.7053628894315,0.6243087826028708,0.021910682914520682,0.03005280743330413,0.040101035657557293,0.0009447336886977659,22.76803497999208
1639,B,185291000466740.0,19.511847,-3.393732027043068,2.254856310693526,200,1970-01-03 03:28:11.000466740,-0.638119,0.56626314,-3.0939374,27.92766739467608,3.2094078016049035,-98.14543914794922,-42.653099060058594,112.71961975097656,22817962.0,49928.0,0.857174988016,-0.1502830242210063,0.06273324588934638,0.03900719557259939,0.011833579032244865,0.002113051038659737,22.81796231001499
1639,B,185291050394070.0,19.222746,-3.393732027043068,2.5756794106935263,200,1970-01-03 03:28:11.050394070,-3.8221943,0.5449579,-3.7053993,27.74542690908001,5.351273899938723,-98.01170349121094,-42.888980865478516,112.498779296875,22867889.0,49927.0,0.9669510123555001,-0.6587234589141793,0.12058707848084568,0.04553656941027394,-0.020195633341745203,0.00457631691741529,22.867889640008798
1639,B,185291100321400.0,6.069002,-3.393732027043068,3.8853077106935263,200,1970-01-03 03:28:11.100321400,-1.4636989,1.1127439,-3.824709,21.060827992125027,4.243702674732223,-98.05846405029297,-43.086116790771484,112.46002960205078,22917816.0,49927.0,0.631370551198,-0.6587234589141793,0.1612888520047457,0.0398997003517678,-0.032888086133208226,0.0070366097906770595,22.917816970002605
1639,B,185291150248730.0,-5.4734445,-0.9468580270430671,4.067266910693526,200,1970-01-03 03:28:11.150248730,-1.4210883,2.0831997,-3.272902,18.609745578160954,4.131718824905803,-98.05428314208984,-43.26274871826172,112.35005950927734,22967744.0,49928.0,0.01486749743,-0.5976528901102063,0.19852807284830637,0.016132686645949395,-0.03136417917704476,0.008982469712031592,22.96774429999641
1639,B,185291200176060.0,-13.063064,4.121667972956933,3.267603710693526,200,1970-01-03 03:28:11.200176060,-1.1675553,2.7884047,-1.7240075,18.19019797213436,3.48002701276821,-97.99384307861328,-43.3675651550293,112.17686462402344,23017671.0,49927.0,-0.46273612993975,-0.4100302319151793,0.18310404275699568,-0.011180368607657145,-0.02515529761668071,0.009526873317912958,23.017671630019322
1639,B,185291250103390.0,-14.193127,6.942036972956933,2.338653410693526,200,1970-01-03 03:28:11.250103390,-0.30895224,0.5098041,0.0507231,17.20073687186839,0.5982679498781776,-97.985107421875,-43.368595123291016,112.14164733886719,23067598.0,49927.0,-0.6804099240285,-0.21309580158267924,0.1399517996497457,-0.02853692651823641,-0.015555406737223791,0.008064604521920687,23.06759896001313
1639,B,185291300030720.0,-7.573159,-0.49195902704306604,4.534136310693526,200,1970-01-03 03:28:11.300030720,1.3368813,-1.0944841,2.2643425,19.008232880127824,2.848226467953128,-97.95454406738281,-43.248878479003906,112.19454956054688,23117526.0,49928.0,-0.543373563704,-0.3282746541582063,0.17157232260470637,-0.03055053098775413,-0.013514772057115465,0.0077768881879601405,23.117526290006936
1639,B,185291349958050.0,0.47854108,-3.393732027043068,1.5054712106935262,200,1970-01-03 03:28:11.349958050,0.7808133,-1.1754442,4.596206,19.94531040325241,4.807956745979162,-97.94027709960938,-43.01314926147461,112.23077392578125,23167453.0,49927.0,-0.17710649444592,-0.5862850486286793,0.1507697423601457,-0.01798570393162553,-0.022830611140520415,0.008046786138750085,23.167453620000742
1639,B,185291399885380.0,19.511847,-3.393732027043068,-0.8025391893064738,200,1970-01-03 03:28:11.399885380,1.500932,-0.828168,5.5709233,27.93304006158197,5.828708735160034,-97.78461456298828,-42.76513671875,112.17788696289062,23217380.0,49927.0,0.49903005283507995,-0.6587234589141793,0.017547643515895682,0.008036338749847795,-0.03107976987804615,0.004201791062316559,23.21738094999455
1639,B,185291449812710.0,19.045576,-3.393732027043068,-2.5407297893064738,200,1970-01-03 03:28:11.449812710,0.83620703,-0.11017977,5.2247124,27.762975099400915,5.292353110049671,-97.75641632080078,-42.51959228515625,112.16519927978516,23267308.0,49928.0,0.962547507772,-0.6587366526462064,-0.08346136678209362,0.036486822222995145,-0.032889074224993466,-0.0016454701876173652,23.26730828001746
1639,B,185291499740040.0,10.790368,15.659325522956934,-3.472074289306474,200,1970-01-03 03:28:11.499740040,-0.15342364,-0.58422244,3.4446557,11.629019017271695,3.4972142576989613,-97.76927947998047,-42.344993591308594,112.17289733886719,23317235.0,49927.0,0.744809588044,-0.18309245676475425,-0.15010063461645434,0.04262160886140272,-0.021015000972780515,-0.005830525021912652,23.317235610011267
1639,B,185291549667370.0,7.4839754,28.216912972956933,0.5190601406935261,200,1970-01-03 03:28:11.549667370,0.98960507,-2.0574832,1.2001435,13.878109896531104,2.579321564567744,-97.80517578125,-42.2716064453125,112.29972076416016,23367162.0,49927.0,0.4561915714659,0.6060198796927458,-0.07371756869889932,0.029981192445425388,0.010557748722262917,-0.005587285718462832,23.367162940005073
1639,B,185291599594700.0,7.46961,31.475421972956934,0.6124339906935261,200,1970-01-03 03:28:11.599594700,1.3283591,-1.7932975,-1.1274594,16.706695146021122,2.500323683187323,-97.8265380859375,-42.31525802612305,112.43018341064453,23417090.0,49928.0,0.3733013059256,1.0008650495897937,0.028246619495946375,0.020707460191201406,0.04011427537460932,-0.0011351367759025175,23.41709026999888
1639,B,185291649522030.0,12.013804,23.794822972956933,1.0457845106935262,200,1970-01-03 03:28:11.649522030,-0.72440535,-1.0199156,-2.9171035,14.040889674741663,3.174032730131218,-97.92711639404297,-42.452754974365234,112.52564239501953,23467017.0,49927.0,0.486374205389,0.8904541597073208,0.04139493755937568,0.021460509626702016,0.04721394708128852,0.001738497009550532,23.467017599992687
1639,B,185291699451910.0,15.415965,12.563622772956933,1.704189960693526,200,1970-01-03 03:28:11.699451910,-0.9374583,-0.27209997,-3.474237,15.945739308855494,3.608765604757656,-98.0084228515625,-42.62289047241211,112.57658386230469,23516947.0,49930.0,0.684784183085,0.41837459804673965,0.06865311267817775,0.02923796916825341,0.03267490993733012,0.0027473495741805213,23.51694748000591
1639,B,185291749381790.0,19.511847,-3.393732027043068,1.0505729106935262,200,1970-01-03 03:28:11.749381790,-0.8192139,0.47571567,-4.1325703,27.88980367796949,4.2397587309986,-97.84064483642578,-42.88314437866211,112.43880462646484,23566877.0,49930.0,0.8719728265800001,-0.2603876775282604,0.06877265508417776,0.03886443874628673,0.003944143470743834,0.0034308342921872056,23.566877360019134
1639,B,185291799311670.0,18.526033,-3.393732027043068,1.0697265306935262,200,1970-01-03 03:28:11.799311670,-3.917003,0.99662995,-3.4231043,27.209443005645888,5.296586335360209,-97.79561614990234,-43.06834411621094,112.25576782226562,23616807.0,49930.0,0.9496156742,-0.6587630401102604,0.05293327555422776,0.045475956921972704,-0.022946597665845673,0.0030383885583877943,23.616807240003254
1639,B,185291849241550.0,3.9214032,-3.393732027043068,2.432027310693526,200,1970-01-03 03:28:11.849241550,-1.7470592,1.5143485,-3.4657147,20.375856195059217,4.166130772017722,-97.83470916748047,-43.25031280517578,112.18522644042969,23666737.0,49930.0,0.5604002447330001,-0.6587630401102604,0.08742128465022776,0.037697547416162346,-0.03289203859270531,0.0035039515955042322,23.666737120016478
1639,B,185291899171430.0,-3.0912137,0.23348397295693246,1.8191117106935262,200,1970-01-03 03:28:11.899171430,-2.0261586,1.6443107,-2.842535,16.622332030674297,3.8586372693884363,-97.87751770019531,-43.402339935302734,112.0999755859375,23716667.0,49930.0,0.0207256808675,-0.5682095926702604,0.10612968566892776,0.014507808732616487,-0.030631371777365704,0.004831999974017718,23.716667000000598
1639,B,185291949101310.0,-13.632884,5.852674972956933,1.9148797106935262,200,1970-01-03 03:28:11.949101310,-1.9824827,2.3761475,-1.1498299,17.355464110557573,3.301276025492196,-97.8726806640625,-43.4755744934082,111.94876098632812,23766596.0,49929.0,-0.41750873703165003,-0.33736628499473337,0.09321722883921707,-0.009905490605609924,-0.02260724899796774,0.004976596047238582,23.76659688001382
1639,B,185291999031190.0,-12.943354,5.242153972956933,1.6970073606935263,200,1970-01-03 03:28:11.999031190,-0.08950778,0.25627118,0.35112765,17.200322686628628,0.44382112046819416,-97.86283111572266,-43.459930419921875,111.92794799804688,23816526.0,49930.0,-0.66347578167,-0.2123315953652604,0.09017076073717777,-0.026986778509386695,-0.013723207583187246,0.004578281159774698,23.81652675999794
1639,B,185292048961070.0,-7.925107,2.7378189729569335,2.1878187106935263,200,1970-01-03 03:28:12.048961070,0.1565683,-1.1818358,2.3197362,15.971688962062027,2.6081459944406813,-97.89533233642578,-43.33694076538086,111.98664093017578,23866456.0,49930.0,-0.520981128865,-0.2900939754052604,0.09698468287217778,-0.029569966771506275,-0.012543054374286051,0.004672335649707562,23.866456640011165
1639,B,185292098890950.0,2.6812067,-3.393732027043068,0.06416181069352611,200,1970-01-03 03:28:12.098890950,0.5730867,-2.0031548,4.6089897,20.11834159719042,5.058047407170679,-97.93006896972656,-43.09489440917969,112.0792236328125,23916386.0,49930.0,-0.1309139709895,-0.5056888693952604,0.05622069371642776,-0.016274561167867595,-0.019866718720445,0.0038247722265345374,23.916386519995285
1639,B,185292148820830.0,19.511847,-3.393732027043068,-1.2526490893064737,200,1970-01-03 03:28:12.148820830,2.0623264,-2.3866498,4.50992,27.96207563486344,5.503513955136028,-97.85639190673828,-42.884498596191406,112.16302490234375,23966316.0,49930.0,0.5540495856205,-0.6587630401102604,-0.02967058491057224,0.010563580619262916,-0.02907054192080533,0.0006628234663381831,23.96631640000851
1639,B,185292198750710.0,19.22514,3.312426972956933,-2.837610689306474,200,1970-01-03 03:28:12.198750710,0.82875013,-0.56185186,4.763453,23.609913066200313,4.867544429562968,-97.81068420410156,-42.64472579956055,112.15672302246094,24016246.0,49930.0,0.9670688804550001,-0.49134378067526047,-0.10211333537307225,0.037974722505574855,-0.02871241678091053,-0.003289985569881185,24.01624627999263
1639,B,185292248680590.0,8.35307,19.408645472956934,-3.7521955893064733,200,1970-01-03 03:28:12.248680590,0.33553272,-0.7280331,2.850238,9.926927324133402,2.9608226994418643,-97.80924987792969,-42.49859619140625,112.17938995361328,24066176.0,49930.0,0.68849001265,0.07791757361223967,-0.16451451374557224,0.04133102776636633,-0.010321185259328314,-0.00665636425324696,24.066176160005853
1639,B,185292298610470.0,6.66037,26.04058397295693,-0.18962358930647383,200,1970-01-03 03:28:12.298610470,1.8343598,-1.710207,0.63874906,11.648858000152456,2.5879884505839517,-97.79110717773438,-42.45534133911133,112.28836059570312,24116106.0,49930.0,0.37481052960000005,0.6453260131172396,-0.09840751579407224,0.02654529803727125,0.01805577614270145,-0.0065638484674572254,24.116106040019076
1639,B,185292348540350.0,7.419332,29.684558972956935,0.37301383069352617,200,1970-01-03 03:28:12.348540350,0.99706197,-1.5791794,-1.3255986,15.105825193824064,2.290229638644693,-97.8211441040039,-42.51028060913086,112.40664672851562,24166035.0,49929.0,0.35149272057900005,0.9018461310732667,0.004578245681107068,0.01813179748909365,0.0386243789936439,-0.002342400813735119,24.166035920003196
1639,B,185292398470230.0,10.656293,23.768486972956932,-0.050759849306473814,200,1970-01-03 03:28:12.398470230,-0.6402495,-0.6129846,-3.0832849,12.907320715301266,3.2081638543963775,-97.90044403076172,-42.65880584716797,112.47653198242188,24215965.0,49930.0,0.451257978125,0.8451412920397396,0.008045070645327763,0.020040671193145364,0.043613541018016205,0.00031514109208944556,24.21596580001642
1639,B,185292448400110.0,13.850158,12.357721572956933,0.9093150106935262,200,1970-01-03 03:28:12.448400110,-1.1036395,0.020847758,-3.3804936,14.466281549484181,3.556148443838479,-97.97624969482422,-42.82636260986328,112.50691223144531,24265895.0,49930.0,0.611803549215,0.4125767963487396,0.021433829604027763,0.0265393310300431,0.03139893207661839,0.0007359407447251607,24.26589568000054
1639,B,185292498329990.0,19.511847,-3.393732027043068,0.6172224006935262,200,1970-01-03 03:28:12.498329990,-0.19283843,0.5790463,-3.9674544,27.888892238576233,4.01412203273741,-97.80142974853516,-43.07193374633789,112.38040924072266,24315825.0,49930.0,0.8328824548249999,-0.2655280009862604,0.03811000647527776,0.036066586090858596,0.003671073176224294,0.0014865118677198624,24.315825560013764
1639,B,185292548259870.0,15.435119,-3.393732027043068,1.6275755106935261,200,1970-01-03 03:28:12.548259870,-5.028074,1.2554892,-2.6678317,25.219487352707464,5.82881696919002,-97.735595703125,-43.0916633605957,112.13154602050781,24365755.0,49930.0,0.8724510061900002,-0.6587630401102604,0.05604137985777776,0.042573649854239476,-0.023074925840974644,0.0023504893598047315,24.365755439997884
1639,B,185292598189750.0,2.1018097,-1.289229027043067,0.8135469376935262,200,1970-01-03 03:28:12.598189750,-1.0546373,1.2490976,-2.9842153,17.945241873955183,3.402652730683979,-97.74913024902344,-43.2479362487793,112.07424926757812,24415685.0,49930.0,0.4378094249955,-0.6062241227152604,0.06094262192398277,0.032710651664546016,-0.031580404519939126,0.0029205056044816517,24.415685320011107
1639,B,185292648119630.0,-3.4814684,2.699510972956933,2.259644710693526,200,1970-01-03 03:28:12.648119630,-1.6810129,0.84749293,-2.6198947,14.341359284486376,3.2261272255530296,-97.810302734375,-43.383453369140625,112.04090881347656,24465615.0,49930.0,-0.034443179445499995,-0.4541063112202604,0.07672222950198276,0.01007003832015575,-0.02647114928320028,0.0034368030158492295,24.465615199995227
1639,B,185292698054630.0,-9.086295,2.129691972956934,3.1383169106935265,200,1970-01-03 03:28:12.698054630,-1.404044,1.6475066,-0.9943013,17.192575302948242,2.382068980143365,-97.8096923828125,-43.44390106201172,111.9378662109375,24515550.0,49935.0,-0.3137856326895,-0.36878987544789554,0.13477360678198122,-0.008694402866980613,-0.02054566054063718,0.005280522292419871,24.515550200012513
1639,B,185292747989630.0,-12.174815,6.635578972956933,2.096839110693526,200,1970-01-03 03:28:12.747989630,-0.5923126,0.6940949,0.9039999,15.745507885750442,1.284452321234533,-97.80096435546875,-43.403846740722656,111.882080078125,24565485.0,49935.0,-0.530836763925,-0.2705160976578955,0.1307087579639812,-0.021088109687472528,-0.015961871883518837,0.006628430941794817,24.565485200000694
1639,B,185292797924630.0,-7.678504,1.8256279729569336,1.2684452606935261,200,1970-01-03 03:28:12.797924630,0.8596428,-1.3853012,2.6393156,16.59800024950162,3.1022623993976786,-97.80583190917969,-43.263694763183594,111.95179748535156,24615420.0,49935.0,-0.4956877421325,-0.27810781557789555,0.08402273754260622,-0.025629750604990634,-0.013697767553714614,0.005361308614060722,24.61542020001798
1639,B,185292847859630.0,3.4617164,-3.393732027043068,-2.1313212893064737,200,1970-01-03 03:28:12.847859630,1.0833484,-2.8031683,4.6686444,20.432443435722487,5.552264115436045,-97.85195922851562,-43.013336181640625,112.09850311279297,24665355.0,49935.0,-0.105282644403,-0.5285146379703956,-0.02154385724439377,-0.015004728125825097,-0.02013934610896696,0.0015599414438456196,24.66535520000616
1639,B,185292897794630.0,19.511847,-3.393732027043068,-1.7674022893064736,200,1970-01-03 03:28:12.897794630,3.639983,-1.8007544,4.3149767,28.004113432937352,5.92547184373964,-97.71150970458984,-42.816246032714844,112.17068481445312,24715290.0,49935.0,0.5735924441895,-0.6588290087703956,-0.09734138094901876,0.011692524926169437,-0.029645002500000704,-0.0029682671845940273,24.715290199994342
1639,B,185292947729630.0,19.511847,4.205463972956933,-1.8272575893064738,200,1970-01-03 03:28:12.947729630,0.6231541,-0.042002846,4.477962,23.225848113382753,4.521308322251747,-97.65464782714844,-42.59408187866211,112.13279724121094,24765225.0,49935.0,0.974324079945,-0.46909608264039565,-0.08974967051926876,0.03864760581632813,-0.02816146971979893,-0.004671195827534469,24.765225200011628
1639,B,185292997664630.0,7.565378,24.891367972956935,-2.2893382893064738,200,1970-01-03 03:28:12.997664630,0.4740171,0.1454837,2.492309,11.683231951631235,2.5411536493370686,-97.609130859375,-42.471527099609375,112.10052490234375,24815160.0,49935.0,0.6760506151875,0.23711215160960442,-0.10278110759926878,0.04120573020072069,-0.00579205879801128,-0.004807012202674586,24.81516019999981
1639,B,185293047599630.0,7.668329,29.885671972956935,0.5549731606935262,200,1970-01-03 03:28:13.047599630,2.4053416,-1.0582651,-0.02810647,15.400001007006814,2.627999849357764,-97.53704833984375,-42.4659538269043,112.17188262939453,24865095.0,49935.0,0.3803475795225,0.8782827448496047,-0.04330276134864377,0.02637562192642192,0.027848622077345304,-0.003647348997957007,24.865095200017095
1639,B,185293097534630.0,10.776003,29.124315972956936,0.7704513072935262,200,1970-01-03 03:28:13.097534630,1.0034535,-0.99647975,-2.2278776,16.573384564591542,2.6388121227939045,-97.54558563232422,-42.569847106933594,112.25875091552734,24915030.0,49935.0,0.46050885921,0.9839688740396045,0.03309253540446673,0.020994083134053692,0.04649576729461633,-0.0002549238162612402,24.915030200005276
1639,B,185293147469630.0,11.898883,20.198731972956935,-0.711559489306474,200,1970-01-03 03:28:13.147469630,-1.3614335,-0.30299264,-3.4848895,12.53935929600275,3.7536329791319063,-97.64871215820312,-42.74055480957031,112.31047821044922,24964965.0,49935.0,0.5661352162050001,0.7421101995896047,0.0014703814655917266,0.025632735952924014,0.04309587927083729,0.0008629496269531845,24.964965199993458
1639,B,185293197404630.0,17.225983,2.416995972956933,0.5597615606935261,200,1970-01-03 03:28:13.197404630,-0.6019,0.89542985,-2.5953937,22.271669746914835,2.8107199583506555,-97.50701141357422,-43.07676696777344,112.1736831665039,25014900.0,49935.0,0.727175091855,0.07529518748960445,-0.003790014782643775,0.032290725116488055,0.02040856900190015,-5.7915444843497017e-05,25.014900200010743
1639,B,185293247339630.0,17.350481,-3.393732027043068,0.14795888069352614,200,1970-01-03 03:28:13.247339630,-2.5406811,1.1372448,-3.4635842,26.42888267869634,4.4435123154452825,-97.45519256591797,-43.20842742919922,112.0268325805664,25064835.0,49935.0,0.8632878649200001,-0.5137496574303956,0.017670010120331228,0.03970988387327982,-0.010947111978246703,0.00034654878359371147,25.064835199998925
1639,B,185293297274630.0,8.25012,-3.393732027043068,1.6156045106935262,200,1970-01-03 03:28:13.297274630,-2.6898181,1.1670723,-2.4142988,21.582953006591293,3.7981597991917533,-97.55005645751953,-43.33573532104492,111.9690170288086,25114770.0,49935.0,0.6391830054675,-0.6588290087703956,0.04403176897445623,0.037512941456399905,-0.029276357848368254,0.0015405391695491057,25.11477020001621
1639,B,185293347209630.0,-1.7265188,0.132926972956934,3.214931210693526,200,1970-01-03 03:28:13.347209630,-1.5041789,1.3822557,-2.2939239,16.669663379897077,3.0716887606622696,-97.57476043701172,-43.45852279663086,111.8955078125,25164705.0,49935.0,0.16287801296100002,-0.5707771501878955,0.12060640062373124,0.020025458477613573,-0.030700191773791134,0.004110603499442746,25.16470520000439
1639,B,185293397144630.0,-5.882853,3.578183972956934,2.570891010693526,200,1970-01-03 03:28:13.397144630,-1.9238931,1.6262013,-1.4459734,14.340349214838865,2.9046057222722776,-97.603515625,-43.54092788696289,111.79754638671875,25214640.0,49935.0,-0.1899869904165,-0.39670583745789556,0.14445751631248122,-0.0006768433946201957,-0.02415563149404629,0.006617983346104884,25.214640199992573
1639,B,185293447079630.0,-12.268188,8.328279972956933,2.0489550106935264,200,1970-01-03 03:28:13.447079630,-1.2048396,1.6006349,0.16257586,14.813486198378797,2.0100003619603926,-97.58736419677734,-43.54345703125,111.68663787841797,25264575.0,49935.0,-0.4531861161675,-0.19208836143039557,0.11534600553898125,-0.01605842453863602,-0.014700719160743407,0.0064866444318263895,25.26457520000986
1639,B,185293497014630.0,-10.348039,7.756065972956932,-0.23750758930647387,200,1970-01-03 03:28:13.497014630,0.52088875,-0.40419275,1.396152,13.606346954094743,1.5440004132554905,-97.57158660888672,-43.47159194946289,111.7015609741211,25314510.0,49935.0,-0.5646706476225001,-0.08777709259539561,0.04522731349348123,-0.025413338749926826,-0.006987540723388941,0.004009114342943007,25.31451019999804
1639,B,185293546949630.0,-3.7903206,2.0889899729569326,-1.0515361893064736,200,1970-01-03 03:28:13.546949630,0.041519746,-2.6359217,2.705362,15.043852397821716,3.777405279935262,-97.6760482788086,-43.32002639770508,111.85664367675781,25364445.0,49935.0,-0.352999493313,-0.2435565656703956,-0.03218420054251876,-0.0229119292438071,-0.008272573112751142,0.0003256539226031555,25.364445200015325
1639,B,185293596884630.0,14.721647,-3.393732027043068,-5.1695630893064735,200,1970-01-03 03:28:13.596884630,1.7960103,-3.5744197,3.6129673,25.47784798990578,5.390330407342714,-97.72991943359375,-43.1170539855957,112.06644439697266,25414380.0,49935.0,0.27292789189200006,-0.5219391472353956,-0.15532529623876876,-0.0019991877084788163,-0.01911251421197534,-0.004681643360886796,25.414380200003507
1639,B,185293646819630.0,18.573917,-3.393732027043068,-3.8790882893064733,200,1970-01-03 03:28:13.646819630,2.0239768,-1.0220461,4.220168,27.63523709555831,4.790707491142352,-97.78628540039062,-42.882118225097656,112.1903076171875,25464315.0,49935.0,0.83130699417,-0.6588290087703956,-0.22592220329551874,0.02756998451775299,-0.02948082893507459,-0.009518796944622323,25.464315199991688
1639,B,185293696754630.0,11.98268,11.639460972956932,-1.3436288893064736,200,1970-01-03 03:28:13.696754630,0.05430292,-0.4808918,3.1708827,13.115474567337088,3.207600789934286,-97.78572845458984,-42.721771240234375,112.1934814453125,25514250.0,49935.0,0.7629218355975,-0.28348776254289565,-0.13039819115701876,0.039803908307220054,-0.0235272939877646,-0.008896429448493729,25.514250200008973
1639,B,185293746693700.0,5.4465094,23.861860572956935,1.3043583106935261,200,1970-01-03 03:28:13.746693700,1.383753,-1.2436211,0.95619786,9.146831671876033,2.0918126476438537,-97.76741790771484,-42.665992736816406,112.26851654052734,25564189.0,49939.0,0.43519814472329993,0.3970480483406963,-0.0009805667126759918,0.029916456848620213,0.002835543556228183,-0.003280461894627343,25.56418926999322
1639,B,185293796632770.0,4.048296,27.338240972956932,2.156694010693526,200,1970-01-03 03:28:13.796632770,1.8492734,-1.6281816,-0.93890756,11.621617696990574,2.636728055137896,-97.75518035888672,-42.701507568359375,112.38684844970703,25614128.0,49939.0,0.2370805434353,0.7890387355506964,0.086420745938874,0.01678646270397616,0.02961599395037613,0.0021333985551885513,25.614128340006573
1639,B,185293846571840.0,6.933309,22.676730972956932,1.7999580106935262,200,1970-01-03 03:28:13.846571840,0.35470748,-1.0518736,-1.7314643,9.320561952840391,2.0567508572793645,-97.79643249511719,-42.780174255371094,112.47377014160156,25664067.0,49939.0,0.2742051860475,0.7594466420034961,0.098795622648024,0.012766549022320772,0.03866490563483941,0.004624760115430549,25.664067410019925
1639,B,185293896510910.0,10.567707,14.347302972956934,1.4360394106935261,200,1970-01-03 03:28:13.896510910,-0.11507413,-0.15172508,-2.0222814,10.811475522163157,2.0312273669095298,-97.82188415527344,-42.879310607910156,112.50273895263672,25714006.0,49939.0,0.43699161901199995,0.43506941561249624,0.080801237613324,0.01775822862393318,0.029826468700642518,0.004484443802295728,25.714006480004173
1639,B,185293946449980.0,11.6858,3.451290972956933,0.41132105069352615,200,1970-01-03 03:28:13.946449980,-1.1931217,1.1968997,-0.9804529,17.54443977446975,1.953815797865651,-97.67440795898438,-42.91228485107422,112.3232192993164,25763945.0,49939.0,0.5556589430365,-0.04498020846750374,0.046127667040603997,0.02478598820907002,0.00974033245780689,0.003169351284756255,25.763945550017525
1639,B,185293996389050.0,18.047194,-3.393732027043068,0.6172224006935262,200,1970-01-03 03:28:13.996389050,-2.9380248,1.4525632,-2.4057767,26.884555942346243,4.065672282129017,-97.5867691040039,-43.02815246582031,112.12249755859375,25813884.0,49939.0,0.742417993683,-0.48796498190000376,0.025682215709409,0.032412332071417554,-0.013307374930881478,0.0017930568673264495,25.813884620001772
1639,B,185294046328120.0,6.2270193,-2.3905600270430654,1.3450597106935263,200,1970-01-03 03:28:14.046328120,-1.8248235,1.2778598,-1.198832,19.929405108066156,2.5298428091152796,-97.62623596191406,-43.09602737426758,112.04667663574219,25863823.0,49939.0,0.6061149689943499,-0.6338330804445037,0.048997203180279,0.03367219381157208,-0.028010736717711177,0.0018647077499660645,25.863823690015124
1639,B,185294096267190.0,-0.756867,4.351510972956934,3.6387050106935264,200,1970-01-03 03:28:14.096267190,-1.2815387,1.1585501,-1.951974,12.535861521351178,2.6066803161269507,-97.64867401123047,-43.20046615600586,111.98578643798828,25913762.0,49939.0,0.13658696785485,-0.4404382353560037,0.124442113210674,0.018544896012156097,-0.02682401761988077,0.004330693010623901,25.913762759999372
1639,B,185294146206260.0,-3.534141,4.696275972956933,1.8478421106935263,200,1970-01-03 03:28:14.146206260,-1.0716816,1.5846559,-1.4459734,12.399028343809515,2.3980147719918095,-97.63744354248047,-43.282657623291016,111.89118194580078,25963701.0,49939.0,-0.10714432425599998,-0.2634834838540037,0.13699633834747402,0.0007351680893414854,-0.017576573367814277,0.006527987416181177,25.963701830012724
1639,B,185294196145330.0,-11.626543,9.326661972956934,3.066490710693526,200,1970-01-03 03:28:14.196145330,-0.6093568,1.4376495,-0.2784436,13.869025650861381,1.5860903608992303,-97.60253143310547,-43.305992126464844,111.79582977294922,26013640.0,49939.0,-0.378554699138,-0.13925645095950373,0.122708433383624,-0.01212766176463648,-0.010056214802325873,0.006484698297739651,26.01364089999697
1639,B,185294246084400.0,-8.435072,7.270042972956933,0.5262427406935262,200,1970-01-03 03:28:14.246084400,0.8660344,-0.33175477,0.86351985,12.530156676713071,1.2671792851625754,-97.5693359375,-43.2609977722168,111.81057739257812,26063579.0,49939.0,-0.5009284957425,-0.07499077585300373,0.08970875791440899,-0.021960255634568642,-0.005349646129894905,0.005303951058116234,26.063579970010323
1639,B,185294296023470.0,-3.6011786,2.132085972956933,-0.9174608893064738,200,1970-01-03 03:28:14.296023470,0.54325926,-2.0095463,2.1716645,14.940030882530442,3.00824428130092,-97.62222290039062,-43.14009094238281,111.9275131225586,26113519.0,49940.0,-0.30054517748199994,-0.2546408402205308,-0.009768717170865302,-0.020012797620415763,-0.008230901453356157,0.001996102817366286,26.11351903999457
1639,B,185294345962540.0,11.33864,-3.393732027043068,-5.440108289306473,200,1970-01-03 03:28:14.345962540,2.1219811,-2.738187,2.5508988,23.753914946466256,4.302040971860642,-97.62715148925781,-42.995513916015625,112.09010314941406,26163458.0,49939.0,0.19320054242729998,-0.5209048711475037,-0.158745323605376,-0.0026803418649983305,-0.019364988640004136,-0.0042077113411623564,26.163458110007923
1639,B,185294395901610.0,14.35294,-3.393732027043068,-2.476086089306474,200,1970-01-03 03:28:14.395901610,1.6767006,-0.7930143,3.7407992,24.77157995717259,4.175377256819495,-97.60235595703125,-42.61609649658203,112.1410140991211,26213397.0,49939.0,0.64150590681,-0.6588817836985038,-0.19766341553677597,0.02084220268423076,-0.029458682878177385,-0.008899348012009964,26.21339717999217
1639,B,185294445840680.0,12.811074,9.082453572956933,-0.6804348893064739,200,1970-01-03 03:28:14.445840680,0.40903598,-0.699271,2.9386547,14.891111974416683,3.0482752189078415,-97.59586334228516,-42.465824127197266,112.16167449951172,26263336.0,49939.0,0.678271847573,-0.3473576673593038,-0.07881675057547599,0.03295419063806631,-0.02512529597318793,-0.006903571507739875,26.263336250005523
1639,B,185294495779750.0,4.5319247,20.495612972956934,0.33231241069352613,200,1970-01-03 03:28:14.495779750,0.7882701,-0.8111238,1.2576674,6.036646407953623,1.6914546575368818,-97.58561706542969,-42.39814376831055,112.20489501953125,26313275.0,49939.0,0.43304600603964993,0.24914733261819624,-0.008692444229726,0.027749051145781065,-0.002452262953318085,-0.002185060839688491,26.313275320018874
1639,B,185294545718820.0,4.302081,23.979176372956935,1.876572510693526,200,1970-01-03 03:28:14.545718820,1.0481946,-1.1008757,-0.4808441,8.67031747489756,1.5943181222154066,-97.58592987060547,-42.41469955444336,112.2830810546875,26363214.0,49939.0,0.22058070532615,0.6211110525727962,0.055154752044574,0.016320732169448342,0.021729916749026485,0.001160140594982847,26.363214390003122
1639,B,185294595657890.0,6.9620395,22.892208972956933,1.646729110693526,200,1970-01-03 03:28:14.595657890,0.2705516,-0.9474776,-1.4395821,9.469735075353302,1.7445081236281847,-97.62406921386719,-42.47978210449219,112.35963439941406,26413153.0,49939.0,0.28125945682475,0.6809528563947963,0.08797507983522398,0.012530697928826896,0.0325118847749663,0.003573880337122616,26.413153460016474
1639,B,185294645596960.0,8.058583,18.72150947295693,0.8518541646935262,200,1970-01-03 03:28:14.645596960,-0.06713723,-0.045198638,-2.011629,8.350961805552878,2.013256456135216,-97.64173126220703,-42.579166412353516,112.38078308105469,26463092.0,49939.0,0.37505743351375004,0.5496715427352462,0.062388375094777,0.016387904593307176,0.030728075934077594,0.003754500287874659,26.463092530000722
1639,B,185294695536030.0,12.825439,9.522986672956932,-1.2167360893064738,200,1970-01-03 03:28:14.695536030,-0.8458455,0.5385663,-1.9498438,14.751019730610732,2.1925781887459292,-97.67142486572266,-42.67938995361328,112.3621826171875,26513031.0,49939.0,0.521463587329,0.21584874651539618,-0.009110919216622996,0.022385681629933048,0.019114658862443915,0.0013303114345495665,26.513031600014074
1639,B,185294745475100.0,19.511847,-3.393732027043068,-1.156881089306474,200,1970-01-03 03:28:14.745475100,-3.4727876,1.2395103,-3.2068558,27.95529344525739,4.886774357437991,-97.75613403320312,-42.8867073059082,112.27259063720703,26562970.0,49939.0,0.8074458627769999,-0.3363577761188538,-0.059268034141376,0.03318220451442176,-0.0030090502146835354,-0.001707388275872556,26.56297066999832
1639,B,185294795417580.0,9.672276,-3.393732027043068,0.05697921069352618,200,1970-01-03 03:28:14.795417580,-1.9494594,0.5556105,-1.4928453,22.161272270320705,2.517475336461253,-97.83743286132812,-42.964420318603516,112.24884033203125,26612913.0,49943.0,0.7287713274945,-0.658934558626612,-0.027466199761783227,0.03836164756686476,-0.024853942537096402,-0.0021658839219127405,26.612913150020177
1639,B,185294845360060.0,0.63895255,4.887811972956934,3.1526821106935263,200,1970-01-03 03:28:14.845360060,-1.1760775,0.7995561,-1.9061679,11.902031047668723,2.378218725442189,-97.87144470214844,-43.06430435180664,112.21248626708984,26662855.0,49942.0,0.25748168812204997,-0.45212292967058487,0.08014845285635609,0.02462772405296087,-0.027744216540269304,0.001315528542024579,26.662855630012928
1639,B,185294895302540.0,-0.1678934,2.687540972956933,2.010647810693526,200,1970-01-03 03:28:14.895302540,-1.714036,1.4014305,-1.2350513,13.900943535375905,2.535207796070756,-97.90011596679688,-43.13507843017578,112.1290283203125,26712798.0,49943.0,0.011763053564224999,-0.3002734739111119,0.12893609313191678,0.0067234450670188165,-0.018788466792040343,0.005221154740146156,26.71279811000568
1639,B,185294945245020.0,-9.885958,8.400105972956933,2.082473910693526,200,1970-01-03 03:28:14.945245020,-1.2751471,1.8573636,-0.039824646,12.86764254544859,2.25330549896644,-97.87791442871094,-43.1497917175293,112.00332641601562,26762740.0,49942.0,-0.25105472330940004,-0.21256196811358488,0.10220934250475608,-0.005975352285206766,-0.012806013822798704,0.005771932673283358,26.76274058999843
1639,B,185294995187500.0,-10.448595,8.821485372956932,-0.46256258930647387,200,1970-01-03 03:28:14.995187500,0.73074585,-0.3306895,1.0201135,13.044709146305472,1.2976812380491298,-97.8501968383789,-43.097015380859375,112.01622009277344,26812683.0,49943.0,-0.5077842902395,-0.059392431705511964,0.04045161556201678,-0.01894934842683636,-0.006791109295082577,0.0035624581143644187,26.812683070020285
1639,B,185295045129980.0,-6.7926493,6.563752972956934,-1.4729156893064737,200,1970-01-03 03:28:15.045129980,0.7264848,-2.3621488,1.6518153,12.27067342914005,2.9725445166198217,-97.91258239746094,-42.99900817871094,112.16082000732422,26862625.0,49942.0,-0.4305311114153,-0.10524681326418489,-0.048330828095243916,-0.02343067389472201,-0.004111206586138299,-0.0001967518161672149,26.862625550013036
1639,B,185295095072460.0,2.9780877,-3.393732027043068,-7.913318289306474,200,1970-01-03 03:28:15.095072460,2.6077418,-3.2037077,2.1077485,21.941130644100916,4.637527796332738,-97.91629791259766,-42.872562408447266,112.35769653320312,26912568.0,49943.0,-0.0952553249944,-0.41028122194911193,-0.23438834179693324,-0.013129675996804825,-0.012873508331328842,-0.0070599217509625025,26.912568030005787
1639,B,185295145014940.0,19.511847,-3.393732027043068,-6.764101289306474,200,1970-01-03 03:28:15.145014940,2.6663313,-1.64203,3.0313327,28.88956565161441,4.35827523916847,-98.15779113769531,-42.71886444091797,112.65676879882812,26962510.0,49942.0,0.5615961593937,-0.658921364894585,-0.3665098442975439,0.011644996975784921,-0.02669905779607396,-0.015005028604965187,26.962510509998538
1639,B,185295194957420.0,16.019304,1.8423879729569332,-3.2446248893064737,200,1970-01-03 03:28:15.194957420,1.1067842,-1.3064717,3.1953833,22.103747573478987,3.62523295833377,-98.30812072753906,-42.64960861206055,112.82707977294922,27012452.0,49942.0,0.887248371621,-0.528170212374585,-0.24992790140614393,0.03617909678396807,-0.029642863775988442,-0.015393066947966789,27.01245298999129
1639,B,185295244899900.0,9.313146,12.475037372956933,-0.49847558930647395,200,1970-01-03 03:28:15.244899900,0.13206722,-0.51711076,2.230254,10.23815048495611,2.2932244096952887,-98.31022644042969,-42.5355224609375,112.8399429321289,27062395.0,49943.0,0.6325892751750001,-0.13191381297451193,-0.09347083360168322,0.03795262579696632,-0.016483288239004974,-0.008575181511247955,27.062395470013143
1639,B,185295294842380.0,6.0498486,16.605035207956934,1.1295815706935262,200,1970-01-03 03:28:15.294842380,-0.093768835,-0.7099236,0.55778867,6.060651223775879,0.9076961565604351,-98.34342956542969,-42.502784729003906,112.88212585449219,27112337.0,49942.0,0.3836293381566,0.23672689241800016,0.01575934746121608,0.025375994993503383,0.0026172874067833442,-0.0019405335204136047,27.112337950005895
1639,B,185295344784860.0,3.4042556,16.913887212956933,1.4025205406935262,200,1970-01-03 03:28:15.344784860,-0.24077533,-0.9272376,-0.24861647,3.4825168206883634,0.9897234338670726,-98.399169921875,-42.50834274291992,112.94680786132812,27162280.0,49943.0,0.2360831630303,0.3475763712338506,0.06323038787450179,0.015475150723388674,0.014590928948282194,0.001972492175935879,27.162280429998646
1639,B,185295394727340.0,4.488829,13.935500472956933,1.864601510693526,200,1970-01-03 03:28:15.394727340,0.77122587,-0.7834269,-0.18576588,5.2991035808993665,1.114924218219804,-98.39737701416016,-42.51181411743164,113.00122833251953,27212222.0,49942.0,0.1970982155466,0.28090845990495505,0.08158330474518609,0.010816972204443769,0.015693894718367116,0.003616142718406226,27.212222909991397
1639,B,185295444669820.0,3.552696,11.828602572956934,2.278798310693526,200,1970-01-03 03:28:15.444669820,-0.43358818,-0.14852929,0.46298015,6.083471145596116,0.6514677882425493,-98.42266845703125,-42.48781967163086,113.00657653808594,27262165.0,49943.0,0.2008089415375,0.1539268992110381,0.10346690863976678,0.009936338573125604,0.010858491170165022,0.00462098140354235,27.26216539001325
1639,B,185295494612300.0,7.7593083,3.930131972956934,-0.08667288930647388,200,1970-01-03 03:28:15.494612300,-0.8543676,0.4384314,0.30958208,14.824589533903751,1.0089634050315435,-98.4434585571289,-42.47572708129883,112.97410583496094,27312107.0,49942.0,0.2824720593753,-0.09592023965398486,0.05473956389745608,0.01206800987379353,0.0014484842957991767,0.003950573825726992,27.312107870006002
1639,B,185295544554780.0,5.3387704,0.5160009729569346,1.337877110693526,200,1970-01-03 03:28:15.544554780,-1.8770214,0.9838468,-0.36259976,16.89218816966573,2.1500331271588022,-98.49517822265625,-42.500892639160156,112.91173553466797,27362050.0,49943.0,0.32707867225704995,-0.3784147911411119,0.031244446214366776,0.015221396094957228,-0.01184485722149976,0.0021471497085073844,27.362050349998754
1639,B,185295594497260.0,0.16729484,3.870275972956934,1.143946770693526,200,1970-01-03 03:28:15.594497260,-0.7861907,0.9827815,-0.65341693,12.668656654665854,1.4180652234362723,-98.4943618774414,-42.54047775268555,112.85236358642578,27411992.0,49942.0,0.13749195510804,-0.3799018783835848,0.06197362414211608,0.01160079313593366,-0.0189359255547012,0.0023277484348717334,27.411992829991505
1639,B,185295644439740.0,-1.6379333,5.663532972956933,1.7424972106935261,200,1970-01-03 03:28:15.644439740,-0.85117185,1.0967648,-1.1242639,11.034129255892335,1.7864366380016596,-98.49472045898438,-42.60417175292969,112.78999328613281,27461935.0,49943.0,-0.03672404830389,-0.2513678899071119,0.07207883588120678,0.0025163257847598316,-0.015763753018871132,0.0033474910054724066,27.46193531001336
1639,B,185295694382220.0,-4.431967,8.910070972956934,0.8805845906935261,200,1970-01-03 03:28:15.694382220,-0.5997694,1.3961041,-1.1775271,8.817837509555913,1.9223423374746704,-98.4691390991211,-42.672706604003906,112.70794677734375,27511877.0,49942.0,-0.1515714803913,-0.12551413586658486,0.06550097566243608,-0.00470192764704759,-0.009411121065594982,0.0034355054740563057,27.51187779000611
1639,B,185295744324700.0,-3.2324715,8.134349972956933,1.0290250806935262,200,1970-01-03 03:28:15.744324700,-0.9598288,1.1617459,-0.69283175,9.002307891905236,1.6585960012264327,-98.46881103515625,-42.71551513671875,112.6366958618164,27561820.0,49943.0,-0.19139252600275,-0.06381664234911191,0.04768581790904178,-0.00856432568566902,-0.004727873528213272,0.0028264440156701596,27.56182026999886
1639,B,185295794267180.0,-6.4861917,7.928448472956934,-1.9014777893064738,200,1970-01-03 03:28:15.794267180,-0.063941434,0.42245245,0.6440751,11.102456054590416,0.7729083476926542,-98.4483642578125,-42.6867790222168,112.6018295288086,27611762.0,49942.0,-0.2426847387672,-0.08832746000708487,-0.021786016586773916,-0.010839343378570421,-0.0037991903799365905,0.0006467439388183508,27.611762749991613
1639,B,185295844212640.0,-4.520552,7.830285972956933,-1.2885620893064735,200,1970-01-03 03:28:15.844212640,0.29292214,-1.2180548,1.6699247,10.021103631088357,2.087608531208691,-98.47785949707031,-42.595211029052734,112.66699981689453,27661708.0,49946.0,-0.2748714104201,-0.09592792468219305,-0.07966486588860112,-0.012924929713654441,-0.004601409721845338,-0.0025335328880575405,27.661708210012875
1639,B,185295894158100.0,-1.0609306,-0.5135060270430678,-2.9381670893064737,200,1970-01-03 03:28:15.894158100,0.82235855,-1.64203,1.63051,17.47798485997146,2.455829588094032,-98.500244140625,-42.50246810913086,112.76089477539062,27711653.0,49945.0,-0.1393835742285,-0.30674271280066606,-0.10555199441291184,-0.010344982604137165,-0.0100556924945407,-0.0046253280438795326,27.711653670005035
1639,B,185295944103560.0,7.325958,-1.416121027043065,-0.7929623893064738,200,1970-01-03 03:28:15.944103560,0.4804087,-1.271318,1.2171874,19.44943480553953,1.8244415975520976,-98.52550506591797,-42.43286895751953,112.83390045166016,27761599.0,49946.0,0.15645652926019998,-0.537659376421693,-0.09317749646940114,0.0004263629060066435,-0.021087253374149975,-0.0049628715758040015,27.761599129997194
1639,B,185295994049020.0,5.408202,3.350734972956934,-1.4058780893064737,200,1970-01-03 03:28:15.994049020,-0.29616907,-0.76957846,0.5450055,14.414014849075077,0.9884321520220225,-98.57139587402344,-42.400211334228516,112.87997436523438,27811544.0,49945.0,0.3180038106,-0.44114885323566605,-0.05491054385216184,0.011848460837158844,-0.0244432885151184,-0.0036981285869302316,27.811544590018457
1639,B,185296043994480.0,1.9054853,10.231669972956933,0.7417208856935261,200,1970-01-03 03:28:16.043994480,0.11715352,-0.5469382,-0.1282416,6.5827019502501,0.5738573427587996,-98.59109497070312,-42.4024658203125,112.91787719726562,27861490.0,49946.0,0.1826447129429,-0.15027740128569303,-0.01658599784582614,0.012502695578436841,-0.014769687854161901,-0.0017854831358238537,27.861490050010616
1639,B,185296093939940.0,2.4753053,12.980213972956934,2.278798310693526,200,1970-01-03 03:28:16.093939940,1.0428683,-1.0252419,-0.97619206,4.583261234192423,1.758307761078118,-98.5919418334961,-42.44307327270508,112.99642181396484,27911435.0,49945.0,0.10939929325850001,0.090197771839334,0.07542991563177566,0.0072930689448644625,-0.0015003385463492008,0.0014694797369096246,27.911435510002775
1639,B,185296143885400.0,4.469675,15.695238572956933,2.5972272106935264,200,1970-01-03 03:28:16.143885400,1.1643084,-0.9101933,-1.600437,4.898833984005072,2.1784087046843275,-98.58586883544922,-42.5153923034668,113.0736312866211,27961380.0,49945.0,0.17343352054174999,0.22663673870283402,0.12176654733283819,0.007063042442626744,0.007912149814514291,0.0049244886713838195,27.961380969994934
1639,B,185296193830860.0,6.6316395,17.397515972956935,-0.4529857893064738,200,1970-01-03 03:28:16.193830860,-0.4666114,-0.051590223,-1.3074893,6.799669145615506,1.3892141733129706,-98.62053680419922,-42.579654693603516,113.09038543701172,28011326.0,49946.0,0.2772331270085,0.3369545592751069,0.05354814101629886,0.011254498189272393,0.014074565484403119,0.004378133712142999,28.011326430016197
1639,B,185296243776320.0,7.732972,11.888457972956934,1.833476910693526,200,1970-01-03 03:28:16.243776320,-0.5379841,0.92206144,-0.54156417,9.082152046087801,1.197044669682578,-98.60923767089844,-42.61332321166992,113.03396606445312,28061271.0,49945.0,0.35872026068375,0.2418829843643341,0.03447431452883816,0.015881345974144714,0.014455020558535942,0.0021981407711009343,28.061271890008356
1639,B,185296293721780.0,12.7057295,-0.3794310270430685,-1.8416227893064736,200,1970-01-03 03:28:16.293721780,-1.7598424,2.0416543,-0.7950971,21.31421174922358,2.8102627905544098,-98.61508178710938,-42.51767349243164,112.90843963623047,28111217.0,49946.0,0.5104156925595,-0.20205587007969308,-0.00020342702660113983,0.021704932160343682,0.0009946025250303404,0.0008558468735933651,28.111217350000516
1639,B,185296343667240.0,6.792051,-3.393732027043068,1.0984569506935262,200,1970-01-03 03:28:16.343667240,-1.8780868,1.8861258,-0.79616237,21.054443560542826,2.7782287668879784,-98.62889099121094,-42.5711669921875,112.78998565673828,28161162.0,49945.0,0.4869083235362501,-0.5836863143681661,-0.018558708904761828,0.02490567399195112,-0.019621946701124163,-0.00046853743954596174,28.161162809992675
1639,B,185296393612700.0,0.9669582,0.26221397295693194,2.1231753106935263,200,1970-01-03 03:28:16.393612700,-0.18325105,2.269621,-1.8507742,16.354598007389345,2.934301547277093,-98.54750061035156,-42.67961120605469,112.65626525878906,28211108.0,49946.0,0.19376573675159997,-0.5676742003646931,0.08045382246361886,0.016998473307568478,-0.02875292613442369,0.0015457066709053365,28.211108270013938
1639,B,185296443558160.0,-2.5094225,3.4081949729569327,-0.49368718930647393,200,1970-01-03 03:28:16.443558160,-1.6533159,2.5828087,-1.4683442,13.422135999899787,3.400057195939818,-98.52228546142578,-42.77139663696289,112.49726104736328,28261053.0,49945.0,-0.038519189731749996,-0.3978017125981661,0.04069239211133816,0.0038768943954532037,-0.024110347236465,0.0030253238434731146,28.261053730006097
1639,B,185296493503620.0,-7.2331824,10.040134272956934,-1.3532056893064737,200,1970-01-03 03:28:16.493503620,1.3017275,2.6413982,-1.1626134,9.949849920073358,3.1659356994542778,-98.34406280517578,-42.84825897216797,112.3307876586914,28310999.0,49946.0,-0.24330207216769997,-0.15362567374179303,-0.04612245585760114,-0.007037922373414963,-0.013770796119067799,-0.0001356049819354254,28.310999189998256
1639,B,185296543449080.0,-9.5052805,10.770365472956932,-1.5758664893064736,200,1970-01-03 03:28:16.543449080,-0.307887,0.7409665,-0.40734088,11.361329248748975,0.89986240693254,-98.32819366455078,-42.8737907409668,112.28480529785156,28360944.0,49945.0,-0.41800126477024996,0.03022920490483398,-0.07314625498041183,-0.016514397581682955,-0.00308151831803096,-0.002978437881402279,28.36094465001952
1639,B,185296593394540.0,-6.0336876,3.609307972956934,-2.4090485893064737,200,1970-01-03 03:28:16.593394540,0.9991925,-1.1967494,0.98176396,14.613451388817072,1.8424047469574898,-98.32654571533203,-42.81655502319336,112.3558578491211,28410890.0,49946.0,-0.3880546503613,-0.13036721503519305,-0.09951528425820112,-0.020129634368580195,-0.002500746526985457,-0.004311876619405881,28.410890110011678
1639,B,185296643340000.0,0.48572367,-3.393732027043068,-3.718676789306474,200,1970-01-03 03:28:16.643340000,0.39092648,-2.08518,3.2198844,20.43243452126593,3.855963523495593,-98.38066101074219,-42.64210891723633,112.46442413330078,28460835.0,49945.0,-0.13854652924192504,-0.48407752969066603,-0.15302462201741182,-0.01315054795764154,-0.015344221387666517,-0.006306552809467745,28.460835570003837
1639,B,185296693285460.0,10.378565,-3.393732027043068,-3.6229087893064733,200,1970-01-03 03:28:16.693285460,1.5179763,-1.8114071,3.547986,22.89348136829622,4.263056695082543,-98.3633041381836,-42.45341491699219,112.55101013183594,28510781.0,49946.0,0.27131388095591,-0.658974139822693,-0.1833414166547011,0.003315599074353347,-0.02854542934275711,-0.008400069083758675,28.510781029995997
1639,B,185296743230920.0,12.255619,-0.4704110270430668,-1.075478189306474,200,1970-01-03 03:28:16.743230920,1.1270242,-1.6345732,2.5136142,21.04098405652467,3.2031655342778524,-98.3049545288086,-42.147430419921875,112.595947265625,28560726.0,49945.0,0.56523215994,-0.5859583124181661,-0.11733046882341183,0.020890646006273113,-0.031089075663584858,-0.0075085286601021765,28.56072649001726
1639,B,185296793176380.0,4.931756,15.467789472956934,-0.7570492893064739,200,1970-01-03 03:28:16.793176380,0.2524421,-0.83455956,0.9146523,5.272916861279842,1.2636476973172124,-98.32368469238281,-42.096134185791016,112.64268493652344,28610671.0,49945.0,0.42921172218750003,-0.11493896675941599,-0.04576279245966184,0.024833749846428995,-0.01750315730426217,-0.0040728464673915575,28.61067195000942
1639,B,185296843121840.0,4.5630493,19.918610372956934,3.9643164106935265,200,1970-01-03 03:28:16.843121840,0.9342113,-1.8923671,-0.9250594,6.515952491526757,2.3042436693497628,-98.36766815185547,-42.1281623840332,112.77793884277344,28660617.0,49946.0,0.23711377275689996,0.39423376335200694,0.08009508182239887,0.0166401465852465,0.006974828955306773,0.0008573802622556319,28.660617410001578
1639,B,185296893069990.0,3.0954034,24.350277672956935,1.7520740106935262,200,1970-01-03 03:28:16.893069990,2.029303,-1.4588045,-2.2321389,8.464867713862215,3.350914099752851,-98.3462905883789,-42.22799301147461,112.89720916748047,28710565.0,49948.0,0.1912621977298,0.616080810058653,0.14276113438372026,0.010698261486934844,0.02523159615635782,0.005565611143531619,28.71056556000258
1639,B,185296943018140.0,5.97084,19.384703472956932,3.6458877106935264,200,1970-01-03 03:28:16.943018140,0.50064874,-0.5288287,-2.4558444,7.212963158391304,2.5615387312743563,-98.36128234863281,-42.34564208984375,112.95669555664062,28760513.0,49948.0,0.22642036267159998,0.6027470191380528,0.13480869602992027,0.010431204263464562,0.030439006206358532,0.006932028944750259,28.76051371000358
1639,B,185296992966290.0,9.758467,13.073587672956933,3.6243397106935262,200,1970-01-03 03:28:16.992966290,0.4836045,0.24135749,-2.495259,10.738196007968092,2.5531244050144424,-98.3427505493164,-42.4708366394043,112.9650650024414,28810461.0,49948.0,0.39282371301799995,0.3211229630780528,0.18156665962172025,0.015465001546272068,0.02307272893586502,0.00790115813204407,28.81046186000458
1639,B,185297042914440.0,19.511847,-0.8463000270430676,0.05697921069352618,200,1970-01-03 03:28:17.042914440,-1.4530462,1.1617459,-2.644396,26.139039871280474,3.2332378508729063,-98.24510955810547,-42.75859832763672,112.82166290283203,28860410.0,49949.0,0.731011456993,-0.18412980468712423,0.09193909940218094,0.028067221453439716,0.0034213356342342465,0.00683066957874242,28.86041001000558
1639,B,185297092862590.0,16.476597,-3.393732027043068,0.17668927069352613,200,1970-01-03 03:28:17.092862590,-3.055204,1.4238011,-1.4587568,25.862901592877822,3.6727989947073674,-98.1715087890625,-42.76618194580078,112.62393188476562,28910358.0,49948.0,0.898775400456,-0.5953809605187472,0.005835636654160244,0.040702296977931325,-0.019467501850251433,0.0024418262582710645,28.91035816000658
1639,B,185297142810740.0,7.2014594,2.3882649729569323,1.4312510106935261,200,1970-01-03 03:28:17.142810740,-0.843715,1.3055567,-2.1266778,15.885516951046702,2.6342155878273763,-98.16779327392578,-42.88070297241211,112.5564193725586,28960306.0,49948.0,0.5913357805336,-0.5146009342087472,0.04015670058736024,0.03721403663403427,-0.027720687838924445,0.0011486126302697325,28.96030631000758
1639,B,185297192758890.0,0.030825347,1.4066429729569325,1.0769091306935261,200,1970-01-03 03:28:17.192758890,-1.5340064,1.4110179,-1.9967154,15.12885735308866,2.8863505570111423,-98.1927490234375,-42.989566802978516,112.4804458618164,29010254.0,49948.0,0.180619079271578,-0.3947163689587472,0.06263879137100024,0.019278800668774514,-0.022709290329305003,0.002567214616168095,29.010254460008582
1639,B,185297242707040.0,-8.384793,5.6443789729569325,2.755244510693526,200,1970-01-03 03:28:17.242707040,-0.694578,1.3460367,-1.41082,13.884361789423238,2.0699435905915142,-98.17467498779297,-43.06897735595703,112.40306091308594,29060202.0,49948.0,-0.208631988166022,-0.31339817792274716,0.09570420504000023,-0.0006995943867298443,-0.01768445269381844,0.003954457992368325,29.060202610009583
1639,B,185297292655190.0,-12.13172,4.358693972956933,2.4128736106935262,200,1970-01-03 03:28:17.292655190,0.30144426,-0.32855898,0.4917423,17.264445485422293,0.6637997701377111,-98.1715087890625,-43.04230499267578,112.42051696777344,29110150.0,49948.0,-0.512379395662,-0.23967365624874715,0.12906858196352025,-0.01800653829972102,-0.013812415986598898,0.00561347558262592,29.110150760010583
1639,B,185297342603340.0,-7.4678144,3.784084972956933,1.1702829906935261,200,1970-01-03 03:28:17.342603340,0.9629735,-1.2936885,1.9628725,14.77989857012884,2.5404362515109,-98.1700210571289,-42.93594741821289,112.48896026611328,29160098.0,49948.0,-0.4894787721056,-0.28613263860474714,0.08948575296304025,-0.02502040588182804,-0.013131486407671165,0.005458175960455922,29.160098910011584
1639,B,185297392551490.0,0.6868366,-3.393732027043068,-3.479256889306474,200,1970-01-03 03:28:17.392551490,1.10998,-1.6718575,4.2755613,20.386899060616358,4.723090887413023,-98.1630859375,-42.71247863769531,112.56038665771484,29210047.0,49949.0,-0.1693515300661,-0.47975133035227424,-0.05766546863090907,-0.01645395738158712,-0.01912756918271713,0.00079469569105281,29.210047060012585
1639,B,185297442499640.0,18.705599,-3.393732027043068,-5.408983289306474,200,1970-01-03 03:28:17.442499640,1.1163715,-1.6952932,4.604728,28.02137069337935,5.032278242899779,-98.38245391845703,-42.460411071777344,112.7843246459961,29259995.0,49948.0,0.48430668667439997,-0.6590005272867472,-0.22197491022067978,0.007865690081135683,-0.02843918889267692,-0.00698373882143958,29.259995210013585
1639,B,185297492447790.0,17.644968,1.4257959729569336,-5.701075789306474,200,1970-01-03 03:28:17.492447790,0.5698909,-0.83882064,4.08701,24.11428799692807,4.210943652448085,-98.36466217041016,-42.25214385986328,112.80020904541016,29309943.0,49948.0,0.907819060258,-0.5386376350147472,-0.2774626154292798,0.034766948403889754,-0.029909815465317523,-0.01247295276558209,29.309943360014586
1639,B,185297542395940.0,8.999505,15.539615432956934,-2.7514192893064737,200,1970-01-03 03:28:17.542395940,0.4591034,-1.7304469,2.3559551,9.716694716497162,2.9590111251611035,-98.40373229980469,-42.12298583984375,112.8925552368164,29359891.0,49948.0,0.665419068702,-0.06579621554870711,-0.21109261209327976,0.03929004903264704,-0.015095130983971706,-0.012201178252148401,29.359891510015586
1639,B,185297592344090.0,6.612486,25.85862497295693,2.9946647106935265,200,1970-01-03 03:28:17.592344090,2.0878928,-2.987459,0.077354446,11.64595008514621,3.645571468410516,-98.4323959350586,-42.09730529785156,113.09098815917969,29409839.0,49948.0,0.389893863234,0.5443892558972928,0.006074811153720255,0.02635538516216966,0.01195238258966558,-0.005120114560664559,29.409839660016587
1639,B,185297642292240.0,6.4089785,29.885671972956935,4.447945110693526,200,1970-01-03 03:28:17.642292240,1.5786964,-2.1352475,-1.8092289,15.26014463821272,3.2132341063521066,-98.46100616455078,-42.17109298706055,113.25129699707031,29459787.0,49948.0,0.325198054423,0.9026676719272528,0.18587173767932025,0.017858705551565917,0.0361387997154902,0.004793673110556353,29.459787810017588
1639,B,185297692240390.0,11.204565,22.475617672956933,4.170217710693526,200,1970-01-03 03:28:17.692240390,0.03299763,-0.47236967,-3.0193694,13.129709213096225,3.056274451415953,-98.50080108642578,-42.31692886352539,113.31294250488281,29509735.0,49948.0,0.43988063536899996,0.8181804476170528,0.21522999830132025,0.019107075198865404,0.04297646093749949,0.010017114754380515,29.50973596001859
1639,B,185297742188540.0,12.248437,15.290618472956933,3.928403410693526,200,1970-01-03 03:28:17.742188540,-0.59018207,0.5183262,-3.4071255,12.70861216092351,3.49649554527189,-98.52994537353516,-42.489253997802734,113.31239318847656,29559684.0,49949.0,0.585726998449,0.4536926646261258,0.20225901319608094,0.02561403785078764,0.03176439504171726,0.010426579317641847,29.55968411001959
1639,B,185297792136690.0,19.511847,-3.393732027043068,1.922062310693526,200,1970-01-03 03:28:17.792136690,-1.133467,0.867733,-3.7746418,27.912014311054815,4.0355456530294935,-98.28719329833984,-42.74320602416992,113.0987548828125,29609632.0,49948.0,0.793181332616,-0.1923775578997472,0.14610953092592024,0.034436856660017306,0.006526083475384579,0.008700156020902858,29.609632259991486
1639,B,185297842084840.0,15.17894,-3.393732027043068,1.2085902106935262,200,1970-01-03 03:28:17.842084840,-2.681296,0.88371193,-2.120286,25.052767904020094,3.530709239888825,-98.13805389404297,-42.72888946533203,112.88565826416016,29659580.0,49948.0,0.866367714538,-0.6590005272867472,0.07818491606912024,0.04144557790362399,-0.021262316299447512,0.005601529519254141,29.659580409992486
1639,B,185297892032990.0,7.234978,0.7506309729569338,2.013042010693526,200,1970-01-03 03:28:17.892032990,-1.5233537,0.42884403,-2.453714,17.405264127362997,2.9197989812941456,-98.21072387695312,-42.85337448120117,112.8805160522461,29709528.0,49948.0,0.559765188132,-0.5554992057247472,0.08045704309692024,0.03561624311128058,-0.03033091633222906,0.003961924288212695,29.709528559993487
1639,B,185297941977270.0,1.5894506,3.0251229729569324,2.254856310693526,200,1970-01-03 03:28:17.941977270,-2.7622561,0.23283538,-1.7367909,13.680782080680912,3.271194538160298,-98.34973907470703,-42.94098663330078,112.88184356689453,29759472.0,49944.0,0.22036363099919998,-0.395163072462639,0.10657795688167748,0.019481376871344328,-0.023739938410895407,0.004670638019465543,29.759472839999944
1639,B,185297991921550.0,-7.096713,5.914923972956933,4.309081310693526,200,1970-01-03 03:28:17.991921550,-0.9417193,0.71966124,-1.487519,13.25079106335273,1.901962227730043,-98.37372589111328,-43.01980209350586,112.84796905517578,29809417.0,49945.0,-0.137530110284,-0.26620567764316605,0.16391793225008816,0.0020685600960603317,-0.016516031112017215,0.006754958591343018,29.8094171200064
1639,B,185298041865830.0,-14.011168,7.8661989729569335,4.876507010693526,200,1970-01-03 03:28:18.041865830,0.069216624,-0.06543866,0.1444661,16.977553393905648,0.17304222984509582,-98.37230682373047,-43.012176513671875,112.85095977783203,29859361.0,49944.0,-0.5271060043319999,-0.145308997794639,0.22938251156167747,-0.01659729305419075,-0.010276344475032869,0.009821498682867412,29.859361400012858
1639,B,185298091810110.0,-7.204452,-1.574139027043067,4.790315710693526,200,1970-01-03 03:28:18.091810110,0.9416682,-1.7293817,1.4590024,19.896580798370355,2.450752551032415,-98.39500427246094,-42.927398681640625,112.95333099365234,29909305.0,49944.0,-0.52979646264,-0.332325879030639,0.2413998969984775,-0.026392968405224784,-0.011927498144080841,0.01175637830656419,29.909305680019315
1639,B,185298141754390.0,5.3651066,-3.393732027043068,-2.550306589306474,200,1970-01-03 03:28:18.141754390,1.9696484,-1.5791794,3.6513166,20.90207632021413,4.439080457757268,-98.34429931640625,-42.735286712646484,113.02362060546875,29959249.0,49944.0,-0.0459321333288,-0.613508875962639,0.055937507779277466,-0.014377094498532875,-0.02361938550169214,0.007425109672110097,29.95924995999667
1639,B,185298191698670.0,19.511847,-3.393732027043068,-7.683474789306473,200,1970-01-03 03:28:18.191698670,1.1888095,-1.3309728,4.2233634,29.143012744346944,4.584926938358958,-98.31730651855469,-42.516700744628906,113.071533203125,30009194.0,49945.0,0.621239723776,-0.6589609460906661,-0.2555631054774118,0.014366868802442704,-0.03177675263122616,-0.004985150238516659,30.009194240003126
1639,B,185298241642950.0,19.511847,2.4648799729569326,-9.043382289306473,200,1970-01-03 03:28:18.241642950,1.057782,-1.0348293,3.7184284,25.981038211007927,4.002059995251077,-98.28665924072266,-42.325252532958984,113.1045150756836,30059138.0,49944.0,0.974499686568,-0.5126464934946391,-0.41770307496712245,0.039848804555110376,-0.029257380981324247,-0.016812803058060908,30.059138520009583
1639,B,185298291587230.0,10.871771,21.637646972956933,-3.1297032893064736,200,1970-01-03 03:28:18.291587230,0.9746914,-0.5991361,2.6244018,12.62960445161629,2.8629481656852276,-98.24773406982422,-42.19108963012695,113.11907958984375,30109082.0,49944.0,0.758739708696,0.11243710289336102,-0.3039862930691225,0.04328245417853261,-0.009994028902095116,-0.01802202689860111,30.10908280001604
1639,B,185298341531510.0,8.937256,29.806662972956936,0.6603180306935261,200,1970-01-03 03:28:18.341531510,3.2841847,-1.863605,-0.03556359,16.002880695014696,3.776262372859277,-98.1673355102539,-42.17955780029297,113.243896484375,30159027.0,49945.0,0.49468092675750003,0.7952320301243341,-0.061666723370711836,0.03130104681886253,0.022666767424284393,-0.009131269953043763,30.159027079993393
1639,B,185298391475790.0,5.3052516,32.64618697295693,1.366607550693526,200,1970-01-03 03:28:18.391475790,1.0258241,-1.6729227,-2.184202,16.974910193122223,2.936277204406985,-98.20529174804688,-42.275726318359375,113.3766860961914,30208971.0,49944.0,0.35566389978720003,1.0701213688493614,0.050616385618397465,0.02123481100847425,0.046581605079171126,-0.0002759490343507945,30.20897135999985
