Subject-id_accel,Activity_accel,Timestamp_accel,accel_x,accel_y,accel_z,Segment_accel,DateTime,gyro_x,gyro_y,gyro_z,accel_magnitude,gyro_magnitude,Roll,Pitch,Yaw,Time_Difference,Difference_Microseconds,vx,vy,vz,dx,dy,dz,Time_diff
1604,A,18362438963220.0,0.056900024,11.163406,-1.2693440211004483,21,1970-01-01 05:06:02.438963220,-0.0053100586,-1.6940918,-0.996109,11.283868657698473,1.9652502037731927,90.79964447021484,-8.691391944885254,76.85537719726562,15005483.0,50354.0,-0.05924639494615201,-0.004692111605000053,-0.08909008951869199,-0.0006965478995700476,-0.001753215602764021,-0.00563090925454409,15.005483990997163
1604,A,18362489317224.0,1.2486725,9.060608,-2.3627888211004486,21,1970-01-01 05:06:02.489317224,-0.40489197,-1.2173157,-0.80526733,9.546947943909043,1.5146783465813127,90.78860473632812,-8.65029525756836,76.79438018798828,15055837.0,50354.0,0.032870399436748,0.015710800477999973,-0.09144620856809199,-0.0006640684389402649,0.00027741752975551904,-0.00454536237693096,15.055837994998
1604,A,18362539671228.0,2.9597015,8.1454315,-1.0886494211004485,21,1970-01-01 05:06:02.539671228,0.20941162,-0.9692993,-1.061264,8.789052581475113,1.452472250085183,90.80631256103516,-8.59656047821045,76.74610900878906,15106191.0,50354.0,0.10595423219800001,-0.06027274350850001,-0.08689686062389199,0.003495187750668051,-0.0011219360396788995,-0.0044901434530465805,15.106191998998838
1604,A,18362590025232.0,2.794754,7.9763184,0.0963939388995515,21,1970-01-01 05:06:02.590025232,0.843277,-1.0123138,-0.47076416,8.456323729026302,1.3991119407466817,90.85606384277344,-8.572290420532227,76.69525909423828,15156546.0,50355.0,0.14488280335125,-0.08757364189275,-0.024982512403113083,0.006315449462541242,-0.0037224023684399718,-0.00281684291438742,15.156546002999676
1604,A,18362640379236.0,2.272171,9.06575,0.1413158088995515,21,1970-01-01 05:06:02.640379236,0.4225464,-0.8725891,-0.23860168,9.349051299577583,0.9984427671582344,90.89888000488281,-8.69683837890625,76.6490249633789,15206900.0,50354.0,0.127569970725,-0.06440104389320005,0.005984818320338017,0.006859543492917747,-0.0038262666640328648,-0.00047830494392202787,15.206900006996875
1604,A,18362690733240.0,2.0638733,9.364075,0.0935405388995515,21,1970-01-01 05:06:02.690733240,0.014083862,-0.3960266,-0.6576996,9.592923030984682,0.7678568791881435,90.92272186279297,-8.756775856018066,76.62644958496094,15257254.0,50354.0,0.1091685873411,-0.029461495975000057,0.005912978268538017,0.0059603666764302,-0.0023631771662616743,0.0002995508247181319,15.257254010997713
1604,A,18362741087243.0,2.3994293,9.3680725,0.08667407889955148,21,1970-01-01 05:06:02.741087243,0.0052337646,0.010818481,-0.9040985,9.674742461099171,0.9041783726263782,90.94322967529297,-8.85145378112793,76.62459564208984,15307608.0,50354.0,0.11237256956020002,-0.021849922392500037,0.004537263432328016,0.005577741707304031,-0.00129186758023855,0.0002631057353027041,15.307608013998106
1604,A,18362791450327.0,2.0210266,10.588104,-0.16277662110044855,21,1970-01-01 05:06:02.791450327,-0.08818054,-0.18087769,-0.62480164,10.792622607838354,0.6564066085294369,90.98884582519531,-8.868719100952148,76.60845947265625,15357971.0,50363.0,0.11131371024585,0.008969058534749958,-0.0019163761664318896,0.005632756054936048,-0.00032435947323393357,6.599787268616331e-05,15.357971097997506
1604,A,18362841804331.0,3.4304962,12.957275,0.4880412748995515,21,1970-01-01 05:06:02.841804331,-0.5601654,0.35359192,-0.19758606,13.404188460520766,0.6912689580422153,90.92150115966797,-9.00793170928955,76.63224029541016,15408325.0,50354.0,0.1372529895356,0.09933280708299994,0.008189188188700016,0.006258163800397567,0.0027267160706580893,0.0001579305882846446,15.408325101998344
1604,A,18362892158335.0,-0.28475952,13.31868,2.2435801788995513,21,1970-01-01 05:06:02.892158335,-1.4387817,0.20611572,1.0357056,13.452263029017717,1.7847303886462427,90.84806060791016,-9.059869766235352,76.64186096191406,15458679.0,50354.0,0.07920021239236,0.16808051903499996,0.06877403334230002,0.00544964226494025,0.006732665311672883,0.001937703028485988,15.458679105999181
1604,A,18362942512339.0,-0.7227478,12.685089,0.9098857788995515,21,1970-01-01 05:06:02.942512339,-1.4170532,0.40904236,1.4132233,12.716954912569266,2.042683411487815,90.77408599853516,-9.130809783935547,76.66155242919922,15509033.0,50354.0,-0.025366011795640003,0.16122769211300003,0.07939481241950802,0.0013553836684236193,0.008290992832073197,0.0037304470297450415,15.509033110000018
1604,A,18362992866343.0,0.15507507,11.114609,-0.028499251100448486,21,1970-01-01 05:06:02.992866343,-1.1233978,0.2980194,0.94618225,11.122978298218586,1.4986991125760576,90.74856567382812,-8.970813751220703,76.67073822021484,15559387.0,50354.0,-0.014292296323210003,0.10573579654599996,0.022190668610398017,-0.0009984772235082865,0.006721339753967643,0.0025576176558899447,15.559387113997218
1604,A,18363043220347.0,-0.15278625,8.383255,-0.31586802110044854,21,1970-01-01 05:06:03.043220347,-0.76364136,-0.09425354,1.0854187,8.412985627507515,1.330475708464785,90.71123504638672,-9.025014877319336,76.66526794433594,15609741.0,50354.0,5.7625621139999927e-05,-0.0025714780720000395,-0.008670134812201986,-0.0003583863042660165,0.0025973680462198965,0.0003404064794371815,15.609741117998055
1604,A,18363093574351.0,0.19302368,6.1083984,-0.3536030211004485,21,1970-01-01 05:06:03.093574351,-0.11984253,0.5928192,1.3591614,6.154616324132664,1.4876547136803624,90.85424041748047,-8.91439151763916,76.67046356201172,15660095.0,50354.0,0.0010130577751099998,-0.12861284234820006,-0.016855272429491985,2.6956595867386243e-05,-0.003302827635219378,-0.0006426531781241291,15.660095121998893
1604,A,18363143928355.0,0.034362793,4.6059723,-0.0876880911004485,21,1970-01-01 05:06:03.143928355,0.3509674,1.0754547,1.1452789,4.629188404578779,1.6097964735953612,90.98662567138672,-8.761841773986816,76.70512390136719,15710449.0,50354.0,0.005724909230721001,-0.22371348888610004,-0.011110386331881985,0.0001696417953058071,-0.008870520041485974,-0.0007040913906351125,15.71044912599973
1604,A,18363194282359.0,0.55970764,4.697113,0.2678569488995515,21,1970-01-01 05:06:03.194282359,0.8944092,1.1524353,0.58825684,4.731535174448703,1.572933898019086,91.03031921386719,-8.743071556091309,76.76173400878906,15760803.0,50354.0,0.014956911291641,-0.25924542140190004,0.004536111332808015,0.0005207061952915081,-0.012159456484320978,-0.00016552052165168536,15.76080312999693
1604,A,18363244636363.0,1.0755615,7.2264404,1.5909770788995514,21,1970-01-01 05:06:03.244636363,1.488739,0.679245,0.10523987,7.406694810109845,1.6397539481225887,91.09952545166016,-8.748963356018066,76.79597473144531,15811157.0,50354.0,0.04117117113778,-0.19326989604820005,0.04679986431789802,0.0014131367313255326,-0.01139297814744117,0.0012924858589578258,15.811157133997767
1604,A,18363294990366.0,5.58049,14.463852,3.5657084788995514,21,1970-01-01 05:06:03.294990366,1.043396,0.61857605,-0.40742493,15.828184290358639,1.2795728256082604,91.14690399169922,-8.729207992553711,76.82767486572266,15861511.0,50354.0,0.16757940861550003,0.05262729175479998,0.12982987228870801,0.005255713346448332,-0.003540958848294934,0.00444700687854452,15.86151113699816
1604,A,18363345344370.0,2.5811005,11.491318,3.7801097788995515,21,1970-01-01 05:06:03.345344370,-0.12600708,0.5252838,-0.23799133,12.260242784151918,0.590288681839433,91.13652038574219,-8.71783447265625,76.8544692993164,15911865.0,50354.0,0.20548436401849998,0.16000411508999995,0.18494566627660802,0.00939262660360622,0.005353420930131528,0.007925103734458962,15.911865140998998
1604,A,18363395698374.0,1.8603668,9.331985,-0.34006847110044847,21,1970-01-01 05:06:03.395698374,0.37913513,0.5638733,-0.40289307,9.5423742985008,0.7899489674067761,91.2314224243164,-8.761693000793457,76.87120056152344,15962219.0,50354.0,0.11182282221209999,0.030799099630999947,0.08660992000645802,0.007988843027727816,0.004803852537030614,0.006836954995848754,15.962219144999835
1604,A,18363446052378.0,3.9138489,10.563202,-0.9582936211004486,21,1970-01-01 05:06:03.446052378,-0.1277008,-1.5311432,0.3538971,11.343484981588515,1.576689617716591,91.23690795898438,-8.777738571166992,76.79337310791016,16012573.0,50354.0,0.14537742867890002,0.007431923098999964,-0.03268886239534199,0.006475530716682708,0.0009625424592732078,0.0013575704674750684,16.012573148997035
1604,A,18363496406382.0,0.28448486,5.526001,-4.069636921100448,21,1970-01-01 05:06:03.496406382,-0.109573364,-0.42367554,-0.29599,7.096772500080323,0.5283155926078352,91.2346420288086,-8.762482643127441,76.77224731445312,16062926.999999998,50353.99999999814,0.10570144907551608,-0.08839133606899675,-0.1265882072609873,0.006321412905222701,-0.0020383151403455336,-0.004010118782737254,16.062927152997872
1604,A,18363546760386.0,1.2776337,15.009491,-0.17582286110044854,21,1970-01-01 05:06:03.546760386,0.21495056,-0.8889923,-1.2905426,15.073803561982054,1.5817747169298046,91.2737045288086,-8.599587440490723,76.72543334960938,16113281.0,50354.00000000186,0.039329458985121454,0.02355288208400087,-0.10688794093647594,0.0036514431722428063,-0.0016324377559803016,-0.00587822898316775,16.11328115699871
1604,A,18363597114390.0,-0.058776855,11.103485,-0.7118183211004484,21,1970-01-01 05:06:03.597114390,-0.076309204,-0.5592041,-0.7075043,11.156612149216157,0.9050384823809502,91.38278198242188,-8.342524528503418,76.68194580078125,16163635.0,50354.0,0.030687158786565,0.16397719675199995,-0.022348142044271983,0.0017628083856377499,0.0047214447948539925,-0.0032537768612062906,16.163635160999547
1604,A,18363647468394.0,2.5000458,8.6996155,-1.1618763211004484,21,1970-01-01 05:06:03.647468394,0.15115356,-0.49765015,-1.0975037,9.181104526736856,1.21450296088951,91.39378356933594,-8.287060737609863,76.65814208984375,16213989.000000002,50354.00000000186,0.06146382822826727,0.005113461288500137,-0.047174010006693724,0.0023200854000725176,0.004257195497485828,-0.0017503592221872284,16.213989164996747
1604,A,18363697822398.0,1.970932,7.2986298,-0.5049549211004485,21,1970-01-01 05:06:03.697822398,1.1033936,-0.7801666,-0.58750916,7.610996035886034,1.4735346529214797,91.58800506591797,-8.425204277038574,76.59999084472656,16264343.0,50353.99999999814,0.11256580807059584,-0.09068137808189669,-0.04196581018489043,0.0043815441530963145,-0.0021543434411072653,-0.0022442732529634308,16.264343168997584
1604,A,18363748176402.0,1.6830139,8.252365,-0.20893442110044846,21,1970-01-01 05:06:03.748176402,0.7903595,-0.47613525,-0.37501526,8.442390773689587,0.9959966670454676,91.69173431396484,-8.482769966125488,76.56751251220703,16314696.999999998,50353.99999999814,0.09199539592429659,-0.10194180392039628,-0.01797359196859132,0.005150237432979216,-0.004849673853271551,-0.001509094328018154,16.31469717299842
1604,A,18363798530406.0,2.0612183,9.135696,-0.08480418110044852,21,1970-01-01 05:06:03.798530406,0.2923584,-0.40423584,-0.60606384,9.376573515935469,0.7849798892625284,91.73843383789062,-8.557222366333008,76.54364776611328,16365051.000000002,50354.000000003725,0.09426853409940697,-0.055689988203004186,-0.00739545678761253,0.004689566966207131,-0.003968695630291147,-0.0006387165405349914,16.36505117699926
1604,A,18363848884409.0,2.232544,9.792648,0.043094978899551495,21,1970-01-01 05:06:03.848884409,0.12672424,0.13705444,-0.8399811,10.049365863829745,0.8604714991703684,91.7484130859375,-8.622322082519531,76.55113983154297,16415405.0,50353.99999999814,0.108104053427096,-0.016910283111999432,-0.0010501125838119454,0.005095134636154576,-0.0018278570308977783,-0.00021263410006434612,16.415405179999652
1604,A,18363899238413.0,2.6701355,10.489059,-0.9887653211004485,21,1970-01-01 05:06:03.899238413,0.0054779053,0.2545929,-0.6298523,10.909047236860738,0.6793831555110679,91.88504028320312,-8.730657577514648,76.54409790039062,16465758.999999998,50353.99999999814,0.12343476177149543,0.017163337138999306,-0.0238091422055911,0.005829452750254721,6.371141237775583e-06,-0.0006258814578327773,16.465759183996852
1604,A,18363949592417.0,2.6338043,14.015305,2.0867961788995517,21,1970-01-01 05:06:03.949592417,-0.8960571,0.6506195,0.14953613,14.363116608987179,1.1174010535237726,91.6159896850586,-8.78747272491455,76.61015319824219,16516113.0,50354.00000000186,0.13353729234460496,0.1234771724280045,0.02764512290680905,0.006469785406481298,0.0035409061093685857,9.657848611456784e-05,16.51611318799769
1604,A,18363999946421.0,-1.3121796,12.269089,2.3888285788995516,21,1970-01-01 05:06:03.999946421,-2.3118134,0.5169525,1.4000702,12.502463705546365,2.7517117669922935,91.4966812133789,-8.858153343200684,76.63438415527344,16566467.0,50354.0,0.0332745450719,0.16829298773799994,0.11268280452710804,0.0041998216306353454,0.007345897322499494,0.0035330362290037307,16.566467191998527
1604,A,18364050300425.0,-0.33580017,17.063263,1.5262187788995516,21,1970-01-01 05:06:04.050300425,-2.0900269,0.21780396,1.7182617,17.10541273936651,2.71441969441024,91.39082336425781,-8.944314956665039,76.6432113647461,16616821.000000002,50354.00000000186,-0.04149118666929153,0.24503142630400895,0.09856914732731167,-0.00020687038549753418,0.010406268772336044,0.005318690391838922,16.616821195999364
1604,A,18364100654429.0,1.3123627,11.043488,1.5050242788995516,21,1970-01-01 05:06:04.100654429,-0.96824646,0.13613892,0.9356079,11.178549682347263,1.3532912308086933,91.16008758544922,-8.937896728515625,76.67713165283203,16667175.0,50353.99999999814,0.024586914817809093,0.21417446992699202,0.0763176064662052,-0.00042559885240475763,0.011561426849407483,0.0044031238002592114,16.667175199996564
1604,A,18364151008433.0,1.7688599,8.981476,-0.5816761211004485,21,1970-01-01 05:06:04.151008433,0.27433777,0.025970459,1.4876709,9.203761926036236,1.5129773241843558,91.2957763671875,-9.066624641418457,76.65782928466797,16717528.999999998,50353.99999999814,0.07757594140019713,0.010699318627999584,0.02324713656890716,0.0025721542310006475,0.005661647374448814,0.002506741535394931,16.7175292039974
1604,A,18364201362437.0,-2.3290558,6.4483795,0.08981739889955148,21,1970-01-01 05:06:04.201362437,-0.1166687,1.1230927,1.3500061,6.86198954806109,1.7599617235582683,91.28119659423828,-9.135374069213867,76.7131576538086,16767883.000000002,50354.000000003725,-0.01410405217430104,-0.10499172807650779,-0.012383527048852901,0.0015980317550405043,-0.002373999992685267,0.00027351309688642626,16.76788320799824
1604,A,18364251716441.0,-0.26672363,5.493973,-0.35061229110044845,21,1970-01-01 05:06:04.251716441,0.3070221,1.0108795,0.84552,5.5479771214229725,1.3531607457389014,91.28854370117188,-9.1787748336792,76.76337432861328,16818237.0,50353.99999999814,-0.06535393870910758,-0.1927965911074929,-0.0065660330009417395,-0.0020005138364715047,-0.007497416512095308,-0.000477093073373662,16.818237211999076
1604,A,18364302070445.0,-1.5674744,4.529892,1.1566051188995514,21,1970-01-01 05:06:04.302070445,0.7784424,0.8872528,0.45799255,4.856876923541175,1.2660755416171274,91.32038116455078,-9.202675819396973,76.80776977539062,16868591.0,50354.0,-0.046179603801310004,-0.24109835089500004,0.020292481425498016,-0.002808079999784784,-0.010924172954796764,0.00034559079198505344,16.868591215999913
1604,A,18364352424448.0,0.21917725,6.093872,1.3269237188995515,21,1970-01-01 05:06:04.352424448,1.1944427,0.57341003,-0.07569885,6.171809976800945,1.3271106743520726,91.37545013427734,-9.199569702148438,76.8368911743164,16918945.0,50354.0,-0.03394607734555,-0.22599469377200002,0.06252780554926801,-0.0020173242742344945,-0.011760001585581062,0.0020851663651636843,16.91894521899667
1604,A,18364402778452.0,4.2234497,12.531525,4.5836833788995515,21,1970-01-01 05:06:04.402778452,1.0842438,0.19865417,-0.4675598,13.877948787416498,1.1973555293532783,91.42797088623047,-9.176445007324219,76.8475341796875,16969299.0,50354.0,0.11185201872014999,-0.02453757973100005,0.14881135490128802,0.0019614378859883043,-0.006307651049985033,0.00532088604266365,16.969299222997506
1604,A,18364453132456.0,5.0965424,15.428207,5.382435378899552,21,1970-01-01 05:06:04.453132456,0.16630554,-0.263443,0.044158936,17.002588202767566,0.3146581613629999,91.43842315673828,-9.178319931030273,76.83413696289062,17019653.0,50354.0,0.23464944110170002,0.21047297256399994,0.25091697196510804,0.008723867253934718,0.004681295385356439,0.010063960085515253,17.019653226998344
1604,A,18364503486460.0,2.1397247,8.642532,-0.9910999211004484,21,1970-01-01 05:06:04.503486460,-0.5286255,0.43022156,0.46868896,9.00752348328035,0.8271667614000003,91.59354400634766,-9.318161964416504,76.82564544677734,17070007.0,50354.0,0.1821874967767,0.11255979580299996,0.11056065282100803,0.010494703584964479,0.008132996009175957,0.009100922159240044,17.07000723099918
1604,A,18364553840464.0,-4.1012573,-0.44944763,-0.8944813211004484,21,1970-01-01 05:06:04.553840464,0.041534424,-0.83673096,-0.50135803,4.31642741625618,0.9763215054709254,91.60235595703125,-9.2919340133667,76.78396606445312,17120361.0,50354.0,-0.04938550627020001,-0.2871919148165101,-0.047473278934891984,0.0033435557149821505,-0.004396712860403144,0.0015883508123307438,17.12036123500002
1604,A,18364604194468.0,8.533035,18.327026,-6.209895621100448,21,1970-01-01 05:06:04.604194468,0.47914124,-1.122055,-0.9859009,21.261260924716154,1.5686249824335157,91.6352310180664,-9.24107551574707,76.72856140136719,17170715.0,50354.0,0.1115788671529,-0.043365409378510036,-0.17886689827379199,0.0015658422469437376,-0.008322441751258021,-0.005698566641583036,17.170715238997218
1604,A,18364654548472.0,-0.39285278,9.62645,-1.1638905211004484,21,1970-01-01 05:06:04.654548472,-0.0134887695,-1.0514832,-0.5919037,9.756444325006777,1.206709930703545,91.6429672241211,-9.209990501403809,76.67617797851562,17221069.0,50354.0,0.20494536775294,0.21031546525199993,-0.18564981370219197,0.007969130662224336,0.004203301556726855,-0.009177437257419348,17.221069242998055
1604,A,18364704902476.0,1.0173492,10.050049,-1.2972523211004483,21,1970-01-01 05:06:04.704902476,-0.25704956,-0.9112396,-1.201477,10.238740835308906,1.5296990117122236,91.83301544189453,-9.062983512878418,76.6006851196289,17271423.0,50354.0,0.015722946366339998,0.0019260153229999578,-0.06196419333809198,0.005555766144581113,0.005343603756436772,-0.006234177855253229,17.271423246998893
1604,A,18364755256480.0,2.1737366,8.7152405,-1.7634846211004485,21,1970-01-01 05:06:04.755256480,0.2862091,-0.75645447,-0.79037476,9.23307651773686,1.1308542237401107,91.85313415527344,-9.022268295288086,76.56369018554688,17321777.0,50354.0,0.0803419671866,-0.021015506258500044,-0.07706017399379199,0.0024186263285223704,-0.0004806161132830857,-0.003500216496314843,17.32177725099973
1604,A,18364805610484.0,1.0179901,7.4638977,-0.3138233211004485,21,1970-01-01 05:06:04.805610484,0.8870697,-0.54618835,-0.52186584,7.564342310448027,1.1651430475665714,91.98721313476562,-8.963458061218262,76.52356719970703,17372131.0,50354.0,0.0803581031259,-0.08612703753860003,-0.05230038206079199,0.004045945670257812,-0.0026975278251795886,-0.0032569107197862606,17.37213125499693
1604,A,18364855964488.0,1.0544434,8.671616,0.4013866108995515,21,1970-01-01 05:06:04.855964488,0.5457916,-0.6786194,-0.31427002,8.735532093003943,0.9258392982357794,91.9653091430664,-8.895987510681152,76.49826049804688,17422485.0,50354.0,0.0521776582295,-0.08722537157510002,0.0022045809472720163,0.0033368528636449056,-0.004364493604255626,-0.0012612619846350925,17.422485258997767
1604,A,18364906318491.0,2.2632446,8.8632965,-0.24406016110044848,21,1970-01-01 05:06:04.906318491,0.21022034,-0.57473755,-0.66690063,9.168554413843784,0.9051366156686597,92.02979278564453,-8.996468544006348,76.46260833740234,17472839.0,50354.0,0.08352943077600002,-0.05199270798750002,0.003961008026592018,0.0034166973798914744,-0.0035050935891475813,0.0001552310335949748,17.47283926199816
1604,A,18364956672495.0,1.9660034,8.935425,-0.44599498110044855,21,1970-01-01 05:06:04.956672495,0.23727417,-0.2966156,-0.94633484,9.185831558139396,1.0197202926834272,92.1231689453125,-9.032978057861328,76.43685150146484,17523193.0,50354.0,0.10647977689600001,-0.04535078879450002,-0.017373518315191985,0.004783861821557945,-0.002450817218480415,-0.00033768677153608135,17.523193265998998
1604,A,18365007026499.0,2.1061554,9.913666,-0.7755848211004485,21,1970-01-01 05:06:05.007026499,0.2484436,-0.02848816,-0.67907715,10.199920495049575,0.723658464535079,92.24675750732422,-9.071712493896484,76.41918182373047,17573547.0,50354.0,0.10252474210760001,-0.018905635893000046,-0.030755714680011984,0.005262106774953638,-0.0016177840043571892,-0.0012117496991202504,17.573547269999835
1604,A,18365057380503.0,1.3257904,13.851883,-1.7405964211004488,21,1970-01-01 05:06:05.057380503,-0.11697388,-0.014083862,-0.06965637,14.074949775876759,0.1368694767019526,92.40276336669922,-8.97797966003418,76.39322662353516,17623901.0,50354.0,0.08640609940660002,0.10487602717299997,-0.06334989513489199,0.0047567117968030145,0.002164476541256558,-0.0023692969383098373,17.623901273997035
1604,A,18365107734507.0,-0.21315002,14.862457,-0.6675373211004484,21,1970-01-01 05:06:05.107734507,-1.2589417,0.4694214,0.6101074,14.900436700252428,1.4756428071561254,92.37698364257812,-8.765778541564941,76.40927124023438,17674255.0,50354.0,0.028012946847260002,0.22947173817999997,-0.06062958322739199,0.002880728327533434,0.00841787368829248,-0.003121431326727224,17.674255277997872
1604,A,18365158088511.0,-1.6927643,11.231781,1.7046550788995516,21,1970-01-01 05:06:05.158088511,-1.697815,0.12080383,1.1904297,11.43629323984351,2.077087434416221,92.29154205322266,-8.825493812561035,76.41292572021484,17724609.0,50354.0,-0.047985204834640006,0.163505430126,0.026111513788108026,-0.0005028415393482664,0.00989398616644016,-0.0008690614342728523,17.72460928199871
1604,A,18365208442515.0,-0.22280884,11.610718,-1.1726338211004483,21,1970-01-01 05:06:05.208442515,-1.0830383,0.26239014,1.0555267,11.715405217799253,1.534912752976207,92.23567199707031,-8.878747940063477,76.42408752441406,17774963.0,50354.0,-0.04822838494578001,0.08163639732299997,0.013394699207608024,-0.0024223695499016352,0.006171935789683473,0.0009946479245931431,17.774963285999547
1604,A,18365258796519.0,-0.9367676,10.92392,0.033161508899551495,21,1970-01-01 05:06:05.258796519,-1.088623,-0.6075897,1.0995026,10.969310944900627,1.662278931792691,92.18633270263672,-8.932513236999512,76.3912124633789,17825317.0,50354.0,-0.02919465602988,0.073885380926,-0.028688494404281978,-0.0019492799026441922,0.003915571810975073,-0.00038505188166666017,17.825317289996747
1604,A,18365309150523.0,-0.6509247,6.7452393,0.0156596788995515,21,1970-01-01 05:06:05.309150523,-0.92437744,-0.18377686,1.3001556,6.786045723371032,1.6058182244774075,92.14196014404297,-8.997126579284668,76.37944030761719,17875671.0,50354.0,-0.039973329037100006,-0.04861277630390003,0.0012291710452180162,-0.0017414423600313558,0.000636288366570611,-0.0006913433842111533,17.875671293997584
1604,A,18365359504527.0,0.97358704,5.504242,0.7098582788995516,21,1970-01-01 05:06:05.359504527,-0.21723938,0.27593994,1.1722107,5.599759210723972,1.2236885730873186,91.98902893066406,-9.082612037658691,76.41322326660156,17926025.0,50354.0,0.008123669734179998,-0.18506400930990005,0.01826636562350802,-0.0008018788722696171,-0.0058832804313986445,0.0004908391267085154,17.92602529799842
1604,A,18365409858531.0,0.53900146,4.745926,0.7804607088995514,21,1970-01-01 05:06:05.409858531,0.23724365,0.6091461,0.31930542,4.793692400784876,0.7275297051336866,91.82339477539062,-9.03551959991455,76.47067260742188,17976379.0,50354.0,0.038082440664500006,-0.23540072026400008,0.03752176115581802,0.0011633312415075664,-0.010586040496482084,0.0014045776679230918,17.97637930199926
1604,A,18365460212534.0,0.92781067,5.506531,0.6991923988995514,21,1970-01-01 05:06:05.460212534,0.8349457,1.0729218,-0.2687683,5.593605158615739,1.3858325692336069,91.72686004638672,-9.03744888305664,76.54576873779297,18026733.0,50354.0,0.03692992899701,-0.23534309011100005,0.03725322629505801,0.0018885864309678376,-0.01185191691381138,0.001882609859050706,18.026733304999652
1604,A,18365510566538.0,3.2741394,11.0668335,2.4494517788995513,21,1970-01-01 05:06:05.510566538,0.9606476,0.43128967,-0.3093109,11.726124169159268,1.0975098285178493,91.77139282226562,-9.022650718688965,76.56807708740234,18077087.0,50354.0,0.10579249691239002,-0.07620160198350005,0.07927341446444801,0.003593322517120965,-0.007843760712863228,0.0029337912344020835,18.077087308996852
1604,A,18365560920542.0,2.4790497,16.189667,2.9882548788995513,21,1970-01-01 05:06:05.560920542,0.29029846,0.29736328,-0.12661743,16.585685089887043,0.4344307651980174,91.78352355957031,-9.0167875289917,76.58331298828125,18127441.0,50354.0,0.1448480419707,0.1927677130884999,0.13690514052340802,0.006310376847459558,0.0029347849792905815,0.005442727478929252,18.12744131299769
1604,A,18365611274546.0,0.43164063,16.27623,1.0374339788995515,21,1970-01-01 05:06:05.611274546,-0.0072021484,-0.017074585,0.2096405,16.295460224614683,0.2104579569290452,91.67930603027344,-8.840865135192871,76.59828186035156,18177795.0,50354.0,0.07328245043841,0.32392468876900005,0.101354768372808,0.005491871407384163,0.013008764601566278,0.005998669726280031,18.177795316998527
1604,A,18365661628550.0,-1.1224365,8.471603,0.043735858899551505,21,1970-01-01 05:06:05.661628550,0.38674927,-1.0082703,0.17579651,8.552019876219944,1.0941153543551991,91.7065200805664,-8.848161697387695,76.54700469970703,18228149.0,50354.0,-0.01739216761899,0.12960699144100002,0.02722061300626802,0.0014071496505445374,0.011418567112647172,0.0032371423769809978,18.228149320999364
1604,A,18365711982554.0,1.4667511,8.837402,-3.2808033211004486,21,1970-01-01 05:06:05.711982554,0.6889801,-1.3126221,-0.55137634,9.675182509449531,1.5816719710218727,91.75102996826172,-8.818621635437012,76.48146057128906,18278503.0,50354.0,0.008668808684199999,-0.05768038111500002,-0.081499647495832,-0.0002196280079012079,0.0018108962681777023,-0.0013665832513437522,18.278503324996564
1604,A,18365762336558.0,3.6963959,12.423157,-2.2598072211004485,21,1970-01-01 05:06:05.762336558,0.4185028,-1.1816101,-0.6679077,13.226318441321537,1.4203688667909968,91.78095245361328,-8.783426284790039,76.42273712158203,18328857.0,50354.0,0.129992552019,0.04180789394299998,-0.139495951620992,0.003491077078424467,-0.00039962160952944494,-0.005564006198964278,18.3288573289974
1604,A,18365812690562.0,1.0052948,9.26973,-1.1242939211004486,21,1970-01-01 05:06:05.812690562,-0.068359375,-0.6483917,-0.6463318,9.443707771501419,0.9180575126159148,91.96794128417969,-8.685040473937988,76.36278533935547,18379211.0,50354.0,0.11837446675390001,0.052692615998999943,-0.08520151445719198,0.006253136431645304,0.0023792393388097324,-0.005657208103450438,18.37921133299824
1604,A,18365863044566.0,2.6168518,9.460266,-1.6709858211004485,21,1970-01-01 05:06:05.863044566,-0.09413147,-0.06085205,-0.9433136,10.02630606282413,0.9499496058099731,91.96343994140625,-8.637798309326172,76.36134338378906,18429565.0,50354.0,0.0911947849482,-0.02190409070800004,-0.07037675806939199,0.005276325050103772,0.0007751627012515046,-0.003916994167401804,18.429565336999076
1604,A,18365913398570.0,2.3417664,8.193222,-0.6217914911004485,21,1970-01-01 05:06:05.913398570,0.35940552,-0.04408264,-0.6975708,8.57930670000514,0.7859520519525858,92.10230255126953,-8.783206939697266,76.342041015625,18479919.0,50354.0,0.12484313042140001,-0.04900733262400001,-0.05772525438928199,0.0054391865952604194,-0.0017853369052297655,-0.003225224367672035,18.479919340999913
1604,A,18365963752573.0,1.5456085,7.8537903,-0.2696491511004485,21,1970-01-01 05:06:05.963752573,0.56648254,-0.24565125,-0.46980286,8.030274366874144,0.7758619284483507,92.19650268554688,-8.817312240600586,76.32066345214844,18530273.0,50354.0,0.09787243785730002,-0.08945357132290004,-0.022443801048691987,0.005607309862552831,-0.003486030178671103,-0.002018416308761871,18.53027334399667
1604,A,18366014106577.0,2.252533,8.838715,-0.11283458110044847,21,1970-01-01 05:06:06.014106577,0.32484436,-0.28933716,-0.7171173,9.134214094755245,0.8387473232982416,92.23825073242188,-8.917227745056152,76.30379486083984,18580627.0,50354.0,0.0956258085455,-0.07320199406190003,-0.009629792925621983,0.004871705349683296,-0.004095179169693112,-0.000807516875491303,18.580627347997506
1604,A,18366064460581.0,2.39682,9.400681,-0.7189900211004484,21,1970-01-01 05:06:06.064460581,0.241745,-0.1174469,-0.940567,9.762803745470897,0.9782130140381542,92.35868835449219,-9.002787590026855,76.28292083740234,18630981.0,50354.0,0.117056760481,-0.034255926908000014,-0.02094284800961198,0.005354709040380191,-0.002705468076259174,-0.0007697273808263856,18.630981351998344
1604,A,18366114814585.0,2.5981903,11.662109,-2.1467396211004486,21,1970-01-01 05:06:06.114814585,0.09667969,0.26783752,-0.7940216,12.21105553766193,0.843536721693138,92.36114501953125,-8.963672637939453,76.2981185913086,18681335.0,50354.0,0.12575937432310003,0.036828663829999955,-0.07215047520169199,0.006113381825962827,6.477379748519252e-05,-0.0023438105984910002,18.68133535599918
1604,A,18366165168589.0,2.7866058,15.273865,0.26308094889955147,21,1970-01-01 05:06:06.165168589,-0.78097534,0.70999146,0.067214966,15.526378948175132,1.0576049388195141,92.2680892944336,-9.00296688079834,76.34146881103516,18731689.0,50354.0,0.13557301140970002,0.18469781739799992,-0.047424874390001995,0.006579565475594707,0.005577372217877354,-0.00301054857667008,18.73168936000002
1604,A,18366215522593.0,0.08874512,12.671539,3.2837565788995513,21,1970-01-01 05:06:06.215522593,-1.9966125,0.38426208,1.0685272,13.001616539846383,2.2969260324229026,92.16554260253906,-9.057097434997559,76.35881805419922,18782043.0,50354.0,0.07239271011284,0.21011223650799998,0.08929872843739801,0.00523595297077299,0.00994013272719136,0.0010542580233512896,18.782043363997218
1604,A,18366265876597.0,0.046035767,11.778885,1.1611522388995517,21,1970-01-01 05:06:06.265876597,-1.69104,0.59658813,1.2534943,11.805242236689901,2.187871485848606,92.07658386230469,-9.120832443237305,76.38665008544922,18832397.0,50354.0,0.003393378391999,0.12211912504799997,0.11190946930572802,0.0019080663502863318,0.008364588989895411,0.005065818794578685,18.832397367998055
1604,A,18366316230601.0,0.76249695,10.853073,1.0213359788995515,21,1970-01-01 05:06:06.316230601,-0.8250427,0.1844635,0.99276733,10.899061611691488,1.3039590527201645,91.895751953125,-9.044205665588379,76.41598510742188,18882751.0,50354.0,0.020356428215909002,0.076335606566,0.05494850585952803,0.0005979488809672997,0.004996494777845677,0.004200983240735652,18.882751371998893
1604,A,18366366584605.0,-0.028259277,7.961609,1.5736277788995516,21,1970-01-01 05:06:06.366584605,-0.23088074,-0.5003662,1.382782,8.051518317322325,1.4885423439490688,91.88856506347656,-9.112480163574219,76.38835144042969,18933105.0,50354.0,0.018485901893121,-0.019771951286000004,0.06533340253010803,0.0009779333451550485,0.0014241031489845598,0.003028337607525867,18.93310537599973
1604,A,18366416938609.0,-1.5886841,6.048462,0.4511302638995515,21,1970-01-01 05:06:06.416938609,0.0027923584,0.5844269,1.3999176,6.254098456097626,1.5170141349040898,91.88436889648438,-9.18340015411377,76.41559600830078,18983459.0,50354.0,-0.040709783402729,-0.14073764243300005,0.050977333243553025,-0.0005595306647674007,-0.004041150041063265,0.0029283553945734643,18.98345937999693
1604,A,18366467292613.0,-0.70428467,5.454895,0.05919300889955148,21,1970-01-01 05:06:06.467292613,0.37098694,0.7609863,0.9812927,5.5091783420790925,1.2960196069163243,91.89701843261719,-9.233689308166504,76.45247650146484,19033813.0,50354.0,-0.05773007472229,-0.20384918081100006,0.012848409039263016,-0.0024784203080136036,-0.008675662448814191,0.0016069407134544594,19.033813383997767
1604,A,18366517646616.0,-1.2000275,5.0140076,0.5619548488995515,21,1970-01-01 05:06:06.517646616,0.9199066,0.8073883,0.36203003,5.159034566697859,1.276389345898128,91.9365463256836,-9.253134727478027,76.49274444580078,19084167.0,50354.0,-0.04794486750409,-0.22989363923980005,0.015638639615808015,-0.002660578020433569,-0.010920342980418996,0.0007172184239887234,19.08416738699816
1604,A,18366568000620.0,2.1707916,7.589859,0.8765300488995516,21,1970-01-01 05:06:06.568000620,1.2356262,0.47549438,-0.11860657,7.910168045986067,1.3292608961318275,91.85514831542969,-9.415580749511719,76.53953552246094,19134521.0,50354.0,0.024440927745699996,-0.17614165061180004,0.03621673427188802,-0.0005917586912969852,-0.010222750492593736,0.0013055627483705232,19.134521390998998
1604,A,18366618354624.0,5.467087,13.080505,3.8118023788995514,21,1970-01-01 05:06:06.618354624,0.91542053,0.37791443,-0.37565613,14.58789333653201,1.0592127223340375,91.8976821899414,-9.397424697875977,76.55929565429688,19184875.0,50354.0,0.19229886951220002,0.026948554427999948,0.11803814553469802,0.005456857875562149,-0.003756234582619535,0.0038836751088904167,19.184875394999835
1604,A,18366668708628.0,2.1468506,15.616516,3.2623027788995516,21,1970-01-01 05:06:06.668708628,-0.10673523,0.39401245,-0.010055542,16.025804458559975,0.40833727971257927,91.88909149169922,-9.397571563720703,76.57926940917969,19235229.0,50354.0,0.1916961069552,0.22903569771700005,0.17810474555790803,0.00966784152251973,0.006444915516254665,0.007455989569038543,19.235229398997035
1604,A,18366719062632.0,3.21167,10.798462,1.1445659288995516,21,1970-01-01 05:06:06.719062632,0.19677734,0.091659546,0.3742981,11.292265694888227,0.4326914161085377,91.75341033935547,-9.595307350158691,76.607177734375,19285583.0,50354.0,0.13491147314620003,0.17158070110600002,0.11095173345625803,0.00822299904421295,0.010086319073166672,0.00727757497213966,19.285583402997872
1604,A,18366769416636.0,-3.2120209,7.9463196,0.3105815588995515,21,1970-01-01 05:06:06.769416636,0.22909546,-0.7816925,-0.25775146,8.571178720490424,0.854379136847918,91.77139282226562,-9.58122444152832,76.56795501708984,19335937.0,50354.0,-8.834609300009464e-06,-0.02153183365680005,0.036636248300318024,0.003396443730443532,0.0037777803357685077,0.003715822616685316,19.33593740699871
1604,A,18366819770640.0,0.55218506,9.778488,-4.323802621100448,21,1970-01-01 05:06:06.819770640,0.29537964,-0.99739075,-0.9108887,10.862493950194274,1.3826625270469226,91.79431915283203,-9.534154891967773,76.51885223388672,19386291.0,50354.0,-0.06696668694368002,-0.04721171905480006,-0.10104086668303199,-0.0016862427061393784,-0.0017307564266199561,-0.0016215150770215896,19.386291410999547
1604,A,18366870124644.0,2.3274078,11.432663,-1.9450946211004485,21,1970-01-01 05:06:06.870124644,-0.028442383,-1.2505188,-0.9108124,11.895425614550067,1.5473155677811552,92.04248046875,-9.533480644226074,76.41727447509766,19436645.0,50354.0,0.07249950943622,0.04056394872699995,-0.157832025866892,0.00013929987189467894,-0.0001673709135430234,-0.006517642815729436,19.436645414996747
1604,A,18366920478648.0,0.35972595,7.637039,-2.2728382211004488,21,1970-01-01 05:06:06.920478648,0.0015106201,-0.5,-0.7013855,8.090729785676874,0.8613616555102372,92.04653930664062,-9.497543334960938,76.39322662353516,19486999.0,50354.0,0.06765396642375,-0.013351312746000049,-0.10619489516809198,0.003528644061726465,0.0006851325360936345,-0.006647405790897792,19.486999418997584
1604,A,18366970832652.0,3.2386627,9.584915,-0.0763050411004485,21,1970-01-01 05:06:06.970832652,0.2599182,-0.56181335,-0.9759369,10.12730824863142,1.1557008885135776,92.0794448852539,-9.675629615783691,76.36390686035156,19537353.0,50354.0,0.09059663104105001,-0.05987206414200003,-0.059144379912431995,0.00398427529237127,-0.001843544959909178,-0.004162746928702353,19.53735342299842
1604,A,18367021186656.0,1.8289337,8.52536,0.17645679889955151,21,1970-01-01 05:06:07.021186656,1.0474701,-0.50161743,-0.4459076,8.721571757503723,1.2440447115001834,92.1173324584961,-9.713166236877441,76.34242248535156,19587707.0,50354.0,0.12758687456280002,-0.037506806325000044,0.002521520806108017,0.005493206120588133,-0.0024517078217476613,-0.0014255937237199188,19.58770742699926
1604,A,18367071540659.0,0.9760895,7.979019,-0.48174632110044846,21,1970-01-01 05:06:07.071540659,0.22544861,-0.54515076,-0.30197144,8.083929878053082,0.6627240583041959,92.23387908935547,-9.628191947937012,76.29844665527344,19638061.0,50354.0,0.07062206910640001,-0.07793844991700007,-0.007686274300451983,0.004990306574759449,-0.002906565216404837,-0.00013003299872709804,19.638061429999652
1604,A,18367121894663.0,1.4426727,8.126389,-1.2377430211004485,21,1970-01-01 05:06:07.121894663,0.18585205,-0.5792084,-0.81082153,8.409367087121078,1.0136345044597206,92.4713134765625,-9.595566749572754,76.23338317871094,19688415.0,50354.0,0.0608971759094,-0.08798334278400005,-0.04329158316859199,0.003311260031762797,-0.00417741297483308,-0.00128346951749812,19.688415433996852
1604,A,18367172248667.0,2.3116455,9.928146,0.2837566088995515,21,1970-01-01 05:06:07.172248667,0.25390625,-0.22767639,-1.0536652,10.194113253928931,1.1074815014452992,92.4374008178711,-9.630295753479004,76.232177734375,19738769.0,50354.0,0.09452246932140002,-0.038910172305000046,-0.024018515899981985,0.0039130004079758526,-0.003194798029395756,-0.0016946663642494872,19.73876943799769
1604,A,18367222602671.0,4.438324,11.472855,-0.4912067711004485,21,1970-01-01 05:06:07.222602671,-0.1486969,0.11071777,-0.6522522,12.331821905865532,0.6780871072865364,92.42879486083984,-9.59794807434082,76.23920440673828,19789123.0,50354.0,0.1699439821015,0.045343802176999945,-0.005222972733731984,0.006658471847474355,0.00016197949928734148,-0.0007362129593310166,19.789123441998527
1604,A,18367272956675.0,2.9847717,16.479813,3.0978283788995515,21,1970-01-01 05:06:07.272956675,-1.3096771,0.5927887,0.78041077,16.967968055018105,1.635754724597821,92.35858154296875,-9.638171195983887,76.26759338378906,19839477.0,50354.0,0.1868912804389,0.21029512223599994,0.06562691221955802,0.00898404140497965,0.0064362211999460985,0.0015207899844346421,19.839477445999364
1604,A,18367323310679.0,-2.6835785,12.365845,0.2410167388995515,21,1970-01-01 05:06:07.323310679,-2.4609528,0.20378113,2.035553,12.6543834381267,3.200201782478867,92.23446655273438,-9.74027156829834,76.27377319335938,19889831.0,50354.0,0.007583141196400005,0.23277793146599998,0.08406210353082802,0.004896282513511948,0.011155250273055252,0.0037687203495474697,19.889831449996564
1604,A,18367373664683.0,-0.4597931,13.797867,1.0129283788995513,21,1970-01-01 05:06:07.373664683,-1.0282898,0.85639954,1.3379822,13.820299532047835,1.8923520952542345,92.17613220214844,-9.808769226074219,76.31458282470703,19940185.0,50354.0,-0.0791406667732,0.16525457702399998,0.03157057623082801,-0.0018016038214470934,0.01002126446625273,0.002911283978359214,19.9401854539974
1604,A,18367424018687.0,1.2157288,10.004211,4.391178378899552,21,1970-01-01 05:06:07.424018687,-0.6200409,-0.45248413,1.0987091,10.84893390286324,1.3402814226861002,92.14940643310547,-9.862817764282227,76.28953552246094,19990539.0,50354.0,0.0190321931189,0.10579571780599997,0.13605919584110804,-0.0015133510411943112,0.00682423327293491,0.004220414771455135,19.99053945799824
1604,A,18367474372691.0,-1.3231506,7.7296906,-0.28712047110044847,21,1970-01-01 05:06:07.474372691,-0.78671265,0.53245544,1.5151062,7.869944192259977,1.7882875570036427,92.10591888427734,-9.939504623413086,76.31368255615234,20040893.0,50354.0,-0.0027045586586000006,-0.04698275941680005,0.10332786594465804,0.0004110808528069731,0.0014807338533648865,0.006027048054580233,20.040893461999076
1604,A,18367524726695.0,0.4736786,5.7141266,0.2420390788995515,21,1970-01-01 05:06:07.524726695,-0.024597168,0.23968506,1.0957184,5.735246051679214,1.1218969474775229,92.08316802978516,-9.864845275878906,76.32718658447266,20091247.0,50354.0,-0.021387156544000002,-0.15499421435560004,-0.001135014211441983,-0.0006065571136558603,-0.005085174268667717,0.0025729094280871807,20.091247465999913
1604,A,18367575080698.0,-0.75431824,4.058548,1.3407329288995515,21,1970-01-01 05:06:07.575080698,0.41577148,0.2952423,0.38752747,4.239721519287193,0.6404775400396812,92.10150909423828,-9.884747505187988,76.34143829345703,20141601.0,50354.0,-0.007065664216280001,-0.24742257159580006,0.03984945084035802,-0.0007163566682815696,-0.0101316474198984,0.0009747133710062191,20.14160146899667
1604,A,18367625434702.0,0.5525665,4.8789673,1.4551433788995514,21,1970-01-01 05:06:07.625434702,1.0896606,0.848938,-0.29356384,5.027759341524964,1.4121740966296987,92.14852142333984,-9.87165641784668,76.38505554199219,20191955.0,50354.0,-0.005079503557980002,-0.26844937729190005,0.07039177780145801,-0.0003057788890525441,-0.012988108057145628,0.0027755434135150027,20.191955472997506
1604,A,18367675788706.0,3.9470215,10.606552,3.1882518788995515,21,1970-01-01 05:06:07.675788706,1.1781006,-0.012802124,-0.48062134,11.661797660739467,1.2724314482763568,92.2073745727539,-9.847620964050293,76.38533782958984,20242309.0,50354.0,0.11328612707600001,-0.10359028058390002,0.11690676240560802,0.00272431816031319,-0.009366842466339018,0.004715615346793302,20.242309476998344
1604,A,18367726142710.0,3.969452,13.890854,6.345203778899552,21,1970-01-01 05:06:07.726142710,-0.16035461,0.26011658,0.11387634,15.632235038004776,0.3261012986035844,92.19713592529297,-9.853808403015137,76.3982925415039,20292663.0,50354.0,0.19931305330950003,0.12330199086199997,0.24002381309640802,0.007870309564565735,0.0004962817296717226,0.008986441099414258,20.29266348099918
1604,A,18367776496714.0,1.5109711,11.536697,-0.15635262110044845,21,1970-01-01 05:06:07.776496714,-0.06752014,0.39682007,-0.045684814,11.64730711693996,0.40510768875774145,92.20126342773438,-9.792312622070312,76.41663360595703,20343017.0,50354.0,0.1379806123887,0.14672025152699997,0.15581670559990804,0.008492042621283582,0.006798349996627853,0.00996607673921715,20.34301748500002
1604,A,18367826850718.0,0.7976532,12.022324,0.7736705488995514,21,1970-01-01 05:06:07.826850718,0.46975708,-0.4349823,-0.33467102,12.05538066121175,0.7224167821633554,92.12457275390625,-9.625696182250977,76.41277313232422,20393371.0,50354.0,0.058124234001100006,0.09967627171699996,0.015542213468198018,0.004937331717555995,0.006203525265714186,0.004314303505377706,20.393371488997218
1604,A,18367877204722.0,-1.4742126,15.540207,-0.8565937211004485,21,1970-01-01 05:06:07.877204722,0.11714172,-0.8282318,-0.8555145,15.658412368559917,1.196492856980788,92.13716888427734,-9.581412315368652,76.3724136352539,20443725.0,50354.0,-0.017033736013800004,0.20047264298699996,-0.0020877567065019855,0.0010345354678262522,0.007556849225502606,0.00033874285788922104,20.443725492998055
1604,A,18367927558726.0,0.4649353,4.1889496,-1.7067829211004488,21,1970-01-01 05:06:07.927558726,-0.03605652,-0.48532104,-0.8024292,4.700364509883881,0.9384717393261407,92.13920593261719,-9.540414810180664,76.34934997558594,20494079.0,50354.0,-0.0254105745821,0.0032517757181999545,-0.06453813372069199,-0.0010686204078729745,0.0051291696897408185,-0.001677440043285463,20.494079496998893
1604,A,18367977912730.0,3.3275757,16.451492,-1.5374256211004487,21,1970-01-01 05:06:07.977912730,0.1844635,-0.86442566,-1.0633087,16.89313995361121,1.3827088977779727,92.26678466796875,-9.531811714172363,76.28910064697266,20544433.0,50354.0,0.09548404944700001,0.026195198163199943,-0.08167943846699201,0.0017642398766735876,0.0007413864614120053,-0.00368131981496932,20.54443350099973
1604,A,18368028266734.0,0.69932556,7.5710907,-2.6506001211004486,21,1970-01-01 05:06:08.028266734,0.5409851,-0.24835205,-0.44007874,8.18285527234217,0.7402789451019123,92.2957763671875,-9.509333610534668,76.27741241455078,20594787.0,50354.0,0.10138529302302,0.1113473646378999,-0.10544192411139201,0.004956579435367694,0.0034629091036432907,-0.004711154545635975,20.59478750499693
1604,A,18368078620738.0,1.7699585,9.022614,-0.1523548211004485,21,1970-01-01 05:06:08.078620738,0.98690796,-0.03916931,-0.7108307,9.209638599558264,1.2168820158173626,92.37117004394531,-9.513047218322754,76.27257537841797,20645141.0,50354.0,0.06216916477862001,-0.07568949676810002,-0.07056999657979199,0.004117810584071891,0.0008977581393579516,-0.00443145212724194,20.645141508997767
1604,A,18368128974741.0,1.8606873,8.177338,0.2821849488995515,21,1970-01-01 05:06:08.128974741,0.7609558,-0.5730591,-0.44639587,8.386862195016272,1.0520074783001816,92.37117767333984,-9.572251319885254,76.25153350830078,20695495.0,50354.0,0.09140876930660001,-0.060426008496,0.0032687331275980157,0.0038666316464635846,-0.0034269800760342462,-0.0016944439099358878,20.69549551199816
1604,A,18368179328745.0,1.9837494,8.997009,-0.12391246110044851,21,1970-01-01 05:06:08.179328745,0.14497375,-0.5548706,-0.6047058,9.226560709436745,0.8334073886683886,92.40264129638672,-9.611967086791992,76.22138977050781,20745849.0,50354.0,0.09679138279590001,-0.061070665581000015,0.0039848264253180155,0.004738315229484643,-0.0030589217632366297,0.00018262286886376692,20.745849515998998
1604,A,18368229682749.0,1.780777,9.247772,-0.6077686611004485,21,1970-01-01 05:06:08.229682749,0.12942505,-0.21916199,-0.7816925,9.468709916309843,0.82208636163393,92.50170135498047,-9.60361385345459,76.1967544555664,20796203.0,50354.0,0.09477948117280001,-0.03412034876300005,-0.018421535613651983,0.0048231796421399605,-0.00239662416813889,-0.0003634730272346843,20.796203519999835
1604,A,18368280036753.0,2.6644745,9.537109,-1.1471974211004485,21,1970-01-01 05:06:08.280036753,0.12705994,0.116760254,-0.7168579,10.018489770717135,0.737334682528469,92.66688537597656,-9.714794158935547,76.17740631103516,20846557.0,50354.0,0.1119180970155,-0.020522251063000072,-0.04418478105157199,0.005204024926046829,-0.001375736735819205,-0.0015762392346803438,20.846557523997035
1604,A,18368330390757.0,3.1701965,13.442947,-0.35929452110044846,21,1970-01-01 05:06:08.330390757,0.034866333,0.24024963,-0.21057129,13.831153182947967,0.32136554585746724,92.67771911621094,-9.793173789978027,76.18814849853516,20896911.0,50354.0,0.146899511767,0.08509966991199995,-0.03792894762879198,0.006516250936317003,0.0016258656743612702,-0.0020673773469855237,20.896911527997872
1604,A,18368380744761.0,2.229187,13.677536,1.9862101788995514,21,1970-01-01 05:06:08.380744761,-0.94073486,0.60380554,0.31518555,13.951460524768697,1.1614237546574953,92.39124298095703,-9.79841423034668,76.25788879394531,20947265.0,50354.0,0.1359402783795,0.18934320049099998,0.04096085551640802,0.007121057396518431,0.00690964814813633,7.633434488650895e-05,20.94726553199871
1604,A,18368431098765.0,-0.7779846,12.657242,1.5338939788995516,21,1970-01-01 05:06:08.431098765,-2.0393066,0.6499634,1.2064667,12.734057440917468,2.4569871241730206,92.28408813476562,-9.860013008117676,76.2883529663086,20997619.0,50354.0,0.036536922824800006,0.16956150570599998,0.08862566238090802,0.004342458494720662,0.00903614378792187,0.003262599761100726,20.997619535999547
1604,A,18368481452769.0,-1.0016174,12.635025,-0.6285969211004484,21,1970-01-01 05:06:08.481452769,-1.9248657,0.7181549,1.2981262,12.714261358691266,2.430223457741477,92.18202209472656,-9.926267623901367,76.32220458984375,21047973.0,50354.0,-0.044805039554000003,0.143314206259,0.02279266402420802,-0.00020816637489106836,0.007877271800142804,0.0028051792039016066,21.047973539996747
1604,A,18368531806773.0,1.824234,9.423691,-0.21903575110044848,21,1970-01-01 05:06:08.531806773,-0.84628296,0.8042145,0.9082031,9.616941311577522,1.4791175346287468,92.16832733154297,-9.998456001281738,76.35515594482422,21098327.0,50354.0,0.020711018138199998,0.06190309273199998,-0.021340847788001983,-0.0006066151771855967,0.0051667559366964065,3.655237737895945e-05,21.098327543997584
1604,A,18368582160777.0,1.2316895,7.9108124,0.45863758889955153,21,1970-01-01 05:06:08.582160777,-0.27825928,0.5348816,1.1551056,8.006569987080418,1.302994819665849,92.08035278320312,-10.028714179992676,76.39220428466797,21148681.0,50354.0,0.07693898595950001,-0.05703840789820004,0.006032455470268018,0.002458534153167793,0.0001224781700605811,-0.00038541939338358804,21.14868154799842
1604,A,18368632514781.0,-1.0897369,6.485199,0.0531352788995515,21,1970-01-01 05:06:08.632514781,-0.029205322,0.7675781,1.3390045,6.583945158098921,1.5436845990852481,92.07251739501953,-10.097009658813477,76.42869567871094,21199035.0,50354.0,0.0035739406102000054,-0.13102082098220005,0.012884905492578017,0.002027073952245337,-0.004734767205521834,0.00047628239696157463,21.19903555199926
1604,A,18368682868784.0,-1.2532806,5.913254,0.2909740138995515,21,1970-01-01 05:06:08.682868784,0.4889679,0.8690033,0.8112793,6.045179123509556,1.2854689592712032,92.0894775390625,-10.139127731323242,76.4712905883789,21249389.0,50354.0,-0.058990151597500005,-0.18131334881900005,0.008663639664803017,-0.0013952139440272522,-0.007863637393084816,0.0005425277214273824,21.249389554999652
1604,A,18368733222788.0,-0.9790802,5.4826355,0.9276927788995515,21,1970-01-01 05:06:08.733222788,1.0287476,0.76556396,0.29193115,5.596819141615052,1.315155351164631,92.13417053222656,-10.155128479003906,76.50961303710938,21299743.0,50354.0,-0.0562041478616,-0.20655489005850006,0.030682373842303018,-0.0029002468774817613,-0.009765358650218822,0.0009906145820684088,21.299743558996852
1604,A,18368783576792.0,1.4294434,8.574387,1.0927775788995515,21,1970-01-01 05:06:08.783576792,1.2729034,0.57836914,-0.059936523,8.722382506326479,1.399423565124308,92.01953887939453,-10.136898040771484,76.569580078125,21350097.0,50354.0,0.011338794286400002,-0.13955554451750005,0.050869382198308014,-0.0011295750069628106,-0.008714022411319956,0.002053228561834464,21.35009756299769
1604,A,18368833930796.0,3.870636,12.202866,3.5889018788995513,21,1970-01-01 05:06:08.833930796,0.6376343,0.24455261,-0.057022095,13.199503170303958,0.6852992039339394,92.04920959472656,-10.134482383728027,76.58208465576172,21400451.0,50354.0,0.13344009905380003,0.029639698780999965,0.11787064370900802,0.0036450981976262164,-0.0027673512481078627,0.004248367632268496,21.400451566998527
1604,A,18368884284800.0,1.8218384,10.00914,3.2700083788995515,21,1970-01-01 05:06:08.884284800,-0.031707764,0.45162964,0.020568848,10.57773218698316,0.4532083312699099,92.04361724853516,-10.136317253112793,76.60498809814453,21450805.0,50354.0,0.1433194279688,0.06576247506199999,0.17268678356060801,0.006967974611848002,0.0024019405308452098,0.007315364346367123,21.450805570999364
1604,A,18368934638804.0,1.2953186,9.835648,0.9490855788995515,21,1970-01-01 05:06:08.934638804,0.33059692,0.30187988,-0.22410583,9.937226015622208,0.5006487875769697,91.92191314697266,-10.060578346252441,76.64447021484375,21501159.0,50354.0,0.07848066178900001,0.006163027475999995,0.10622412857550803,0.0055842608598321315,0.0018108683773992256,0.007022140034850995,21.501159574996564
1604,A,18368984992808.0,-0.83029175,8.803711,0.8488353388995515,21,1970-01-01 05:06:08.984992808,0.2099762,-1.4330444,0.014602661,8.85551301056591,1.4484196541907601,91.94512176513672,-10.058891296386719,76.57170867919922,21551513.0,50354.0,0.011707981002450003,-0.02418605845700002,0.04526625494742802,0.002270679459560337,-0.0004537658510086377,0.0038140733859569607,21.5515135789974
1604,A,18369035346812.0,-1.2930908,6.681305,-2.2806507211004488,21,1970-01-01 05:06:09.035346812,0.02420044,-1.0182343,-0.32815552,7.304757379077723,1.070080742887729,91.95524597167969,-10.040762901306152,76.5206069946289,21601867.0,50354.0,-0.053460402461350004,-0.10360295216800004,-0.03604881587767199,-0.0010512007150707253,-0.0032173439205056267,0.00023206746345924754,21.60186758299824
1604,A,18369085700816.0,0.537796,8.831131,-1.7601582211004487,21,1970-01-01 05:06:09.085700816,0.35983276,-0.8095093,-1.1851654,9.101266054742908,1.479662781620484,91.98001098632812,-9.980145454406738,76.48158264160156,21652221.0,50354.0,-0.0190160571796,-0.10291259882800007,-0.10173544673779199,-0.0018247398243801986,-0.005199442027426295,-0.003468994379869537,21.652221586999076
1604,A,18369136054820.0,0.92411804,10.011856,-1.3122364211004487,21,1970-01-01 05:06:09.136054820,-0.003326416,-0.87649536,-0.85850525,10.194846514693856,1.2269011555225209,92.17822265625,-9.818419456481934,76.40581512451172,21702575.0,50354.0,0.03680660978508,-0.01905931630100006,-0.077353679906692,0.0004479127429481699,-0.0030708869072028364,-0.004508926941528173,21.702575590999913
1604,A,18369186408823.0,2.1203003,8.981354,-1.4195667211004483,21,1970-01-01 05:06:09.186408823,0.06956482,-0.40242004,-0.6436615,9.400932817748679,0.762286874711538,92.40938568115234,-9.868754386901855,76.3482894897461,21752929.0,50354.0,0.07664932054618001,-0.01527715183000005,-0.06877860771119199,0.002856479957950133,-0.0008644892581341898,-0.0036791726053554655,21.75292959399667
1604,A,18369236762827.0,1.6155396,7.9987335,-0.5779987611004485,21,1970-01-01 05:06:09.236762827,0.9043884,-0.396286,-0.39926147,8.215603883035902,1.0650683984031828,92.56674194335938,-9.885421752929688,76.31036376953125,21803283.0,50354.0,0.0940572411623,-0.06596153701250004,-0.050292706145371985,0.004297879104134402,-0.002045346468987625,-0.0029978584689667113,21.803283597997506
1604,A,18369287116831.0,1.453476,8.24411,-0.5299183211004485,21,1970-01-01 05:06:09.287116831,0.8463135,-0.52207947,-0.35365295,8.41992536596049,1.0554069936860535,92.70565032958984,-9.868417739868164,76.2688980102539,21853637.0,50354.0,0.07726860576120001,-0.08452312920050006,-0.02789402837857198,0.0043134708479929595,-0.003788752441244704,-0.0019685074151093375,21.853637601998344
1604,A,18369337470835.0,1.5027008,9.12825,-0.6360890211004485,21,1970-01-01 05:06:09.337470835,0.4416504,-0.532547,-0.73480225,9.306099388637238,1.0092550369625224,92.82234954833984,-9.816507339477539,76.22822570800781,21903991.0,50354.0,0.0744276632936,-0.056085292280000074,-0.029356566854591985,0.0038192569659926995,-0.003540098227614552,-0.0014413982361853692,21.90399160599918
1604,A,18369387824839.0,1.6989899,9.545776,-1.0402790211004485,21,1970-01-01 05:06:09.387824839,0.26571655,-0.26402283,-0.9948578,9.798407974455023,1.063040630421035,92.97730255126953,-9.771493911743164,76.19355773925781,21954345.0,50354.0,0.0806089667539,-0.02331324739800005,-0.04220591819849199,0.003903357234705908,-0.001999017033473009,-0.0018017286861814954,21.95434561000002
1604,A,18369438178843.0,2.8754272,10.189148,-2.1744801211004487,21,1970-01-01 05:06:09.438178843,0.1723938,0.009719849,-0.66773987,10.889533667277313,0.6897032925328396,92.98554992675781,-9.738179206848145,76.19581604003906,22004699.0,50354.0,0.1151700993267,0.003396981547999951,-0.080937990923192,0.0049291295467112665,-0.0005014318253054524,-0.003100394199956638,22.004699613997218
1604,A,18369488532847.0,1.6057281,12.666962,-0.07281078110044847,21,1970-01-01 05:06:09.488532847,-0.18554688,0.2370758,-0.3208313,12.776149439210254,0.4399605694639741,92.94982147216797,-9.659873962402344,76.2127456665039,22055053.0,50354.0,0.11282204698810001,0.08197908146999995,-0.05658004304471199,0.005740158267767721,0.0021495131386041833,-0.003462291541209919,22.055053617998055
1604,A,18369538886851.0,2.9535522,11.671143,0.8638499788995515,21,1970-01-01 05:06:09.538886851,-1.3136902,0.42218018,0.36691284,12.04902197867036,1.4278105890200343,92.74920654296875,-9.793343544006348,76.25546264648438,22105407.0,50354.0,0.11478900011310002,0.11929126958499998,0.01991599388298802,0.005730563332866914,0.005067383628511734,-0.0009230907657447245,22.105407621998893
1604,A,18369589240855.0,-1.6910706,11.577988,0.5424846288995515,21,1970-01-01 05:06:09.589240855,-1.9378662,0.78634644,1.407608,11.702046327521307,2.520917772254207,92.64608001708984,-9.865496635437012,76.2919692993164,22155761.0,50354.0,0.0317854992432,0.09187417118699998,0.03540728642055802,0.0036903061702935657,0.005316512302316643,0.0013928742282023788,22.15576162599973
1604,A,18369639594859.0,-0.60266113,12.476257,0.4493602438995515,21,1970-01-01 05:06:09.639594859,-1.40242,0.59962463,1.6421661,12.49103107352245,2.2412141917478228,92.5713882446289,-9.94887924194336,76.31857299804688,22206115.0,50354.0,-0.05774928376621001,0.11214452636499997,0.024971678362463015,-0.0006536902029358232,0.005136578748266703,0.0015201611963421206,22.20611562999693
1604,A,18369689948863.0,0.9023895,12.681076,5.500538378899551,21,1970-01-01 05:06:09.689948863,-0.70362854,-0.65341187,1.5157471,13.707831291773006,1.7943047303392583,92.54255676269531,-10.023134231567383,76.2820053100586,22256469.0,50354.0,0.00754626117149,0.13991697294099997,0.14980059762621303,-0.0012639614998672657,0.006346152368027162,0.0044002415925668975,22.256469633997767
1604,A,18369740302866.0,-1.8417664,8.211166,2.1792643788995516,21,1970-01-01 05:06:09.740302866,-0.70370483,-0.08415222,1.502121,8.606629136787873,1.6609182949613317,92.5086898803711,-10.097979545593262,76.27436828613281,22306823.0,50354.0,-0.023650692211300003,0.032534776833999954,0.19335439403310803,-0.0004054612602892965,0.004341817704085173,0.008639613225006728,22.30682363699816
1604,A,18369790656870.0,-0.21360779,6.352539,-0.5897480211004485,21,1970-01-01 05:06:09.790656870,-0.5487671,0.8312378,1.219162,6.428789289249387,1.5743117837440113,92.47431945800781,-10.16069507598877,76.31387329101562,22357177.0,50354.0,-0.05174815598163001,-0.12679879921500004,0.040019253340308016,-0.001898316800953399,-0.0023732852914864393,0.005875648319920496,22.357177640998998
1604,A,18369841010874.0,-0.60317993,4.337433,1.1522563788995515,21,1970-01-01 05:06:09.841010874,-0.029281616,0.82987976,0.5383606,4.44777695471938,0.9896413313547433,92.46562194824219,-10.189376831054688,76.35479736328125,22407531.0,50354.0,-0.02056426442644,-0.22432777495600004,0.014162272924308016,-0.0018206098086139787,-0.008840313757903269,0.0013641282867642378,22.407531644999835
1604,A,18369891364878.0,0.55526733,4.0058746,0.9570201788995515,21,1970-01-01 05:06:09.891364878,0.88790894,0.83773804,0.058914185,4.085973579248981,1.222153096215519,92.50252532958984,-10.194136619567871,76.3971939086914,22457885.0,50354.0,-0.0012062955302000022,-0.28340974455480006,0.05310525589570801,-0.0005481173880283254,-0.012783307528723413,0.0016935945731015435,22.457885648997035
1604,A,18369941718882.0,2.798523,8.751999,4.484745378899552,21,1970-01-01 05:06:09.941718882,1.2424011,0.13719177,-0.3791046,10.066123472773121,1.3061785378645994,92.5632553100586,-10.175505638122559,76.40499877929688,22508239.0,50354.0,0.08443837913841,-0.17226421637280004,0.13700733144870803,0.0020955341690039033,-0.011472503314274188,0.004786464611570364,22.508239652997872
1604,A,18369992072886.0,5.5639496,11.676422,5.727238078899552,21,1970-01-01 05:06:09.992072886,0.2858429,0.22969055,-0.17829895,13.998311976047336,0.4077430904513466,92.57542419433594,-10.167113304138184,76.41706085205078,22558593.0,50354.0,0.21054197265020003,0.02085715551699997,0.25710710751700805,0.007426720316981835,-0.0038119755711664787,0.009922619229839834,22.55859365699871
1604,A,18370042426890.0,-1.4813538,12.171219,0.1777843188995515,21,1970-01-01 05:06:10.042426890,0.5198822,0.26828003,-0.38879395,12.262606183915846,0.7024332081630561,92.59884643554688,-10.148300170898438,76.43156433105469,22608947.0,50354.0,0.1027875144566,0.106942857457,0.14867074890938803,0.007888696496887905,0.0032176209266463972,0.010216269091247374,22.608947660999547
1604,A,18370092780894.0,2.6587372,17.095596,3.8343242788995515,21,1970-01-01 05:06:10.092780894,-0.58569336,-1.5523987,0.35736084,17.643741734247605,1.6972581434994751,92.58360290527344,-10.162639617919922,76.35196685791016,22659301.0,50354.0,0.029642981861800005,0.24338140125500002,0.10101285816678802,0.003334202605808357,0.008820113861592024,0.006286284175356885,22.659301664996747
1604,A,18370143134898.0,-1.0969086,4.652008,-5.015529321100448,21,1970-01-01 05:06:10.143134898,0.30647278,-0.9229126,-0.7391205,7.203624377538383,1.2214713855182766,92.60688018798828,-10.123636245727539,76.30683135986328,22709655.0,50354.0,0.039322158662200006,0.05407022590799999,-0.02973919934749198,0.0017363353429727486,0.007488939617082851,0.0017944569080934165,22.709655668997584
1604,A,18370193488902.0,5.7584686,16.866821,-2.2776142211004484,21,1970-01-01 05:06:10.193488902,0.46705627,-1.5271149,-1.3315582,18.018908357367845,2.0792471515275817,92.64324951171875,-10.05362606048584,76.23245239257812,22760009.0,50354.0,0.11736409612,0.04831035773300002,-0.183619474961992,0.0039448898366514495,0.002577635954329457,-0.005371731343089878,22.76000967299842
1604,A,18370243842906.0,0.4386139,6.719879,-1.1136433211004486,21,1970-01-01 05:06:10.243842906,0.053207397,-1.3808746,-0.9331665,6.896553987853143,1.6674667627101074,92.6577377319336,-10.00383186340332,76.16461181640625,22810363.0,50354.0,0.1560239461025,0.10037314589999997,-0.08538169113999199,0.006883090739035883,0.0037434045709680407,-0.006772642358949651,22.81036367699926
1604,A,18370294196909.0,3.0269165,8.174759,-0.7519795211004484,21,1970-01-01 05:06:10.294196909,0.054031372,-1.2575531,-0.96665955,8.789590624121903,1.5870695870332892,92.67109680175781,-9.952624320983887,76.10311889648438,22860717.0,50354.0,0.08725165888080001,-0.11846689907400006,-0.04697078629809199,0.006124949906664545,-0.0004555464236618001,-0.0033322383244586405,22.860717679999652
1604,A,18370344550913.0,2.7460938,8.012787,-0.1594044211004485,21,1970-01-01 05:06:10.344550913,0.91889954,-1.0741882,-0.36253357,8.487071652157784,1.4593447992192923,92.75376892089844,-10.154269218444824,76.04460906982422,22911071.0,50354.0,0.1453470803231,-0.08591535435800006,-0.022945913512791984,0.0058561384569365904,-0.005145731994657467,-0.0017602927511386258,22.911071683996852
1604,A,18370394904917.0,1.7818604,9.364258,0.8400767988995514,21,1970-01-01 05:06:10.394904917,1.2306824,-0.802536,-0.19355774,9.543663529436893,1.4819270561264708,92.68283081054688,-10.159024238586426,76.02896881103516,22961425.0,50354.0,0.1140003028934,-0.055967338035000064,0.017137288455848016,0.006529589067241821,-0.003572180546378564,-0.0001462437530586783,22.96142568799769
1604,A,18370445258921.0,2.2195435,8.90007,-0.6809040211004486,21,1970-01-01 05:06:10.445258921,0.26324463,-0.52700806,-0.64453125,9.233124967626237,0.8731871292886554,92.80091094970703,-10.21987247467041,75.98596954345703,23011779.0,50354.0,0.10074334599029999,-0.03362821394400006,0.004007493026648014,0.005406600847944916,-0.0022557472121752862,0.0005323621633848026,23.011779691998527
1604,A,18370495612925.0,1.5026093,9.632904,-0.35709727110044853,21,1970-01-01 05:06:10.495612925,0.34378052,-0.25584412,-0.9097748,9.7767727139933,1.0056497632799826,92.8586196899414,-10.139425277709961,75.96843719482422,23062133.0,50354.0,0.09371264104560001,-0.026864513602000054,-0.02613375853374199,0.004895818385602855,-0.001523025401425645,-0.0005570729866721051,23.062133695999364
1604,A,18370545966929.0,1.5070953,9.603439,-1.9094044211004486,21,1970-01-01 05:06:10.545966929,0.06262207,0.0074157715,-0.8144684,9.985571978264236,0.8169059259893914,92.861328125,-10.09876823425293,75.97088623046875,23112487.0,50354.0,0.0757753327142,-0.009155792289000042,-0.057063713104541995,0.004267198715350485,-0.0009068832414177094,-0.002094662743437076,23.112487699996564
1604,A,18370596320933.0,2.0665436,14.014633,-1.0190540211004486,21,1970-01-01 05:06:10.596320933,0.14762878,0.2214508,-0.18325806,14.234512444338257,0.32313809750614675,92.9373550415039,-10.0466947555542,75.97020721435547,23162841.0,50354.0,0.08997350658530001,0.10116299874399996,-0.073729798199292,0.0041730585270435125,0.002316465436917533,-0.0032929882340966285,23.1628417039974
1604,A,18370646674937.0,2.90036,15.462891,0.4245494528995515,21,1970-01-01 05:06:10.646674937,-1.2621613,0.895874,0.35839844,15.732629597162944,1.5887387490988327,92.78852081298828,-10.081597328186035,76.02835083007812,23213195.0,50354.0,0.1250517319372,0.24868642174799996,-0.014967841513593988,0.005413690430280983,0.008808158859727083,-0.0022331404750513305,23.21319570799824
1604,A,18370697028941.0,-3.02594,12.004089,2.7832683788995514,21,1970-01-01 05:06:10.697028941,-2.1517181,-0.13352966,1.667099,12.611847055508802,2.7252412788170384,92.68283081054688,-10.16453742980957,76.01753234863281,23263549.0,50354.0,-0.0031617276599999952,0.19806695546000005,0.08076322955120602,0.003068824637687065,0.011247909777965817,0.0016565304846229583,23.263549711999076
1604,A,18370747382945.0,-1.1771393,12.542252,-1.2972065211004487,21,1970-01-01 05:06:10.747382945,-1.0310059,1.2626953,1.2067261,12.707750338563175,2.028191427577316,92.62044525146484,-10.227728843688965,76.07878112792969,23313903.0,50354.0,-0.10582092753609999,0.12453402735699998,0.03741457939380801,-0.0027438563098722093,0.00812212494438361,0.0029753626958086187,23.313903715999913
1604,A,18370797736948.0,0.7431488,9.715759,2.5119823788995514,21,1970-01-01 05:06:10.797736948,-1.138855,-0.4605255,1.1998596,9.975915896663496,1.7171888384471319,92.56816101074219,-10.286619186401367,76.05265045166016,23364257.0,50354.0,-0.010926578818500001,0.06692074294699996,0.030584411771808012,-0.0029393519674897643,0.004820256751943807,0.0017120106005767148,23.36425771899667
1604,A,18370848090952.0,-2.611496,6.7516937,-0.15356029110044855,21,1970-01-01 05:06:10.848090952,-1.1502228,0.16375732,1.2730713,7.258352186712447,1.7235253071472763,92.50968170166016,-10.350571632385254,76.05810546875,23414611.0,50354.0,-0.0470393774544,-0.07886814337210005,0.05937799290451802,-0.0014594088810828034,-0.000300799700502745,0.0022649834625358607,23.414611722997506
1604,A,18370898444956.0,0.07397461,5.1599884,0.8535045288995515,21,1970-01-01 05:06:10.898444956,-0.50527954,0.5358734,1.0650177,5.1827412397928505,1.2948862558863856,92.47993469238281,-10.404934883117676,76.08295440673828,23464965.0,50354.0,-0.06388717603603,-0.19356877976830006,0.017622496075068016,-0.002792797837228556,-0.006859144413905854,0.0019386413110390375,23.464965726998344
1604,A,18370948798960.0,0.19642639,4.472046,0.5928996788995515,21,1970-01-01 05:06:10.948798960,0.17810059,0.45620728,0.49668884,4.481703214446057,0.6975275666695132,92.35103607177734,-10.235075950622559,76.1290054321289,23515319.0,50354.0,0.0068078859770000005,-0.2509634699112001,0.03641611873975802,-0.0014370852858161985,-0.011191988450180776,0.0013605302051928753,23.51531973099918
1604,A,18370999152964.0,0.44578552,5.370529,1.7218974788995514,21,1970-01-01 05:06:10.999152964,1.0992737,0.87228394,-0.043167114,5.554992013875761,1.4039748356807191,92.39810943603516,-10.234726905822754,76.17337036132812,23565673.0,50354.0,0.01616896925807,-0.24566268922500004,0.05827964804190802,0.0005784882842533574,-0.012503556808572111,0.0023841553202620064,23.56567373500002
1604,A,18371049506968.0,2.4265747,10.155655,3.4266398788995516,21,1970-01-01 05:06:11.049506968,1.2196045,0.4736786,-0.34298706,10.878591613376583,1.3525703958928177,92.45469665527344,-10.218599319458008,76.19815063476562,23616027.0,50354.0,0.07231741325894,-0.10256646543200004,0.12962472505730804,0.002227821652630761,-0.008767365426799293,0.004730868401518963,23.616027738997218
1604,A,18371099860972.0,4.2595673,14.969284,3.9360087788995513,21,1970-01-01 05:06:11.099860972,0.42044067,0.37701416,-0.4032135,15.965924991983973,0.6938956408659767,92.47217559814453,-10.19926929473877,76.21817779541016,23666381.0,50354.0,0.16833699713400002,0.13910138920299997,0.185369405257408,0.006058956090463051,0.0009198397757824653,0.007930607218933605,23.666381742998055
1604,A,18371150214976.0,1.8227844,15.207489,-0.8395344211004484,21,1970-01-01 05:06:11.150214976,0.13345337,-0.14920044,-0.0791626,15.364345366667115,0.21526098229663104,92.53285217285156,-10.110554695129395,76.20148468017578,23716735.0,50354.0,0.1531353687509,0.266291413821,0.07795993490630802,0.008093709755884129,0.010206574601735248,0.0066298427973018785,23.716735746998893
1604,A,18371200568980.0,0.5992279,8.570114,-2.077312121100449,21,1970-01-01 05:06:11.200568980,0.24394226,-1.3951721,0.21052551,8.933936361914869,1.4318987412499102,92.55756378173828,-10.117975234985352,76.13021850585938,23767089.0,50354.0,0.060979003677100005,0.105179510731,-0.07343744539299199,0.005390757554619757,0.009352523467445705,0.00011386271847675777,23.76708975099973
1604,A,18371250922984.0,-0.5370331,8.165207,-2.2932392211004484,21,1970-01-01 05:06:11.250922984,0.37890625,-0.6872101,-1.1092377,8.606600165539433,1.3587626514341504,92.58218383789062,-10.061031341552734,76.0978775024414,23817443.0,50354.0,0.0015658784796,-0.07212402318300003,-0.110037371142592,0.0015746924980592361,0.0008322380099959954,-0.004619345455916399,23.81744375499693
1604,A,18371301276988.0,2.1311035,12.970978,-1.5363117211004487,21,1970-01-01 05:06:11.301276988,0.2893219,-1.3195343,-1.2115173,13.282975707065727,1.8145666421753128,92.75277709960938,-9.977957725524902,76.00850677490234,23867797.0,50354.0,0.040133910460800004,0.03867652974499999,-0.09641660407179199,0.0010498755861524508,-0.0008421075422885269,-0.005197891733972546,23.867797758997767
1604,A,18371351630991.0,0.20283508,7.2809906,-1.1706806211004483,21,1970-01-01 05:06:11.351630991,0.12231445,-1.2195282,-0.6472473,7.445819706888085,1.38605155843184,92.76932525634766,-9.942696571350098,75.94825744628906,23918151.0,50354.0,0.05876157162866,0.0164146134422,-0.06815394619959199,0.0024898915525663344,0.0013870297120241342,-0.004143392744182635,23.91815176199816
1604,A,18371401984995.0,2.1486053,8.406189,-1.7877003211004485,21,1970-01-01 05:06:11.401984995,0.32255554,-0.6846924,-0.73298645,8.94168797089905,1.0536199005742317,92.79112243652344,-9.904431343078613,75.91534423828125,23968505.0,50354.0,0.059202214447259996,-0.09851307921080006,-0.07448315698179199,0.002969974242033438,-0.0020669930726560436,-0.0035911743467977046,23.968505765998998
1604,A,18371452338999.0,1.4648438,8.612701,-0.27064098110044854,21,1970-01-01 05:06:11.452338999,0.8985138,-0.5885773,-0.44197083,8.760139409837587,1.161502691101755,92.87826538085938,-9.874025344848633,75.88021850585938,24018859.0,50354.0,0.0909758079907,-0.06498460647000007,-0.05182285896551199,0.003781032070920519,-0.0041163812323855055,-0.0031800065635052724,24.018859769999835
1604,A,18371502693003.0,1.1528473,8.907883,0.0686687188995515,21,1970-01-01 05:06:11.502693003,0.5661011,-0.8741913,-0.24832153,8.98736382067378,1.0706747716643188,92.89100646972656,-9.79687213897705,75.84049987792969,24069213.0,50354.0,0.06590560882470001,-0.05235345663200005,-0.0050850556454319846,0.003949803431161326,-0.0029542204147190573,-0.0014327705661597366,24.069213773997035
1604,A,18371553047007.0,2.3295746,9.225815,-0.18201792110044845,21,1970-01-01 05:06:11.553047007,0.07467651,-0.6667175,-0.73469543,9.53162199025569,0.9949201881633094,92.91393280029297,-9.867146492004395,75.80622863769531,24119567.0,50354.0,0.0876769361763,-0.03691708545400002,-0.002853792863811983,0.0038667477354901772,-0.002247564438099224,-0.0001998763889172354,24.119567777997872
1604,A,18371603401011.0,2.7579498,9.667786,0.07040821889955151,21,1970-01-01 05:06:11.603401011,0.19032288,-0.23500061,-0.883255,10.058060736072033,0.9335884962749201,92.89788818359375,-9.973388671875,75.80126953125,24169921.0,50354.0,0.1280886018188,-0.01778500762300003,-0.0028099974723119823,0.005432328950102633,-0.0013772345973996304,-0.00014259724929259308,24.16992178199871
1604,A,18371653755015.0,2.790451,12.391708,0.7888225288995515,21,1970-01-01 05:06:11.653755015,0.13345337,0.11404419,-0.39091492,12.708778886977722,0.4285211242351063,92.7842788696289,-10.022719383239746,75.82874298095703,24220275.0,50354.0,0.13969208694159999,0.06192268043799994,0.02163285253733802,0.00674191440092059,0.001111254188463253,0.00047390302197216055,24.220275785999547
1604,A,18371704109019.0,2.1348877,13.915192,1.2187236488995516,21,1970-01-01 05:06:11.704109019,-0.7814789,0.6744995,0.3309784,14.103324004187323,1.0840689774696166,92.5826644897461,-10.009346961975098,75.88936614990234,24270629.0,50354.0,0.12400525244990002,0.16885962129999996,0.05054399011844802,0.006639107913859795,0.0058104060108576236,0.0018171963675447252,24.270629789996747
1604,A,18371754463023.0,-0.31611633,11.819931,0.5246013288995515,21,1970-01-01 05:06:11.754463023,-2.0509033,0.7393799,0.97340393,11.825115519206774,2.3875515059186356,92.4739761352539,-10.059599876403809,75.9247055053711,24320983.0,50354.0,0.045791206782490004,0.15446399177099995,0.04389169296604802,0.0042749654540938835,0.008140318606288565,0.002377607193018357,24.320983793997584
1604,A,18371804817027.0,-1.9351654,11.811432,-0.6430470211004485,21,1970-01-01 05:06:11.804817027,-1.4477081,0.29904175,1.6700134,12.012049155913296,2.2302980669023214,92.3995590209961,-10.143655776977539,75.93627166748047,24371337.0,50354.0,-0.056680520116210005,0.10149762625099998,-0.0029821071925419857,-0.00027416024180306847,0.006444345656939892,0.0010299806410195614,24.37133779799842
1604,A,18371855171031.0,0.63313293,11.173172,-0.8884083211004484,21,1970-01-01 05:06:11.855171031,-0.8474426,0.6257782,1.4339142,11.262081951906994,1.7792884108124911,92.45466613769531,-10.044632911682129,75.94696807861328,24421691.0,50354.0,-0.03278127149719,0.08521417490799994,-0.03855745115059198,-0.002252379527450572,0.004700843017780142,-0.0010458414604050841,24.42169180199926
1604,A,18371905525034.0,-0.85035706,8.015549,0.5666545588995515,21,1970-01-01 05:06:11.905525034,-1.0619965,0.67604065,1.1767578,8.06282955368542,1.7232604116399566,92.3960189819336,-10.104846000671387,75.97874450683594,24472045.0,50354.0,-0.005469051921009999,-0.010354771383000056,-0.008100794470931982,-0.0009630283927000214,0.001884735202548922,-0.001174714650013109,24.472045804999652
1604,A,18371955879038.0,-0.930954,5.8795624,0.5972179088995515,21,1970-01-01 05:06:11.955879038,-0.68315125,0.5497589,1.2275085,5.956989411345187,1.508544860479138,92.35740661621094,-10.167311668395996,76.00405883789062,24522399.0,50354.0,-0.044848068557620004,-0.14363198028220003,0.02930281712177802,-0.0012668341422904677,-0.003876924446674743,0.0005338033242803507,24.522399808996852
1604,A,18372006233042.0,0.14021301,4.2210083,0.4267467188995515,21,1970-01-01 05:06:12.006233042,-0.047714233,0.6017914,0.75593567,4.223664905930501,0.9674028500697561,92.27203369140625,-10.000732421875,76.04663848876953,24572753.0,50354.0,-0.019908485905230002,-0.23916713148610003,0.025780357434098018,-0.0016303757717111747,-0.00963773323699049,0.001386829085793291,24.57275381299769
1604,A,18372056587046.0,1.2276917,4.9322968,0.7102244988995515,21,1970-01-01 05:06:12.056587046,0.7091522,0.65234375,0.1295929,5.093895975480494,0.97223635534746,92.14996337890625,-10.108399391174316,76.10594177246094,24623107.0,50354.0,0.034439736883670004,-0.2630164374973,0.028625524350528023,0.00036585330588418394,-0.012643475716295063,0.00136977688569153,24.623107816998527
1604,A,18372106941050.0,2.0342255,8.059143,2.7034190788995516,21,1970-01-01 05:06:12.106941050,1.1683044,0.26664734,-0.408844,8.632132452031058,1.2661711540405727,92.20587921142578,-10.088481903076172,76.12026977539062,24673461.0,50354.0,0.08212528934440001,-0.16638372015540004,0.08594530435824803,0.0029347576653441193,-0.01081100776922203,0.002884549754400855,24.673461820999364
1604,A,18372157295054.0,3.1000824,12.037949,5.370594378899552,21,1970-01-01 05:06:12.157295054,0.52948,0.28575134,-0.15364075,13.397311264460184,0.6209737343659215,92.22976684570312,-10.081361770629883,76.13507080078125,24723815.0,50354.0,0.1292664699983,0.012515285283999963,0.20327943682700805,0.005322210324971158,-0.0038739455847572398,0.0072818113088211935,24.723815824996564
1604,A,18372207649058.0,1.0965424,8.953171,3.2336009788995512,21,1970-01-01 05:06:12.207649058,-0.040740967,0.47129822,-0.031448364,9.46248245892168,0.47410002970421755,92.22354125976562,-10.080708503723145,76.15904998779297,24774169.0,50354.0,0.1056584225896,0.035024228239999934,0.21662782652330803,0.005914704020685559,0.0011969023319937456,0.010572005169370909,24.7741698289974
1604,A,18372258003062.0,2.9554596,11.170395,1.1864055288995514,21,1970-01-01 05:06:12.258003062,0.4234619,0.0912323,-0.10467529,11.583278871942124,0.44564585676463336,92.0874252319336,-10.194535255432129,76.19140625,24824523.0,50354.0,0.102017254354,0.013181821181999927,0.11128250384685802,0.005228650518409018,0.0012136837062976906,0.008255798387729671,24.82452383299824
1604,A,18372308357066.0,-1.4593353,7.064804,0.3059886588995515,21,1970-01-01 05:06:12.308357066,0.37077332,-1.0288086,-0.1782074,7.214274087206527,1.1080062579573018,92.1151351928711,-10.183741569519043,76.1395034790039,24874877.0,50354.0,0.03766792150110001,-0.03436159477700009,0.037574008466218015,0.0035168536725038533,-0.0005332431598013192,0.0037477604105063157,24.874877836999076
1604,A,18372358711070.0,0.4970398,13.234024,-4.102733221100448,21,1970-01-01 05:06:12.358711070,0.39749146,-0.71899414,-0.98812866,13.979564983545218,1.2850487472624013,92.14112091064453,-10.133033752441406,76.1048583984375,24925231.0,50354.0,-0.0242277138035,0.017594392555999972,-0.09559063784253198,0.0003383841092024754,-0.00042214785031812006,-0.0014606846778074567,24.925231840999913
1604,A,18372409065073.0,0.4678955,10.530609,-1.5649525211004485,21,1970-01-01 05:06:12.409065073,0.2795105,-1.2888947,-0.9091797,10.717857694085701,1.6018687193994487,92.16627502441406,-10.085186004638672,76.04118347167969,24975585.0,50354.0,0.024294176048100004,0.10485296504099997,-0.14269532393139198,1.673319932294281e-06,0.0030828571222196676,-0.005999325659582084,24.97558584399667
1604,A,18372459419077.0,-0.09739685,8.554565,-1.1158711211004486,21,1970-01-01 05:06:12.459419077,-0.29615784,-1.0323944,-0.83110046,8.683893314562033,1.358041103191298,92.16035461425781,-10.041714668273926,75.99039459228516,25025939.0,50354.0,0.009328044511050002,-0.012961774202000028,-0.06749509683969199,0.0008465066470177197,0.002313544511753502,-0.005291964223753581,25.025939847997506
1604,A,18372509773081.0,2.974823,8.757217,-2.1643482211004486,21,1970-01-01 05:06:12.509773081,-0.110687256,-0.4477234,-1.0032806,9.590724982281818,1.1042100678243836,92.15843200683594,-9.990747451782227,75.96959686279297,25076293.0,50354.0,0.07244495817855001,-0.05761046458600002,-0.082586082378592,0.0020587988887160596,-0.0017767972559654774,-0.0037785938491787362,25.076293851998344
1604,A,18372560127085.0,1.7954254,8.51796,-0.5950123211004485,21,1970-01-01 05:06:12.560127085,1.023941,-0.7159271,-0.33236694,8.758899589703587,1.292855199471454,92.32337188720703,-10.019343376159668,75.91520690917969,25126647.0,50354.0,0.1201005439668,-0.05853206867100001,-0.069472420370992,0.004847718107513477,-0.00292412055981149,-0.0038283769237262765,25.12664785599918
1604,A,18372610481089.0,1.4404297,8.221619,0.08850513889955153,21,1970-01-01 05:06:12.610481089,0.74186707,-0.61001587,-0.42279053,8.351730714139423,1.0493988486080603,92.35733795166016,-9.994786262512207,75.88658905029297,25177001.0,50354.0,0.08146912385270001,-0.07201681951700002,-0.012752331326271987,0.005074919526691553,-0.003286829357909277,-0.0020701725734820152,25.17700186000002
1604,A,18372660835093.0,2.0653534,9.518188,-0.5509144211004485,21,1970-01-01 05:06:12.660835093,0.115493774,-0.67289734,-0.62446594,9.783516233971527,0.9252498863722829,92.44801330566406,-10.01733684539795,75.8399887084961,25227355.0,50354.0,0.08826510110869999,-0.04683407916100002,-0.011642078497971985,0.004273398581853168,-0.002992309076016007,-0.0006141780561449905,25.227355863997218
1604,A,18372711189097.0,2.980713,10.006393,-0.22100412110044854,21,1970-01-01 05:06:12.711189097,0.287735,-0.07997131,-0.9434204,10.457851982592995,0.9895599485550515,92.48601531982422,-10.133286476135254,75.83390045166016,25277709.0,50354.0,0.1270448137528,-0.001898824163000048,-0.019434593136991987,0.005420857726467985,-0.00122694830698835,-0.0007824173617534879,25.277709867998055
1604,A,18372761543101.0,3.2996216,11.240311,-2.918574921100449,21,1970-01-01 05:06:12.761543101,0.24485779,0.26193237,-0.6673126,12.16855073159497,0.7575420845710561,92.49565887451172,-10.100518226623535,75.8486557006836,25328063.0,50354.0,0.1581199842242,0.04145906660799995,-0.07904518154549199,0.00717959411866693,0.0009960082240377626,-0.0024794252871808992,25.328063871998893
1604,A,18372811900406.0,2.309845,16.50441,-0.35299266110044847,21,1970-01-01 05:06:12.811900406,0.16316223,0.9096527,-0.00047302246,16.681113823682345,0.9241699906760177,92.49642181396484,-10.048961639404297,75.89469146728516,25378421.0,50358.0,0.1412407595214,0.20507593005900002,-0.0823748001522364,0.007537604166770463,0.0062075046810783924,-0.004064393719167103,25.378421176999836
1604,A,18372862254410.0,-1.4559631,12.861008,2.3129466788995514,21,1970-01-01 05:06:12.862254410,-1.7418365,0.05583191,1.1858368,13.087573686443125,2.10791852573593,92.4092788696289,-10.108316421508789,75.89495086669922,25428775.0,50354.0,0.021498184596300006,0.245863928986,0.04934576230612801,0.004097278396051333,0.011353312831175966,-0.0008315720858514709,25.428775180997036
1604,A,18372912608414.0,-1.5141602,12.342209,4.2295573788995515,21,1970-01-01 05:06:12.912608414,-1.9944305,0.8571625,1.3057556,13.018738840041344,2.53327421683241,92.30238342285156,-10.175313949584961,75.93572998046875,25479129.0,50354.0,-0.0747787943241,0.14107219440899998,0.16472062466320803,-0.0013414459111168206,0.009741890778715916,0.0053895494247269745,25.479129184997873
1604,A,18372962962417.0,0.5632324,9.502945,1.9214213788995513,21,1970-01-01 05:06:12.962962417,-1.5952911,-0.06271362,1.0748291,9.644557026765861,1.9246153605537717,92.22355651855469,-10.228886604309082,75.93038177490234,25529483.0,50354.0,-0.023941509220600003,0.05652624225799999,0.15486319218510802,-0.0024854810823449125,0.004974935839965058,0.008046161756790054,25.529483187998267
1604,A,18373013316421.0,-1.2999268,7.1150665,-0.42667735110044847,21,1970-01-01 05:06:13.013316421,-0.8060913,-0.24156189,1.5417328,7.277031174618948,1.7564382588727399,92.18597412109375,-10.305449485778809,75.91509246826172,25579837.0,50354.0,-0.0185477549088,-0.07507752446450003,0.03763317038789801,-0.001069752202985904,-0.0004670656321130516,0.004846480920500574,25.579837191999104
1604,A,18373063670425.0,-0.35011292,5.872589,-0.14510692110044854,21,1970-01-01 05:06:13.063670425,-0.45593262,0.7778015,1.3215637,5.905880866016518,1.5998063446992592,92.15656280517578,-10.372957229614258,75.95206451416016,25630191.0,50354.0,-0.04154305003044,-0.16647899747650005,-0.014395812621201985,-0.0015129061959552456,-0.006081668552908559,0.0005850469564921059,25.63019119599994
1604,A,18373114024429.0,0.343338,4.5361786,0.4721110988995515,21,1970-01-01 05:06:13.114024429,-0.102127075,0.649765,0.93115234,4.55020973888949,1.1400303394912485,92.0599136352539,-10.270264625549316,75.99867248535156,25680545.0,50354.0,-0.00017057216084000046,-0.23140765813480002,0.008232984184448016,-0.0010502238659098567,-0.010017592328325704,-0.00015516153155215468,25.68054519999714
1604,A,18373164378433.0,-1.0826263,4.404846,0.09965931889955149,21,1970-01-01 05:06:13.164378433,0.8831024,0.9367523,0.12716675,4.5442327257187625,1.2936560991030857,92.09562683105469,-10.27831745147705,76.04600524902344,25730899.0,50354.0,-0.018613061529100004,-0.26836102364580006,0.014395463808928017,-0.00047291554541161954,-0.012582676101190168,0.0005697164351292284,25.73089920399798
1604,A,18373214732437.0,2.0714111,8.440826,0.8266643188995515,21,1970-01-01 05:06:13.214732437,1.491684,0.5653534,-0.3421936,8.703052686641009,1.6315152719568764,92.03765106201172,-10.35045051574707,76.09809875488281,25781253.0,50354.0,0.024894634909600005,-0.17005371605600006,0.02332205022886802,0.00015815117300084855,-0.011037967901472222,0.0009496138509295909,25.781253207998816
1604,A,18373265086441.0,7.780258,17.329254,3.9983713788995514,21,1970-01-01 05:06:13.265086441,0.7979126,0.51353455,-0.28060913,19.33832967802245,0.9895068140855925,92.07276153564453,-10.337350845336914,76.12468719482422,25831607.0,50354.0,0.24803547293070002,0.15534410415999994,0.12147992376348801,0.006871561325095235,-0.000370343898705595,0.003645679299205548,25.831607211999653
1604,A,18373315440445.0,-1.1781769,8.897781,2.8287547788995515,21,1970-01-01 05:06:13.315440445,-0.2668152,0.6443939,0.12666321,9.305056061473277,0.7088564156976743,92.0535888671875,-10.344836235046387,76.15719604492188,25881961.0,50354.0,0.1662205958547,0.1668488601949999,0.17188655527490804,0.010429725043810017,0.008111852263565832,0.0073860878427496985,25.881961215996853
1604,A,18373365794449.0,3.3145294,7.763916,-0.006038321100448496,21,1970-01-01 05:06:13.365794449,0.72325134,0.0927887,-0.4250946,8.45038352401814,0.844042453084349,92.08876037597656,-10.323760032653809,76.16268157958984,25932315.0,50354.0,0.05378694689250001,-0.07397765463100003,0.07106753225800802,0.005539129903746255,0.0023382183424848248,0.0061168550618162275,25.93231521999769
1604,A,18373416148453.0,-1.2639465,10.813156,-0.8618733211004485,21,1970-01-01 05:06:13.416148453,0.06474304,-1.4307861,-0.026763916,10.956708797829718,1.432500203274438,92.10501861572266,-10.319808006286621,76.09007263183594,25982669.0,50354.0,0.051627525673300007,-0.025754258256000053,-0.021851411415691985,0.002654020175789147,-0.0025109503707560015,0.0012391142744469909,25.982669223998528
1604,A,18373466502457.0,-1.1839752,8.696884,-4.328899021100448,21,1970-01-01 05:06:13.466502457,0.033187866,-0.6255188,-0.72576904,9.957687381055544,0.9587053264823324,92.11211395263672,-10.282393455505371,76.05965423583984,26033023.0,50354.0,-0.06163132464090001,-0.002264922920000035,-0.130688075259592,-0.0002518656466072652,-0.0007054389244681542,-0.0038404866560236253,26.033023227999365
1604,A,18373516856460.0,0.06072998,12.443237,-1.1597401211004486,21,1970-01-01 05:06:13.516856460,0.41207886,-1.3095398,-0.76457214,12.53756032972213,1.5713923863590276,92.14431762695312,-10.241759300231934,75.99459838867188,26083377.0,50354.0,-0.028279944903939997,0.038775626416999984,-0.138187467683192,-0.002263696033330437,0.0009192299819439677,-0.006769479544670474,26.08337723099976
1604,A,18373567210464.0,0.9143677,8.863983,-3.1524464211004486,21,1970-01-01 05:06:13.567210464,-0.45065308,-1.1187592,-0.67074585,9.583454743195917,1.3800762085444227,92.13163757324219,-10.206158638000488,75.93907928466797,26133731.0,50354.0,0.02455003428936,0.04298267793999994,-0.108567920572992,-9.39079595432806e-05,0.0020584288287961872,-0.006212560410125945,26.133731234996958
1604,A,18373617564468.0,3.7022858,8.898209,0.051807748899551476,21,1970-01-01 05:06:13.617564468,0.33216858,-0.7415161,-1.181366,9.643075167644497,1.433808815028847,92.15449523925781,-10.145743370056152,75.90367126464844,26184085.0,50354.0,0.11623348516950001,-0.046270492016000066,-0.07806477985000199,0.0035445066694157184,-8.27772949914551e-05,-0.00469885149854972,26.184085238997795
1604,A,18373667918472.0,1.2324677,8.504227,0.4719585088995515,21,1970-01-01 05:06:13.667918472,1.1096497,-0.98184204,-0.22215271,8.593627580815182,1.4982283119677708,92.14796447753906,-10.085606575012207,75.86670684814453,26234439.0,50354.0,0.12424228886949999,-0.055328068828000045,0.013186863072608015,0.0060544585629799036,-0.002557946966369391,-0.0016334313107044481,26.234439242998633
1604,A,18373718272476.0,2.3782654,8.981003,-0.47932017110044844,21,1970-01-01 05:06:13.718272476,0.23277283,-0.79603577,-0.46224976,9.329675329293499,0.9494898515127792,92.24708557128906,-10.178311347961426,75.81300354003906,26284793.0,50354.0,0.0909074272587,-0.05324356429000005,-0.0001853445692319827,0.005416824402959691,-0.0027335080070118884,0.00032733923135949835,26.28479324699947
1604,A,18373768626480.0,1.7126007,9.894455,-0.5296436611004485,21,1970-01-01 05:06:13.768626480,0.0945282,-0.6641998,-0.7030182,10.082159758357921,0.9717672275017922,92.33184051513672,-10.132226943969727,75.76759338378906,26335147.0,50354.0,0.10299573579970002,-0.018241793934000036,-0.025402682403321983,0.004881899936321338,-0.0017997868640056505,-0.0006442297550879912,26.33514725099667
1604,A,18373818980484.0,1.8092194,10.136627,-0.5631519611004485,21,1970-01-01 05:06:13.818980484,0.18063354,-0.33825684,-0.7949524,10.339384561587961,0.8826072081313845,92.41732788085938,-10.090766906738281,75.73912811279297,26385501.0,50354.0,0.0886688646577,0.010853351514,-0.027513315380151986,0.004825539645715961,-0.00018601881480834092,-0.0013322660761945244,26.385501254997507
1604,A,18373869334488.0,1.6763916,14.041718,-1.0019337211004484,21,1970-01-01 05:06:13.869334488,-0.19868469,0.049621582,-0.20765686,14.208220463074358,0.2916492395766504,92.48698425292969,-9.998048782348633,75.72811126708984,26435855.0,50354.0,0.087757228147,0.11526899206499998,-0.039404162220771984,0.004441879738543933,0.0031753822442884827,-0.0016847813335584627,26.435855258998345
1604,A,18373919688492.0,-1.3940277,18.254364,1.9630473788995517,21,1970-01-01 05:06:13.919688492,-1.1361694,0.19316101,1.1372375,18.37634230867338,1.6191050653638355,92.42890930175781,-10.055273056030273,75.73543548583984,26486209.0,50354.0,0.007109075910300001,0.31964925651399995,0.024197958562408025,0.002388448937250642,0.010949936744473482,-0.0003828465895066294,26.486209262999182
1604,A,18373970042496.0,-2.9762878,12.012161,2.3104594788995514,21,1970-01-01 05:06:13.970042496,-2.7469025,-0.43276978,1.0836334,12.525968708512051,2.984463833351488,92.29580688476562,-10.10851764678955,75.71121215820312,26536563.0,50354.0,-0.11003143334350002,0.2685510999249999,0.10759408215880803,-0.002591276193095677,0.014809120374064701,0.003318128209238057,26.53656326700002
1604,A,18374020396499.0,-1.1552124,7.4447784,-0.48235667110044855,21,1970-01-01 05:06:14.020396499,-1.7753296,-1.3247223,0.3649292,7.582394974199334,2.244962735050649,92.21898651123047,-10.124141693115234,75.64324951171875,26586917.0,50354.0,-0.1040187805354,-0.0036018367262000473,0.04602614439195801,-0.0053891422348290655,0.006670627599556184,0.003867696443868637,26.586917269996775
1604,A,18374070750503.0,0.053985596,6.0704803,0.26715504389955147,21,1970-01-01 05:06:14.070750503,-1.2980957,-1.2614441,0.5142822,6.071661802803474,1.8816960022862725,92.13469696044922,-9.908255577087402,75.5834732055664,26637271.0,50354.0,-0.027725587244308,-0.15319553171010006,-0.005418131368036986,-0.0033169279475897084,-0.003947687345120728,0.0010223879439032598,26.637271273997612
1604,A,18374121104507.0,1.4088135,5.493271,0.9220317788995515,21,1970-01-01 05:06:14.121104507,-0.7024536,-0.97013855,0.8905792,5.697459097295373,1.4925619510833388,91.91632843017578,-10.063287734985352,75.56590270996094,26687625.0,50354.0,0.036828892839992,-0.20232863351990005,0.029940156637613017,0.0002291939249825361,-0.008951031907995713,0.0006173910302121158,26.68762527799845
1604,A,18374171458511.0,0.8158722,6.0933228,2.5705455788995515,21,1970-01-01 05:06:14.171458511,0.2253418,-0.83303833,0.886673,6.528301487914412,1.2373038410210442,91.93526458740234,-10.106196403503418,75.52210998535156,26737979.0,50354.0,0.05601091186890001,-0.20175352789740006,0.08793262013730803,0.0023374277631557742,-0.010173576578003366,0.002967682900862187,26.737979281999287
1604,A,18374221812515.0,0.8842621,6.476166,1.8764384788995514,21,1970-01-01 05:06:14.221812515,0.7276764,-0.34111023,0.39863586,6.70669414948605,0.8970951348689572,91.97480010986328,-10.125535011291504,75.50408935546875,26788333.0,50354.0,0.04280428127110001,-0.17700718048240005,0.11196171762320802,0.0024878701176857805,-0.00953605835487823,0.005032739741796513,26.788333285996487
1604,A,18374272166519.0,3.592575,7.396637,3.4795878788995513,21,1970-01-01 05:06:14.272166519,0.9028168,-0.24641418,0.042404175,8.789826753133662,0.9368010656082448,92.02216339111328,-10.127229690551758,75.49151611328125,26838687.0,50354.0,0.1127133276667,-0.14419363886900005,0.134848675610308,0.003915466840226991,-0.0080868730288102,0.006213945270440233,26.838687289997324
1604,A,18374322520523.0,4.4930725,9.161392,3.7383769788995513,21,1970-01-01 05:06:14.322520523,0.861145,-0.16963196,-0.002609253,10.744177147687633,0.8776972832814625,92.06673431396484,-10.12679386138916,75.48290252685547,26889041.0,50354.0,0.20357234710750002,-0.07658770386700005,0.18172670122480802,0.007963124433790034,-0.005558611866064275,0.007970418262577716,26.88904129399816
1604,A,18374372874527.0,1.9725952,9.461563,3.0766033788995513,21,1970-01-01 05:06:14.372874527,0.5752106,0.19715881,0.049545288,10.035734882256108,0.6100766888481964,92.09375762939453,-10.129627227783203,75.49283599853516,26939395.0,50354.0,0.16278611568290002,-0.024599061965000057,0.17158076046830803,0.009223807017673903,-0.002547579203352267,0.008895221963047583,26.939395297999
1604,A,18374423228531.0,-0.8626251,11.007004,2.1656230788995514,21,1970-01-01 05:06:14.423228531,0.39605713,-0.071136475,-0.23512268,11.185164703603435,0.4660518457743139,92.11410522460938,-10.117744445800781,75.48965454101562,26989749.0,50354.0,0.0279457172077,0.02186791135899997,0.131983535528008,0.004802055356686637,-6.876217880726423e-05,0.00764283828029925,26.989749301999836
1604,A,18374473582535.0,-0.25091553,9.053833,0.1266063388995515,21,1970-01-01 05:06:14.473582535,0.26313782,-0.7852783,-0.015197754,9.060689296679946,0.8283323562990202,92.13426208496094,-10.115533828735352,75.44981384277344,27040103.0,50354.0,-0.028035612441510004,0.01160249314899995,0.05771146005192801,-2.2632923016344246e-06,0.000842684374297914,0.004775950903716049,27.040103305997036
1604,A,18374523936539.0,0.18862915,8.971344,-3.0273701211004487,21,1970-01-01 05:06:14.523936539,0.48631287,-1.1038971,-0.90164185,9.596374940896066,1.5060036655292275,92.16810607910156,-10.068411827087402,75.39552307128906,27090457.0,50354.0,-0.00156818418926,-0.03964931867100006,-0.073032529744472,-0.0007453347877728965,-0.0007061349261673968,-0.00038573857164918,27.090457309997873
1604,A,18374574290542.0,2.8648834,14.109207,-2.5271565211004487,21,1970-01-01 05:06:14.574290542,0.302063,-1.4764099,-0.81977844,14.686538530133593,1.7155363416365867,92.43031311035156,-10.057244300842285,75.28124237060547,27140811.0,50354.0,0.07687828547135,0.08762983252699996,-0.13984631727069202,0.0018960824199791802,0.0012080053973525097,-0.005359650731300785,27.140811312998267
1604,A,18374624644546.0,0.045547485,8.441544,-2.015803921100449,21,1970-01-01 05:06:14.624644546,-0.46923828,-1.3436279,-0.23408508,8.773440213871702,1.4423301708535305,92.41865539550781,-10.042710304260254,75.21356964111328,27191165.0,50354.0,0.073275918391645,0.07429105792699997,-0.114378115053292,0.003780432390658625,0.0040766822589603565,-0.006400608532620946,27.191165316999104
1604,A,18374674998550.0,2.3992462,9.958984,-0.5774341911004485,21,1970-01-01 05:06:14.674998550,-0.29652405,-1.1014862,-0.58992004,10.288008130645977,1.2842133835980858,92.4883804321289,-10.09724235534668,75.14583587646484,27241519.0,50354.0,0.061552570607245005,-0.03019910654400005,-0.065289955950882,0.003394576867525054,0.001110103059969789,-0.0045235030236720885,27.24151932099994
1604,A,18374725352554.0,3.0512238,9.2951355,-0.21883739110044853,21,1970-01-01 05:06:14.725352554,0.5075226,-1.0800934,-0.46148682,9.801074115740004,1.2795120270118732,92.55132293701172,-10.272233963012695,75.08702850341797,27291873.0,50354.0,0.13722648319,-0.00870823334850004,-0.020047729625071984,0.005004660237453238,-0.0009795700964734747,-0.0021485469097457933,27.29187332499714
1604,A,18374775706558.0,2.1894836,8.960175,-0.029491071100448518,21,1970-01-01 05:06:14.775706558,0.5385742,-1.0215302,-0.41514587,9.232629025938264,1.2271642969854268,92.5880355834961,-10.335302352905273,75.03595733642578,27342227.0,50354.0,0.1319452902098,-0.03385524754150003,-0.006252165692831985,0.006776937738886765,-0.0010716207583675319,-0.0006621524644188683,27.34222732899798
1604,A,18374826060562.0,2.488327,9.2886505,-0.2288471511004485,21,1970-01-01 05:06:14.826060562,-0.08631897,-0.84628296,-0.7630768,9.635056436553691,1.1427738252456008,92.61880493164062,-10.410972595214844,74.98976135253906,27392581.0,50354.0,0.1177732374762,-0.034018520386500065,-0.0065041814203519845,0.0062871633715504225,-0.0017088578551232585,-0.00032116655126863286,27.392581332998816
1604,A,18374876414566.0,3.0973053,8.62265,-1.2362629211004483,21,1970-01-01 05:06:14.876414566,-0.37960815,-0.3848877,-0.9119568,9.302503756677865,1.0601443742358645,92.60295867919922,-10.364544868469238,74.97232818603516,27442935.0,50354.0,0.1406294644171,-0.04251638731150005,-0.03688707628780198,0.006505804825567615,-0.001926919371112549,-0.0010924616953181924,27.442935336999653
1604,A,18374926768570.0,1.5699005,9.285568,-1.6195484211004487,21,1970-01-01 05:06:14.926768570,0.056900024,-0.037490845,-0.35401917,9.626052594078192,0.36051733511372724,92.84343719482422,-10.325728416442871,74.9285888671875,27493289.0,50354.0,0.1175062404266,-0.042593995414000045,-0.07190076216259199,0.006499082640849836,-0.0021428241058799157,-0.002738951408665569,27.493289340996853
1604,A,18374977122574.0,0.32899475,13.9175415,-0.2044330911004485,21,1970-01-01 05:06:14.977122574,0.30140686,0.5735321,0.018829346,13.933444250636011,0.6481818489099007,92.84159088134766,-10.104689598083496,74.95974731445312,27543643.0,50354.0,0.04780848570925,0.09071548788149997,-0.045922382532681987,0.004162128859922296,0.0012115548158542456,-0.002966433313992913,27.54364334499769
1604,A,18375027476578.0,0.08174133,13.993011,1.0606883788995516,21,1970-01-01 05:06:15.027476578,-0.9323883,-0.034851074,0.4473877,14.010084890869726,1.034755185271924,92.79548645019531,-10.126948356628418,74.95687866210938,27593997.0,50354.0,0.010341102286160002,0.20923478029249992,0.02155793938091802,0.0014640321769604377,0.007551847901816795,-0.0006134235852319614,27.593997348998528
1604,A,18375077830582.0,-1.1615753,13.554733,3.4014476788995514,21,1970-01-01 05:06:15.077830582,-1.3327179,-0.3932953,1.0855713,13.937181889864235,1.7633159788779178,92.73282623291016,-10.180209159851074,74.93425750732422,27644351.0,50354.0,-0.02718697986269,0.20010035068799992,0.11234319952720803,-0.00042412865974429583,0.010305830592696045,0.0033712289742898896,27.644351352999365
1604,A,18375128184585.0,-0.9592285,11.555374,1.7719615788995515,21,1970-01-01 05:06:15.128184585,-1.620285,-0.26124573,0.9966278,11.67907868861185,1.920114523772234,92.65457916259766,-10.229372024536133,74.91860961914062,27694705.0,50354.0,-0.0533954772726,0.138727963939,0.130250924883608,-0.0020288245232951965,0.008530680477363977,0.006107792270291116,27.69470535599976
1604,A,18375178538589.0,-1.0062103,6.9449005,-0.1852070211004485,21,1970-01-01 05:06:15.178538589,-1.0760193,-0.2636261,0.5916443,7.0396659500682635,1.2559296287197743,92.6034164428711,-10.25832462310791,74.90386199951172,27745059.0,50354.0,-0.049483852667600005,-0.027687788913500044,0.03994971950170802,-0.0025901928899044156,0.0027956584866170127,0.004285141623689101,27.745059359996958
1604,A,18375228892593.0,-0.041534424,6.0460815,1.0522502788995514,21,1970-01-01 05:06:15.228892593,-0.1690216,-0.6427002,1.3344421,6.084139258819842,1.4907607341887599,92.60133361816406,-10.323516845703125,74.86814880371094,27795413.0,50354.0,-0.026379068916148,-0.16639524618600005,0.021829548101608014,-0.0019100007767140236,-0.004886428574700114,0.0015554166204486879,27.795413363997795
1604,A,18375279246597.0,0.49220276,6.8042755,1.1845439788995515,21,1970-01-01 05:06:15.279246597,0.064453125,-0.12083435,1.3929596,6.870028473763135,1.3996755312194138,92.60624694824219,-10.392820358276367,74.85879516601562,27845767.0,50354.0,0.011346476695472,-0.16993576181100006,0.05631576902860801,-0.0003784755743399597,-0.008467805788340473,0.001967464649387449,27.845767367998633
1604,A,18375329600601.0,0.1775055,5.783783,2.0476420788995515,21,1970-01-01 05:06:15.329600601,0.4120636,0.417511,0.6759491,6.023660530544441,0.8949966655562299,92.6233139038086,-10.427536964416504,74.8784408569336,27896121.0,50354.0,0.01686124486202,-0.17653965114550005,0.08137674837720801,0.0007101858056529762,-0.008723211472005802,0.0034666845107262307,27.89612137199947
1604,A,18375379954605.0,1.7321625,6.921341,2.4686320788995513,21,1970-01-01 05:06:15.379954605,0.60276794,0.260437,0.029266357,7.435894318266831,0.6572770649527451,92.65106201171875,-10.42959976196289,74.89158630371094,27946475.0,50354.0,0.04807971123600001,-0.17359229305200005,0.11370623447090802,0.0016350184516798498,-0.00881527195906046,0.004911604259167018,27.94647537599667
1604,A,18375430308609.0,3.3470154,8.911377,4.014698378899552,21,1970-01-01 05:06:15.430308609,0.41682434,0.37669373,-0.23304749,10.191629041256906,0.608236655614448,92.66834259033203,-10.418832778930664,74.91126251220703,27996829.0,50354.0,0.12787846198830002,-0.09484885891400005,0.16323081093600803,0.004430098927268202,-0.006758542883047985,0.006972443992209925,27.996829379997507
1604,A,18375480662613.0,2.3134766,9.326691,3.2123453788995513,21,1970-01-01 05:06:15.480662613,0.31147766,-0.19825745,-0.09939575,10.019736869509726,0.3823661390312178,92.68569946289062,-10.413406372070312,74.90143585205078,28047183.0,50354.0,0.142514207084,-0.03428936196400004,0.18195528069010805,0.0068076762292332985,-0.003251312987045408,0.008690750228870725,28.047183383998345
1604,A,18375531016617.0,2.2532654,13.03801,1.8788493788995515,21,1970-01-01 05:06:15.531016617,0.37982178,-0.018081665,-0.12013245,13.316578409378032,0.3987773021556557,92.4736099243164,-10.393832206726074,74.94255828857422,28097537.0,50354.0,0.11497686333399999,0.06960687707699997,0.12818101041710803,0.006482852679913987,0.0008891890779999994,0.00780830140120638,28.097537387999182
1604,A,18375581370621.0,-1.4551849,9.098953,-1.0329853211004485,21,1970-01-01 05:06:15.581370621,0.22232056,-0.63638306,-0.20927429,9.321390613778755,0.7058367792263884,92.49048614501953,-10.381999969482422,74.91070556640625,28147891.0,50354.0,0.020093272748500007,0.06387311745099997,0.02129631938320802,0.003400660816149103,0.0033606258222314547,0.0037633907323825575,28.14789139200002
1604,A,18375631724624.0,0.64634705,9.140213,-3.3207508211004484,21,1970-01-01 05:06:15.631724624,0.47691345,-1.5179291,-0.6089783,9.879928343025487,1.7036460199491565,92.52793884277344,-10.348258018493652,74.83496856689453,28198245.0,50354.0,-0.020364110549449997,-0.03426171761800006,-0.109614014852192,-6.818883314517894e-06,0.0007455262135954388,-0.0022235746188226098,28.198245394996775
1604,A,18375682078628.0,2.1035004,11.2799835,-2.3280140211004485,21,1970-01-01 05:06:15.682078628,0.28964233,-2.0189514,-0.7952728,11.788300047517927,2.189181641917735,92.56046295166016,-10.304046630859375,74.73424530029297,28248599.0,50354.0,0.06923290924865001,0.02065008728049995,-0.142218952432092,0.001230369744849759,-0.0003427000170072402,-0.006340398617316419,28.248599398997612
1604,A,18375732432632.0,0.8151398,9.410843,-1.7809101211004488,21,1970-01-01 05:06:15.732432632,-0.15615845,-1.7121887,-0.89164734,9.688775606311939,1.936752587410991,92.56782531738281,-10.25568675994873,74.64936828613281,28298953.0,50354.0,0.0734826043154,0.027463738790499966,-0.10345038312819199,0.0035931484850020875,0.0012113617989895648,-0.006185216861401271,28.29895340299845
1604,A,18375782786636.0,2.0718079,9.553955,-0.7962452211004486,21,1970-01-01 05:06:15.782786636,-0.43803406,-0.9739227,-0.89323425,9.845815849488217,1.3922164661676848,92.66392517089844,-10.25684928894043,74.58245086669922,28349307.0,50354.0,0.0726846822429,-0.015992480754000036,-0.064885040050592,0.0036800537736783197,0.00028881186358495873,-0.004238180949372244,28.349307406999287
1604,A,18375833140640.0,2.4741364,8.516418,-1.1367451211004487,21,1970-01-01 05:06:15.833140640,-0.12586975,-0.8691406,-0.83921814,8.99629362662598,1.2147162891138334,92.84538269042969,-10.357261657714844,74.50806427001953,28399661.0,50354.0,0.11445323964110002,-0.03851141897900004,-0.04866689784559199,0.0047115714592734685,-0.001372244683577743,-0.0028588971404122244,28.399661410996487
1604,A,18375883494644.0,1.2637634,8.188263,0.2268413188995515,21,1970-01-01 05:06:15.883494644,0.83180237,-0.9503479,-0.3572693,8.286520751668965,1.3125157776173653,92.8498764038086,-10.297568321228027,74.46891784667969,28450015.0,50354.0,0.09410910326460001,-0.07289544646300007,-0.02290864802801199,0.00525097410733681,-0.002804890651233237,-0.0018020575184597275,28.450015414997324
1604,A,18375933848648.0,2.2406921,8.755081,0.01422535889955151,21,1970-01-01 05:06:15.933848648,0.56303406,-0.6882019,-0.6094208,9.044425631352238,1.0779716690879837,92.8718032836914,-10.366506576538086,74.43769836425781,28500369.0,50354.0,0.0882316761235,-0.06688662811200005,0.006069335746948017,0.004590793802654194,-0.003519293291574779,-0.00042396336530034766,28.50036941899816
1604,A,18375984202652.0,1.6398163,9.663116,-0.5171467211004485,21,1970-01-01 05:06:15.984202652,-0.19487,-0.5536041,-0.90449524,9.841701153451353,1.0782223590797344,92.92675018310547,-10.300779342651367,74.40113067626953,28550723.0,50354.0,0.09769955998680001,-0.02975425413100001,-0.012662051136131985,0.004681190731549023,-0.0024331274922320127,-0.00016598479535348478,28.550723422999
1604,A,18376034556656.0,2.0562134,9.992264,-1.0451771211004486,21,1970-01-01 05:06:16.034556656,0.1659851,-0.26557922,-1.011383,10.299884726237757,1.0587629329584685,93.06521606445312,-10.280941009521484,74.36737823486328,28601077.0,50354.0,0.09305493975689999,0.0013943022599999886,-0.03933462737509199,0.004802626040047136,-0.0007140185082561676,-0.001309120374877086,28.601077426999836
1604,A,18376084910660.0,4.5640717,10.949173,-1.3433643211004487,21,1970-01-01 05:06:16.084910660,-0.041259766,0.05256653,-0.47218323,11.986022364406434,0.47688846815565644,93.06243896484375,-10.257505416870117,74.37130737304688,28651431.0,50354.0,0.1666789179627,0.03377335934899998,-0.06013630789029199,0.00653931933580637,0.0008854162163297922,-0.0025043797371765725,28.651431430997036
1604,A,18376135264664.0,2.4667816,14.113388,1.1681560188995515,21,1970-01-01 05:06:16.135264664,-0.50538635,0.7600708,0.26672363,14.34933097882239,0.9509282194673473,92.87349700927734,-10.26529312133789,74.4371109008789,28701785.0,50354.0,0.17701579353410002,0.137530898297,-0.00441121942451199,0.008653201751354934,0.004312927294753341,-0.00162511309520482,28.701785434997873
1604,A,18376185618667.0,-1.5083618,11.606964,3.4505656788995513,21,1970-01-01 05:06:16.185618667,-1.9592285,0.30462646,1.2485352,12.102130948265042,2.343120513542447,92.7733383178711,-10.328393936157227,74.449462890625,28752139.0,50354.0,0.0241301353046,0.15409210230399997,0.11628555618548801,0.005064251050371951,0.007342192286131377,0.0028166601766310933,28.752139437998267
1604,A,18376235972671.0,-1.4517822,17.296356,3.9514659788995514,21,1970-01-01 05:06:16.235972671,-2.2064514,0.06439209,1.2524261,17.72200158699653,2.5379411454519074,92.6629638671875,-10.39109992980957,74.44969940185547,28802493.0,50354.0,-0.074527545488,0.2342296876399999,0.18636095104840802,-0.001268855596187462,0.009776777705420086,0.0076197311126278006,28.802493441999104
1604,A,18376286326675.0,-1.0732574,8.466583,-0.3034473711004485,21,1970-01-01 05:06:16.286326675,-1.1651459,0.91841125,0.77601624,8.561188206623209,1.6742895201120713,92.59661102294922,-10.431966781616211,74.4945297241211,28852847.0,50354.0,-0.0635729220092,0.15516431520299995,0.09184616448855802,-0.003476955470177005,0.009803772809578207,0.007004420547874194,28.85284744599994
1604,A,18376336680679.0,1.9536438,8.46579,0.9096416188995515,21,1970-01-01 05:06:16.336680679,-0.4291687,-0.15510559,1.3657837,8.70477786971472,1.4400029973214041,92.42339324951172,-10.564708709716797,74.51153564453125,28903201.0,50354.0,0.022165488392800005,-0.06716284497900003,0.015262152576838018,-0.001042514956160103,0.002215613015829646,0.0026966660987554764,28.90320144999714
1604,A,18376387034683.0,-1.8960419,5.5277405,0.3621715233995515,21,1970-01-01 05:06:16.387034683,-0.16947937,0.525177,1.6360931,5.843888395243376,1.7266542126471667,92.41065979003906,-10.647551536560059,74.53472137451172,28953555.0,50354.0,0.0014502430363000024,-0.14115408260150003,0.032020439483664516,0.0005945732701904509,-0.00524479528569425,0.0011904338203072723,28.95355545399798
1604,A,18376437388687.0,-1.930954,7.3096466,-0.4488483711004485,21,1970-01-01 05:06:16.437388687,0.4909668,0.5786743,1.6758881,7.605045494514192,1.8397046686640606,92.43040466308594,-10.732490539550781,74.5605239868164,29003909.0,50354.0,-0.0963522757743,-0.17026230498330006,-0.002182262994565484,-0.002389348478244626,-0.007840530390222512,0.0007512357694660464,29.003909457998816
1604,A,18376487742691.0,-2.388977,5.5854187,1.0643657388995516,21,1970-01-01 05:06:16.487742691,0.98469543,0.4785614,0.7262268,6.11396898120305,1.313792779882385,92.47540283203125,-10.769794464111328,74.58328247070312,29054263.0,50354.0,-0.10876290278700002,-0.16881014094190006,0.015496880769078018,-0.005164184850637851,-0.008536826971058764,0.00033522213170890207,29.054263461999653
1604,A,18376538096695.0,2.3179932,7.781418,1.6939128788995514,21,1970-01-01 05:06:16.538096695,0.8483887,0.15933228,-0.15200806,8.225906325246507,0.8765024883265603,92.51625061035156,-10.762555122375488,74.59173583984375,29104617.0,50354.0,-0.001787159132600001,-0.15693235240410003,0.06944518076032803,-0.0027833189089497695,-0.008201218754972244,0.002138586283125856,29.104617465996853
1604,A,18376588450699.0,4.4093018,11.706284,4.528278678899552,21,1970-01-01 05:06:16.588450699,0.64279175,0.53863525,-0.39048767,13.180912302518642,0.9250890696752686,92.54312133789062,-10.74423599243164,74.61998748779297,29154971.0,50354.0,0.169373106215,-0.002827326746000023,0.15665611685070804,0.0042193113896935855,-0.0040222694419620696,0.005692552369953056,29.15497146999769
1604,A,18376638804703.0,4.3554077,10.523956,4.040897678899552,21,1970-01-01 05:06:16.638804703,0.32510376,-0.20812988,0.19367981,11.965317654380337,0.4318823572647858,92.56143188476562,-10.753449440002441,74.60897064208984,29205325.0,50354.0,0.22066909108149999,0.06622155247999997,0.21574615316030807,0.009820092401333982,0.001596076421304917,0.009375971952067352,29.205325473998528
1604,A,18376689158707.0,0.75183105,12.818008,1.3777964788995516,21,1970-01-01 05:06:16.689158707,0.20944214,0.4567871,-0.38104248,12.87920956725535,0.630645571060909,92.5674057006836,-10.73543643951416,74.633056640625,29255679.0,50354.0,0.12858495000875,0.09421142762799999,0.13642646281090803,0.008793168992529224,0.004039221140179115,0.008866649952307308,29.255679477999365
1604,A,18376739512710.0,2.3005524,13.718018,-2.0691944211004487,21,1970-01-01 05:06:16.739512710,0.050842285,-0.7039032,0.16781616,14.122539316142356,0.7254149960342746,92.76520538330078,-10.710390090942383,74.56182098388672,29306033.0,50354.0,0.07684985812065,0.17462832660200006,-0.017407325990791988,0.005172232164273904,0.006768578492248712,0.0029965448077200617,29.30603348099976
1604,A,18376789866714.0,-2.6024475,5.1979523,-2.7152516211004487,21,1970-01-01 05:06:16.789866714,0.44882202,-0.82592773,-0.7709503,6.5829605846424855,1.2157146811196793,92.79508209228516,-10.66988754272461,74.52173614501953,29356387.0,50354.0,-0.007600812932699997,-0.0172218157569,-0.12045799800449201,0.0017434832106970172,0.003963023723547085,-0.0034710352622292656,29.356387484996958
1604,A,18376840220718.0,2.7228851,17.250336,1.2779735288995515,21,1970-01-01 05:06:16.840220718,0.32481384,-1.0411224,-1.4594421,17.487287693117768,1.8219251152804594,92.67507934570312,-10.55302906036377,74.4992446899414,29406741.0,50354.0,0.0030322574552000066,0.0717113545291,-0.03618635052734199,-0.00011502252125701728,0.0013718831176676796,-0.003943834762985985,29.406741488997795
1604,A,18376890574722.0,1.0757751,7.8890076,-3.0798908211004488,21,1970-01-01 05:06:16.890574722,-0.47480774,-0.83203125,-0.72753906,8.678917079539326,1.2029262133506584,92.65876007080078,-10.514756202697754,74.45870208740234,29457095.0,50354.0,0.0956388678554,0.13946405381719998,-0.04536687166574199,0.0024842429219449767,0.0053167632559347954,-0.0020532654751552752,29.457095492998633
1604,A,18376940928726.0,4.0596466,10.240631,-1.5716358211004486,21,1970-01-01 05:06:16.940928726,-0.008987427,-0.4353943,-0.9615021,11.18646673825195,1.0555260577650276,92.66191864013672,-10.46572208404541,74.43885040283203,29507449.0,50354.0,0.12929451214090001,-0.03701928896780004,-0.117111486270692,0.005663147708166846,0.0025792518446133422,-0.004090717617765599,29.50744949699947
1604,A,18376991282730.0,2.452179,8.66214,-0.4179798211004485,21,1970-01-01 05:06:16.991282730,0.8306427,-0.79348755,-0.37702942,9.037322584663626,1.2090248014883023,92.77336883544922,-10.577018737792969,74.38793182373047,29557803.0,50354.0,0.1639482331312,-0.017554134533000004,-0.05009255302369199,0.007382972597715663,-0.0013739950834796427,-0.0042096960973147055,29.55780350099667
1604,A,18377041636734.0,1.884018,8.733841,-0.008647571100448503,21,1970-01-01 05:06:17.041636734,0.9563904,-0.74263,-0.4116516,8.942928925311545,1.278921011593257,92.82135772705078,-10.594261169433594,74.3524169921875,29608157.0,50354.0,0.10917243186900001,-0.05549058636300002,-0.010741197853441985,0.006876358982710036,-0.0018390469379985929,-0.0015316113458336022,29.608157504997507
1604,A,18377091990738.0,2.4746857,9.299423,-0.8491016211004484,21,1970-01-01 05:06:17.091990738,0.07859802,-0.325943,-0.72940063,9.700489396279886,0.8027713043210484,92.94280242919922,-10.662391662597656,74.31651306152344,29658511.0,50354.0,0.10973908305490002,-0.039445712272000014,-0.02159555141204198,0.005511535211239032,-0.002390211190733396,-0.0008141423362570899,29.658511508998345
1604,A,18377142344742.0,1.4440918,9.503052,-0.6192280211004485,21,1970-01-01 05:06:17.142344742,0.31277466,-0.06556702,-0.7206726,9.663335144388464,0.7883501876961506,93.03472137451172,-10.574904441833496,74.30105590820312,29708865.0,50354.0,0.0986630611175,-0.02007928692500001,-0.036968135401691984,0.005246940783828515,-0.0014986609047828697,-0.0014744579429093801,29.708865512999182
1604,A,18377192698746.0,0.29968262,10.782349,-1.3437611211004485,21,1970-01-01 05:06:17.192698746,0.37313843,0.0047454834,-0.4810028,10.922445467930766,0.6087844455662484,93.0531005859375,-10.550901412963867,74.30259704589844,29759219.0,50354.0,0.04390300857234,0.017256340976999972,-0.04942217763319199,0.0035893859365811022,-7.107331013279693e-05,-0.002175048911279274,29.75921951700002
1604,A,18377243052749.0,1.3191986,12.324936,-0.3067432711004485,21,1970-01-01 05:06:17.243052749,0.2397461,-0.05253601,-0.44015503,12.414018030486954,0.5039590015529348,93.0680923461914,-10.41762638092041,74.30062866210938,29809573.0,50354.0,0.04075857247594,0.08830291444499995,-0.041554749082441986,0.002131524626052546,0.0026576653737596925,-0.002290526083919517,29.809573519996775
1604,A,18377293406753.0,1.8996124,12.807648,0.2364390988995515,21,1970-01-01 05:06:17.293406753,-0.82092285,0.15203857,0.0034484863,12.94848708371634,0.8348903787189842,92.96402740478516,-10.368889808654785,74.31945037841797,29859927.0,50354.0,0.08104000454700001,0.13929386736799995,-0.0017700481435019844,0.003066522773706561,0.0057302041757058995,-0.0010907884197575914,29.859927523997612
1604,A,18377343760757.0,1.2905273,12.006424,1.5715983788995516,21,1970-01-01 05:06:17.343760757,-2.0303345,0.67256165,0.69996643,12.13481537170823,2.250455589001462,92.63875579833984,-10.301802635192871,74.39078521728516,29910281.0,50354.0,0.0803181472269,0.131274690744,0.04552095957854802,0.00406251418721148,0.006812104587585824,0.0011015166972001542,29.91028152799845
1604,A,18377394114761.0,0.4429474,11.500198,0.8143504788995515,21,1970-01-01 05:06:17.394114761,-2.3560638,0.25090027,1.1052551,11.517143758899389,2.6144935286270115,92.39672088623047,-10.156664848327637,74.42253112792969,29960635.0,50354.0,0.0436436925219,0.09835702209399998,0.06007103439280802,0.003120987239355538,0.005781437634122326,0.0026584896322168314,29.960635531999287
1604,A,18377444468765.0,2.3614502,9.710953,-2.0423236211004485,21,1970-01-01 05:06:17.444468765,-0.55729675,0.66348267,1.2717133,10.281927332796029,1.5388449039288468,92.36337280273438,-10.22157096862793,74.45352172851562,30010989.0,50354.0,0.07060631837520001,0.04056394872699995,-0.030916679801191987,0.0028764725243562873,0.003497613282360315,0.0007340191855531169,30.010989535996487
1604,A,18377494822769.0,2.6175842,8.697754,-2.532146121100449,21,1970-01-01 05:06:17.494822769,0.36846924,1.3515472,1.6490479,9.536707160796428,2.163748689461978,92.37018585205078,-10.306743621826172,74.51866912841797,30061343.0,50354.0,0.1253571490888,-0.029993183861000045,-0.11517142469939198,0.0049337722203411285,0.00026614014703127956,-0.0036780602070112024,30.061343539997324
1604,A,18377545176773.0,-0.17507935,8.502853,-0.9820515211004485,21,1970-01-01 05:06:17.545176773,-0.19134521,1.6070557,1.7873688,8.6120982729417,2.4112088751300402,92.34663391113281,-10.399344444274902,74.5965576171875,30111697.0,50354.0,0.06149494460845001,-0.06040951756100005,-0.088476954037692,0.004704375163015664,-0.0022760688137016963,-0.005127255231463563,30.11169754399816
1604,A,18377595530777.0,-0.6330261,7.3106384,-0.26850472110044854,21,1970-01-01 05:06:17.595530777,-0.09890747,1.7592621,1.3257904,7.366075106421016,2.2051090696041253,92.32599639892578,-10.469164848327637,74.68316650390625,30162051.0,50354.0,-0.02034567091465,-0.09533292702220003,-0.03148525450989199,0.0010360152637888028,-0.003921127527271228,-0.0030202885246025223,30.162051547999
1604,A,18377645884781.0,0.254364,6.167038,0.8535808288995514,21,1970-01-01 05:06:17.645884781,0.06851196,1.427124,0.68595886,6.190879269743959,1.5849026334925251,92.31648254394531,-10.50632381439209,74.75426483154297,30212405.0,50354.0,-0.009533575691700002,-0.15414174127720004,0.014730461166058015,-0.000752269791808074,-0.006281023723773996,-0.0004218354320177079,30.212405551999836
1604,A,18377696238785.0,1.0617676,6.089966,1.3265117288995514,21,1970-01-01 05:06:17.696238785,0.61235046,0.96635437,0.34275818,6.25477218834679,1.194276778739845,92.33827209472656,-10.525413513183594,74.80266571044922,30262759.0,50354.0,0.0331362452932,-0.18487461029200003,0.054888190327708024,0.0005942444125569655,-0.00853541468345775,0.0017527887886585475,30.262759555997036
1604,A,18377746592789.0,3.1943207,7.5596924,2.7841380788995513,21,1970-01-01 05:06:17.746592789,1.1078491,0.5120697,0.10473633,8.553423044328648,1.2249549807445042,92.38894653320312,-10.531700134277344,74.82844543457031,30313113.0,50354.0,0.1071555351291,-0.14981175046320003,0.10349383021095801,0.0035321261556922473,-0.008426398504733673,0.003987584131101995,30.313113559997873
1604,A,18377796946792.0,3.0636292,9.019028,3.3946727788995514,21,1970-01-01 05:06:17.796946792,0.93821716,0.47465515,-0.26202393,9.992632819990785,1.0836076276183335,92.43134307861328,-10.519607543945312,74.85311889648438,30363467.0,50354.0,0.1575564046323,-0.07606675648920003,0.15556392096680802,0.006664652507372768,-0.005686943169540577,0.006522297001402616,30.363467562998267
1604,A,18377847300796.0,1.1474609,14.186661,1.1473887788995514,21,1970-01-01 05:06:17.847300796,0.93341064,0.3248291,-0.7455292,14.253983076804426,1.2379754258969196,92.3343276977539,-10.336949348449707,74.8967056274414,30413821.0,50354.0,0.1060226154477,0.09078043195300001,0.11435548384070802,0.00663612898855416,0.0003704462071520921,0.006795760854838831,30.413821566999104
1604,A,18377897654800.0,0.823822,12.893723,-1.3988148211004483,21,1970-01-01 05:06:17.897654800,0.27700806,-1.0722351,-0.07078552,13.041085386504921,1.1096991325664105,92.49691009521484,-10.16480541229248,74.81771087646484,30464175.0,50354.0,0.049630989573300005,0.18833362796799993,-0.006330153464491982,0.003918890813613718,0.007027254686631015,0.0027197537428819917,30.46417557099994
1604,A,18377948008804.0,-0.90293884,5.6660767,-4.216731621100448,21,1970-01-01 05:06:17.948008804,-0.17861938,-1.0450287,-0.3657837,7.348143593254587,1.1215112937108411,92.4971923828125,-10.144256591796875,74.76548767089844,30514529.0,50354.0,-0.0019919246806799993,-0.026189122953100056,-0.141382612775292,0.001199408736801494,0.0040823122027601345,-0.0037189643156190413,30.51452957499714
1604,A,18377998362808.0,-0.14781189,8.907501,-2.6934010211004487,21,1970-01-01 05:06:17.998362808,0.38876343,-0.50172424,-1.6082611,9.422039143119802,1.7289788845680425,92.52046203613281,-10.062820434570312,74.74359893798828,30564883.0,50354.0,-0.026454751129210002,-0.12655023424710005,-0.17397640953269197,-0.0007162019568656006,-0.0038455187962294383,-0.007939794104648113,30.56488357899798
