Subject-id_accel,Activity_accel,Timestamp_accel,accel_x,accel_y,accel_z,Segment_accel,DateTime,gyro_x,gyro_y,gyro_z,accel_magnitude,gyro_magnitude,Roll,Pitch,Yaw,Time_Difference,Difference_Microseconds,vx,vy,vz,dx,dy,dz,Time_diff
1622,A,1149683152571306.0,-0.681205684241631,7.105861049271304,6.727539,109,1970-01-14 07:21:23.152571306,-0.21072388,-0.53408813,0.4508667,13.753636667530737,0.7300242909506788,-86.06664276123047,9.041560173034668,-94.18466186523438,15005494.0,50354.0,-0.04496408438720309,-0.1049550804719928,0.2588775375956,-0.00209386066332316,-0.002427586610606586,0.00990822593016735,15.005494572920725
1622,A,1149683202925310.0,1.669853315758369,10.403148049271303,3.2420654,109,1970-01-14 07:21:23.202925310,-0.096725464,0.57614136,0.45321655,9.234887043506388,0.7393915899457928,-86.07579803466797,9.066139221191406,-94.2121810913086,15055848.0,50354.0,0.024891181418696916,-0.0526448779259928,0.2510047299788,-0.00050537547803808,-0.003967894152586084,0.01283730585072067,15.055848576826975
1622,A,1149683253279314.0,3.963325615758369,2.6772110492713033,-6.864258,109,1970-01-14 07:21:23.253279314,-0.5552368,0.93833923,0.07777405,17.992142587970775,1.0930769494800607,-86.11099243164062,9.073216438293457,-94.25930786132812,15106202.0,50354.0,0.14182654595879693,-0.16414499897599283,-0.09119594309020002,0.004197452222183163,-0.005458118730761293,0.0040235058274942824,15.106202580966055
1622,A,1149683303633318.0,1.3236771557583689,14.379466049271304,-0.6659088,109,1970-01-14 07:21:23.303633318,-0.38261414,0.39335632,-0.19265747,4.703644636297932,0.5815837646966109,-86.13336181640625,9.064937591552734,-94.27984619140625,15156556.0,50354.0,0.13311086877847692,-0.0640332406899928,-0.1895870095236,0.006922099290840344,-0.005744843540070521,-0.007069272397957644,15.156556584872305
1622,A,1149683353987322.0,3.4753800157583687,15.418376149271303,-0.5289459,109,1970-01-14 07:21:23.353987322,-0.84664917,-0.28256226,-1.1578217,4.498519756093698,1.4619190596024412,-86.174072265625,9.006227493286133,-94.2695083618164,15206910.0,50354.0,0.12082586240727693,0.2567510730327072,-0.030082856781900005,0.006393365081063724,0.004852056864892521,-0.005530628223973574,15.206910588778555
1622,A,1149683404341325.0,-1.092811484241631,4.679683049271304,2.471878,109,1970-01-14 07:21:23.404341325,-1.2641449,0.3672943,-1.2183685,14.664742893981082,1.7937082351376854,-86.09148406982422,8.909710884094238,-94.26886749267578,15257264.0,50354.0,0.05998592791799691,0.01253963644170719,0.04891720148169999,0.0045522984450194195,0.006779932192437332,0.0004741922965068643,15.257264591986313
1622,A,1149683454695329.0,0.5778733257583689,10.747066049271304,-2.2882385,109,1970-01-14 07:21:23.454695329,-1.3914337,0.6723938,0.14962769,8.57529521185702,1.5526073584099962,-86.1662368774414,8.91944408416748,-94.30231475830078,15307618.0,50354.0,-0.01296459801613309,-0.1050699379459928,0.004623491691499999,0.0011838560229392254,-0.002329635400973399,0.0013479940320216563,15.307618595892563
1622,A,1149683505049333.0,0.9431534757583689,10.348598049271304,1.7544556,109,1970-01-14 07:21:23.505049333,-1.0269318,0.36006165,-0.24073792,8.836251138218111,1.1145349073841917,-86.22053527832031,8.908628463745117,-94.32130432128906,15357972.0,50354.0,0.03829489178178691,0.03765633500900721,-0.013439052073299996,0.0006377408061378663,-0.0016972722811444863,-0.00022194936373257857,15.357972599798813
1622,A,1149683555403337.0,-0.7383497842416311,10.372539049271303,0.78182983,109,1970-01-14 07:21:23.555403337,-0.47192383,0.687973,-0.71655273,8.809013877239645,1.0997575937093236,-86.21516418457031,8.906596183776855,-94.35306549072266,15408326.0,50354.0,0.005156342541316908,0.028226868730007196,0.06385605827111,0.001093971726552785,0.0016587414205371659,0.0012693489650422625,15.408326603937894
1622,A,1149683605757341.0,-2.846778684241631,10.040202049271304,0.4049225,109,1970-01-14 07:21:23.605757341,-0.49954224,0.43641663,-0.62805176,9.695471626189788,0.9134828612097066,-86.24386596679688,8.87669563293457,-94.37718963623047,15458680.0,50354.0,-0.0902627794510031,0.020462382638007193,0.029878863412410004,-0.0021427247620751694,0.0012258492816924983,0.0023599641232259832,15.458680607844144
1622,A,1149683656111345.0,-2.688728284241631,8.565639049271304,1.0615082,109,1970-01-14 07:21:23.656111345,-0.1812439,0.17189026,-0.21757507,11.065876008888813,0.33126201692252993,-86.2052230834961,9.10513687133789,-94.37893676757812,15509034.0,50354.0,-0.1393674589455031,-0.02502993866199278,0.03692032573390001,-0.005781400512108837,-0.00011499735801588516,0.0016818031851366473,15.509034611983225
1622,A,1149683706465349.0,-0.662528884241631,7.082118049271305,-0.116989136,109,1970-01-14 07:21:23.706465349,0.2716217,0.2076416,0.18562317,12.017761560114355,0.3890364291455222,-86.30255889892578,9.064786911010742,-94.40607452392578,15559388.0,50354.0,-0.0843746017309031,-0.09950561952999278,0.023780156474328004,-0.005633153861649878,-0.0031354317485996204,0.0015282560405565568,15.559388615889475
1622,A,1149683756819353.0,3.214759915758369,5.532634049271303,-1.0796814,109,1970-01-14 07:21:23.756819353,1.1727753,0.2555542,0.75393677,13.729688233375853,1.417438008022137,-86.24555969238281,9.103233337402344,-94.41649627685547,15609742.0,50354.0,0.06425752068049692,-0.1758675864149928,-0.030128574084871997,-0.0005064877496060762,-0.006933071206076903,-0.0001598341101806661,15.609742619795725
1622,A,1149683807173357.0,5.377388315758369,6.832332049271304,1.2991638,109,1970-01-14 07:21:23.807173357,1.7563629,-0.012191772,0.8587036,13.066732227435917,1.9550782972694138,-86.15718841552734,9.146037101745605,-94.41300201416016,15660096.0,50354.0,0.21632451602489694,-0.1821564485369928,0.005525908384800005,0.0070642139381317005,-0.009013971127986143,-0.0006194213143307126,15.660096623934805
1622,A,1149683857527361.0,0.5423050857583689,5.208049049271304,-0.16915894,109,1970-01-14 07:21:23.857527361,1.45578,0.0960083,0.8754883,13.803695126156098,1.7014678267618757,-86.19961547851562,8.991157531738281,-94.43309020996094,15710450.0,50354.0,0.1490401207699869,-0.1903285250819928,0.028450132360220006,0.009198785460584792,-0.009378054180805201,0.0008554147778373688,15.710450627841055
1622,A,1149683907881365.0,-1.6137312842416311,8.255077049271303,-0.8622894,109,1970-01-14 07:21:23.907881365,1.2488708,-0.20684814,0.9060211,11.057711048562117,1.5567076352865075,-86.3414306640625,9.130492210388184,-94.45203399658203,15760804.0,50354.0,-0.026975297399213095,-0.1545080742169928,-0.025968774856180002,0.0030732260580059725,-0.00868195106055056,6.247313787921519e-05,15.760804631980136
1622,A,1149683958235368.0,1.874214315758369,14.767451449271304,0.29585266,109,1970-01-14 07:21:23.958235368,0.9646454,-0.89949036,0.19264221,4.380551061364567,1.332942112977069,-86.28587341308594,9.137213706970215,-94.40593719482422,15811158.0,50354.0,0.006558181284496911,0.0861690000078072,-0.01426117780298,-0.0005140417324202094,-0.0017205728713646663,-0.0010128695180996715,15.811158634955063
1622,A,1149684008589372.0,0.828971957758369,15.985881049271304,1.9167633,109,1970-01-14 07:21:24.008589372,0.35231018,-1.0344696,-0.047286987,3.57872813678653,1.093839967909077,-86.2599868774414,9.131490707397461,-94.35382080078125,15861512.0,50354.0,0.06805812080833092,0.2808074523158072,0.05570703202492,0.0018786146377911261,0.009239366140151641,0.0010434822717457833,15.861512638861313
1622,A,1149684058943376.0,-0.40465538424163094,13.964122049271303,2.3824005,109,1970-01-14 07:21:24.058943376,-0.20552063,-0.5011902,-0.162323,5.710235225549762,0.5654901433806225,-86.2663345336914,9.121763229370117,-94.32904052734375,15911866.0,50354.0,0.010683018371430913,0.26058202801200714,0.10824004699260002,0.0019824656611288636,0.013630562946213383,0.004127695608424103,15.911866643000394
1622,A,1149684109297380.0,0.0772324557583689,8.633937049271305,4.048111,109,1970-01-14 07:21:24.109297380,-0.62086487,-0.027053833,0.04751587,11.160384509997495,0.6232678834834711,-86.29712677001953,9.124042510986328,-94.32750701904297,15962220.0,50354.0,-0.00824352707042309,0.07548213392400721,0.16190098803550002,6.141907248547397e-05,0.008461087405063034,0.006801340838902476,15.962220646906644
1622,A,1149684159651384.0,0.30574807575836893,8.343196049271304,7.2406616,109,1970-01-14 07:21:24.159651384,-0.36860657,-0.2761078,0.46195984,12.900602002062087,0.6523137392703228,-86.3131103515625,9.146209716796875,-94.31204223632812,16012574.0,50354.0,0.00964230084199691,-0.06603591997799277,0.28421742775020004,3.5216927246914053e-05,0.00023782732851880564,0.01123192335423657,16.012574650812894
1622,A,1149684210005388.0,-3.375999384241631,7.242900049271304,2.7185059,109,1970-01-14 07:21:24.210005388,0.6343384,0.14933777,0.4164276,12.78208384601875,0.7733685546393083,-86.28238677978516,9.167468070983887,-94.3182373046875,16062928.0,50354.0,-0.0772997171936831,-0.10105805852699279,0.2507419601475,-0.0017034107714864034,-0.004206925096820022,0.013468672509100395,16.062928654951975
1622,A,1149684260359392.0,-4.27272768424163,3.8405720492713034,2.085205,109,1970-01-14 07:21:24.260359392,0.26617432,0.7675934,0.21861267,16.13366809988587,0.8413322149041669,-86.275146484375,9.180867195129395,-94.35631561279297,16113282.000000002,50354.00000000186,-0.19257200140321018,-0.21442062297500075,0.12094302932930448,-0.006794560259114234,-0.007942806764175985,0.009357912980057854,16.113282658858225
1622,A,1149684310713396.0,-0.19072718424163115,10.961436049271304,2.2072906,109,1970-01-14 07:21:24.310713396,-0.5281677,0.02406311,0.06463623,8.404341694011233,0.5326518514140123,-86.30171966552734,9.184171676635742,-94.3573226928711,16163636.0,50353.99999999814,-0.1123764032237989,-0.12079904210298834,0.10807216172119602,-0.007677685983293923,-0.008439825507668218,0.005765915465078238,16.163636662997305
1622,A,1149684361067400.0,0.847694491758369,9.109065049271305,-4.6597443,109,1970-01-14 07:21:24.361067400,-0.7135773,-0.17581177,-1.1756439,10.940884270660707,1.3864490330167325,-86.33658599853516,9.124946594238281,-94.35225677490234,16213989.999999998,50353.99999999814,0.016540465901348295,0.01184580615800679,-0.06174542680489772,-0.0024128613939672495,-0.002743115621386699,0.0011663682049875993,16.213990666903555
1622,A,1149684411421404.0,-0.9485396842416312,7.803523049271304,-3.3734283,109,1970-01-14 07:21:24.411421404,-0.78367615,0.57058716,-1.4542542,11.833605267681778,1.7477337593161402,-86.38105773925781,9.05419635772705,-94.38575744628906,16264344.000000002,50354.000000003725,-0.0025389794111512795,-0.06766096944299779,-0.20225118655021496,0.00035251542536371633,-0.0014052583660263225,-0.006646642734442163,16.264344670809805
1622,A,1149684461775407.0,0.08173381575836891,11.587932049271304,-1.2392273,109,1970-01-14 07:21:24.461775407,-0.9263611,0.35742188,-0.30267334,7.5585918862560995,1.0380300759817607,-86.43036651611328,9.040213584899902,-94.40477752685547,16314698.0,50353.99999999814,-0.021823571350802286,-0.005250534983992612,-0.1161328300411957,-0.0006133759405336823,-0.0018356929469582695,-0.00801595438572165,16.314698673784733
1622,A,1149684512129411.0,0.982383815758369,10.892940049271305,0.6521454,109,1970-01-14 07:21:24.512129411,-1.1790314,-0.015991211,-0.32713318,8.142910019711774,1.223677603975867,-86.4893569946289,9.023839950561523,-94.40499877929688,16365051.999999998,50353.99999999814,0.02679128960869592,0.07253171682500453,-0.014780960996299454,0.00012507224257898337,0.0016939383152110945,-0.0032960165169508933,16.365052677923813
1622,A,1149684562483415.0,-0.23494708424163102,10.196269049271304,0.88168335,109,1970-01-14 07:21:24.562483415,-0.6266937,0.2315979,-0.67430115,8.917880508014008,0.9492442371673492,-86.46749114990234,8.93470287322998,-94.4101333618164,16415406.0,50354.00000000186,0.018818214589397607,0.037493817474008616,0.03861720643875143,0.001148310487195443,0.002770112877046357,0.0006001251515046356,16.415406681830063
1622,A,1149684612837419.0,-1.639640684241631,9.693645049271304,1.1723938,109,1970-01-14 07:21:24.612837419,-0.512558,0.39068604,-0.6598511,9.703731449210373,0.9223636806521013,-86.40740203857422,9.04630184173584,-94.41802978515625,16465760.0,50354.0,-0.047196496247103085,0.007299167259007205,0.05171550040555,-0.0007144799972960508,0.0011277529766231394,0.0022743065602189774,16.465760685969144
1622,A,1149684663191423.0,-2.880637984241631,8.042644049271304,0.93270874,109,1970-01-14 07:21:24.663191423,-0.27900696,0.018661499,-0.33596802,11.60926108027021,0.4371128524032312,-86.39118957519531,9.266602516174316,-94.41520690917969,16516114.000000002,50354.00000000186,-0.1138070560364073,-0.04692264936599453,0.05300016664958196,-0.00405358643584209,-0.0009976004090076567,0.002636426349447155,16.516114689875394
1622,A,1149684713545427.0,-2.425422684241631,7.162379049271305,0.20204163,109,1970-01-14 07:21:24.713545427,-0.0058288574,-0.14134216,-0.052108765,12.282795637583533,0.1507544532074604,-86.45465850830078,9.414398193359375,-94.41866302490234,16566468.0,50353.99999999814,-0.13359068945039815,-0.11065233344798867,0.028569610065488946,-0.00622873303812107,-0.003967265342307508,0.002053682268355264,16.566468693781644
1622,A,1149684763899431.0,-0.6422651842416311,6.481731049271303,0.4270172,109,1970-01-14 07:21:24.763899431,0.45736694,-0.24752808,0.42425537,12.618101163103587,0.671153698617006,-86.46961975097656,9.365490913391113,-94.41136169433594,16616822.0,50354.0,-0.0772351774648031,-0.1499514400489928,0.01583781416291,-0.005307962851324022,-0.0065612212053335036,0.0011180457197984004,16.616822697920725
1622,A,1149684814253435.0,3.277153115758369,7.716853049271304,0.86831665,109,1970-01-14 07:21:24.814253435,1.2064362,-0.4506836,0.69010925,11.588803219638415,1.4611142285649545,-86.40522003173828,9.398531913757324,-94.38639831542969,16667176.000000002,50354.00000000186,0.06633857345179936,-0.13599144815099784,0.03261262034145121,-0.0002743437992354053,-0.00719918409621143,0.0012198365895163472,16.667176701826975
1622,A,1149684864607439.0,4.464515815758369,7.364024049271304,0.6142273,109,1970-01-14 07:21:24.864607439,1.4436035,-0.44075012,0.60549927,12.2176058930916,1.6263090418068755,-86.32908630371094,9.427352905273438,-94.36216735839844,16717530.0,50353.99999999814,0.1949119986887897,-0.11377795728998859,0.03732600902914862,0.006577505654783367,-0.006288444320787482,0.0017608448716635269,16.717530705966055
1622,A,1149684914961443.0,-0.13971698424163104,6.214961049271304,0.4333191,109,1970-01-14 07:21:24.914961443,1.2167053,0.07194519,0.73568726,12.836005737361388,1.4236515170288457,-86.31218719482422,9.335655212402344,-94.37059783935547,16767883.999999998,50353.99999999814,0.10888546018109287,-0.15159109217398717,0.026374075712799025,0.00764870862196675,-0.00668119655835427,0.0016037770335479565,16.767884709872305
1622,A,1149684965315447.0,0.08515176575836891,10.269115049271305,-0.6945343,109,1970-01-14 07:21:24.965315447,1.1066132,-0.42036438,0.7319946,8.796855940363436,1.3918028167869845,-86.46012115478516,9.259090423583984,-94.38043975830078,16818238.0,50354.00000000186,-0.0013737885057531413,-0.07844961606699567,-0.006576615090400244,0.0027068213577701285,-0.005791734911383439,0.0004984406660901526,16.818238713778555
1622,A,1149685015669450.0,1.288246245758369,14.603663649271304,0.13856506,109,1970-01-14 07:21:25.015669450,0.7073364,-1.4225769,0.47251892,4.431724842044865,1.6575053390371133,-86.4129409790039,9.278253555297852,-94.30703735351562,16868592.0,50354.0,0.03457804173595691,0.13275274929320724,-0.01399763755548,0.0008359834835768404,0.0013671899852363287,-0.000517997958865327,16.868592716986313
1622,A,1149685066023454.0,0.8022080417583689,14.456157049271305,1.9787292,109,1970-01-14 07:21:25.066023454,0.2263794,-1.2348175,0.27578735,4.963341222491549,1.2853328570726854,-86.39139556884766,9.288141250610352,-94.24371337890625,16918946.0,50354.0,0.05263136759680891,0.23816990572720725,0.05330711758402,0.0021956712987710454,0.009338719685448976,0.0009896947786785515,16.918946720892563
1622,A,1149685116377458.0,0.14832315575836896,12.507487549271303,1.7716064,109,1970-01-14 07:21:25.116377458,-0.40145874,-0.6783142,0.11099243,6.770606576488576,0.7959890661066473,-86.4058837890625,9.291549682617188,-94.20906829833984,16969300.0,50354.0,0.023931523959878912,0.18539448005750722,0.0944221994012,0.0019276239207227297,0.010664080540901757,0.0037193810137368844,16.969300724798813
1622,A,1149685166731462.0,-0.396369884241631,8.638652049271304,3.7100677,109,1970-01-14 07:21:25.166731462,-0.83314514,-0.005783081,0.18231201,11.079619677389154,0.8528786181642216,-86.44739532470703,9.300630569458008,-94.20819091796875,17019654.0,50354.0,-0.0062450724830230885,0.03892715667250719,0.1380121088157,0.0004452917888327991,0.0056477458479515736,0.005851998577976892,17.019654728937894
1622,A,1149685217085466.0,-0.743354684241631,8.562892049271303,6.798172,109,1970-01-14 07:21:25.217085466,-0.25195313,-0.17823792,0.5838318,12.559747497359213,0.6603852712878773,-86.45824432373047,9.329214096069336,-94.19735717773438,17070008.0,50354.0,-0.028694845460703087,-0.06038592423099282,0.26456595092690005,-0.000879682314069194,-0.0005402673908199927,0.010135707810139442,17.070008732844144
1622,A,1149685267439470.0,0.780952547758369,12.485270749271304,4.5302277,109,1970-01-14 07:21:25.267439470,0.24731445,0.13897705,0.5599365,7.941667408959007,0.6277005190676163,-86.44673156738281,9.357585906982422,-94.20262908935547,17120362.0,50354.0,0.0009466014097609125,0.036460394778907196,0.2852151192469,-0.0006986175404705712,-0.0006023730550151599,0.013841838003765766,17.120362736983225
1622,A,1149685317793474.0,3.560524115758369,7.100413549271304,-0.9648895,109,1970-01-14 07:21:25.317793474,-0.6122284,0.59181213,-0.05117798,12.257775556608449,0.8530441938250194,-86.48223114013672,9.356855392456055,-94.23271179199219,17170716.0,50354.0,0.10930535795736093,-0.0003604264155927926,0.08976451986140001,0.002775813580986027,0.0009088889034831668,0.00944086237382967,17.170716740889475
1622,A,1149685368147478.0,0.686210725758369,9.377223049271304,-1.9481964,109,1970-01-14 07:21:25.368147478,-0.3587036,0.7865448,0.11387634,9.826700510410213,0.8719454202367231,-86.506591796875,9.364946365356445,-94.27215576171875,17221070.0,50354.0,0.10692004310486693,-0.0786117433584928,-0.0733427637043,0.005443906922543712,-0.0019882823184021532,0.00041345055476730696,17.221070744795725
1622,A,1149685418501482.0,3.857597415758369,12.853557049271304,-1.496048,109,1970-01-14 07:21:25.418501482,-0.67411804,0.2659607,-0.4984436,7.026071793877118,0.8795545737354172,-86.542724609375,9.340880393981934,-94.2871322631836,17271424.0,50354.0,0.11439945757896693,0.06623515054100722,-0.08671574125880001,0.0055721610687168854,-0.0003116054773658346,-0.004029792979455969,17.271424748934805
1622,A,1149685468855486.0,0.35366067575836896,9.423000049271304,2.2129822,109,1970-01-14 07:21:25.468855486,-0.7597809,0.782959,-1.2564087,9.848006355605895,1.6639875700021018,-86.58773040771484,9.280518531799316,-94.33053588867188,17321778.0,50354.0,0.10602684497011693,0.06738767807000719,0.018050252353399996,0.0055496730192782845,0.00336422195593951,-0.0017287910141712563,17.321778752841055
1622,A,1149685519209490.0,0.6552048657583689,10.494136049271305,-1.3755646,109,1970-01-14 07:21:25.519209490,-1.3113403,0.82003784,-0.36746216,8.625764014103039,1.5896867240018775,-86.66015625,9.2645902633667,-94.37310791015625,17372132.0,50354.0,0.02540020773876691,0.007984535553007207,0.021083662915200002,0.0033089389060515684,0.0018976462223866336,0.0009852745847175421,17.372132756980136
1622,A,1149685569563493.0,0.20650491575836893,10.467342049271304,-0.96255493,109,1970-01-14 07:21:25.569563493,-1.190445,0.4274292,-0.24543762,8.616313099936171,1.2884466012795812,-86.72327423095703,9.25357437133789,-94.39543914794922,17422486.0,50354.0,0.02169526716924691,0.03427793408700722,-0.05886683540681001,0.001185722771759064,0.0010640421981266432,-0.0009512669338212652,17.422486759955063
1622,A,1149685619917497.0,0.0024644157583689763,10.738643049271303,1.0548401,109,1970-01-14 07:21:25.619917497,-0.78770447,0.5857239,-0.68530273,8.375969843818806,1.1971594091158637,-86.66716766357422,9.12969970703125,-94.41094207763672,17472840.0,50354.0,0.005261220859596911,0.04043388682600718,0.0023234637250900006,0.0006786834991022009,0.0018810195151269637,-0.0014235924688306648,17.472840763861313
1622,A,1149685670271501.0,-1.9545820842416308,10.187114049271305,0.15515137,109,1970-01-14 07:21:25.670271501,-0.7353363,0.4570465,-0.8665619,9.24709900850855,1.2249655112661542,-86.76422119140625,9.294837951660156,-94.44564819335938,17523194.0,50354.0,-0.049148466539403086,0.0333785864700072,0.030463955240190004,-0.0011049491844804802,0.0018583766401737542,0.0008254888472888548,17.523194768000394
1622,A,1149685720625505.0,-2.587547184241631,8.219173049271305,0.45918274,109,1970-01-14 07:21:25.720625505,-0.31217957,0.20327759,-0.34407043,11.322302081119375,0.5071117463853286,-86.80097961425781,9.482545852661133,-94.46009826660156,17573548.0,50354.0,-0.11435718859260308,-0.03005410971999276,0.015467089887469998,-0.0041165818792585195,8.370035113511364e-05,0.001156405923179096,17.573548771906644
1622,A,1149685770979509.0,-1.5169906842416312,8.040782049271304,1.5291443,109,1970-01-14 07:21:25.770979509,-0.040802002,0.13493347,-0.06840515,11.316423955331627,0.1566879358469292,-86.6867904663086,9.540660858154297,-94.4477310180664,17623902.0,50354.0,-0.10333994991480311,-0.0840923104839928,0.05006010988608,-0.005480960856200966,-0.0028738644214757443,0.0016497783086986684,17.623902775812894
1622,A,1149685821333513.0,-0.4330214842416311,5.206599049271304,-1.450882,109,1970-01-14 07:21:25.821333513,0.5084381,0.26350403,0.3816223,13.93355239771411,0.6881709491217578,-86.66338348388672,9.560474395751953,-94.4599380493164,17674256.0,50354.0,-0.049095456365903095,-0.1599398860819928,0.0019704099271000003,-0.0038378662239293405,-0.00614399861294182,0.001309972397336433,17.674256779951975
1622,A,1149685871687517.0,3.540870715758369,7.6780960492713035,1.0571594,109,1970-01-14 07:21:25.871687517,1.475174,0.028411865,0.8777008,11.700780653878583,1.7167714637276035,-86.58943176269531,9.6043701171875,-94.4587631225586,17724610.0,50354.0,0.07824632010189692,-0.1690712315039928,-0.009912753900200001,0.0007339312962811165,-0.00828351290746236,-0.00019996439421073874,17.724610783858225
1622,A,1149685922041521.0,6.037864815758368,7.383479049271305,-2.0955658,109,1970-01-14 07:21:25.922041521,1.7498932,-0.3575287,0.6448059,12.914607715978983,1.8988753596286252,-86.49857330322266,9.635476112365723,-94.43867492675781,17774964.0,50354.0,0.24116382447699694,-0.1142639237439928,-0.026143957932800006,0.00804178921006281,-0.007133529203678534,-0.0009077998338194413,17.774964787997305
1622,A,1149685972395525.0,-2.723716684241631,4.914531049271304,-0.17996216,109,1970-01-14 07:21:25.972395525,1.4857025,-0.0027923584,0.67492676,14.532328844729872,1.6318228602197549,-86.52794647216797,9.781238555908203,-94.45389556884766,17825318.0,50354.0,0.0834403075071969,-0.1838421997489928,-0.05729096744892001,0.00817255823096605,-0.007505417871182899,-0.0021006411163355648,17.825318791903555
1622,A,1149686022768292.0,0.38268289575836895,10.984584049271303,0.21594238,109,1970-01-14 07:21:26.022768292,1.200531,-0.1429596,0.50354004,8.038008177849056,1.309681144812111,-86.51532745361328,9.639204025268555,-94.45343780517578,17875691.0,50373.0,-0.058962447513633685,-0.09321233757055666,0.0009062158110299995,0.0006165116207278799,-0.006978034104198832,-0.0014201345471277168,17.875691558932886
1622,A,1149686073122295.0,1.515266515758369,13.996837049271303,0.8709717,109,1970-01-14 07:21:26.073122295,0.9167633,-1.0274658,0.21168518,5.1341050783653355,1.3931803665815,-86.46066284179688,9.64661979675293,-94.40076446533203,17926045.0,50354.0,0.04778467233375691,0.13548803899800715,0.027365235792160006,-0.00028142284570375754,0.0010643753348389211,0.0007117903370135148,17.926045561907813
1622,A,1149686123476299.0,0.35897073575836896,15.126033049271303,1.7350616,109,1970-01-14 07:21:26.123476299,0.35021973,-0.9702301,0.124435425,4.276568692316046,1.0389824258485865,-86.43485260009766,9.649827003479004,-94.35124969482422,17976399.0,50354.0,0.04718767128143691,0.23975730047100716,0.06561210039410001,0.0023911186951997353,0.009447551911811373,0.0023408903931614686,17.976399565814063
1622,A,1149686173830303.0,-0.8318403842416311,13.690181049271304,1.6626434,109,1970-01-14 07:21:26.173830303,-0.58895874,-0.3318329,-0.050094604,5.810277391250408,0.6778605610999319,-86.46150970458984,9.646297454833984,-94.3346176147461,18026753.0,50354.0,-0.011905439139863092,0.23203662235900716,0.08554401878500001,0.0008883007586284041,0.011878355595091272,0.0038056576125722013,18.026753569953144
1622,A,1149686224184307.0,-0.397987284241631,9.431789049271304,3.9309235,109,1970-01-14 07:21:26.224184307,-0.6274719,0.03756714,-0.049346924,10.422567232140256,0.630529455462353,-86.49324035644531,9.643954277038574,-94.33668518066406,18077107.0,50354.0,-0.030963371209403092,0.0886726411710072,0.1408292338413,-0.0010793080381634747,0.008074497127895174,0.0056993993813723555,18.077107573859394
1622,A,1149686274538311.0,0.43231973575836896,7.282008049271305,6.5760193,109,1970-01-14 07:21:26.274538311,-0.12338257,-0.3420868,0.38694763,13.449536223240296,0.5310132820153012,-86.49629974365234,9.662217140197754,-94.31816864013672,18127461.0,50354.0,0.0008643881318369119,-0.0726659304499928,0.2645332988756,-0.0007578020969438837,0.0004030009558229798,0.010205812486213392,18.127461577998474
1622,A,1149686324892315.0,1.6169053157583688,14.247264049271305,5.233673,109,1970-01-14 07:21:26.324892315,0.082717896,0.0032653809,0.29431152,7.120188257779003,0.30573220935288986,-86.49203491210938,9.676915168762207,-94.3174057006836,18177815.0,50354.0,0.05159333912203691,0.04857328362500724,0.29733262303709995,0.0013207281990707813,-0.0006065805691126613,0.01414609831599605,18.177815581904724
1622,A,1149686375246319.0,6.040428315758369,1.1883190492713034,-5.8545837,109,1970-01-14 07:21:26.375246319,-0.52212524,1.0520935,-0.38865662,19.47074872837228,1.2371618597649752,-86.52728271484375,9.660722732543945,-94.37187194824219,18228169.0,50354.0,0.19278868884069691,-0.1048475243279928,-0.015632668693900013,0.00615280631801775,-0.0014168165581790674,0.007092359750498745,18.228169585810974
1622,A,1149686425600323.0,0.2622300157583689,9.401195049271305,-1.1493835,109,1970-01-14 07:21:26.425600323,0.07356262,1.1399841,0.20765686,9.691152012444894,1.161075612877617,-86.53319549560547,9.67453670501709,-94.42894744873047,18278523.0,50354.0,0.1586820288125969,-0.2268570035409928,-0.1763388821944,0.00884897825835698,-0.008351324898157451,-0.00483326773671473,18.278523589950055
1622,A,1149686475954327.0,2.980461315758369,17.216777049271304,-3.2864838,109,1970-01-14 07:21:26.475954327,-1.0579071,-0.15525818,-0.23565674,4.323622680246559,1.0949002848637632,-86.58488464355469,9.662314414978027,-94.42180633544922,18328877.0,50354.0,0.08164123965359692,0.17669148352500724,-0.11168183101210001,0.006050618930173363,-0.0012630172974424686,-0.007251497496400051,18.328877593856305
1622,A,1149686526308331.0,-0.26720418424163106,5.570811049271304,5.1002197,109,1970-01-14 07:21:26.526308331,-1.1222229,0.6958008,-1.5941467,14.41331608200071,2.069982292602026,-86.64768981933594,9.584802627563477,-94.4618148803711,18379231.0,50354.0,0.06831167480019691,0.08025390555700722,0.045664428754300004,0.0037753645272031676,0.006469114060917879,-0.001662120136644631,18.379231597995386
1622,A,1149686576662335.0,-0.05075828424163109,11.540187049271303,-2.4638062,109,1970-01-14 07:21:26.576662335,-1.1417694,0.8998108,-0.018356323,7.911380980742881,1.4538341697618336,-86.71237182617188,9.586492538452148,-94.50740814208984,18429585.0,50354.0,-0.008005341069003092,-0.06266560087299282,0.06637698268950001,0.0015183325643502669,0.0004428207470294306,0.0028208666159205533,18.429585601901636
1622,A,1149686627016338.0,0.985176185758369,10.874110049271303,-0.5928345,109,1970-01-14 07:21:26.627016338,-1.5550995,0.41947937,-0.14457703,8.157208243631558,1.6171579744599685,-86.79373168945312,9.580460548400879,-94.52906036376953,18479939.0,50354.0,0.02352583950648691,0.07085555805000716,-0.0769570429039,0.0003907595891605301,0.00020619855184569018,-0.0002663741760179485,18.479939604876563
1622,A,1149686677370342.0,-0.6811751842416311,10.293132049271303,2.09581,109,1970-01-14 07:21:26.677370342,-0.4872284,0.41012573,-0.74993896,9.08752648732818,0.9838714712300964,-86.82189178466797,9.544164657592773,-94.55193328857422,18530293.0,50354.0,0.007653833215186909,0.03945845431500718,0.03784041416350001,0.0007850106201135818,0.002777375889313966,-0.0009848393617970506,18.530293608782813
1622,A,1149686727724346.0,-1.2798689842416309,9.948085049271304,0.2694397,109,1970-01-14 07:21:26.727724346,-0.6298828,0.30455017,-0.78648376,9.303104066624266,1.0526442193479268,-86.89275360107422,9.592669486999512,-94.57564544677734,18580647.0,50354.0,-0.04937320902990309,0.016143922890007198,0.059549891696900004,-0.0010503687248871094,0.001399901050890647,0.002451995730647291,18.580647612921894
1622,A,1149686778078350.0,-3.036933784241631,8.677684049271305,0.5444946,109,1970-01-14 07:21:26.778078350,-0.3945465,0.47927856,-0.24537659,11.038926098023383,0.667521197909064,-86.9166259765625,9.581713676452637,-94.60057067871094,18631001.0,50354.0,-0.10868414330210309,-0.024528211405992775,0.020492423871100004,-0.00397940995966292,-0.00021109123196696888,0.0020152253790555364,18.631001616828144
1622,A,1149686828432354.0,-2.160423184241631,7.971721049271304,1.2520599,109,1970-01-14 07:21:26.828432354,0.021713257,0.08190918,0.049438477,11.49899273077839,0.09810577101220895,-86.8332290649414,9.72009563446045,-94.5906753540039,18681355.0,50354.0,-0.13085385639550312,-0.07428712783399279,0.0452318526465,-0.006030848218386632,-0.002487873796045117,0.0016547401098836153,18.681355620967224
1622,A,1149686878786358.0,-0.8395460842416311,5.448466049271303,-0.89071655,109,1970-01-14 07:21:26.878786358,0.6018677,0.027709961,0.49279785,13.689243527012078,0.778371563719111,-86.97705078125,9.6771879196167,-94.62000274658203,18731709.0,50354.0,-0.0755302262726031,-0.15558914941999283,0.009097541522949996,-0.00519613204933491,-0.005787595032423596,0.0013678511570042427,18.731709624873474
1622,A,1149686929140362.0,3.772194015758369,6.817287049271304,1.5654907,109,1970-01-14 07:21:26.929140362,1.6489258,-0.5140381,1.0623322,12.641292834864423,2.02774287455636,-86.88973236083984,9.728858947753906,-94.59109497070312,18782063.0,50354.0,0.07383527697179691,-0.18465433423799282,0.01698878877455,-4.267373854639736e-05,-0.008566310188057105,0.0006567755379001575,18.782063628779724
1622,A,1149686979494366.0,7.649391315758368,6.969035049271303,-0.5809326,109,1970-01-14 07:21:26.979494366,1.7959137,-0.23939514,0.6170502,13.855225626137699,1.913992424285778,-86.79759216308594,9.75900936126709,-94.57723999023438,18832417.0,50354.0,0.2875612538915969,-0.14637096852499282,0.0247882192837,0.009098880457547668,-0.00833422404766369,0.0010518197318825605,18.832417632918805
1622,A,1149687029848370.0,-3.1953810842416313,5.152507049271303,1.8791962,109,1970-01-14 07:21:27.029848370,1.2718506,0.29542542,0.6027374,14.546412312043358,1.4381142169039622,-86.62605285644531,9.946562767028809,-94.57154083251953,18882771.0,50354.0,0.11213861559889689,-0.18828513458499282,0.032686382657199996,0.010063243614162163,-0.008425636708000108,0.0014470380530660393,18.882771636825055
1622,A,1149687080202374.0,1.358177275758369,11.931971749271305,0.42503357,109,1970-01-14 07:21:27.080202374,1.2222595,-0.21224976,0.64894104,7.109466071350252,1.4000331136643123,-86.56275177001953,9.978323936462402,-94.558837890625,18933125.0,50354.0,-0.046255280286183094,-0.06333327728909278,0.05801359291929001,0.0016587447331681952,-0.006334996755753854,0.002283553285089289,18.933125640964136
1622,A,1149687130556378.0,2.000038215758369,14.567531049271304,0.72714233,109,1970-01-14 07:21:27.130556378,0.70462036,-1.1843109,0.21855164,4.652745166576291,1.3952945850006115,-86.51700592041016,9.985655784606934,-94.4981460571289,18983479.0,50354.0,0.08454979142991692,0.1737087819589073,0.029008332634300003,0.0009641409070657866,0.00277892408107192,0.002190951019662736,18.983479644870386
1622,A,1149687180910381.0,0.20706951575836896,15.828898649271304,2.1979218,109,1970-01-14 07:21:27.180910381,-0.05180359,-1.118988,0.14668274,3.9126020431325546,1.1297493448968208,-86.50967407226562,9.989571571350098,-94.44098663330078,19033833.0,50354.0,0.055568351356396914,0.2718217105202072,0.07364433960101001,0.003527754480931024,0.011217121209146665,0.0025844863288684004,19.033833647845313
1622,A,1149687231264385.0,-1.081779384241631,13.706340049271304,2.0291443,109,1970-01-14 07:21:27.231264385,-0.53460693,-0.5480957,0.0068511963,5.985568085640091,0.7656764361355625,-86.5315933227539,9.98825454711914,-94.41320037841797,19084187.0,50354.0,-0.02202257035880309,0.2501395047132073,0.10642484319970001,0.0008445821281764198,0.013141417515931678,0.004533601815373476,19.084187651984394
1622,A,1149687281618389.0,-0.884590084241631,8.142299049271305,3.34169,109,1970-01-14 07:21:27.281618389,-0.6119385,0.073638916,0.14579773,11.494461065530144,0.6333627679340317,-86.56275177001953,9.995753288269043,-94.4164810180664,19134541.0,50354.0,-0.04950728410800309,0.056613986584007236,0.13522149517110002,-0.0018009071459107794,0.007723132650389971,0.0060839298611616325,19.134541655890644
1622,A,1149687331972393.0,0.771568392758369,5.754390049271304,7.2218323,109,1970-01-14 07:21:27.331972393,-0.21826172,-0.44482422,0.4270172,15.09353463585324,0.6541027856627786,-86.56951904296875,10.01573371887207,-94.39263916015625,19184895.0,50354.0,-0.002845547126474088,-0.14359225856599278,0.2659578009471,-0.001318087231990432,-0.00218985195369045,0.010100491138367923,19.184895659796894
1622,A,1149687382326397.0,3.647972315758369,7.975780049271304,6.544174,109,1970-01-14 07:21:27.382326397,0.6932678,-0.2210846,0.22317505,13.136025693895624,0.7611213739059641,-86.53279876708984,10.026206970214844,-94.38076782226562,19235249.0,50354.0,0.11127077641832592,-0.1477847074289928,0.34658674061510003,0.0027298219978809535,-0.0073359978728557524,0.01542203392291151,19.235249663935974
1622,A,1149687432680401.0,0.414680575758369,12.369792049271304,-2.008255,109,1970-01-14 07:21:27.432680401,-0.48468018,0.9118805,-0.066223145,6.94693768710706,1.0348074352742027,-86.56510925292969,10.02564525604248,-94.42717742919922,19285603.0,50354.0,0.10228541184971691,0.018771268725007197,0.114200832663,0.005376704152024515,-0.0032481713462502457,0.011601248732422726,19.285603667842224
1622,A,1149687483034405.0,0.2514420457583689,10.848613049271304,-3.1325226,109,1970-01-14 07:21:27.483034405,-0.118270874,0.6882782,-0.20281982,8.75825497420235,0.7272212590517387,-86.57720184326172,10.017583847045898,-94.4626693725586,19335957.0,50354.0,0.016770969241926913,0.0911005851660072,-0.1294293576352,0.0029974825067443167,0.00276624366541407,-0.0003834085732250793,19.335957671981305
1622,A,1149687533388409.0,3.851371815758369,12.702296449271305,1.3106537,109,1970-01-14 07:21:27.533388409,-1.09758,0.025650024,-1.2285156,7.119847880316622,1.6476013958401954,-86.63294219970703,9.956341743469238,-94.46766662597656,19386311.0,50354.0,0.10329654459140693,0.09947204844480723,-0.04586919329530001,0.003022939795781846,0.004798047196419476,-0.004413491616777199,19.386311675887555
1622,A,1149687583742413.0,-1.1256026842416311,8.072978049271304,3.5813904,109,1970-01-14 07:21:27.583742413,-0.81869507,0.42933655,-1.1365356,11.66924284184476,1.465027187759861,-86.67820739746094,9.900862693786621,-94.49279022216797,19436665.0,50354.0,0.06862668942419692,0.029589886049807244,0.1231669943057,0.004328511262810858,0.0032493923247709088,0.0019461267360388406,19.436665679793805
1622,A,1149687634096417.0,0.06499491575836891,11.173503049271304,-1.4390411,109,1970-01-14 07:21:27.634096417,-1.1457977,0.36616516,-0.014556885,8.000891164069449,1.2029718187156417,-86.73870086669922,9.901190757751465,-94.51138305664062,19487019.0,50354.0,-0.026702921787103095,-0.008900545381992794,0.05393792832610001,0.0010555146977991113,0.0005208955299935644,0.004458970637100829,19.487019683932886
1622,A,1149687684450420.0,0.598030185758369,10.592281049271303,1.3238068,109,1970-01-14 07:21:27.684450420,-1.2232819,0.4337616,-0.23544312,8.52198397325503,1.3190910488884018,-86.80376434326172,9.89065933227539,-94.53404998779297,19537373.0,50354.0,0.016692982980886912,0.054527946249007184,-0.0029012539711000007,-0.0002520202293241049,0.0011487610716288212,0.0012849503502358353,19.537373686907813
1622,A,1149687734804424.0,-0.32358538424163097,10.415507549271304,1.6959381,109,1970-01-14 07:21:27.734804424,-0.4012909,0.3668213,-0.7545166,8.832097776213415,0.9299933076275656,-86.62753295898438,9.794461250305176,-94.52058410644531,19587727.0,50354.0,0.006909696767786913,0.035443893545507185,0.0760281173473,0.0005942446680323609,0.0022652210105064885,0.0018411150392225876,19.587727690814063
1622,A,1149687785158428.0,-1.8090436842416309,10.088649049271304,0.44773865,109,1970-01-14 07:21:27.785158428,-0.48762512,0.31721497,-0.6421814,9.30842185309394,0.8664874755892755,-86.6671371459961,9.927639961242676,-94.54068756103516,19638081.0,50354.0,-0.053693202057203085,0.022763950681507196,0.05397134953475,-0.001177868312671631,0.0014654988941035412,0.003272996577689373,19.638081694953144
1622,A,1149687835512432.0,-2.246559084241631,8.927150049271305,0.44158936,109,1970-01-14 07:21:27.835512432,-0.26417542,0.25556946,-0.24395752,10.545068891169405,0.44115719758541677,-86.70276641845703,10.089715957641602,-94.557861328125,19688435.0,50354.0,-0.10210791090210308,-0.01470842609599279,0.02239061130777,-0.003922604620976451,0.0002028139424894962,0.0019225650881321264,19.688435698859394
1622,A,1149687885866436.0,-0.991386284241631,7.125117049271305,0.20385742,109,1970-01-14 07:21:27.885866436,-0.029022217,-0.073272705,-0.10522461,12.021289495816179,0.13146633381692902,-86.76170349121094,10.048408508300781,-94.56461334228516,19738789.0,50354.0,-0.0815217505423031,-0.08932127125999277,0.016250413580060002,-0.004623243986185814,-0.002619155690331649,0.000972865083600896,19.738789702998474
1622,A,1149687936220440.0,-0.778083684241631,4.985377049271303,0.27464294,109,1970-01-14 07:21:27.936220440,0.44517517,-0.16096497,0.32920837,14.11561826882609,0.5766010791090204,-86.79122161865234,9.975522994995117,-94.56480407714844,19789143.0,50354.0,-0.04454994539650309,-0.18856329008099282,0.01204720356372,-0.0031741070886513235,-0.006996299600881995,0.0007124491068289492,19.789143706904724
1622,A,1149687986574444.0,1.811775315758369,6.907100049271303,1.3079071,109,1970-01-14 07:21:27.986574444,1.3571625,-0.5704193,0.8250122,12.212021741734961,1.6875761788338859,-86.71792602539062,10.015094757080078,-94.53350830078125,19839497.0,50354.0,0.02602525420669691,-0.19405230408999286,0.039843862357080005,-0.00046639615008575014,-0.009633112814442906,0.001306461366687982,19.839497710810974
1622,A,1149688036928448.0,4.5942155157583695,7.193996049271304,2.2286072,109,1970-01-14 07:21:28.036928448,1.7772064,-0.6320038,0.91249084,12.602024745449569,2.095359378364319,-86.62303161621094,10.058806419372559,-94.49878692626953,19889851.0,50354.0,0.16128363116509692,-0.13844590352699282,0.0890388205311,0.004715875807005654,-0.008371307373172848,0.003244879307075708,19.889851714950055
1622,A,1149688087282452.0,-0.11586752424163105,6.526988049271305,0.4157257,109,1970-01-14 07:21:28.087282452,1.276886,-0.007156372,0.80500793,12.522655488891175,1.5094789955541241,-86.59589385986328,9.954534530639648,-94.5025405883789,19940205.0,50354.0,0.11275136738241692,-0.14801598335099278,0.0665763694233,0.006899379158430756,-0.007212250925927043,0.003917923637481929,19.940205718856305
1622,A,1149688137636456.0,-0.9030073842416311,10.224178049271304,-0.5913849,109,1970-01-14 07:21:28.137636456,1.0744934,-0.4342804,0.91542053,8.969981733261104,1.476865017262309,-86.71817016601562,10.028246879577637,-94.5090103149414,19990559.0,50354.0,-0.025652213570883094,-0.0717250911369928,-0.0044225716784,0.002192895395512987,-0.005532421032384013,0.0015648461658233474,19.990559722995386
1622,A,1149688187990460.0,1.651588515758369,14.728480549271303,0.34777832,109,1970-01-14 07:21:28.187990460,0.87384033,-1.6407623,0.5676422,4.374143944276744,1.9436860638119107,-86.65968322753906,10.05184555053711,-94.4241714477539,20040913.0,50354.0,0.018847027148196912,0.1347638855355072,-0.006133282864660001,-0.00017133417856397002,0.001587127726571397,-0.0002657647498306217,20.040913726901636
1622,A,1149688238344463.0,1.0038681957583688,15.278117349271303,2.3263702,109,1970-01-14 07:21:28.238344463,0.21757507,-1.5167542,0.23791504,4.399908891986945,1.5506404420630033,-86.63526153564453,10.059287071228027,-94.34656524658203,20091267.0,50354.0,0.06685643362585691,0.26200691529160713,0.06732703728804,0.0021577560319083534,0.009989498452424259,0.0015406751551174385,20.091267729876563
1622,A,1149688288698467.0,-0.012519744241631048,13.273066749271305,2.1150665,109,1970-01-14 07:21:28.288698467,-0.32095337,-0.9672699,0.08061218,6.168430826707294,1.0223113267125232,-86.64269256591797,10.06047248840332,-94.29729461669922,20141621.0,50354.0,0.024959179963836908,0.22536396204900727,0.11182205179590002,0.0023116417033477218,0.01227053657880465,0.0045104366158663575,20.141621733782813
1622,A,1149688339052471.0,-0.17658224424163105,9.277293049271304,3.1292725,109,1970-01-14 07:21:28.339052471,-0.5095062,-0.3575592,0.20204163,10.269582564162434,0.6544203309770693,-86.66490173339844,10.069517135620117,-94.27857208251953,20191975.0,50354.0,-0.0047610207640430904,0.07428120864790722,0.132036723003,0.000508529054173209,0.007544166462636216,0.006139632373111907,20.191975737921894
1622,A,1149688389406475.0,0.5198594157583689,7.833644049271305,6.138443,109,1970-01-14 07:21:28.389406475,-0.3462677,-0.30622864,0.42488098,12.752815184099626,0.6278543996702579,-86.67927551269531,10.089834213256836,-94.26179504394531,20242329.0,50354.0,0.00864268934727691,-0.06266713666999278,0.2333332731435,9.77287699200779e-05,0.0002924074901879517,0.00919892039298043,20.242329741828144
1622,A,1149688439760479.0,-0.04657738424163105,12.158473049271304,5.847931,109,1970-01-14 07:21:28.439760479,0.015029907,-0.4106903,0.35864258,9.047567292788923,0.5454511167901072,-86.67469024658203,10.10654354095459,-94.23992156982422,20292683.0,50354.0,0.01191582170749691,0.009872332190007235,0.301780938198,0.0005176016328260405,-0.0013292147923925962,0.013472570498944944,20.292683745967224
1622,A,1149688490114483.0,1.229454135758369,7.497493049271304,-0.66070557,109,1970-01-14 07:21:28.490114483,-0.3399048,0.44081116,0.23947144,11.53685074873835,0.6059672618378481,-86.69548034667969,10.119773864746094,-94.26156616210938,20343037.0,50354.0,0.029781287972936915,0.001409058463007209,0.13059877465111,0.0010498081304242824,0.00028403157247094464,0.010886024030402043,20.343037749873474
1622,A,1149688540468487.0,2.3747941157583687,4.882533049271304,-2.3303223,109,1970-01-14 07:21:28.540468487,-0.45986938,0.5247803,0.2796936,14.400985053710885,0.7517331440149718,-86.72301483154297,10.135242462158203,-94.28736114501953,20393391.0,50354.0,0.09074415822843691,-0.1817772829169928,-0.07530510868299001,0.003034469159011989,-0.004541130787077996,0.001392128628079357,20.393391753779724
1622,A,1149688590822491.0,1.889808715758369,14.989253049271305,-0.32626343,109,1970-01-14 07:21:28.590822491,-0.31095886,-0.009719849,-0.051452637,4.17246556832956,0.3153367437063689,-86.7385025024414,10.132646560668945,-94.28701782226562,20443745.0,50354.0,0.10736990548909692,0.006842758603007229,-0.06688485892421,0.0049879177822163496,-0.004404326518653215,-0.003579916814446475,20.443745757918805
1622,A,1149688641176495.0,1.436378575758369,11.648127749271303,0.12968445,109,1970-01-14 07:21:28.641176495,-1.0715027,-0.09173584,-1.1597595,7.387090265517543,1.5816369995318287,-86.79185485839844,10.074490547180176,-94.28569793701172,20494099.0,50354.0,0.08374341743851692,0.17718013636490723,-0.004949268979460001,0.004811660131348534,0.004633144426607182,-0.0018085678382307,20.494099761825055
1622,A,1149688691530499.0,-0.24768818424163097,6.656474049271305,1.4382935,109,1970-01-14 07:21:28.691530499,-1.2901764,0.6501465,-0.87579346,12.480400207653098,1.6894554741566827,-86.77570343017578,9.903594017028809,-94.30596923828125,20544453.0,50354.0,0.029927657987216912,-0.0326142405180928,0.03947698084715,0.002861896665993701,0.003639735559735247,0.0008693042016928312,20.544453765964136
1622,A,1149688741884503.0,0.219734315758369,10.683971049271303,-0.9986572,109,1970-01-14 07:21:28.741884503,-1.2873993,0.49383545,0.04159546,8.404898814830364,1.379492874794866,-86.8443603515625,9.907047271728516,-94.33088684082031,20594807.0,50354.0,-0.0007037945468030868,-0.0568888137539928,0.011068723125099997,0.000735769209839299,-0.0022534183974082995,0.0012725891889093382,20.594807769870386
1622,A,1149688792238506.0,0.48888406575836896,10.679027049271305,1.4603577,109,1970-01-14 07:21:28.792238506,-1.129425,0.35714722,-0.3771515,8.462350850910038,1.2431404672566082,-86.90411376953125,9.889192581176758,-94.35002136230469,20645161.0,50354.0,0.017840884991446912,0.04438700312700721,0.011624233488500002,0.00043146052612479764,-0.0003147580861556162,0.0005713405686606071,20.645161772845313
1622,A,1149688842592510.0,-0.546333184241631,10.351894049271303,1.1148834,109,1970-01-14 07:21:28.842592510,-0.6431122,0.39715576,-0.74450684,8.83330694486843,1.0609507218984318,-86.83379364013672,9.828352928161621,-94.3539810180664,20695515.0,50354.0,-0.0014463964560530891,0.03602630049800721,0.06483684517470001,0.0004127640378556103,0.002024565745366988,0.0019250605775033868,20.695515776984394
1622,A,1149688892946514.0,-2.196052484241631,9.745509049271304,0.631958,109,1970-01-14 07:21:28.892946514,-0.54681396,0.47158813,-0.5384979,9.760442774489036,0.9007668175017264,-86.84773254394531,10.00578498840332,-94.37637329101562,20745869.0,50354.0,-0.06904504397540309,0.012523117812007179,0.04398022592780001,-0.0017747629957427723,0.0012223287047912323,0.002739687399147643,20.745869780890644
1622,A,1149688943300518.0,-3.051780684241631,8.521495049271303,0.8444824,109,1970-01-14 07:21:28.943300518,-0.3300476,0.15931702,-0.2308197,11.208949728155881,0.43311784197320985,-86.8657455444336,9.994697570800781,-94.38509368896484,20796223.0,50354.0,-0.13212469568290308,-0.033560837810992825,0.0371723399508,-0.005064850535377175,-0.0005296666764144617,0.0020431781511255124,20.796223784796894
1622,A,1149688993654522.0,-2.1897046842416312,6.003184549271303,0.39642334,109,1970-01-14 07:21:28.993654522,-0.0038146973,-0.12376404,-0.0077667236,13.353547907551574,0.12406615778725086,-86.8991928100586,10.069358825683594,-94.38481903076172,20846577.0,50354.0,-0.13196487712230312,-0.12778134174749284,0.031242283815980005,-0.006648983174516676,-0.004062112054743994,0.0017224749825762204,20.846577788935974
1622,A,1149689044008526.0,0.12383281575836891,5.156016549271303,0.78829956,109,1970-01-14 07:21:29.044008526,0.69940186,-0.37078857,0.57618713,13.891648643515596,0.9791009826324052,-86.85672760009766,9.917268753051758,-94.36380767822266,20896931.0,50354.0,-0.0520124560328031,-0.21251399394199286,0.029827768453300006,-0.00463199731684611,-0.00856761566665418,0.0015375607059836631,20.896931792842224
1622,A,1149689094362530.0,5.567375315758369,7.194774049271304,2.2791443,109,1970-01-14 07:21:29.094362530,1.6282806,-0.41026306,0.8681183,12.935255627818396,1.8903023233154568,-86.77130889892578,9.959468841552734,-94.34056091308594,20947285.0,50354.0,0.1432875471271969,-0.18251334510049283,0.07722903406322,0.0022980329684835527,-0.009945603315072661,0.0026953691169584243,20.947285796981305
1622,A,1149689144716534.0,4.327232415758369,7.343639049271305,1.8174744,109,1970-01-14 07:21:29.144716534,1.4866333,-0.043029785,0.6178436,12.316172113584113,1.6104846615621633,-86.69628143310547,9.990187644958496,-94.33658599853516,20997639.0,50354.0,0.24911653885639692,-0.12743557341799278,0.10314056900990001,0.009879557672808943,-0.007803583921539912,0.004541165496571942,20.997639800887555
1622,A,1149689195070538.0,-0.8945692842416311,7.491527049271305,0.6166229,109,1970-01-14 07:21:29.195070538,1.0786285,0.42797852,0.81925964,11.659146228528673,1.420489849427503,-86.65169525146484,9.993508338928223,-94.35691833496094,21047993.0,50354.0,0.08642415966219691,-0.11996422313699276,0.0612832677221,0.008447908166602637,-0.006228784677864871,0.004139698937401564,21.047993804793805
1622,A,1149689245424542.0,0.821846102758369,11.538981649271303,-0.47917175,109,1970-01-14 07:21:29.245424542,1.0566406,-0.45585632,0.75076294,7.48436634263077,1.3740230471610533,-86.59446716308594,10.029643058776855,-94.33158111572266,21098347.0,50354.0,-0.001830951540204089,-0.014338082496792796,0.0034606076035499996,0.0021298032008874135,-0.003381329148941819,0.00163005654907389,21.098347808932886
1622,A,1149689295778545.0,1.376411515758369,15.142100549271305,0.9065552,109,1970-01-14 07:21:29.295778545,0.52168274,-1.4099731,0.30525208,4.010094341375291,1.5340651408208987,-86.5557632446289,10.040666580200195,-94.25918579101562,21148701.0,50354.0,0.05534553206139592,0.1782804065127072,0.010760233120650001,0.0013473365937820467,0.004127575891748677,0.0003580381069131834,21.148701811907813
1622,A,1149689346132549.0,0.29021461575836893,15.267680349271304,1.9690704,109,1970-01-14 07:21:29.346132549,-0.16090393,-1.2002869,0.09706116,4.259549173652154,1.2149072334057447,-86.55315399169922,10.041903495788574,-94.19805145263672,21199055.0,50354.0,0.041960646113196914,0.2721578536826073,0.07239962573120001,0.002449877647901724,0.011340684076937434,0.0020937157663130277,21.199055815814063
1622,A,1149689396486553.0,-0.46019738424163115,11.794047549271305,2.7474213,109,1970-01-14 07:21:29.396486553,-0.5201721,-0.7011566,-0.0033874512,7.824214976127179,0.8730470011217051,-86.57296752929688,10.039634704589844,-94.16251373291016,21249409.0,50354.0,-0.004279656162103093,0.18786392330160728,0.11874711153090002,0.0009486942839986892,0.011581968279131572,0.004812501404047893,21.249409819953144
1622,A,1149689446840557.0,0.25655371575836894,6.022914049271304,4.2172546,109,1970-01-14 07:21:29.446840557,-0.55033875,-0.122802734,0.35665894,13.664208615974712,0.667202256224723,-86.59920501708984,10.057072639465332,-94.15522003173828,21299763.0,50354.0,-0.005127136641403093,-0.04489155783349279,0.17534964513430001,-0.00023683482241387526,0.0035996152453907186,0.007404474042559742,21.299763823859394
1622,A,1149689497194561.0,0.42424783575836894,9.513942049271304,6.6562195,109,1970-01-14 07:21:29.497194561,0.024307251,-0.39768982,0.65663147,11.60154314643866,0.7680578902512298,-86.5941162109375,10.088663101196289,-94.13306427001953,21350117.0,50354.0,0.01714054066253691,-0.10229777400699282,0.2737614574157,0.0003024614730400861,-0.0037057858077479064,0.011307270228901352,21.350117827998474
1622,A,1149689547548565.0,-1.590888884241631,4.021602049271303,2.9251099,109,1970-01-14 07:21:29.547548565,0.68814087,-0.15196228,0.33544922,15.457745888129816,0.7804848305417369,-86.3671646118164,10.078819274902344,-94.0909194946289,21400471.0,50354.0,-0.02937252167766309,-0.15268480623099284,0.2412291303038,-0.0003079645860178319,-0.006419696422651765,0.012965918027013853,21.400471831904724
1622,A,1149689597902569.0,-0.32224268424163105,7.221355049271304,3.7215576,109,1970-01-14 07:21:29.597902569,-0.06770325,0.7035217,0.0005340576,12.41252161104011,0.7067720973899385,-86.37678527832031,10.081074714660645,-94.12657165527344,21450825.0,50354.0,-0.0481669134997031,-0.21040526912999283,0.1673431476475,-0.0019522103594605488,-0.009141518827363538,0.010286624241979882,21.450825835810974
1622,A,1149689648256573.0,0.994300935758369,11.735743749271304,-0.3305359,109,1970-01-14 07:21:29.648256573,-0.49961853,0.33454895,-0.00015258789,7.281934930798759,0.6012833764112622,-86.40473175048828,10.082119941711426,-94.14352416992188,21501179.0,50354.0,0.01692041059843691,-0.016186323549092788,0.0853757533409,-0.0007866932035451789,-0.005704896528881339,0.006362703770184947,21.501179839950055
1622,A,1149689698610577.0,1.375419715758369,8.933025049271304,-4.1628113,109,1970-01-14 07:21:29.698610577,-0.92071533,0.5520325,-1.2715302,10.915435510614675,1.6641050596237303,-86.45635223388672,10.020380020141602,-94.17552185058594,21551533.0,50354.0,0.05966245684323691,0.026908392040907208,-0.11312900245440002,0.001928126853579022,0.0002699495184184117,-0.0006987435529305901,21.551533843856305
1622,A,1149689748964581.0,-2.063865684241631,8.146251049271305,-1.1340637,109,1970-01-14 07:21:29.748964581,-0.48104858,0.76652527,-1.1098785,11.29415446606264,1.4320611057600996,-86.48774719238281,9.967351913452148,-94.21782684326172,21601887.0,50354.0,-0.017333004148503094,-0.06346426566699277,-0.133359421875,0.0010657286304953132,-0.0009203672302839562,-0.006205839059341305,21.601887847995386
1622,A,1149689799318585.0,0.22655496575836898,11.188868749271304,-1.2535858,109,1970-01-14 07:21:29.799318585,-1.213501,0.57839966,-0.13676453,7.940891675755554,1.351234761377621,-86.5535659790039,9.96228313446045,-94.24755859375,21652241.0,50354.0,-0.046257971959253096,-0.006668888832092778,-0.06011385146150001,-0.0016010300054649777,-0.001765742430823477,-0.0048710766027930605,21.652241851901636
1622,A,1149689849672588.0,0.004722715758368912,10.821727049271304,0.25286865,109,1970-01-14 07:21:29.849672588,-1.1791534,0.21006775,-0.3217926,8.23026474243717,1.2401942096850727,-86.65684509277344,9.839432716369629,-94.26639556884766,21702595.0,50354.0,0.00582287818754691,0.06069157041990722,-0.025195055685550003,-0.0010180343558902467,0.0013601290543364042,-0.0021478223552412784,21.702595854876563
1622,A,1149689900026592.0,0.08054361575836899,10.130122049271304,0.42555237,109,1970-01-14 07:21:29.900026592,-0.5462494,0.19981384,-0.76364136,8.918450192417522,0.959928176666648,-86.7013931274414,9.674371719360352,-94.28129577636719,21752949.0,50354.0,0.0021467504285969104,0.034035504754007205,0.017080606020540002,0.000200651339668653,0.0023849435716536437,-0.0002042974992159568,21.752949858782813
1622,A,1149689950380596.0,-1.8665999842416312,9.688533049271305,1.1559296,109,1970-01-14 07:21:29.950380596,-0.6175537,0.37356567,-0.662796,9.766553169142357,0.9799093936697612,-86.64384460449219,9.799278259277344,-94.28662872314453,21803303.0,50354.0,-0.044967541189303094,0.005505079416007217,0.039816971558690004,-0.0010780990489822997,0.0009955132876484532,0.0014325103107122737,21.803303862921894
1622,A,1149690000734600.0,-2.147971984241631,8.213451049271304,0.56199646,109,1970-01-14 07:21:30.000734600,-0.32843018,0.028167725,-0.29631042,11.208206352108272,0.4432377114676553,-86.66986083984375,9.922749519348145,-94.29052734375,21853657.0,50354.0,-0.10107487845050309,-0.04275094635099276,0.04325222441262,-0.0036769099992714008,-0.000937739191822131,0.002091433146969672,21.853657866828144
1622,A,1149690051088604.0,-1.751563884241631,8.092433049271303,0.96546936,109,1970-01-14 07:21:30.051088604,-0.11564636,0.042037964,-0.20996094,11.254982774742619,0.24336159788306475,-86.6335220336914,9.994072914123535,-94.28592681884766,21904011.0,50354.0,-0.0981786145608031,-0.08293595605099281,0.03845700695014001,-0.0050166051935456564,-0.003164419141774791,0.002057193318020209,21.904011870967224
1622,A,1149690101442608.0,-1.8076704842416311,6.4967910492713035,-1.0864258,109,1970-01-14 07:21:30.101442608,0.3540039,0.0013427734,0.17985535,12.829451442890365,0.39707494403353666,-86.822021484375,10.05073356628418,-94.32135009765625,21954365.0,50354.0,-0.0896108436953031,-0.12615630487099283,-0.0030453202898799987,-0.004727975190513986,-0.005264315853232833,0.0008915600350453664,21.954365874873474
1622,A,1149690151796612.0,1.9592057157583689,8.179362049271305,-0.13893127,109,1970-01-14 07:21:30.151796612,1.1589813,-0.48628235,0.69525146,10.889678999503785,1.4363435418810306,-86.75941467285156,10.084081649780273,-94.29470825195312,22004719.0,50354.0,0.0038152025238969065,-0.1239676934379928,-0.030850814951390002,-0.002160076857772494,-0.0062973719054253315,-0.0008534029969694548,22.004719878779724
1622,A,1149690202150616.0,7.65139031575837,7.2820390492713045,-0.24481201,109,1970-01-14 07:21:30.202150616,1.8734741,-0.58255005,0.7700043,13.574923184296301,2.107647120877758,-86.66017150878906,10.120849609375,-94.262939453125,22055073.0,50354.0,0.24196597628549693,-0.10419750454199277,-0.00966150456056,0.006188032738884109,-0.005744515189542098,-0.0010199786683523651,22.055073882918805
1622,A,1149690252504620.0,0.025978185758368966,6.095531049271305,0.94085693,109,1970-01-14 07:21:30.252504620,1.2702332,0.41778564,0.65031433,12.970782151655,1.486924998503892,-86.57904815673828,9.989225387573242,-94.2785873413086,22105427.0,50354.0,0.19329310676268693,-0.15666211762899276,0.017524322950840002,0.010958517933904125,-0.006567662707398903,0.00019796217861207962,22.105427886825055
1622,A,1149690302858624.0,-0.002311584241631026,10.187236049271304,-0.14468384,109,1970-01-14 07:21:30.302858624,1.2328644,0.09213257,0.8937378,8.85982584813567,1.5255196801060957,-86.62785339355469,9.917724609375,-94.29962158203125,22155781.0,50354.0,0.0005958540263869111,-0.08351797275999279,0.020045249886930003,0.004881542365786512,-0.00604701413572349,0.0009458891353365354,22.155781890964136
1622,A,1149690353212628.0,1.550010775758369,14.336131349271305,-0.43356323,109,1970-01-14 07:21:30.353212628,1.000534,-1.5079956,0.3937683,4.748980674912739,1.8520724847748942,-86.564453125,9.932904243469238,-94.2220230102539,22206135.0,50354.0,0.038966422544816914,0.12395562099310724,-0.01455852648139,0.0009960594372331987,0.0010180986695651226,0.00013813923518128066,22.206135894870386
1622,A,1149690403566631.0,0.665840245758369,14.991664049271304,1.9412231,109,1970-01-14 07:21:30.403566631,0.4649353,-1.436966,0.20162964,4.463386551190192,1.5237094966129927,-86.52853393554688,9.938639640808105,-94.14859008789062,22256489.0,50354.0,0.055788481168726915,0.24491670474910723,0.03795835254699,0.0023856442107958935,0.009287098545211734,0.0005891374208536113,22.256489897845313
1622,A,1149690453920635.0,0.576927275758369,13.889399749271304,1.8543243,109,1970-01-14 07:21:30.453920635,-0.3063202,-1.1372986,0.18988037,5.449377754027257,1.1930359279591445,-86.5337905883789,9.944673538208008,-94.09038543701172,22306843.0,50354.0,0.03128915788922691,0.23366934325590724,0.0955604968898,0.0021923537185621037,0.01204936093062225,0.0033616040722700626,22.306843901984394
1622,A,1149690504274639.0,-0.202674784241631,10.698238049271303,3.1036835,109,1970-01-14 07:21:30.504274639,-0.8239441,-0.28848267,0.16905212,8.928764100341104,0.8892045603187341,-86.57238006591797,9.952244758605957,-94.07524108886719,22357197.0,50354.0,0.009422554978916914,0.1255737568539072,0.1248277623806,0.0010249987948812572,0.009044663531464799,0.005548715203650861,22.357197905890644
1622,A,1149690554628643.0,2.0143510157583693,4.639110049271304,5.5545654,109,1970-01-14 07:21:30.554628643,-0.57733154,0.069366455,0.49430847,15.45165522696695,0.7631934719792745,-86.60160064697266,9.97712516784668,-94.0772705078125,22407551.0,50354.0,0.045612572480896924,-0.10732078692299282,0.21798873255530002,0.001385619404055733,0.0004595550239506314,0.008631090893001157,22.407551909796894
1622,A,1149690604982647.0,0.31734475575836896,12.424815349271304,7.062317,109,1970-01-14 07:21:30.604982647,0.23410034,-0.47296143,0.5815582,9.667642924655683,0.7853059425746124,-86.58541870117188,10.00474739074707,-94.05154418945312,22457905.0,50354.0,0.05870510443947693,-0.0638507502408928,0.31765524818480007,0.002626406151824253,-0.004309585791175148,0.0134859085030935,22.457905913935974
1622,A,1149690655336651.0,-1.4845656842416308,0.7545580492713029,0.22181702,109,1970-01-14 07:21:30.655336651,0.87046814,0.5990906,0.06956482,18.399191899995927,1.058991781811857,-86.61555480957031,9.939763069152832,-94.09356689453125,22508259.0,50354.0,-0.029387121316423084,-0.16165211594489284,0.18339264222154,0.0007381388610891267,-0.005677485661959525,0.012614882736760423,22.508259917842224
1622,A,1149690705690655.0,-0.8185804842416311,9.084880049271304,5.723068,109,1970-01-14 07:21:30.705690655,-0.7988281,1.1049652,-0.1466217,11.571255250639709,1.3713396185743123,-86.66523742675781,9.935683250427246,-94.1500015258789,22558613.0,50354.0,-0.05798631108390309,-0.24574166699299285,0.14967437014854,-0.002199800907543012,-0.010256953273027149,0.008385628170441504,22.558613921981305
1622,A,1149690756044659.0,0.5278855357583689,12.378596549271304,-3.8221893,109,1970-01-14 07:21:30.756044659,-0.16989136,0.52305603,0.20689392,7.657747235535332,0.587584699302983,-86.6781997680664,9.947529792785645,-94.17588806152344,22608967.0,50354.0,-0.007318826717963092,0.046916750321507196,0.047858423029899996,-0.001644187454437585,-0.005005814927037995,0.004973283133853584,22.608967925887555
1622,A,1149690806398663.0,1.342399715758369,5.899501049271304,-4.842697,109,1970-01-14 07:21:30.806398663,-1.092514,0.9544525,-1.8055878,13.984318872312558,2.316185164977336,-86.74205017089844,9.860140800476074,-94.22952270507812,22659321.0,50354.0,0.04708817177743691,-0.03328153676149279,-0.2181558423751,0.0010012728005623724,0.0003432937718004826,-0.0042875781268541,22.659321929793805
1622,A,1149690856752667.0,-2.820945684241631,10.293361049271304,-1.9638977,109,1970-01-14 07:21:30.856752667,-0.21739197,1.276062,-0.8724823,9.645209044400763,1.5610313450657456,-86.764404296875,9.820202827453613,-94.29667663574219,22709675.0,50354.0,-0.03722535184850309,-0.08578151094499278,-0.1713696347619,0.00024831621735076683,-0.0029976503521061872,-0.00980708293787825,22.709675933932886
1622,A,1149690907106670.0,1.759285065758369,11.361125049271305,-1.0659485,109,1970-01-14 07:21:30.907106670,-1.5266113,0.464386,-0.17939758,7.77819578902147,1.6057334492354407,-86.8448257446289,9.812540054321289,-94.32071685791016,22760029.0,50354.0,-0.026729429391553088,0.05172579650300724,-0.0762824377774,-0.0016101895272808947,-0.0008574207225058701,-0.0062351362303219564,22.760029936907813
1622,A,1149690957460674.0,-1.225410384241631,9.761928049271305,1.969696,109,1970-01-14 07:21:30.957460674,-1.0270691,0.6722717,-0.35643005,9.671468787622441,1.2782263318124465,-86.68302917480469,9.8587646484375,-94.318359375,22810383.0,50354.0,0.01344136285654691,0.03834590786200724,0.0227536508075,-0.00033455365115185056,0.0022677353007979698,-0.0013476942695411723,22.810383940814063
1622,A,1149691007814678.0,-1.0328444842416311,10.118724049271304,-0.66204834,109,1970-01-14 07:21:31.007814678,-0.3439026,0.68400574,-0.8111725,9.103632071566173,1.1154074033266759,-86.89427185058594,9.86871337890625,-94.3875503540039,22860737.0,50354.0,-0.0568560828238031,0.0070659778850072135,0.032922645135819995,-0.0010930524046156092,0.001143335047452583,0.0014017621029649675,22.860737944953144
1622,A,1149691058168682.0,-3.208915684241631,9.820689049271303,2.1184998,109,1970-01-14 07:21:31.058168682,-0.52485657,0.62127686,-0.5361023,10.251615833361543,0.9740970341341332,-86.9261474609375,9.843623161315918,-94.42050170898438,22911091.0,50354.0,-0.1067947957619031,0.008545403582007182,0.03666907840842,-0.004120238170152325,0.0003930477511950215,0.0017521108236733304,22.911091948859394
1622,A,1149691108522686.0,-2.605720384241631,7.160518049271303,0.38735962,109,1970-01-14 07:21:31.108522686,-0.16772461,-0.0036773682,-0.19256592,12.337819408932019,0.25539518668521705,-86.9638900756836,9.990194320678711,-94.42589569091797,22961445.0,50354.0,-0.1463950922962031,-0.06593334887999283,0.06309002261734001,-0.006374561811638939,-0.0014448562987673848,0.00251163488652556,22.961445952998474
1622,A,1149691158876690.0,-1.874076684241631,7.561809049271304,1.3817291,109,1970-01-14 07:21:31.158876690,0.08287048,0.17225647,0.07644653,11.838983056393264,0.20587345594158613,-86.86616516113281,10.073568344116211,-94.41785430908203,23011799.0,50354.0,-0.1127878507932031,-0.12280517063999283,0.04454034670344,-0.00652544895816198,-0.004751869705954679,0.002709809808389279,23.011799956904724
1622,A,1149691209230694.0,-0.10320272424163102,6.770335049271305,-1.7622681,109,1970-01-14 07:21:31.209230694,0.99334717,-0.035568237,0.8069153,12.398024157789214,1.280279657342249,-86.81578063964844,10.113754272460938,-94.4137954711914,23062153.0,50354.0,-0.04978196366738309,-0.1326288080309928,-0.009580830403,-0.004093020218674179,-0.006431061280999405,0.000880175741896178,23.062153960810974
1622,A,1149691259584698.0,6.634864915758369,8.290218049271305,4.2542267,109,1970-01-14 07:21:31.259584698,1.9690094,-0.38053894,1.1443024,12.916139922694288,2.30894692117217,-86.7133560180664,10.169809341430664,-94.3912124633789,23112507.0,50354.0,0.16444765899581693,-0.11428965463799277,0.06274004167220001,0.002886938211283979,-0.006216666134617051,0.0013383894621246488,23.112507964950055
1622,A,1149691309938702.0,3.7790757157583688,4.787517049271305,1.2936401,109,1970-01-14 07:21:31.309938702,1.2091827,-0.70895386,0.4039154,14.583359613046952,1.4587275372547641,-86.64633178710938,10.187918663024902,-94.35407257080078,23162861.0,50354.0,0.26219178327969694,-0.16421106342399278,0.1396786424236,0.010741501238170614,-0.007011812578646611,0.0050962952094799575,23.162861968856305
1622,A,1149691360292706.0,-4.198493684241631,7.229823049271303,0.12243652,109,1970-01-14 07:21:31.360292706,1.2129669,0.59124756,0.9359741,12.801827067350299,1.6422271138829654,-86.59050750732422,10.236380577087402,-94.3812484741211,23213215.0,50354.0,-0.010559686192503104,-0.1909086283389928,0.03565256106174,0.00633534130836428,-0.008940848479516688,0.004414313710150406,23.213215972995386
1622,A,1149691410646710.0,2.692527815758369,13.959147649271305,-0.73158264,109,1970-01-14 07:21:31.410646710,1.1524811,-1.0453033,0.48080444,5.435702957282082,1.6285099276245796,-86.52320098876953,10.257243156433105,-94.32677459716797,23263569.0,50354.0,-0.0379157026708031,0.04000551527720721,-0.015336471863239998,-0.0012204648654114605,-0.0037992876775565765,0.0005114981777506346,23.263569976901636
1622,A,1149691461000713.0,0.679985145758369,15.950694249271304,2.0617828,109,1970-01-14 07:21:31.461000713,0.30766296,-1.4830322,0.0118255615,3.6900609745198616,1.5146553558805358,-86.49441528320312,10.253315925598145,-94.25151824951172,23313923.0,50354.0,0.08490975883210691,0.25957088947960727,0.03349044942832,0.0011831693519731461,0.007542435142562318,0.00045706269315601934,23.313923979876563
1622,A,1149691511354717.0,-0.6521681842416311,15.119593849271304,2.5231476,109,1970-01-14 07:21:31.511354717,-0.35081482,-0.85621643,-0.017242432,4.86228686020373,0.9254592991562903,-86.50424194335938,10.249842643737793,-94.20813751220703,23364277.0,50354.0,0.0007003476401069088,0.28878744345700724,0.11543479268080001,0.0021554056506509272,0.013806017748345145,0.0037494908205813146,23.364277983782813
1622,A,1149691561708721.0,-0.8710554842416312,11.686702049271304,2.3740997,109,1970-01-14 07:21:31.561708721,-0.6480408,-0.2507019,-0.04916382,7.879355830282583,0.696581224499514,-86.53439331054688,10.246626853942871,-94.19557189941406,23414631.0,50354.0,-0.0383502023014031,0.1814329118376072,0.1232979952721,-0.0009479103908074542,0.011838737885252509,0.006010575402290164,23.414631987921894
1622,A,1149691612062725.0,0.989570715758369,6.517284049271304,5.127243,109,1970-01-14 07:21:31.612062725,-0.62005615,0.20419312,0.22358704,13.503201864424746,0.6900403059706863,-86.56713104248047,10.25839900970459,-94.20524597167969,23464985.0,50354.0,0.0029838579838969083,-0.03514744199699281,0.18886130515790003,-0.0008904184508818534,0.0036830292741771493,0.007859234706926113,23.464985991828144
1622,A,1149691662416729.0,1.524742215758369,11.352641349271304,6.421341,109,1970-01-14 07:21:31.662416729,0.012069702,-0.23841858,0.30262756,10.016991431435864,0.38545108258654404,-86.564208984375,10.27278995513916,-94.19223022460938,23515339.0,50354.0,0.06330285667679691,-0.043558088240892814,0.29075869936800003,0.0016689006150122886,-0.0019815691347992463,0.012075392853948586,23.515339995967224
1622,A,1149691712770733.0,5.821693315758369,8.333034049271305,6.734085,109,1970-01-14 07:21:31.712770733,0.33032227,0.7314453,0.051727295,13.577856185200591,0.8042392318197739,-86.55428314208984,10.277567863464355,-94.22917938232422,23565694.0,50355.0,0.18496488059476265,0.0021570923468064896,0.33122073811499997,0.006250760955154691,-0.0010423735741233583,0.01565988728722823,23.565693999873474
1622,A,1149691763124737.0,-2.200736884241631,4.686381549271305,3.7478485,109,1970-01-14 07:21:31.763124737,-0.5701294,0.6472473,-0.42755127,15.108157037030324,0.9626924163928283,-86.58887481689453,10.25816535949707,-94.26331329345703,23616048.0,50354.0,0.0911648200762969,-0.16567937347549277,0.26390363972950004,0.006952117473795268,-0.004117000471976935,0.014983446460990977,23.616048003779724
1622,A,1149691813478741.0,0.734428500758369,12.395854049271303,-2.3153076,109,1970-01-14 07:21:31.813478741,-0.21264648,0.47846985,0.19619751,7.006260175491253,0.5591470162181079,-86.60371398925781,10.269378662109375,-94.28697967529297,23666402.0,50354.0,-0.036917246170958096,-0.06338975433549279,0.0360670822393,0.0013657911682147153,-0.005767273430897184,0.007552362867008479,23.666402007918805
1622,A,1149691863832745.0,6.413643015758369,12.120952049271304,1.7027588,109,1970-01-14 07:21:31.863832745,-0.9571686,0.54115295,-1.2489471,9.03674395952503,1.6639973265357346,-86.6571273803711,10.208633422851562,-94.31817626953125,23716756.0,50354.0,0.17996699657134194,0.12379042714300721,-0.015422141137600005,0.003601563565830464,0.0015207077392747905,0.0005197776821175007,23.716756011825055
1622,A,1149691914186749.0,-4.336997684241631,7.393947049271304,1.7124329,109,1970-01-14 07:21:31.914186749,-0.8905487,1.3689117,-0.77786255,12.820813757781032,1.8088853960826492,-86.7143325805664,10.173762321472168,-94.38987731933594,23767110.0,50354.0,0.05228369951159693,-0.0021425853959927813,0.0859842814309,0.005847375775280152,0.0030627277116645826,0.0017765430061644143,23.767110015964136
1622,A,1149691964540753.0,1.876411515758369,12.054973049271304,-2.306488,109,1970-01-14 07:21:31.964540753,-1.0678558,0.8369446,-0.26309204,7.4019270018395105,1.382031003477911,-86.77535247802734,10.163002967834473,-94.43307495117188,23817464.0,50354.0,-0.061950177963903084,-0.003803738678992793,-0.014956525252699996,-0.00024337292799371212,-0.0001497106012359118,0.0017882658172985416,23.817464019870386
1622,A,1149692014894756.0,-0.583381584241631,10.705409049271305,0.94062805,109,1970-01-14 07:21:32.014894756,-0.6119385,0.40516663,-0.80259705,8.472089927798665,1.087561837559828,-86.7288818359375,10.10811710357666,-94.4416275024414,23867818.0,50354.0,0.032554614585796914,0.07956894009500723,-0.03438825596115,-0.0007400920991705791,0.0019075404760509956,-0.0012423535566211015,23.867818022845313
1622,A,1149692065248760.0,-0.26837908424163115,11.118770049271305,0.5993347,109,1970-01-14 07:21:32.065248760,-0.27391052,0.87283325,-0.6354065,7.985937028890452,1.1138250650414017,-86.72364044189453,10.02137565612793,-94.48298645019531,23918172.0,50354.0,-0.021444778350403093,0.05599815716400725,0.038771642156750004,0.00027971234689851024,0.0034131728076902076,0.00011036051424662131,23.918172026984394
1622,A,1149692115602764.0,-2.245124684241631,9.385524049271304,1.1891022,109,1970-01-14 07:21:32.115602764,-0.3338318,0.66596985,-0.33140564,10.167456539657785,0.8153460676449431,-86.65522003173828,10.194254875183105,-94.50174713134766,23968526.0,50354.0,-0.0632824843791031,0.02276741251900722,0.045027475831300005,-0.0021331782937407773,0.0019830807479092553,0.002109810393585135,23.968526030890644
1622,A,1149692165956768.0,-2.796180684241631,8.939540049271304,-0.120162964,109,1970-01-14 07:21:32.165956768,-0.19285583,0.08010864,-0.16177368,10.697523099284163,0.2641618611919232,-86.66566467285156,10.186417579650879,-94.50628662109375,24018880.0,50354.0,-0.1269249452623031,-0.032099061190992796,0.026912683144772003,-0.004788852456081684,-0.00023494291861458086,0.001811237382540565,24.018880034796894
1622,A,1149692216310772.0,-2.290977384241631,7.456203049271304,0.888855,109,1970-01-14 07:21:32.216310772,-0.21754456,-0.093048096,-0.093429565,11.995334234417477,0.2543868459077789,-86.64961242675781,10.302033424377441,-94.49720764160156,24069234.0,50354.0,-0.1280793786902031,-0.0806735760079928,0.019353359390372,-0.00642024386415225,-0.0028392766867588602,0.0011648401529073208,24.069234038935974
1622,A,1149692266664776.0,-0.6361616842416311,5.493999049271304,-0.42822266,109,1970-01-14 07:21:32.266664776,0.51971436,-0.3085327,0.2939453,13.598548915866079,0.6720857700856265,-86.75096893310547,10.212644577026367,-94.50389862060547,24119588.0,50354.0,-0.0736965803272031,-0.1674219617649928,0.01159734042418,-0.005080113320181236,-0.006246301354510458,0.0007792457692309757,24.119588042842224
1622,A,1149692317018780.0,3.650764515758369,7.879909049271305,1.3792267,109,1970-01-14 07:21:32.317018780,1.5973969,-0.64172363,0.91085815,11.5659662507372,1.947600740103425,-86.66484832763672,10.256267547607422,-94.46868896484375,24169942.0,50354.0,0.07589865548909693,-0.1567543158029928,0.02394342871508,5.544164635100095e-05,-0.008161786140329174,0.0008948099446191491,24.169942046981305
1622,A,1149692367372784.0,4.516258315758369,5.699092049271304,2.2183075,109,1970-01-14 07:21:32.367372784,1.877945,-0.7010956,1.1168365,13.990659790407252,2.294675626553045,-86.56400299072266,10.309943199157715,-94.42977905273438,24220296.0,50354.0,0.20562113382909697,-0.1515906893419928,0.0905751185534,0.007087823735664168,-0.007763202194535302,0.0028832334645785213,24.220296050887555
1622,A,1149692417726788.0,-2.096259984241631,4.474574049271304,-0.12719727,109,1970-01-14 07:21:32.417726788,1.3543701,-0.3033905,1.0104065,14.822903174615455,1.716765988277526,-86.59101104736328,10.385584831237793,-94.42887878417969,24270650.0,50354.0,0.06092829799259692,-0.23732680863699282,0.05264788226071,0.006710915044974787,-0.009791775846616921,0.0036059254914968474,24.270650054793805
1622,A,1149692468080792.0,0.009422415758368996,11.635234049271304,-0.2596283,109,1970-01-14 07:21:32.468080792,1.3521729,-0.9747009,0.917572,7.421303442923993,1.9027222002013906,-86.65087127685547,10.326114654541016,-94.40127563476562,24321004.0,50354.0,-0.0525403094617031,-0.0878725615029928,-0.00973910737589,0.00021118438724231374,-0.00818754454201442,0.0010803142252751134,24.321004058932886
1622,A,1149692518434795.0,1.546196075758369,15.331507849271304,0.9255829,109,1970-01-14 07:21:32.518434795,0.7280121,-1.5134735,0.52630615,3.860856808724761,1.7600005160443797,-86.60041809082031,10.347931861877441,-94.32292175292969,24371358.0,50354.0,0.03916580676091691,0.18547246077960722,0.0167667389642,-0.0003367298544976939,0.002457272664087321,0.00017693468049888092,24.371358061907813
1622,A,1149692568788799.0,0.9498826057583689,14.957530049271304,1.7756042,109,1970-01-14 07:21:32.568788799,0.06845093,-1.3859711,0.1437378,4.424578155621016,1.395084934691044,-86.58427429199219,10.35098934173584,-94.25215911865234,24421712.0,50354.0,0.06284377296454692,0.26911790717160716,0.06800778761670001,0.002568295188748003,0.011445221693907725,0.0021343682557273197,24.421712065814063
1622,A,1149692619142803.0,-0.811942984241631,13.827296449271305,1.3474274,109,1970-01-14 07:21:32.619142803,-0.4103546,-1.3625641,0.058151245,5.5951594358260435,1.424202721400651,-86.59233856201172,10.349835395812988,-94.18284606933594,24472066.0,50354.0,0.00347290585092691,0.23124637675380727,0.0786285665932,0.0016696550225371847,0.012597671576390159,0.003691863489942653,24.472066069953144
1622,A,1149692669496807.0,-0.35349268424163105,10.905131549271305,3.7060547,109,1970-01-14 07:21:32.669496807,-0.8816681,-0.35084534,0.36590576,8.986612962154114,1.0170143147264463,-86.63302612304688,10.3670654296875,-94.16394805908203,24522420.0,50354.0,-0.029342173825403092,0.12921913971930726,0.1272315188317,-0.0006513105597933869,0.009075440308243605,0.0051829393707427075,24.522420073859394
1622,A,1149692719850811.0,0.581581215758369,9.046931049271304,5.509918,109,1970-01-14 07:21:32.719850811,-0.7917633,-0.056640625,0.524765,11.385821454449372,0.9515648106420711,-86.67181396484375,10.393094062805176,-94.1595230102539,24572774.0,50354.0,0.005742584957996911,0.008863880043507232,0.23203054466790002,-0.0005941668489146854,0.003476516188568381,0.00904514097272943,24.572774077998474
1622,A,1149692770204815.0,-0.2677229842416311,10.516948049271305,5.5220184,109,1970-01-14 07:21:32.770204815,-0.28483582,-0.6557312,0.2745819,10.186523250017586,0.765839454987873,-86.6799087524414,10.404899597167969,-94.12543487548828,24623128.0,50354.0,0.00790200869489691,-0.0009094159359927752,0.2777510627428,0.0003435299343989077,0.0002002695428348915,0.012834771529779194,24.623128081904724
1622,A,1149692820558819.0,-0.591453484241631,6.992396549271303,2.7447052,109,1970-01-14 07:21:32.820558819,-0.2816925,0.29377747,0.12931824,12.405210006845879,0.4270586302049737,-86.69661712646484,10.412201881408691,-94.13997650146484,24673482.0,50354.0,-0.021631485947003093,-0.0526364310424928,0.20813130007720002,-0.0003456670487762774,-0.0013481237893773314,0.01223306024871914,24.673482085810974
1622,A,1149692870912823.0,2.162635915758369,6.365932049271304,1.5483246,109,1970-01-14 07:21:32.870912823,-0.88952637,0.7927246,0.25700378,12.807498503621138,1.2189013074506179,-86.74822998046875,10.427295684814453,-94.17945098876953,24723836.0,50354.0,0.03955766007829691,-0.1571465608744928,0.1080856112746,0.0004513272861035845,-0.005281706387493946,0.00796139317710427,24.723836089950055
1622,A,1149692921266827.0,3.711189315758369,13.654185549271304,0.5257416,109,1970-01-14 07:21:32.921266827,-0.60717773,0.40675354,-0.17370605,6.109087662188259,0.7511904085630268,-86.78242492675781,10.41977310180664,-94.20060729980469,24774190.0,50354.0,0.14788529785389692,0.010577300778507215,0.0522187647174,0.004719251351858845,-0.0036901742614366293,0.004035983274350584,24.774190093856305
1622,A,1149692971620831.0,-0.32572168424163106,8.497768049271304,-4.0385895,109,1970-01-14 07:21:32.971620831,-0.083969116,0.29985046,-1.3103943,11.317192196059949,1.3468831917714776,-86.7900390625,10.355196952819824,-94.21955108642578,24824544.0,50354.0,0.08523591855869692,0.06425053575050721,-0.0884429715783,0.005869292865619875,0.0018839404402909963,-0.0009120168561368794,24.824544097995386
1622,A,1149693021974835.0,-2.444785984241631,4.804866049271304,-3.6703033,109,1970-01-14 07:21:33.021974835,-0.9449005,1.1257477,-1.2965088,15.027758312263208,1.9598673188338491,-86.84818267822266,10.293601036071777,-94.28033447265625,24874898.0,50354.0,-0.0697530715694031,-0.15854878130099279,-0.1940867940256,0.0003898116386494506,-0.0023741469282245755,-0.00711325190860939,24.874898101901636
1622,A,1149693072328838.0,-0.08010091424163102,11.425471549271304,0.42712402,109,1970-01-14 07:21:33.072328838,-1.0538025,0.7364807,-0.1471405,7.647240250326366,1.2940455390823733,-86.90575408935547,10.199239730834961,-94.3177261352539,24925252.0,50354.0,-0.06356907744311309,-0.0848379902814928,-0.08165352473256,-0.00335665174568812,-0.00612774874813224,-0.006942314005374195,24.925252104876563
1622,A,1149693122682842.0,0.7936326017583689,10.725139049271304,1.1116791,109,1970-01-14 07:21:33.122682842,-1.0536652,0.344635,-0.20980835,8.357151083201494,1.1282744261241422,-86.96163940429688,10.189688682556152,-94.33578491210938,24975606.0,50354.0,0.01796458729660891,0.0642167230395072,0.03874244615224,-0.0011481842484185358,-0.0005191816453514714,-0.0010803722254167168,24.975606108782813
1622,A,1149693173036846.0,-0.8734968842416311,9.722346049271303,1.0596771,109,1970-01-14 07:21:33.173036846,-0.5610962,0.65089417,-0.5742645,9.497420129205608,1.0335723884444084,-86.90907287597656,10.16466236114502,-94.35501861572266,25025960.0,50354.0,-0.0020107430400810914,0.021337132326007188,0.0546682350474,0.000401669936846601,0.002153989416537556,0.0023518007205633362,25.025960112921894
1622,A,1149693223390850.0,-2.210853484241631,10.179179049271305,0.71836853,109,1970-01-14 07:21:33.223390850,-0.5196686,0.6110077,-0.6783142,9.360911285098807,1.0504741868351122,-86.90338134765625,10.34924030303955,-94.38124084472656,25076314.0,50354.0,-0.07765468922730309,0.007591497406007211,0.04476585482651001,-0.0020057365881959318,0.0007283361107629265,0.0025034520807554325,25.076314116828144
1622,A,1149693273744854.0,-2.475334084241631,9.265071049271304,0.60128784,109,1970-01-14 07:21:33.273744854,-0.47154236,0.13548279,-0.5069885,10.301448166924853,0.7055105405256562,-86.91798400878906,10.530689239501953,-94.38765716552734,25126668.0,50354.0,-0.11798414441170312,-0.003921315268992769,0.033224988427490006,-0.004925598914529259,9.240417566361262e-05,0.0019635754606059587,25.126668120967224
1622,A,1149693324098858.0,-1.1092604842416312,6.210155049271304,-0.2526245,109,1970-01-14 07:21:33.324098858,-0.1348877,-0.13000488,-0.26411438,12.944326549138673,0.32380915082481654,-87.02947998046875,10.4684419631958,-94.40105438232422,25177022.0,50354.0,-0.0902493374507031,-0.1038494325169928,0.008778296911180001,-0.005242694372849801,-0.002713344117007759,0.001057516714971695,25.177022124873474
1622,A,1149693374452862.0,1.001731965758369,5.3611100492713035,0.1126709,109,1970-01-14 07:21:33.374452862,0.38194275,0.10450745,0.15080261,13.648608001975948,0.4237257350762131,-87.01127624511719,10.476241111755371,-94.40596771240234,25227376.0,50354.0,-0.0027072455098530917,-0.20213945861399282,-0.003523611787199999,-0.002340367889197923,-0.007703882312004825,0.00013229720736644452,25.227376128779724
1622,A,1149693424806866.0,4.447548015758369,7.2910110492713045,2.1523895,109,1970-01-14 07:21:33.424806866,1.1941223,0.22659302,0.7918396,12.454217359053356,1.4506144960664673,-86.95329284667969,10.516376495361328,-94.41535949707031,25277730.0,50354.0,0.13719652209464692,-0.1749267471019928,0.0570274256908,0.003386036516575354,-0.00949339586131137,0.0013470655226509372,25.277730132918805
1622,A,1149693475160870.0,5.1180343157583685,6.840892049271304,1.0155945,109,1970-01-14 07:21:33.475160870,1.6496277,0.47528076,0.82499695,12.945116100493507,1.9046740710533048,-86.87480926513672,10.558847427368164,-94.43724060058594,25328084.0,50354.0,0.2408326663605969,-0.1376702756879928,0.07976033316799999,0.009517640877737673,-0.007870255242783467,0.0034439054047880075,25.328084136825055
1622,A,1149693525514874.0,0.6735154157583689,6.355876049271304,-0.10209656,109,1970-01-14 07:21:33.525514874,1.577179,0.67170715,0.37504578,12.653330757458292,1.7548058099111512,-86.80200958251953,10.579424858093262,-94.47029113769531,25378438.0,50354.0,0.14581384759039692,-0.1612141695829928,0.02299913763538,0.009734599281744171,-0.007525013678587605,0.002587175196416698,25.378438140964136
1622,A,1149693575868878.0,-0.27970118424163104,9.765208049271305,0.81422424,109,1970-01-14 07:21:33.575868878,1.4887085,0.12098694,0.35385132,9.343065080557494,1.5349598021735151,-86.68215942382812,10.50153923034668,-94.46699523925781,25428792.0,50354.0,0.00991506090689691,-0.08758866565099278,0.017929238599360003,0.003920786729236367,-0.006264108982686056,0.0010304537284620493,25.428792144870386
1622,A,1149693626222881.0,1.089927765758369,14.221049549271303,1.0854187,109,1970-01-14 07:21:33.626222881,1.010498,-0.5843811,0.60202026,4.916086125576458,1.3134062096288708,-86.62588500976562,10.52988052368164,-94.43553924560547,25479146.0,50354.0,0.020399074642846914,0.1104328075585072,0.047827310300380003,0.0007632189907359003,0.0005751469608054906,0.0016555526316487542,25.479146147845313
1622,A,1149693676576885.0,0.135612585758369,16.120372049271303,1.7672119,109,1970-01-14 07:21:33.676576885,0.0038757324,-1.0817413,0.42253113,3.453186646983783,1.161340525964027,-86.61541748046875,10.547786712646484,-94.37934875488281,25529500.0,50354.0,0.030855429430136916,0.2704367715865072,0.0718206806162,0.001290434649045514,0.009589153394134029,0.003012377467306735,25.529500151984394
1622,A,1149693726930889.0,-1.6762770842416312,13.791331549271305,3.357132,109,1970-01-14 07:21:33.726930889,-0.39575195,-0.9089813,0.03845215,6.68550754358659,0.9921417124171904,-86.6267318725586,10.547024726867676,-94.33307647705078,25579854.0,50354.0,-0.0387893100783131,0.25961776150050725,0.1290156063703,-0.00019975131307913178,0.013345182979531764,0.00505645519745911,25.579854155890644
1622,A,1149693777284893.0,-0.3331679842416311,7.083507049271304,5.791809,109,1970-01-14 07:21:33.777284893,-0.2445221,-0.20542908,0.31600952,13.306362291346582,0.4492818503219185,-86.63687133789062,10.562195777893066,-94.32170867919922,25630208.0,50354.0,-0.050591798489203095,0.03209661139550725,0.23034288755700003,-0.0022503481704043552,0.007344492766402957,0.009047568801607633,25.630208159796894
1622,A,1149693827638897.0,1.277290435758369,10.214580049271303,5.6930847,109,1970-01-14 07:21:33.827638897,-0.17855835,-0.27677917,0.46089172,10.485606838508316,0.5664900448067643,-86.64298248291016,10.584392547607422,-94.30628967285156,25680562.0,50354.0,0.023770170961836912,-0.05795526111999281,0.28915516868490004,-0.0006752881162564984,-0.000651043224113373,0.013079402562002318,25.680562163935974
1622,A,1149693877992901.0,4.215828015758369,6.449535049271304,4.15448,109,1970-01-14 07:21:33.877992901,0.37252808,0.27772522,0.019454956,13.657686642738721,0.46506662267410326,-86.62692260742188,10.586174964904785,-94.32032012939453,25730916.0,50354.0,0.1383002432538369,-0.07391677416399281,0.24793213645190001,0.00408044681870802,-0.003320142232344906,0.013522247081429215,25.730916167842224
1622,A,1149693928346905.0,0.43120584575836896,5.967586049271304,4.858673,109,1970-01-14 07:21:33.928346905,-0.26011658,1.2644806,-0.24421692,13.921459681415604,1.3138545303729567,-86.65185546875,10.577696800231934,-94.38526153564453,25781270.0,50354.0,0.11699837153140691,-0.1808433421019928,0.226924153081,0.0064276532244480844,-0.00641409544722872,0.011955456801569826,25.781270171981305
1622,A,1149693978700909.0,-1.2119826842416312,11.719951049271305,-2.1022644,109,1970-01-14 07:21:33.978700909,-0.06706238,0.40246582,0.061416626,7.851644509017927,0.4126113195596561,-86.65892028808594,10.581936836242676,-94.405517578125,25831624.0,50354.0,-0.019657618462493094,-0.04815007846999276,0.0693980993222,0.0024507481400160435,-0.005765367349740881,0.007460505348755367,25.831624175887555
1622,A,1149694029054913.0,2.001670915758369,8.508998049271304,-2.9550323,109,1970-01-14 07:21:34.029054913,-0.739624,0.2441864,-1.3508911,10.971169266887228,1.5593516035135149,-86.69891357421875,10.515216827392578,-94.4218978881836,25881978.0,50354.0,0.019881980604896907,0.015835051454007227,-0.1273275590159,5.648765659300806e-06,-0.0008135954351814676,-0.0014584900067082854,25.881978179793805
1622,A,1149694079408917.0,-0.6389845842416311,9.539989049271304,-0.4603119,109,1970-01-14 07:21:34.079408917,-0.6930542,1.0582733,-0.99424744,9.59022077335224,1.6089731115146342,-86.89643096923828,10.425249099731445,-94.50621795654297,25932332.0,50354.0,0.034308353768596915,-0.03904985181999281,-0.0859881209234,0.001364350048521454,-0.0005844790288144191,-0.0053706488738317565,25.932332183932886
1622,A,1149694129762920.0,-0.0324782342416311,11.935069249271304,-1.6298218,109,1970-01-14 07:21:34.129762920,-0.9259796,0.62994385,-0.29515076,7.30771466566932,1.15818022988547,-86.94865417480469,10.412205696105957,-94.53899383544922,25982686.0,50354.0,-0.016905419380953093,0.047208342782407216,-0.0526232961649,0.0004381536790777085,0.00020540632696070741,-0.003489819648032129,25.982686186907813
1622,A,1149694180116924.0,0.06716165575836897,10.210429049271305,0.19651794,109,1970-01-14 07:21:34.180116924,-0.9869385,0.22012329,-0.5142212,8.831573131654684,1.1344273040226571,-87.04508972167969,10.248758316040039,-94.55953216552734,26033040.0,50354.0,0.0008732245035269093,0.06408801066240724,-0.03608629128322,-0.00040364257042895907,0.0028021082906800935,-0.0022334412831813174,26.033040190814063
1622,A,1149694230470928.0,-0.162254234241631,10.170833049271303,1.3307343,109,1970-01-14 07:21:34.230470928,-0.43922424,0.3431549,-0.6343689,8.9901873858581,0.8444507799065601,-86.92904663085938,10.119231224060059,-94.55357360839844,26083394.0,50354.0,-0.002394145848473088,0.019669835855007214,0.03845162964648,-3.829223670170995e-05,0.0021087713017689438,5.955212397179702e-05,26.083394194953144
1622,A,1149694280824932.0,-2.028739884241631,9.557292049271304,1.3786774,109,1970-01-14 07:21:34.280824932,-0.46148682,0.38565063,-0.45103455,9.965430277939051,0.7517503965724339,-86.82867431640625,10.260101318359375,-94.55191040039062,26133748.0,50354.0,-0.055162658921053084,0.003225805606007189,0.06821485837090001,-0.0014491076736823606,0.0005764435650639596,0.002685542168813577,26.133748198859394
1622,A,1149694331178936.0,-2.396339284241631,8.977840049271304,-0.053100586,109,1970-01-14 07:21:34.331178936,-0.15965271,-0.1462555,-0.33576965,10.532177719279735,0.3995258651848671,-86.91956329345703,10.430315971374512,-94.56053924560547,26184102.0,50354.0,-0.11141021822490307,-0.0268101791549928,0.033374047446078,-0.004193805327903738,-0.0005937837728428108,0.0025577038817540553,26.184102202998474
1622,A,1149694381532940.0,-2.587470884241631,7.042934049271304,0.13313293,109,1970-01-14 07:21:34.381532940,-0.13368225,-0.12347412,-0.11369324,12.440453198490939,0.21457622211357555,-86.98489379882812,10.560518264770508,-94.56546020507812,26234456.0,50354.0,-0.1254773886119031,-0.0901141705209928,0.0020149743248880003,-0.005964119277330269,-0.0029438043517922897,0.000890989401127611,26.234456206904724
1622,A,1149694431886944.0,-3.171378984241631,6.485469049271304,0.07223511,109,1970-01-14 07:21:34.431886944,0.24995422,-0.6014404,0.47683716,13.142263022190495,0.8072058869983754,-87.03158569335938,10.760130882263184,-94.54564666748047,26284810.0,50354.0,-0.1449905631388031,-0.1528645951879928,0.005170551143080001,-0.006809571621227531,-0.006117476384255131,0.00018090997470703038,26.284810210810974
1622,A,1149694482240948.0,2.807380815758369,7.116573049271304,1.1176147,109,1970-01-14 07:21:34.482240948,1.2860718,-1.0982056,0.8324127,12.108671577828112,1.8849262897386438,-86.9564208984375,10.79881477355957,-94.48760223388672,26335164.0,50354.0,-0.009164381887903089,-0.15101058608499282,0.029956848666370006,-0.003881159050937382,-0.00765066543890996,0.0008844025450025228,26.335164214950055
1622,A,1149694532594952.0,5.7242203157583695,5.7730670492713045,0.7108154,109,1970-01-14 07:21:34.532594952,1.588623,-0.823761,0.82740784,14.133567522788226,1.9715245255749332,-86.86870574951172,10.837906837463379,-94.4434585571289,26385518.0,50354.0,0.21480012168819695,-0.1689467312389928,0.0460343846277,0.005177291020951999,-0.008055565378265985,0.0019132312806448008,26.385518218856305
1622,A,1149694582948956.0,-1.0854414842416311,4.230235049271304,1.2109222,109,1970-01-14 07:21:34.582948956,1.2056122,-0.1003418,0.9850311,14.948726183488594,1.5600818957937082,-86.76776123046875,10.798713684082031,-94.42829895019531,26435872.0,50354.0,0.11679053464109693,-0.2416160630649928,0.0483835875552,0.008348457954402632,-0.010336739472191445,0.0023771612856488735,26.435872222995386
1622,A,1149694633302960.0,0.2824326457583689,10.337855549271303,-0.7975464,109,1970-01-14 07:21:34.633302960,1.2793732,-1.230484,0.85446167,8.723082749700115,1.9700231990089427,-86.69158935546875,10.837862014770508,-94.36328125,26486226.0,50354.0,-0.020217353526493093,-0.12668838300049282,0.0104075625166,0.002431422980922381,-0.009272801038590732,0.0014801847853577088,26.486226226901636
1622,A,1149694683656963.0,1.036842445758369,14.117610049271304,0.8293762,109,1970-01-14 07:21:34.683656963,0.8667145,-1.73172,0.49571228,4.965118435433261,1.9989444333080018,-86.63142395019531,10.857564926147461,-94.2738037109375,26536580.0,50354.0,0.03321538897911691,0.12224605737450721,0.0008013788746000005,0.0003272515385907099,-0.00011184443228543964,0.0002822075174062424,26.536580229876563
1622,A,1149694734010967.0,1.291252235758369,14.470500049271305,2.201294,109,1970-01-14 07:21:34.734010967,0.33332825,-1.2364655,0.11621094,5.065594943959488,1.2858692147780801,-86.60284423828125,10.859710693359375,-94.21060180664062,26586934.0,50354.0,0.05861443979654691,0.2262936479510073,0.0763031836254,0.002311999599084888,0.008775184160980479,0.0019412615700625001,26.586934233782813
1622,A,1149694784364971.0,0.714683625758369,14.632472049271303,0.78507996,109,1970-01-14 07:21:34.784364971,-0.07322693,-1.2591858,-0.07070923,4.446550384285326,1.2632936544628324,-86.594482421875,10.852448463439941,-94.14682006835938,26637288.0,50354.0,0.05050344718540691,0.23925632852500722,0.07518793719092,0.0027472610405446514,0.011721151757736617,0.0038140919487924885,26.637288237921894
1622,A,1149694834718975.0,0.06545266575836894,10.969524049271303,2.6447449,109,1970-01-14 07:21:34.834718975,-0.6985779,-0.37182617,0.10496521,8.495596373572207,0.7983003685177799,-86.62580108642578,10.856588363647461,-94.12760925292969,26687642.0,50354.0,0.01964149141151691,0.1511122557730072,0.08635270050022001,0.0017660391190547511,0.00982830984687111,0.004067108635149833,26.687642241828144
1622,A,1149694885072979.0,2.038887115758369,5.1911575492713045,5.6106567,109,1970-01-14 07:21:34.885072979,-0.79460144,0.40827942,0.48077393,14.962602338977735,1.0145083070203293,-86.66917419433594,10.881778717041016,-94.14692687988281,26737996.0,50354.0,0.052980962679246915,-0.0865917193934928,0.2078462460832,0.001828415526643161,0.0016244335444270336,0.007407046878130766,26.737996245967224
1622,A,1149694935426983.0,0.06861121575836893,11.832881049271304,6.534912,109,1970-01-14 07:21:34.935426983,0.37265015,-0.4510498,0.41407776,9.733759634392745,0.7167806133690281,-86.64598083496094,10.901135444641113,-94.1227798461914,26788350.0,50354.0,0.05306048549259692,-0.06485498020449279,0.3057889831599,0.0026698055406225124,-0.0038129735557784834,0.01293179416665353,26.788350249873474
1622,A,1149694985780987.0,0.7959671957583689,13.441859449271304,2.8012848,109,1970-01-14 07:21:34.985780987,-0.29374695,0.693985,0.069747925,6.231326057401819,0.7568138634440493,-86.66729736328125,10.906638145446777,-94.15784454345703,26838704.0,50354.0,0.02176749066675691,0.1428729415318072,0.2350574268336,0.0018839439557640514,0.0019642582123377953,0.01361689006440635,26.838704253779724
1622,A,1149695036134991.0,2.854545715758369,1.3496350492713027,-1.3322906,109,1970-01-14 07:21:35.036134991,-1.1442261,0.74458313,-0.29534912,17.825477146969877,1.3967421050740116,-86.7318344116211,10.894044876098633,-94.19656372070312,26889058.0,50354.0,0.09190896357325691,-0.12106374301019283,0.0369848669734,0.0028620320884008284,0.0005490901911786852,0.00684920883117884,26.889058257918805
1622,A,1149695086488995.0,1.653892615758369,10.863826049271305,2.2315369,109,1970-01-14 07:21:35.086488995,0.0037994385,0.9228363,0.3410797,8.48581234030941,0.9838580355329195,-86.7403335571289,10.9136962890625,-94.24248504638672,26939412.0,50354.0,0.11350895187259691,-0.18597088992199282,0.0226403240951,0.005171806857180262,-0.007730210953333638,0.0015011834355316246,26.939412261825055
1622,A,1149695136842999.0,3.3435441157583687,17.332392949271306,-3.9501495,109,1970-01-14 07:21:35.136842999,-0.5935974,0.032836914,-0.406662,4.9798679789866815,0.7202847481738063,-86.77054595947266,10.893489837646484,-94.2453384399414,26989766.0,50354.0,0.1258204645893969,0.21642700572630724,-0.043269509430200005,0.006025596718263619,0.0007667936276052244,-0.0005193809991818129,26.989766265964136
1622,A,1149695187197003.0,-0.670600784241631,4.811519049271304,4.4024963,109,1970-01-14 07:21:35.187197003,-1.2003174,0.8471985,-1.5908661,14.937609816943462,2.1654935020161616,-86.83952331542969,10.81643295288086,-94.29290771484375,27040120.0,50354.0,0.0672966942575969,0.06404807238730725,0.0113887353836,0.004862110708290764,0.007061521041666473,-0.0008026622481712483,27.040120269870386
1622,A,1149695237551006.0,-0.23212418424163106,9.997462049271304,-1.6207123,109,1970-01-14 07:21:35.237551006,-1.1087036,0.9191284,0.05316162,9.214944252932003,1.4411269361789558,-86.90370178222656,10.821596145629883,-94.3394775390625,27090474.0,50354.0,-0.02272790653150309,-0.1206234828819928,0.070036975768,0.001122108368579864,-0.0014243991100246981,0.0020500551296638333,27.090474272845313
1622,A,1149695287905010.0,0.23566446575836897,10.584392049271305,0.043518066,109,1970-01-14 07:21:35.287905010,-1.4320068,0.68466187,0.10444641,8.443687878311934,1.5906962010516101,-87.052734375,10.657339096069336,-94.38709259033203,27140828.0,50354.0,8.913366774691034e-05,0.024720140639007224,-0.039709019229418004,-0.0005699763843907893,-0.002414558447651648,0.000763566961771879,27.140828276984394
1622,A,1149695338259014.0,-0.37680808424163104,10.868816049271304,1.4379883,109,1970-01-14 07:21:35.338259014,-0.85380554,0.3815918,-0.61047363,8.350874417133134,1.11681433322075,-86.92173767089844,10.568724632263184,-94.3753433227539,27191182.0,50354.0,-0.0035535728825530893,0.04665822029700723,0.037299885776782005,-8.722418611117518e-05,0.0017970929932860362,-6.0654752937016547e-05,27.191182280890644
1622,A,1149695388613018.0,-1.1972273842416312,10.425380049271304,-0.529129,109,1970-01-14 07:21:35.388613018,-0.5655365,0.053649902,-1.0655823,8.831468425161859,1.207549370787857,-87.1142807006836,10.582518577575684,-94.41094970703125,27241536.0,50354.0,-0.0396294909900031,0.04265477517300721,0.022882350596100002,-0.001087219999119347,0.0022486332869485538,0.0015152081651600502,27.241536284796894
1622,A,1149695438967022.0,-2.119529684241631,9.278636049271304,1.1921997,109,1970-01-14 07:21:35.438967022,-0.6732483,0.26190186,-0.58517456,10.232294039865453,0.9296693624055508,-87.05083465576172,10.706562042236328,-94.4073486328125,27291890.0,50354.0,-0.0835059927132031,0.002618813313007207,0.0166941310139,-0.0031001820731956227,0.0011398531373123851,0.0009964170774949702,27.291890288935974
1622,A,1149695489321026.0,-1.6726301842416311,7.649730049271303,0.6845856,109,1970-01-14 07:21:35.489321026,-0.29408264,-0.17974854,-0.25978088,11.647863495593457,0.4316019490167713,-87.0515365600586,10.733905792236328,-94.39659118652344,27342244.0,50354.0,-0.09547520900880309,-0.06726372673699281,0.0472518234981,-0.00450620971575495,-0.0016275649852756859,0.001609967296748624,27.342244292842224
1622,A,1149695539675030.0,-2.345191884241631,6.930568049271304,0.22796631,109,1970-01-14 07:21:35.539675030,0.002670288,0.041305542,-0.15861511,12.48639779582236,0.16392690858498127,-87.09784698486328,10.824447631835938,-94.40769958496094,27392598.0,50354.0,-0.10115670621820311,-0.1263810347729928,0.02297531943807,-0.004950601729670335,-0.004875394160536908,0.001768108777703952,27.392598296981305
1622,A,1149695590029034.0,-0.7885359842416311,5.635249049271303,-1.368988,109,1970-01-14 07:21:35.590029034,0.92637634,-0.31332397,0.62602234,13.538070008724956,1.1611412505235668,-87.26841735839844,10.757637977600098,-94.43141174316406,27442952.0,50354.0,-0.07889786654480309,-0.17709962290999282,-0.028727503089130003,-0.004533233978454207,-0.007640732518484529,-0.00014482272778273768,27.442952300887555
1622,A,1149695640383038.0,4.419197215758369,9.262660049271304,1.6122742,109,1970-01-14 07:21:35.640383038,1.6462402,-0.47651672,1.0113525,10.514415372539695,1.9899771003184556,-87.18110656738281,10.806999206542969,-94.40470123291016,27493306.0,50354.0,0.09140915782589693,-0.11838454262599282,0.006125216657400001,0.00031499678058409953,-0.0074394048356995115,-0.0005690577654916662,27.493306304793805
1622,A,1149695690737042.0,7.166221715758368,5.497966049271303,0.26937866,109,1970-01-14 07:21:35.690737042,1.8791351,-0.41279602,0.9332886,14.93040142962935,2.138358456636728,-87.082763671875,10.852570533752441,-94.38133239746094,27543660.0,50354.0,0.29168609243879695,-0.12184091671699282,0.047374374056220005,0.009645189115914199,-0.00604815638987835,0.001346959195396811,27.543660308932886
1622,A,1149695741091045.0,-2.585548284241631,6.381572049271304,1.7291565,109,1970-01-14 07:21:35.741091045,1.4150696,0.31484985,0.6582947,13.190447964077908,1.5921382832333606,-86.8947525024414,10.989396095275879,-94.3728256225586,27594014.0,50354.0,0.11532761498529692,-0.19437806929299284,0.05031711972332,0.010247384111816412,-0.00796144541077341,0.002459578738887479,27.594014311907813
1622,A,1149695791445049.0,1.094520665758369,12.311488349271304,-0.5002899,109,1970-01-14 07:21:35.791445049,1.3138428,-0.4124756,0.56843567,6.720932567075578,1.4897778809727136,-86.82475280761719,11.016648292541504,-94.35025787353516,27644368.0,50354.0,-0.037539602350553085,-0.0228340183458928,0.0309391743882,0.0019584687941049455,-0.005468748730484224,0.002045789716845739,27.644368315814063
1622,A,1149695841799053.0,1.175010775758369,16.043940749271304,0.5250244,109,1970-01-14 07:21:35.841799053,0.68237305,-1.0726471,0.2190857,3.0315068078973497,1.2900400476144926,-86.78009033203125,11.0245943069458,-94.29508972167969,27694722.0,50354.0,0.057139993103066916,0.2204354384140072,0.0006227405064999998,0.0004934790379760407,0.004975010953054916,0.0007946343313038618,27.694722319953144
1622,A,1149695892153057.0,-0.45452108424163096,15.522700549271304,2.8216095,109,1970-01-14 07:21:35.892153057,-0.13969421,-0.9933319,-0.068847656,4.660826953664839,1.0054664268894453,-86.77745056152344,11.0183687210083,-94.24475860595703,27745076.0,50354.0,0.018139768963316913,0.30128412797340726,0.0842582017003,0.0018953185695453458,0.013135333522935935,0.0021370474819406037,27.745076323859394
1622,A,1149695942507061.0,-1.644996584241631,12.293086049271304,2.0122375,109,1970-01-14 07:21:35.942507061,-0.40097046,-0.6634369,-0.08589172,7.429417126107543,0.7799379575573816,-86.79109191894531,11.01222038269043,-94.21125793457031,27795430.0,50354.0,-0.05285955633940309,0.20684885919150722,0.12170176591900002,-0.0008741400867677217,0.012793264217851054,0.005185454104751117,27.795430327998474
1622,A,1149695992860880.0,0.7818070407583689,7.256694049271305,4.233261,109,1970-01-14 07:21:35.992860880,-0.5578613,0.08351135,0.5557709,12.49058279590815,0.7918741496622569,-86.81949615478516,11.040199279785156,-94.21392059326172,27845784.0,50354.0,-0.02173252313627809,-0.0012643864589927717,0.1572429157345,-0.0018780047849592252,0.005176000269986517,0.00702299024999017,27.845784146804363
1622,A,1149696043214884.0,2.5665818157583686,11.234401049271304,5.646393,109,1970-01-14 07:21:36.043214884,-0.4348755,-0.15919495,0.41131592,9.765987115717246,0.6193872122115527,-86.83946228027344,11.060294151306152,-94.20467376708984,27896138.0,50354.0,0.0843023862405219,-0.027918898703992785,0.248740048758,0.0015753214433755465,-0.0007347475705484874,0.010221433097027673,27.896138150943443
1622,A,1149696093568888.0,6.688713315758369,8.752666049271305,8.386917,109,1970-01-14 07:21:36.093568888,0.252182,0.5296631,0.050308228,14.491348902224043,0.5887866153625693,-86.83201599121094,11.064268112182617,-94.23149108886719,27946492.0,50354.0,0.2330205655261969,0.009745188340007217,0.35331664587,0.00798923995663068,-0.00045755950583406465,0.015157981400649155,27.946492154849693
1622,A,1149696143922892.0,-1.3869093842416311,8.667339049271304,0.72058105,109,1970-01-14 07:21:36.143922892,-0.5704346,0.86997986,-0.4303589,10.597251738507245,1.1258194226837577,-86.84886932373047,11.06856632232666,-94.27304077148438,27996846.0,50354.0,0.1334835175837969,-0.05488573163399278,0.22929947840485002,0.009227473300460315,-0.0011365034585126745,0.014668526160867898,27.996846158988774
1622,A,1149696194276896.0,-1.2116469842416309,11.191539049271304,-1.7252502,109,1970-01-14 07:21:36.194276896,-0.5267639,0.49998474,0.00010681152,8.257440729388962,0.7262678279978938,-86.88007354736328,11.069942474365234,-94.2984619140625,28047200.0,50354.0,-0.06542385368930309,0.006517773887007198,-0.025294555189550007,0.0017135381578716707,-0.0012177600721958563,0.005136231951791609,28.047200162895024
1622,A,1149696244630900.0,4.664909415758369,11.980220049271303,1.0106964,109,1970-01-14 07:21:36.244630900,-0.7855835,0.1907959,-1.4244995,8.076144112388533,1.63790821978196,-86.9219741821289,10.999338150024414,-94.31209564208984,28097554.0,50354.0,0.08694278823829692,0.08992617882400718,-0.017990321022600002,0.0005417822151400175,0.002428169397405209,-0.0010897833283933008,28.097554166801274
1622,A,1149696294984903.0,-2.950370684241631,8.333842049271304,2.4774323,109,1970-01-14 07:21:36.294984903,-0.848999,0.75798035,-0.619339,11.58713619732608,1.2957292579501793,-86.97209167480469,10.970431327819824,-94.35233306884766,28147908.0,50354.0,0.04316694164339691,0.017977941455007175,0.0878206162799,0.003275772669231406,0.0027167020362647448,0.0017581173436930421,28.147908170009032
1622,A,1149696345338907.0,1.494041515758369,11.423365849271304,-1.8003235,109,1970-01-14 07:21:36.345338907,-1.309021,0.5179138,0.046447754,7.8247846949224185,1.408519817582658,-87.04253387451172,10.974104881286621,-94.37854766845703,28198262.0,50354.0,-0.03666599947490309,0.003958023261607219,0.017047568257599996,0.00016367422097616905,0.0005522817836702006,0.0026402662821006376,28.198262173915282
1622,A,1149696395692911.0,0.5469742757583689,10.280009049271303,0.16107178,109,1970-01-14 07:21:36.395692911,-0.73313904,0.29193115,-0.71417236,8.733616875578788,1.0643114243962684,-87.13063049316406,10.71012020111084,-94.40425109863281,28248616.0,50354.0,0.05138665458301692,0.0529566698206072,-0.04127144055444,0.0003706219336569821,0.0014329412277309125,-0.0006098844328175408,28.248616177821532
1622,A,1149696446046915.0,-0.495841884241631,10.744365049271304,0.78767395,109,1970-01-14 07:21:36.446046915,-0.47434998,0.5329895,-0.83976746,8.40412039350568,1.1019505875995994,-87.0950698852539,10.626575469970703,-94.42147827148438,28298970.0,50354.0,0.0012873602212169096,0.03586146667900718,0.02388657124421,0.0013261736707261952,0.002236174222650791,-0.0004376988546236607,28.298970181960613
1622,A,1149696496400919.0,-1.8927992842416312,9.912257049271304,0.93292236,109,1970-01-14 07:21:36.496400919,-0.60624695,0.46661377,-0.62568665,9.536302714737715,0.9883053974992436,-87.05811309814453,10.743511199951172,-94.43350219726562,28349324.0,50354.0,-0.0601388186989031,0.026602574575007195,0.04331945329687,-0.0014817031700927053,0.00157265716665232,0.0016920460798707712,28.349324185866863
1622,A,1149696546754923.0,-2.177009484241631,8.369350049271304,0.9436798,109,1970-01-14 07:21:36.546754923,-0.20021057,0.23539734,-0.26638794,11.091895853764155,0.4079935227380995,-87.01837921142578,10.853641510009766,-94.43641662597656,28399678.0,50354.0,-0.10246557536410311,-0.033193178079992794,0.04724721258232,-0.004093890829324307,-0.00016593162444502243,0.002280196946840367,28.399678190005943
1622,A,1149696597108927.0,-1.637916484241631,7.595271049271304,0.66304016,109,1970-01-14 07:21:36.597108927,0.03652954,0.11869812,-0.078048706,11.69239880955514,0.14668078092381578,-87.00917053222656,10.881606101989746,-94.4410400390625,28450032.0,50354.0,-0.09604839110850309,-0.0915279346019928,0.040452388432920004,-0.004997986133880807,-0.0031401034539943512,0.0022080128547606976,28.450032193912193
1622,A,1149696647462931.0,-0.19107808424163109,5.002315049271305,-1.6552429,109,1970-01-14 07:21:36.647462931,0.7795563,-0.2866974,0.519104,14.139069140712168,0.9794755672565039,-86.96719360351562,10.906774520874023,-94.42508697509766,28500386.0,50354.0,-0.04604859625070309,-0.1762997747969928,-0.02498068838498,-0.003577575850742734,-0.00674309823953826,0.0003895309921069855,28.500386197818443
1622,A,1149696697816935.0,5.240440315758368,7.819698049271304,1.4944763,109,1970-01-14 07:21:36.697816935,1.6376343,-0.61302185,0.869812,12.123769999621063,1.9530014860357665,-86.87894439697266,10.948554992675781,-94.39152526855469,28550740.0,50354.0,0.12712779290289689,-0.17064937621799278,-0.004047620688199997,0.0020413309341122832,-0.008735138775104293,-0.0007308457375354529,28.550740201957524
1622,A,1149696748170939.0,4.739158715758369,5.153011049271305,0.6735687,109,1970-01-14 07:21:36.748170939,1.6265106,-0.13305664,0.8852539,14.415416983451989,1.856586994682894,-86.7958755493164,10.992385864257812,-94.38228607177734,28601094.0,50354.0,0.25125636481649694,-0.16685530302599277,0.05458486896500001,0.009526577938901179,-0.008497355309325823,0.001272376299864994,28.601094205863774
1622,A,1149696798524943.0,-2.840278484241631,6.113582049271304,0.09690857,109,1970-01-14 07:21:36.798524943,1.1712341,0.13000488,0.9976959,13.403155071041194,1.5440491231510203,-86.80597686767578,11.163686752319336,-94.3990249633789,28651448.0,50354.0,0.04780810758889691,-0.20981018555799277,0.01939830622679,0.007529546221750601,-0.009483307006079003,0.0018626744018036972,28.651448210002854
1622,A,1149696848878946.0,1.278175445758369,12.781215049271303,-1.4225311,109,1970-01-14 07:21:36.848878946,1.3034515,-1.0072632,0.7529297,6.403890338697923,1.811206255529331,-86.73043823242188,11.198437690734863,-94.3456039428711,28701802.0,50354.0,-0.03932906819989309,-0.017754893449992808,-0.03337519843781,0.00021347677469694926,-0.005729405994184054,-0.0003518962151968505,28.701802212977782
1622,A,1149696899232950.0,1.209129415758369,14.889033549271304,0.7841034,109,1970-01-14 07:21:36.899232950,0.60598755,-1.9051666,0.318573,4.211302678197783,2.0244429952062277,-86.6811294555664,11.208866119384766,-94.24772644042969,28752156.0,50354.0,0.06262287449840691,0.20318464896550717,-0.016073694202900002,0.0005864681611776825,0.004668564954614105,-0.0012449747700151558,28.752156216884032
1622,A,1149696949586954.0,0.6226883857583689,13.910991049271303,2.7322693,109,1970-01-14 07:21:36.949586954,0.12574768,-1.2647858,0.24827576,5.7863743216318415,1.295043030910788,-86.66218566894531,11.217588424682617,-94.18262481689453,28802510.0,50354.0,0.046119676788786916,0.23162901931750718,0.0885317154679,0.002737811213757679,0.010947303726361454,0.0018242756013889048,28.802510220790282
1622,A,1149696999940958.0,0.520820715758369,12.839839049271305,1.5935516,109,1970-01-14 07:21:36.999940958,-0.32766724,-0.8282776,0.1424408,6.377516669713417,0.9020526505341124,-86.67028045654297,11.222294807434082,-94.14005279541016,28852864.0,50354.0,0.028790128648886915,0.18003644939100721,0.1089111927993,0.0018860041715043144,0.010364501505674268,0.004971020101443295,28.852864224929363
1622,A,1149697050294962.0,-0.641410684241631,8.302211049271303,4.655365,109,1970-01-14 07:21:37.050294962,-0.5923157,-0.13435364,0.29893494,11.764803470272039,0.6769423072910595,-86.6983871459961,11.236825942993164,-94.13233184814453,28903218.0,50354.0,-0.003036093636503087,0.038824195331007214,0.1573289732382,0.0006484093395067877,0.005510254452166158,0.0067031286603261376,28.903218228835613
1622,A,1149697100648966.0,-0.8522871842416311,7.604930049271305,5.6063385,109,1970-01-14 07:21:37.100648966,-0.19546509,-0.19664001,0.52186584,12.815790203190963,0.5909465711047098,-86.70591735839844,11.262311935424805,-94.12080383300781,28953572.0,50354.0,-0.03760683123480309,-0.0929751085619928,0.2583589090195,-0.0010232669194848757,-0.0013633575424165242,0.010465773811602113,28.953572232974693
1622,A,1149697151002970.0,1.403846815758369,11.765407049271303,5.702484,109,1970-01-14 07:21:37.151002970,0.0041503906,-0.1574707,0.33169556,9.236814757960031,0.36720047879099527,-86.70394897460938,11.278417587280273,-94.11180877685547,29003926.0,50354.0,0.013886616842696911,-0.005782222869992795,0.28472222408250003,-0.0005972038377500573,-0.002486413333463101,0.013673153688109055,29.003926236880943
1622,A,1149697201356974.0,3.110984915758369,8.210368049271304,3.3834076,109,1970-01-14 07:21:37.201356974,-0.72206116,0.77578735,0.062408447,11.54566696928792,1.0616558507621572,-86.74774169921875,11.283747673034668,-94.151123046875,29054280.0,50354.0,0.11366991850439692,0.009460889656007193,0.2287554928132,0.0032114908904337814,9.261779367148452e-05,0.012927828478283042,29.054280240787193
1622,A,1149697251710978.0,0.49828348575836895,7.371898049271303,-1.1395874,109,1970-01-14 07:21:37.251710978,-0.7002716,0.7599945,0.14637756,11.696082766274902,1.04374247008942,-86.79024505615234,11.293198585510254,-94.18937683105469,29104634.0,50354.0,0.09087055054498691,-0.1011544864369928,0.05649266117540001,0.005149715389256337,-0.002308569686154875,0.007181692772970984,29.104634244926274
1622,A,1149697302064982.0,2.385139515758369,12.499263049271304,-1.8769531,109,1970-01-14 07:21:37.302064982,-0.20536804,0.419693,-0.48435974,6.953290929134466,0.6729952480035124,-86.80496978759766,11.270190238952637,-94.21212768554688,29154988.0,50354.0,0.07259594090918692,0.006827022978007199,-0.0759474401685,0.004115595855341735,-0.0023748825475068806,-0.0004898129707092784,29.154988248832524
1622,A,1149697352418985.0,2.7344285157583688,10.658092049271303,1.4724884,109,1970-01-14 07:21:37.352418985,-0.85913086,0.54145813,-1.4900055,8.693035652358283,1.8031636451464095,-86.85411071777344,11.197305679321289,-94.24388122558594,29205342.0,50354.0,0.12889536432949691,0.08956352931600721,-0.010183207751899999,0.005072946591994343,0.002426824935106401,-0.0021685113226919107,29.20534225180745
1622,A,1149697402772989.0,-0.878654384241631,8.768108049271303,2.0717773,109,1970-01-14 07:21:37.402772989,-1.1070251,0.93859863,-0.6897583,10.583940226590663,1.6069344954561082,-86.71125793457031,11.118764877319336,-94.25331115722656,29255696.0,50354.0,0.04672282530919691,-0.004375760118992828,0.0892339775289,0.004421539160533395,0.0021447724650732313,0.001990261230675529,29.255696255946532
1622,A,1149697453126993.0,1.259468175758369,11.145671049271304,-1.6317444,109,1970-01-14 07:21:37.453126993,-1.4051819,0.5493622,0.13685608,8.042089656764606,1.5149470569988301,-86.78682708740234,11.127152442932129,-94.28086853027344,29306050.0,50354.0,0.009587748829016913,0.007900016364007178,0.011078708323299996,0.0014177313250778093,8.873019948072629e-05,0.002525572491700839,29.306050259852782
1622,A,1149697503480997.0,0.618919465758369,10.630626049271305,1.0137024,109,1970-01-14 07:21:37.503480997,-0.8210449,0.5509491,-0.43484497,8.440777959893554,1.0801619260745683,-86.8335189819336,11.106980323791504,-94.31013488769531,29356404.0,50354.0,0.047292165650466914,0.054792632050007214,-0.015560443434000006,0.0014320656068499643,0.0015784128091196406,-0.00011283664488209417,29.356404263991863
1622,A,1149697553835001.0,-1.180381684241631,10.338618049271304,0.973526,109,1970-01-14 07:21:37.553835001,-0.5671997,0.6959381,-0.79385376,8.949406527208717,1.1984361188556683,-86.7886962890625,11.114287376403809,-94.33226776123047,29406758.0,50354.0,-0.01413593427475309,0.03447345866900722,0.0500324494268,0.000834774437346347,0.0022474523660326266,0.0008679016948807256,29.406758267898113
1622,A,1149697604189005.0,-2.827140684241631,9.247127049271304,0.1138916,109,1970-01-14 07:21:37.604189005,-0.48458862,0.3625641,-0.5877991,10.41925748225115,0.8436744865190154,-86.8775634765625,11.31897258758545,-94.36426544189453,29457112.0,50354.0,-0.10089739067130309,-0.0003588956539927933,0.0273779129152,-0.0028961940221668564,0.0008589023530290183,0.0019489606926845339,29.457112271804363
1622,A,1149697654543009.0,-2.197807184241631,8.073604049271305,0.42192078,109,1970-01-14 07:21:37.654543009,-0.19107056,0.07621765,-0.23721313,11.350009238552497,0.31398592024903443,-86.91045379638672,11.40929126739502,-94.37322998046875,29507466.0,50354.0,-0.12651311248480307,-0.05738515313199277,0.013490148291260001,-0.005725514237961285,-0.0014538219162847587,0.0010289351769950435,29.507466275943443
1622,A,1149697704897013.0,-0.910133284241631,6.428691049271304,-0.56658936,109,1970-01-14 07:21:37.704897013,0.23547363,0.03993225,0.12454224,12.709831984820884,0.26935698349895626,-87.0419692993164,11.326937675476074,-94.40311431884766,29557820.0,50354.0,-0.07824861717500309,-0.12834491630399278,-0.0036423208386600014,-0.00515528606764494,-0.0046761259581898085,0.0002479387517741102,29.557820279849693
1622,A,1149697755251017.0,2.187690815758369,7.091182049271303,-0.33935547,109,1970-01-14 07:21:37.755251017,1.0372314,0.09552002,0.67337036,12.000277179909311,1.2403228180974861,-86.99070739746094,11.360807418823242,-94.40618896484375,29608174.0,50354.0,0.03216506597099692,-0.15307935499799283,-0.02280897298491,-0.0011602455686632632,-0.007085418878570092,-0.0006659642245960219,29.608174283988774
1622,A,1149697805605021.0,6.732887315758369,8.382289049271304,0.96243286,109,1970-01-14 07:21:37.805605021,1.6582794,0.09805298,0.8457184,12.199988807302889,1.8640666746256156,-86.90833282470703,11.403300285339355,-94.40888977050781,29658528.0,50354.0,0.22459339561719693,-0.10389361815199283,0.01568721944803,0.006464407787405957,-0.00646980854499719,-0.00017930438879802777,29.658528287895024
1622,A,1149697855959025.0,3.190513715758369,6.587779049271305,1.0524902,109,1970-01-14 07:21:37.855959025,1.5673981,0.27818298,0.579422,12.68885556452651,1.694063879648371,-86.83245086669922,11.432991981506348,-94.42145538330078,29708882.0,50354.0,0.24984146777049693,-0.1165677954829928,0.05072971788162001,0.011944846555511968,-0.0055505570110880335,0.0016721792311485985,29.708882291801274
1622,A,1149697906313028.0,-1.080955384241631,8.571010049271305,0.74102783,109,1970-01-14 07:21:37.906313028,1.4174805,0.4012146,0.35813904,10.63384516249713,1.5160764146656762,-86.74299621582031,11.42311954498291,-94.43643188476562,29759236.0,50354.0,0.05311235011259692,-0.11181636686599276,0.04515540344131,0.007627468272842654,-0.00575002805546041,0.002414099699547409,29.759236295009032
1622,A,1149697956667032.0,0.749290560758369,12.649348449271304,-0.1701355,109,1970-01-14 07:21:37.956667032,1.2064667,-0.49508667,0.26942444,6.361269571315152,1.3316389292484252,-86.67752075195312,11.435144424438477,-94.41043090820312,29809590.0,50354.0,-0.00835032526083809,0.04079576591780723,0.014373356192410001,0.0011269734996927322,-0.0017880856700724674,0.0014987555812981685,29.809590298915282
1622,A,1149698007021036.0,0.5002823857583689,14.919764749271305,1.3196716,109,1970-01-14 07:21:38.007021036,0.5089569,-1.1929474,0.21891785,4.307539090024288,1.3153272027419614,-86.63990020751953,11.442598342895508,-94.34902954101562,29859944.0,50354.0,0.03146049807445191,0.20063836299970725,0.0289418703897,0.0005818448209283553,0.006078587063756262,0.0010905474596577835,29.859944302821532
1622,A,1149698057375040.0,-0.2595442842416311,14.887675449271304,2.4595032,109,1970-01-14 07:21:38.057375040,-0.22662354,-0.9091339,0.1382904,4.917646982218483,0.9471044882923434,-86.64195251464844,11.44683837890625,-94.30232238769531,29910298.0,50354.0,0.006061063181886908,0.2569927218787073,0.0951482839396,0.0009446803477508425,0.011521777823983843,0.0031242178155487864,29.910298306960613
1622,A,1149698107729044.0,-0.11585228424163108,11.479106049271305,3.3120575,109,1970-01-14 07:21:38.107729044,-0.64004517,-0.26298523,0.119125366,8.277828372767933,0.7021466397150355,-86.67123413085938,11.45201587677002,-94.28857421875,29960652.0,50354.0,-0.009451359404703093,0.1703672577888073,0.14531058374390002,-8.535748800184311e-05,0.010759642208089016,0.00605403291166748,29.960652310866863
1622,A,1149698158083048.0,1.124061675758369,7.432475049271304,5.0411377,109,1970-01-14 07:21:38.158083048,-0.4418335,-0.05291748,0.35932922,12.6293489997072,0.5719568075979241,-86.69257354736328,11.46980094909668,-94.2848129272461,30011006.0,50354.0,0.025383687850216916,-0.017332322681992775,0.2103083955504,0.00040112823327270156,0.003852960561184269,0.008953419041692593,30.011006315005943
1622,A,1149698208437052.0,2.732933115758369,10.009196049271305,7.1640625,109,1970-01-14 07:21:38.208437052,0.09085083,-0.26011658,0.3544464,11.660883389677203,0.4489395939049543,-86.6851806640625,11.486741065979004,-94.27051544189453,30061360.0,50354.0,0.09710755786601692,-0.05434024675199279,0.3072903254354,0.0030839620933976195,-0.0018045002806394545,0.013031582998259489,30.061360318912193
