Subject-id_accel,Activity_accel,Timestamp_accel,accel_x,accel_y,accel_z,Segment_accel,DateTime,gyro_x,gyro_y,gyro_z,accel_magnitude,gyro_magnitude,Roll,Pitch,Yaw,Time_Difference,Difference_Microseconds,vx,vy,vz,dx,dy,dz,Time_diff
1630,A,1559981216134229.0,2.0764313,11.988434,2.7424316,154,1970-01-19 01:19:41.216134229,-0.50216675,0.13633728,-0.28901672,12.472170933588677,0.5952226164746425,22.037700653076172,-74.56312561035156,-65.67106628417969,15005489.0,50354.0,0.0990456961281,0.07904784924499997,0.0970418586981,0.004157621678426508,0.0019713401899455426,0.0035150448287434187,15.005489539122209
1630,A,1559981266488233.0,3.8310394,13.73819,4.200592,154,1970-01-19 01:19:41.266488233,0.54208374,0.4492798,-0.40864563,14.868076557205251,0.8140628788849941,22.809429168701172,-74.39054107666016,-66.39134216308594,15055843.0,50354.0,0.1487323898139,0.15425001244799996,0.1748045051772,0.0062383088697617346,0.005873740263844659,0.00684427590328843,15.055843543028459
1630,A,1559981316842237.0,0.58935547,9.911575,7.154434,154,1970-01-19 01:19:41.316842237,1.021225,0.09674072,-0.12289429,12.238161002005159,1.0331322635779614,22.874032974243164,-74.38372039794922,-66.4053955078125,15106197.0,50354.0,0.11129228164199001,0.10196093340499994,0.28588548960200005,0.006546641153244943,0.006450622983740979,0.01159879199855592,15.106197546934709
1630,A,1559981367196240.0,-1.8625946,6.0054474,5.5938263,154,1970-01-19 01:19:41.367196240,0.4333954,-0.5197449,0.22628784,8.415791691379226,0.7135632560250251,22.894559860229492,-74.41205596923828,-66.40422058105469,15156551.0,50354.0,-0.03205634157601,-0.09272632703520005,0.3209629495731,0.0019949232630411787,0.0002324996845724519,0.015278623153111497,15.156551549909636
1630,A,1559981417550244.0,-0.8250427,6.658264,6.186371,154,1970-01-19 01:19:41.417550244,0.26264954,0.59736633,0.1043396,9.126026577879351,0.6608464762772367,22.848886489868164,-74.38655853271484,-66.34317016601562,15206905.0,50354.0,-0.06766664430210001,-0.17463493808220004,0.29659002742210006,-0.002510725615453176,-0.006731354571860783,0.015548131301808153,15.206905554048717
1630,A,1559981467904248.0,1.122345,8.747452,2.0619965,154,1970-01-19 01:19:41.467904248,0.6073456,0.05281067,0.42836,9.057008576640591,0.7450838438090098,22.942346572875977,-74.4089584350586,-66.3983383178711,15257259.0,50354.0,0.007485180007099998,-0.10559948826800007,0.20766914854750002,-0.0015151887265552155,-0.007055462152218989,0.01269573327338662,15.257259557954967
1630,A,1559981518258252.0,0.69799805,5.9837494,-0.2323761,154,1970-01-19 01:19:41.518258252,0.5216522,-0.2887268,0.27389526,6.028802270074494,0.6561271189743246,22.943397521972656,-74.42762756347656,-66.37236785888672,15307613.0,50354.0,0.04583077696985,-0.12258174235220007,0.0460643528108,0.00134233584880867,-0.005744918843324779,0.00638824836369792,15.307613562094048
1630,A,1559981568612256.0,-0.03060913,6.290207,0.63290405,154,1970-01-19 01:19:41.568612256,0.27342224,0.29994202,0.12059021,6.3220414865923455,0.42339926244166043,22.916173934936523,-74.41615295410156,-66.32991027832031,15357967.0,50354.0,0.016802850838840002,-0.18444779971720007,0.010084092197150002,0.0015769268473393883,-0.007730082780681288,0.0014136493999651572,15.357967566000298
1630,A,1559981618966260.0,0.012481689,8.870514,1.6494598,154,1970-01-19 01:19:41.618966260,0.3935089,0.49324036,-0.026672363,9.022576796490696,0.63154312763274,22.530044555664062,-74.53779602050781,-65.9366455078125,15408321.0,50354.0,-0.000456394582057,-0.11176772738300005,0.05746307465145001,0.0004115547291770257,-0.007457818325801739,0.0017006350197472026,15.408321569906548
1630,A,1559981669320264.0,-0.046340942,9.401718,0.997818,154,1970-01-19 01:19:41.669320264,0.47044373,0.043945313,-0.015640259,9.45463323432239,0.47275058046772184,22.553144454956055,-74.53549194335938,-65.93621826171875,15458675.0,50354.0,-0.0008524744127810002,-0.03342921493600002,0.0666505131706,-3.295339468303633e-05,-0.0036556234167654652,0.003124807800595753,15.458675574045628
1630,A,1559981719674268.0,-1.0768738,10.210831,3.1221924,154,1970-01-19 01:19:41.719674268,0.23782349,0.26531982,0.25006104,10.73167332126287,0.43529891225052936,22.504928588867188,-74.52803039550781,-65.87385559082031,15509029.0,50354.0,-0.028279177559334002,0.00031594617299999806,0.1037295018408,-0.0007334476017019394,-0.0008336927676460516,0.0042896576379420175,15.509029577951878
1630,A,1559981770028272.0,-2.072464,13.879044,5.754883,154,1970-01-19 01:19:41.770028272,-0.48625183,0.9863281,0.5765991,15.167123910910764,1.2416724548562592,22.316591262817383,-74.49341583251953,-65.70362854003906,15559383.0,50354.0,-0.07929087779060001,0.11304158287499999,0.22349812734580002,-0.0027082912835452886,0.002854002508841496,0.00823861002003103,15.559383582090959
1630,A,1559981820382276.0,2.382965,12.947845,4.6809845,154,1970-01-19 01:19:41.820382276,-0.42022705,0.6945648,0.32458496,13.972717281348329,0.874280522034515,22.357118606567383,-74.30516815185547,-65.75537872314453,15609737.0,50354.0,0.007817483676999998,0.18195138435299993,0.2627438360475,-0.0017994856435981077,0.0074270379358993555,0.012242113912353116,15.609737585997209
1630,A,1559981870736279.0,3.565689,7.600235,4.796768,154,1970-01-19 01:19:41.870736279,-0.20201111,-0.77130127,0.10321045,9.668851707714314,0.8039692373817842,22.382291793823242,-74.34278106689453,-65.7920150756836,15660091.0,50354.0,0.14976926175799998,0.023869810159999935,0.23862137469250005,0.003967561489816995,0.005181960214253797,0.012622871910800982,15.660091588972136
1630,A,1559981921090283.0,1.7782745,8.026413,4.4714355,154,1970-01-19 01:19:41.921090283,-0.13993835,0.031799316,0.13597107,9.358381338382161,0.1976918566247362,22.350706100463867,-74.34388732910156,-65.76647186279297,15710445.0,50354.0,0.1345449690395,-0.10003708330400006,0.2333455595195,0.007158179388788656,-0.0019176634359464912,0.011882711502655527,15.710445593111217
1630,A,1559981971444287.0,0.43392944,9.12088,3.4703827,154,1970-01-19 01:19:41.971444287,-0.29074097,0.052124023,-0.28355408,9.768434000276502,0.40945102478183126,21.883928298950195,-74.22006225585938,-65.33442687988281,15760799.0,50354.0,0.05569665859738001,-0.061751804139000055,0.19995115682140002,0.004789713459013728,-0.004073358819152414,0.01090911142731484,15.760799597017467
1630,A,1559982021798291.0,0.13383484,6.544098,0.46003723,154,1970-01-19 01:19:42.021798291,-0.4575653,-0.7344055,-0.3997345,6.561612961078084,0.9531553455154045,21.975284576416016,-74.24665832519531,-65.453125,15811153.0,50354.0,0.014294601277560002,-0.09907204889400005,0.09895618257761,0.0017621699498713648,-0.004049062147811844,0.007525590084048876,15.811153600923717
1630,A,1559982072152295.0,-0.0056610107,4.6671295,0.24224854,154,1970-01-19 01:19:42.072152295,-0.73843384,-0.6646576,-0.25559998,4.673415685763949,1.0258584751664852,22.024578094482422,-74.27267456054688,-65.54269409179688,15861507.0,50354.0,0.0032270325002861006,-0.21120412523250007,0.01768144883129,0.0004411421736248313,-0.007811823235982894,0.0029365856459818754,15.861507605062798
1630,A,1559982122506299.0,0.3856964,7.002823,0.6771393,154,1970-01-19 01:19:42.122506299,-0.93795776,0.06274414,-0.13043213,7.046049198941663,0.94905960149239,22.073707580566406,-74.50201416015625,-65.63646697998047,15911861.0,50354.0,0.0095681509964061,-0.19965480590750004,0.02314742764768,0.00032214433489621955,-0.010344195309311783,0.0010279486231110277,15.911861608969048
1630,A,1559982172860303.0,1.1993256,10.059692,1.6856384,154,1970-01-19 01:19:42.172860303,-0.8900604,0.042495728,-0.18887329,10.270207487934892,0.9108712983851418,22.30899429321289,-74.60078430175781,-65.90827941894531,15962215.0,50354.0,0.03990609889400001,-0.06388625984500003,0.059487654152900006,0.0012456131894907547,-0.0066351734124506945,0.002080503454493203,15.962215613108128
1630,A,1559982223214307.0,1.5348969,11.116516,1.1207733,154,1970-01-19 01:19:42.223214307,-0.4620819,0.17376709,-0.6110077,11.277808708338625,0.7855221787664357,22.857812881469727,-74.75703430175781,-66.46648406982422,16012569.0,50354.0,0.0688395198825,0.039684188815999985,0.0706570273709,0.0027378884439359413,-0.0006093355422971342,0.003276652646724713,16.01256961701438
1630,A,1559982273568311.0,1.4764099,11.090393,3.207489,154,1970-01-19 01:19:42.273568311,-0.15583801,-0.11868286,-1.0132294,11.638925584966511,1.031990757537537,23.082292556762695,-74.6824951171875,-66.70342254638672,16062923.000000002,50354.00000000186,0.0758156713036028,0.06563414789300243,0.10897265992710402,0.003641983748492645,0.0026515997633226518,0.004522536637102014,16.06292362092063
1630,A,1559982323922315.0,1.9637146,10.272369,7.67659,154,1970-01-19 01:19:42.323922315,0.54711914,0.52220154,-0.32826233,12.973348601286952,0.8244937592424457,23.12733268737793,-74.65202331542969,-66.72176361083984,16113277.0,50353.99999999814,0.08661201453649679,0.04438105887399832,0.27402845698298983,0.004089441846396036,0.002769852860772675,0.009642819120445076,16.11327762505971
1630,A,1559982374276319.0,1.2614288,8.475159,6.3550873,154,1970-01-19 01:19:42.374276319,1.1678009,0.5764313,0.5345154,10.668020307600267,1.407742411983691,23.05506706237793,-74.63604736328125,-66.58629608154297,16163630.999999998,50353.99999999814,0.081199435381797,-0.021462687543999263,0.35327553938208694,0.004224988874592726,0.0005770158349753648,0.015793632716482955,16.16363162896596
1630,A,1559982424630322.0,-0.8282013,6.880783,6.8482666,154,1970-01-19 01:19:42.424630322,0.011001587,-0.17097473,0.38407898,9.743194933443867,0.4205592182950362,23.00341796875,-74.65138244628906,-66.53214263916016,16213985.000000002,50354.000000003725,0.010907368767500807,-0.10685264826600795,0.33242084114032455,0.0023189730080670425,-0.00323059520968879,0.01726377777241403,16.213985631940886
1630,A,1559982474984326.0,0.20277405,7.7838593,3.305725,154,1970-01-19 01:19:42.474984326,0.49263,-0.30847168,0.53590393,8.459160755841852,0.7905897270085587,22.259767532348633,-74.51384735107422,-65.78659057617188,16264339.0,50353.99999999814,-0.015746381873249417,-0.12425750081289544,0.25564704651319053,-0.00012183183296342827,-0.005818660223359335,0.014805785207452,16.264339636079967
1630,A,1559982525338330.0,1.2448425,6.9698944,0.72895813,154,1970-01-19 01:19:42.525338330,0.9057617,-0.96095276,0.42422485,7.117614821852241,1.3870116032304955,22.968929290771484,-74.7175521850586,-66.42630767822266,16314692.999999998,50353.99999999814,0.03644664187934865,-0.12201394309509553,0.10158121716400623,0.0005211704461735411,-0.006200376143271259,0.008993935994600449,16.314693639986217
1630,A,1559982575692334.0,0.35717773,6.274765,-0.37086487,154,1970-01-19 01:19:42.575692334,0.8344879,-0.3374939,0.23745728,6.295855183200538,0.9309447607718829,22.99474334716797,-74.73770141601562,-66.40982055664062,16365047.0,50354.00000000186,0.040334063330711496,-0.16000841028620594,0.009015714007020333,0.0019331078150737558,-0.007100476791081289,0.002784498936093039,16.365047644125298
1630,A,1559982626046338.0,0.29508972,8.150513,-0.05569458,154,1970-01-19 01:19:42.626046338,0.7418518,0.40586853,-0.11190796,8.156043280430778,0.8529928184451276,23.021652221679688,-74.71684265136719,-66.39925384521484,16415401.0,50354.0,0.016422137588650004,-0.13028397579400003,-0.01073948727265,0.0014289508705467645,-0.007308691404341346,-4.339943950875813e-05,16.415401648031548
1630,A,1559982676400342.0,-0.7396698,9.179306,1.1103821,154,1970-01-19 01:19:42.676400342,0.61105347,0.12823486,-0.02015686,9.275759724285038,0.624689380030844,23.046415328979492,-74.71053314208984,-66.39324188232422,16465755.000000002,50354.00000000186,-0.011193192674160414,-0.057156347037002134,0.026553867691040983,0.00013164914611210927,-0.004719185007916316,0.00039815865579384454,16.465755651937798
1630,A,1559982726754346.0,-1.525528,9.947418,-0.15692139,154,1970-01-19 01:19:42.726754346,0.049316406,-0.051605225,0.15742493,10.064938393658828,0.1728520052922799,23.02608871459961,-74.7159652709961,-66.36961364746094,16516109.0,50353.99999999814,-0.057030885010597894,-0.011915669851999565,0.024005280295669115,-0.0017176776038690966,-0.0017390261692143312,0.0012729276688613531,16.51610965607688
1630,A,1559982777108350.0,-0.61050415,14.3259735,0.7543793,154,1970-01-19 01:19:42.777108350,-0.23634338,-0.0006866455,0.5223999,14.35880636293066,0.5733762466931092,22.926300048828125,-74.72622680664062,-66.27842712402344,16566462.999999998,50353.99999999814,-0.053778881440548015,0.11766197779549563,0.015042197800069441,-0.002789857489940397,0.002662374795093302,0.0009830983560163732,16.56646365998313
1630,A,1559982827462354.0,1.1852264,13.536484,5.7931366,154,1970-01-19 01:19:42.827462354,-0.41218567,0.028060913,0.40696716,14.77164826171313,0.5799195726221077,22.412336349487305,-74.5357437133789,-65.7976303100586,16616817.000000002,50354.000000003725,0.014469782088251067,0.20802389247751538,0.16484680781431219,-0.0009896851943928535,0.008199793155864204,0.004529065494353621,16.61681766412221
1630,A,1559982877816358.0,3.4236298,7.3436584,6.6531677,154,1970-01-19 01:19:42.877816358,0.038024902,-0.43504333,0.024841309,10.48404502792991,0.43740791348857877,22.440092086791992,-74.55633544921875,-65.824462890625,16667171.0,50353.99999999814,0.1160371725473957,0.032230145204798784,0.31336060336108845,0.0032857735968615572,0.006048875906727399,0.012039827991162617,16.66717166802846
1630,A,1559982928170362.0,2.3404846,7.129898,4.6428223,154,1970-01-19 01:19:42.928170362,-0.05380249,-0.06617737,0.009262085,8.824347713152425,0.08579008362779596,22.4404239654541,-74.5595703125,-65.82759857177734,16717524.999999998,50353.99999999814,0.14512310824879465,-0.12906847051719528,0.28439914022998947,0.006575232389605441,-0.0024380985163901165,0.015049797064392013,16.71752567193471
1630,A,1559982978524365.0,-0.30941772,8.764465,2.0253448,154,1970-01-19 01:19:42.978524365,-0.9848175,-0.13742065,-0.28001404,9.00075594717255,1.0330333034078787,21.81053924560547,-74.66207885742188,-65.27189636230469,16767879.0,50354.00000000186,0.05113617083776189,-0.0932968227490035,0.1678844430767062,0.004941219869562417,-0.005598490988563294,0.011387143776913097,16.767879674909636
1630,A,1559983028878369.0,-0.544693,6.4316864,0.96099854,154,1970-01-19 01:19:43.028878369,-0.9756775,-0.6574707,-0.4371338,6.5258561588557935,1.2551096623272326,21.88040542602539,-74.68446350097656,-65.39494323730469,16818233.0,50354.0,-0.02150394559744,-0.11087569620220004,0.07518716627118001,0.0007460505348755842,-0.005140451509634452,0.006119813908551731,16.818233679048717
1630,A,1559983079232373.0,0.8167114,4.725357,0.19230652,154,1970-01-19 01:19:43.079232373,-0.83792114,0.10922241,-0.3874054,4.799270578533103,0.9295828718593451,21.896686553955078,-74.67216491699219,-65.45525360107422,16868587.0,50354.0,0.0068486072568,-0.21256831831820006,0.029036761495619998,-0.0003689774534022933,-0.008143349953580114,0.002624045829384724,16.868587682954967
1630,A,1559983129586377.0,1.2076416,7.5490723,0.90382385,154,1970-01-19 01:19:43.129586377,-0.8801727,0.37989807,-0.108566284,7.698297758368838,0.9647865895816461,22.400686264038086,-74.7918930053711,-65.98336029052734,16918941.0,50354.0,0.05096713548100001,-0.18443589351390005,0.02759727432549,0.0014556269549095909,-0.009995375041296784,0.0014258751198680864,16.918941687094048
1630,A,1559983179940381.0,1.7242584,9.894196,1.2772064,154,1970-01-19 01:19:43.179940381,-0.63993835,-0.20765686,-0.1282959,10.124200595829162,0.6849104330221523,23.00726890563965,-74.91450500488281,-66.60234832763672,16969295.0,50354.0,0.0738164463,-0.05430003401090002,0.05491179860425,0.0031416762385002377,-0.006010654447291892,0.002077330929152064,16.969295691000298
1630,A,1559983230294385.0,2.8455963,11.300705,1.867569,154,1970-01-19 01:19:43.230294385,-0.20303345,0.030563354,-0.37524414,11.80216784194157,0.42774392459855165,23.94094467163086,-74.92900848388672,-67.51801300048828,17019649.0,50354.0,0.11505523178190002,0.04015482247700001,0.07917601024580001,0.004755222239067997,-0.0003561339907890006,0.003375928763417709,17.019649694906548
1630,A,1559983280648389.0,3.0812073,14.817932,5.2056885,154,1970-01-19 01:19:43.280648389,0.022460938,0.48486328,-0.47200012,16.005128551224747,0.6770384090346815,24.22400665283203,-74.72267150878906,-67.79315948486328,17070003.0,50354.0,0.14921913423719999,0.16411972374900005,0.1780834040775,0.006653635713262882,0.005143020250332003,0.006477020274417725,17.07000369904563
1630,A,1559983331002393.0,1.0396423,11.704742,4.343582,154,1970-01-19 01:19:43.331002393,0.72317505,0.06983948,0.031417847,12.527910679328668,0.7272185276925281,23.89078140258789,-74.58858489990234,-67.43621063232422,17120357.0,50354.0,0.1037506303792,0.17429216329799993,0.2404219833785,0.006369019763747102,0.00852019608018232,0.010536710139979711,17.12035770295188
1630,A,1559983381356397.0,-1.4861298,6.94928,5.4725494,154,1970-01-19 01:19:43.381356397,0.42539978,-0.32226563,0.2663269,8.969385220642963,0.5964479246061263,23.89155387878418,-74.60868072509766,-67.41492462158203,17170711.0,50354.0,-0.011241215787500005,-0.02381688810600005,0.2471407402578,0.0023291095311752308,0.0037885160035089813,0.012275366692991126,17.17071170709096
1630,A,1559983431710401.0,-0.5315552,7.1042633,6.1908417,154,1970-01-19 01:19:43.431710401,0.5095062,0.13389587,0.30807495,9.438200512853752,0.6102744027558419,23.856035232543945,-74.60881042480469,-67.35166931152344,17221065.0,50354.0,-0.05079925524500001,-0.13964314033590003,0.2936491977247,-0.001561992939185253,-0.004115433136081719,0.013615468268585403,17.22106571099721
1630,A,1559983482064404.0,1.2705688,7.9803314,2.3365479,154,1970-01-19 01:19:43.482064404,1.0233154,0.048980713,0.43275452,8.411866048526559,1.1121375781366163,23.97056770324707,-74.54075622558594,-67.4072265625,17271419.0,50354.0,0.0186061454072,-0.11368435923810004,0.2146940879592,-0.0008105259263862908,-0.0063780264567746,0.01279855890366355,17.271419713972136
1630,A,1559983532418408.0,0.47021484,7.1215973,0.17980957,154,1970-01-19 01:19:43.532418408,0.7188568,-0.5049896,0.33143616,7.139368430091496,0.9389459639244132,23.98885154724121,-74.57056427001953,-67.38890838623047,17321773.0,50354.0,0.04382770970428,-0.11324794112010003,0.06335433202219,0.0015718971701417321,-0.005713474526118403,0.007000425069871457,17.321773718111217
1630,A,1559983582772412.0,-0.6645355,6.039566,0.013000488,154,1970-01-19 01:19:43.582772412,0.40263367,0.09403992,0.06034851,6.076029452842085,0.417850836340548,23.992080688476562,-74.5675048828125,-67.37136840820312,17372127.0,50354.0,-0.004892411256819999,-0.16211059159590005,0.004854378830266,0.0009802740090117006,-0.006932701778190734,0.0017172907131322848,17.372127722017467
1630,A,1559983633126416.0,-0.065216064,7.891144,0.0135650635,154,1970-01-19 01:19:43.633126416,0.41830444,0.40379333,-0.093322754,7.891425142183597,0.5888436076670502,23.99871063232422,-74.54716491699219,-67.35655975341797,17422481.0,50354.0,-0.018372955126828,-0.14273571433000007,0.0006688408901155,-0.0005857521294411057,-0.007675115444296388,0.00013905810290004505,17.422481725923717
1630,A,1559983683480420.0,0.9765167,9.419876,1.7861481,154,1970-01-19 01:19:43.683480420,0.5751343,0.25202942,-0.016113281,9.637321918245156,0.6281384635624627,24.104402542114258,-74.61771392822266,-67.42955780029297,17472835.0,50354.0,0.022943816112572003,-0.057629649460000036,0.0453113783174395,0.00011508056703807677,-0.005044598764140833,0.0011576439789886123,17.472835730062798
1630,A,1559983733834424.0,-1.9185638,10.830292,1.5522308,154,1970-01-19 01:19:43.733834424,0.024490356,-0.025314331,0.24217224,11.107904046956971,0.24472022130915522,24.06729507446289,-74.623779296875,-67.38978576660156,17523189.0,50354.0,-0.0237179198367,0.016369279735999977,0.0840503655653,-1.948960946237063e-05,-0.0010388123285411496,0.0032569406257357326,17.523189733969048
1630,A,1559983784188428.0,-3.2766876,13.728897,2.0122223,154,1970-01-19 01:19:43.784188428,-0.29389954,0.46922302,0.51127625,14.257220382992614,0.7536249637082058,23.93302345275879,-74.61276245117188,-67.26577758789062,17573543.0,50354.0,-0.13080084449780002,0.12485750145299997,0.0897422356987,-0.0038903189296497073,0.0035556666699954518,0.004375576322023729,17.57354373810813
1630,A,1559983834542432.0,1.6624146,11.770554,5.588028,154,1970-01-19 01:19:43.834542432,-0.5736847,0.036254883,0.049682617,13.135281523362687,0.5769721951596996,23.89341163635254,-74.61209106445312,-67.25443267822266,17623897.0,50354.0,-0.040642551320999996,0.148530477827,0.19135150180310004,-0.004316430376529928,0.00688308915433256,0.00707709702908282,17.62389774201438
1630,A,1559983884896436.0,5.184723,6.77124,6.1588593,154,1970-01-19 01:19:43.884896436,0.22128296,-0.6878662,-0.1300354,10.519628871853108,0.7341902088300835,23.97686004638672,-74.64090728759766,-67.32951354980469,17674251.0,50354.0,0.17239038335520002,-0.02664245246200005,0.29575138155210007,0.003317015167125054,0.003068774814614604,0.012263789294233874,17.67425174592063
1630,A,1559983935250440.0,2.29924,6.7717896,4.1927032,154,1970-01-19 01:19:43.935250440,-0.25074768,0.0064849854,-0.21035767,8.289897411160068,0.32736341180536577,23.998817443847656,-74.6363296508789,-67.36528778076172,17724605.0,50354.0,0.18842373645100002,-0.15249634376080004,0.26062128906250004,0.009084217094360698,-0.004510177472501439,0.014007794728063789,17.72460575005971
1630,A,1559983985604444.0,-0.7899933,7.3023987,2.4806976,154,1970-01-19 01:19:43.985604444,-1.074173,0.15257263,-0.25263977,7.752610964730033,1.1139806527672595,23.975818634033203,-74.6242446899414,-67.39714813232422,17774959.0,50354.0,0.037998304165900006,-0.13912336117090005,0.16801621194160002,0.0057006277166116925,-0.007342109311065413,0.010791806362780227,17.77495975396596
1630,A,1559984035958447.0,0.32521057,6.214554,1.1704712,154,1970-01-19 01:19:44.035958447,-0.71803284,-0.56715393,-0.44917297,6.332175468493048,1.0193091271108738,23.903779983520508,-74.75166320800781,-67.37076568603516,17825313.0,50354.0,-0.01170183479321,-0.15315288187210005,0.0919254768776,0.0006620662093962163,-0.007358638971093614,0.006544551899400998,17.825313756940886
1630,A,1559984086312451.0,0.9194031,5.344757,0.66096497,154,1970-01-19 01:19:44.086312451,-0.8721161,0.15100098,-0.27922058,5.463387606687422,0.9280904698011432,24.470783233642578,-74.85977935791016,-67.96257019042969,17875667.0,50354.0,0.03133563836959,-0.20244042695300002,0.04611006845209,0.0004943202726425194,-0.008952772736289546,0.0034753209247656053,17.875667761079967
1630,A,1559984136666455.0,0.697876,8.244217,1.1860962,154,1970-01-19 01:19:44.136666455,-0.91108704,0.3085785,-0.013244629,8.358287447205884,0.9620164787131036,24.49864959716797,-74.98805236816406,-68.03192138671875,17926021.0,50354.0,0.040718235900700006,-0.15133960160200002,0.04650345907709,0.0018141003925030916,-0.008907119778929235,0.002331730782602165,17.926021764986217
1630,A,1559984187020459.0,2.4120178,10.679703,1.7837524,154,1970-01-19 01:19:44.187020459,-0.5232544,-0.009933472,-0.27522278,11.093045508796562,0.5913048449118806,25.246591567993164,-75.01156616210938,-68.78296661376953,17976375.0,50354.0,0.07829779620260001,-0.017021666160000018,0.07477187820219999,0.0029964666402647845,-0.004238831638443875,0.0030533491666806844,17.976375769125298
1630,A,1559984237374463.0,3.139389,10.707916,1.394989,154,1970-01-19 01:19:44.237374463,0.16392517,-0.12619019,-0.48025513,11.245497884331224,0.5229153041392859,25.34593391418457,-75.00701904296875,-68.87732696533203,18026729.0,50354.0,0.13976776900360002,0.045006883562999984,0.0800311722278,0.005490236735196498,0.0007045838185553302,0.0038974764006761095,18.026729773031548
1630,A,1559984287728467.0,0.8916931,12.9608,3.3343964,154,1970-01-19 01:19:44.287728467,-0.13284302,0.05076599,-0.5624237,13.412518502388751,0.5801248762336351,25.17361831665039,-75.00045776367188,-68.72357177734375,18077083.0,50354.0,0.1014905540317,0.10243806273200001,0.1190717362158,0.006074160799059749,0.003712221412869215,0.005012813925884518,18.077083776937798
1630,A,1559984338082471.0,1.8750153,12.074112,3.2927856,154,1970-01-19 01:19:44.338082471,1.0710144,0.12626648,0.093322754,12.654734290823551,1.0824621034443167,25.33042335510254,-74.93736267089844,-68.82149505615234,18127437.0,50354.0,0.06965741738680001,0.136834779424,0.16685256121400002,0.004308992476403576,0.006024172346961613,0.007198716036390076,18.12743778107688
1630,A,1559984388436475.0,-0.05079651,7.483383,3.1018066,154,1970-01-19 01:19:44.388436475,0.6023712,-0.6632843,0.39189148,8.100913873997225,0.9779448130198966,25.34747314453125,-74.97576141357422,-68.8079833984375,18177791.0,50354.0,0.045928356475830004,-0.0010701483850000507,0.1609966478194,0.002910103028539436,0.0034181461156689015,0.008254259535833914,18.17779178498313
1630,A,1559984438790479.0,-2.607483,5.9240875,6.2370605,154,1970-01-19 01:19:44.438790479,-0.67645264,0.039016724,0.048553467,8.988587429824861,0.6793142999174844,25.302364349365234,-74.97505187988281,-68.79631042480469,18228145.0,50354.0,-0.06692750322327001,-0.15590931522150006,0.2351246569767,-0.0005286955176602971,-0.003952271955220853,0.00997314609085141,18.22814578912221
1630,A,1559984489144483.0,0.6452942,8.244263,4.8703003,154,1970-01-19 01:19:44.489144483,0.64208984,0.11984253,0.17697144,9.597088205799858,0.6767277777686536,25.29513168334961,-74.97339630126953,-68.75556945800781,18278499.0,50354.0,-0.04940202741760001,-0.13675263946150004,0.2796500228616,-0.0029288285929451848,-0.007368350033053894,0.012960482114288881,18.27849979302846
1630,A,1559984539498487.0,1.5739136,7.388443,0.8614197,154,1970-01-19 01:19:44.539498487,1.1706696,-0.26045227,0.3113098,7.60317945888837,1.2390385340611296,26.09424591064453,-75.08734893798828,-69.46881866455078,18328853.0,50354.0,0.055872994780600004,-0.09988456103800004,0.14430751444,0.0001629195452982508,-0.005957814796975915,0.010673978916642384,18.32885379693471
1630,A,1559984589852490.0,0.56677246,6.25383,-0.04371643,154,1970-01-19 01:19:44.589852490,0.6810303,-0.30451965,0.11091614,6.279612393815912,0.7542127530522883,26.134763717651367,-75.10345458984375,-69.47550964355469,18379207.0,50354.0,0.05389605293262001,-0.14999769267900007,0.02058731522879,0.0027636553142757407,-0.006291285501832913,0.004151557126571126,18.379207799909636
1630,A,1559984640206494.0,0.9246521,7.945816,-0.77459717,154,1970-01-19 01:19:44.640206494,0.5077362,0.29960632,-0.1591034,8.03685101191147,0.6106340046754213,26.162166595458984,-75.08646392822266,-69.47758483886719,18429561.0,50354.0,0.03754959614712,-0.13596471265800006,-0.020602681507200002,0.0023023271068806144,-0.007199675479169653,-3.8687679152863754e-07,18.429561804048717
1630,A,1559984690560498.0,0.7528839,9.160767,0.9573364,154,1970-01-19 01:19:44.690560498,0.84947205,0.27337646,0.06669617,9.241373230095903,0.8948663764529334,26.325153350830078,-75.26262664794922,-69.59176635742188,18479915.0,50354.0,0.042235323872,-0.06277675980900005,0.004600825593710001,0.002008744931321384,-0.005003714052301662,-0.0004028787263339378,18.479915807954967
1630,A,1559984740914502.0,-2.3337097,11.136383,-0.98765564,154,1970-01-19 01:19:44.740914502,0.0821991,-0.074661255,0.37913513,11.421063477180525,0.3950625796492271,26.27094078063965,-75.27442169189453,-69.531494140625,18530269.0,50354.0,-0.0398004511666,0.01755214554999997,-0.0007633475054799993,6.13027901038558e-05,-0.0011386201131988452,9.661618582736676e-05,18.530269812094048
1630,A,1559984791268506.0,0.14883423,14.275131,2.2763062,154,1970-01-19 01:19:44.791268506,-0.0038757324,0.29901123,0.5041809,14.456247321187444,0.5861920477902778,25.81410789489746,-75.4293441772461,-69.08226776123047,18580623.0,50354.0,-0.05500860970819001,0.14631648797799998,0.03244435514912001,-0.0023870077256445883,0.004125720586334455,0.0007976327294439245,18.580623816000298
1630,A,1559984841622510.0,0.23168945,14.843597,5.3975677,154,1970-01-19 01:19:44.841622510,-0.45498657,-0.09423828,0.36058044,15.796195395592372,0.5881427428850219,24.969581604003906,-75.34324645996094,-68.28349304199219,18630977.0,50354.0,0.009580444691360001,0.239653014856,0.19320512318030003,-0.001143744910628729,0.009717554172851618,0.005681176915899809,18.630977819906548
1630,A,1559984891976514.0,2.8381958,6.9790497,7.8329315,154,1970-01-19 01:19:44.891976514,0.23756409,-1.2479858,0.3105011,10.868178596154003,1.307790574580035,25.02861976623535,-75.40638732910156,-68.33224487304688,18681331.0,50354.0,0.07729050093925001,0.05595957596589997,0.3331042783584,0.0021871497981418683,0.007442638199122976,0.01325089180253985,18.68133182404563
1630,A,1559984942330518.0,3.6372223,7.3915253,2.0035858,154,1970-01-19 01:19:44.942330518,0.36932373,0.237854,0.09460449,8.47811231219067,0.4493601588762326,25.011323928833008,-75.39761352539062,-68.2952880859375,18731685.0,50354.0,0.1630316015037,-0.13166123322500006,0.24765399606210003,0.006050589573206152,-0.0019059406248123632,0.014621751075084928,18.73168582795188
1630,A,1559984992684522.0,-0.09063721,8.884842,1.2696381,154,1970-01-19 01:19:44.992684522,-1.282074,0.34344482,-0.30812073,8.975556438114141,1.3625734732910975,24.576732635498047,-75.56086730957031,-67.93828582763672,18782039.0,50354.0,0.08929237281093,-0.08367910048790003,0.08240995813030001,0.00635276070131944,-0.005421623581889686,0.008310020174702056,18.78203983209096
1630,A,1559985043038526.0,-0.30140686,7.281006,0.6467438,154,1970-01-19 01:19:45.043038526,-1.1147919,-0.15455627,-0.19459534,7.315884909573789,1.1421540908527354,24.56785011291504,-75.5638656616211,-67.98667907714844,18832393.0,50354.0,-0.00987049355039,-0.08646164490400003,0.048248747096300004,0.0019996046541426154,-0.0042836335467318675,0.0032895942214901087,18.83239383599721
1630,A,1559985093392529.0,0.32792664,4.1735077,-0.20303345,154,1970-01-19 01:19:45.093392529,-0.5735779,0.1418457,-0.077056885,4.191291565257646,0.5958603640978339,24.54134178161621,-75.5558090209961,-67.98892974853516,18882747.0,50354.0,0.0006676885010599999,-0.20507890857510006,0.01117129548195,-0.0002316990227269814,-0.007340116514943303,0.0014960184119926004,18.882747838972136
1630,A,1559985143746533.0,1.030777,8.031982,0.15803528,154,1970-01-19 01:19:45.143746533,-0.8386841,0.96720886,-0.123046875,8.099395731891217,1.2860888507030046,24.443401336669922,-75.50927734375,-67.93109130859375,18933101.0,50354.0,0.034208081544280004,-0.18617158582310006,-0.0011329189260900002,0.0008780672624315254,-0.009850513697463486,0.0002527362065468872,18.933101843111217
1630,A,1559985194100537.0,2.1615448,11.063461,1.3111267,154,1970-01-19 01:19:45.194100537,-0.57473755,-0.03604126,-0.16850281,11.348634210528637,0.6000128505126254,25.170738220214844,-75.6004638671875,-68.66534423828125,18983455.0,50354.0,0.08037308595860002,-0.012703231589000049,0.03698909117046,0.0028848100542200107,-0.005007071277984445,0.0009027508485965036,18.983455847017467
1630,A,1559985244454541.0,2.3184967,11.622452,3.5502167,154,1970-01-19 01:19:45.244454541,-0.22610474,0.10522461,-0.28523254,12.371776592598726,0.37888411668341454,25.471866607666016,-75.45321655273438,-68.97054290771484,19033809.0,50354.0,0.11279400484550002,0.07769403160099995,0.12239404278180001,0.004863367845174827,0.0016362733719021217,0.004012789163516051,19.033809850923717
1630,A,1559985294808545.0,1.519577,13.303711,0.2615509,154,1970-01-19 01:19:45.294808545,-0.13468933,-0.54981995,-0.17857361,13.39276855260856,0.5935753761926815,25.541881561279297,-75.47419738769531,-69.04984283447266,19084163.0,50354.0,0.0966311815449,0.13409680585099995,0.0959688728652,0.0052726979177511015,0.005332257914529002,0.005497723127244519,19.084163855062798
1630,A,1559985345162549.0,1.7634583,14.574341,6.664978,154,1970-01-19 01:19:45.345162549,0.5849457,0.2199707,0.038619995,16.122752013865497,0.6261310444473904,25.54610252380371,-75.46507263183594,-69.02397918701172,19134517.0,50354.0,0.0826569797481,0.20841651520399998,0.17438921811529998,0.004513938036873862,0.008623457884201734,0.006806805656616049,19.134517858969048
1630,A,1559985395516553.0,1.471695,8.626389,3.4500885,154,1970-01-19 01:19:45.395516553,1.21492,-0.47480774,0.19673157,9.406571320634221,1.3191574231298449,25.515819549560547,-75.26799774169922,-68.93619537353516,19184871.0,50354.0,0.0814514546341,0.09065557920999998,0.2546670292705,0.00413175805244065,0.0075297381210612776,0.010802349140432287,19.18487186310813
1630,A,1559985445870557.0,-1.8629608,4.1800995,5.9594574,154,1970-01-19 01:19:45.445870557,-0.88145447,0.105545044,-0.21844482,7.513919568018522,0.9142318515457527,25.500598907470703,-75.258544921875,-68.9660415649414,19235225.0,50354.0,-0.0098508990466,-0.17104023903550006,0.2369041371243,0.0018026871880264877,-0.0020238445804266155,0.012376287256321882,19.23522586701438
1630,A,1559985496224561.0,-0.17628479,7.990738,5.9725494,154,1970-01-19 01:19:45.496224561,0.38728333,0.20915222,0.27549744,9.97769093765034,0.5192608865236923,25.455617904663086,-75.25505065917969,-68.89950561523438,19285579.0,50354.0,-0.051342086219430004,-0.18704402426250005,0.3004121352036,-0.0015406557900428375,-0.00901548749705375,0.01352801178839954,19.28557987092063
1630,A,1559985546578565.0,2.1906586,8.602585,0.57218933,154,1970-01-19 01:19:45.546578565,1.3825073,-0.22579956,0.31289673,8.895552507480623,1.4353453380612544,25.489503860473633,-75.27194213867188,-68.8630599975586,19335933.0,50354.0,0.050715889414370004,-0.07569910682900005,0.16477688700521004,-1.576575696099563e-05,-0.006615083811490698,0.01171206401215121,19.33593387505971
1630,A,1559985596932569.0,-0.1512146,5.987915,-2.1656342,154,1970-01-19 01:19:45.596932569,0.076812744,-0.02330017,0.14190674,6.369298500673978,0.16303563543062,25.47089385986328,-75.27605438232422,-68.83985137939453,19386287.0,50354.0,0.051347081588000006,-0.12612418150000004,-0.04011816149199,0.0025696394209266697,-0.005081304930259236,0.003138532732246341,19.38628787896596
1630,A,1559985647286572.0,-1.0186462,7.213272,1.7141113,154,1970-01-19 01:19:45.647286572,-0.12756348,0.34054565,-0.078308105,7.483789853780378,0.3719891671437811,25.450119018554688,-75.2590103149414,-68.824951171875,19436641.0,50354.0,-0.029453585361600004,-0.16110291490100004,-0.011367992053300002,0.0005512125544920728,-0.00723151660608798,-0.0012962668878097664,19.436641881940886
1630,A,1559985697640576.0,0.8078613,9.616562,0.9119568,154,1970-01-19 01:19:45.697640576,0.31755066,0.15260315,-0.101882935,9.693429206681603,0.3667509720512985,25.669660568237305,-75.44413757324219,-69.02235412597656,19486995.0,50354.0,-0.005306931427300002,-0.06974446938200005,0.0661165165537,-0.0008751655311941355,-0.005812044594093094,0.001378403601346571,19.486995886079967
1630,A,1559985747994580.0,-0.2796173,9.278366,-0.0064849854,154,1970-01-19 01:19:45.747994580,0.3189392,-0.12866211,-0.101135254,9.282580649768196,0.3584752312893272,25.71390724182129,-75.44773864746094,-69.05160522460938,19537349.0,50354.0,0.013299599188,-0.017751597744000033,0.0227970638761842,0.00020123139621114385,-0.0022028884820313043,0.002238577214483195,19.537349889986217
1630,A,1559985798348584.0,-2.2568817,13.227356,5.0423737,154,1970-01-19 01:19:45.798348584,-0.4729309,0.53045654,0.41174316,14.334643151783812,0.8213283185245515,25.574615478515625,-75.43275451660156,-68.93211364746094,19587703.0,50354.0,-0.06386143532300001,0.07315736279399998,0.12678857016748418,-0.0012729953483708954,0.0013949509466638487,0.0037661175083174387,19.587703894125298
1630,A,1559985848702588.0,1.7362671,16.134933,3.8999329,154,1970-01-19 01:19:45.848702588,-0.61756897,0.52586365,0.3347473,16.69012171859552,0.877484909246577,25.402158737182617,-75.41004180908203,-68.78844451904297,19638057.0,50354.0,-0.013107513784200001,0.24578515015299998,0.2251404532682,-0.0019378472316719747,0.008030015648466619,0.008860517023040223,19.638057898031548
1630,A,1559985899056592.0,4.34494,9.070908,5.000183,154,1970-01-19 01:19:45.899056592,0.20132446,-0.97940063,-0.09260559,11.232172789872536,1.0041578200352455,25.50929069519043,-75.45226287841797,-68.88873291015625,19688411.0,50354.0,0.15310655115670002,0.14113825885699996,0.2240782180143,0.003524755763927433,0.00974157066864477,0.011309978486879504,19.688411901937798
1630,A,1559985949410596.0,2.6894531,5.5657196,2.8789063,154,1970-01-19 01:19:45.949410596,0.19015503,-0.11454773,0.19308472,6.818980431641043,0.2942139136409633,25.494693756103516,-75.4615478515625,-68.86380767822266,19738765.0,50354.0,0.17710491507870002,-0.12496282691480005,0.19837183130610003,0.008313734085408668,0.00040724885000876707,0.010636024891739712,19.73876590607688
1630,A,1559985999764600.0,0.4884491,7.4212036,2.451889,154,1970-01-19 01:19:45.999764600,-0.45739746,0.35203552,-0.182724,7.831002813450189,0.6054168018250914,25.030004501342773,-75.3530044555664,-68.43643188476562,19789119.0,50354.0,0.08001004368940001,-0.16649743459360003,0.1342134332681,0.006473383316904455,-0.00733809500399699,0.008373499206184635,19.78911990998313
1630,A,1559986050118604.0,-0.11973572,8.259628,1.6502838,154,1970-01-19 01:19:46.050118604,-0.65182495,-0.011627197,-0.10964966,8.423730050373786,0.6610854748749929,24.470699310302734,-75.46805572509766,-67.92801666259766,19839473.0,50354.0,0.009283096768260002,-0.09867290280680005,0.1032804045856,0.0022481333973025062,-0.006676193584729873,0.005979382355642606,19.83947391412221
1630,A,1559986100472608.0,1.0176697,5.995117,0.5649872,154,1970-01-19 01:19:46.100472608,-0.51820374,-0.4719391,-0.06324768,6.107068854872272,0.7037484630776681,25.14813232421875,-75.62760925292969,-68.61227416992188,19889827.0,50354.0,0.02260728381446,-0.13457748513500006,0.055773877967,0.0008029041119311414,-0.0058725450172107015,0.004004509671826811,19.88982791802846
1630,A,1559986150826612.0,0.8795624,6.9978027,-0.41542053,154,1970-01-19 01:19:46.150826612,-0.4003296,0.28936768,-0.08995056,7.065086472249758,0.502084202210203,25.120018005371094,-75.61257934570312,-68.60389709472656,19940181.0,50354.0,0.0477666125817,-0.16634646071310005,0.0037656400505900007,0.0017718035895661205,-0.007576362184617617,0.0014990264451288635,19.94018192193471
1630,A,1559986201180615.0,1.3479004,9.577515,-0.6631775,154,1970-01-19 01:19:46.201180615,-0.34353638,-0.12916565,-0.026763916,9.694608473788481,0.36799091934867356,25.118270874023438,-75.61787414550781,-68.61982727050781,19990535.0,50354.0,0.056080830915600004,-0.07615242626710003,-0.02715586260131,0.0026145670849315223,-0.006105394477500498,-0.0005888956331594775,19.990535924909636
1630,A,1559986251534619.0,-0.5877991,9.014481,1.4128265,154,1970-01-19 01:19:46.251534619,-0.8972931,0.011749268,-0.04399109,9.143437767077767,0.8984476437753809,25.080209732055664,-75.61639404296875,-68.62684631347656,20040889.0,50354.0,0.019137070430100003,-0.025378516708000037,0.018873912873000002,0.001893761102180689,-0.0025562445512840944,-0.00020851464830966087,20.040889929048717
1630,A,1559986301888623.0,3.5485687,13.658325,1.1832275,154,1970-01-19 01:19:46.301888623,-0.21380615,-0.2515564,-0.7288513,14.161292629594268,0.8001361819530927,25.218969345092773,-75.6122817993164,-68.78113555908203,20091243.0,50354.0,0.0745432962192,0.07736403666199995,0.065360851558,0.0023585905911294265,0.001308839435881856,0.002120778664079287,20.091243932954967
1630,A,1559986352242627.0,2.6200256,13.514923,4.1847076,154,1970-01-19 01:19:46.352242627,-0.17932129,0.6211395,-0.5419769,14.388518184235723,0.8436286882516052,25.48599624633789,-75.43409729003906,-69.05117797851562,20141597.0,50354.0,0.15530669869110003,0.1906716648959999,0.1351485020127,0.005786933321856624,0.006748334858125762,0.0050482239948495145,20.141597937094048
1630,A,1559986402596631.0,-0.28851318,8.9782715,2.7148438,154,1970-01-19 01:19:46.402596631,1.6071167,0.39360046,0.08018494,9.38418754294395,1.656555170869327,24.65372085571289,-75.41740417480469,-68.16487121582031,20191951.0,50354.0,0.058700488198340006,0.07284195792649996,0.1737100055978,0.0053880589443154325,0.006634482481802079,0.00777613064610956,20.191951941000298
1630,A,1559986452950635.0,-2.8549042,7.3340454,7.3291626,154,1970-01-19 01:19:46.452950635,-0.26252747,-0.39797974,0.10932922,10.75431654442427,0.489143562056046,24.65340232849121,-75.437744140625,-68.1781005859375,20242305.0,50354.0,-0.07914181937626,-0.08277399740870005,0.25287794913280004,-0.0005146513950664916,-0.0002500589580433517,0.010740204936252318,20.242305944906548
1630,A,1559986503304639.0,-0.8723602,8.046158,4.711197,154,1970-01-19 01:19:46.503304639,0.39007568,0.19592285,0.33920288,9.364670205208354,0.5528140673679346,24.597864151000977,-75.43592834472656,-68.10057830810547,20292659.0,50354.0,-0.09384133579880001,-0.10624181899820004,0.3031401336492,-0.0043551968978424865,-0.004758851209676523,0.013998867270202416,20.29265994904563
1630,A,1559986553658643.0,2.5722046,8.818985,1.2783356,154,1970-01-19 01:19:46.553658643,0.8271332,-0.4434662,0.37527466,9.27495956005812,1.0107634102611727,24.609054565429688,-75.46389770507812,-68.06939697265625,20343013.0,50354.0,0.0427969824588,-0.06885549468900004,0.15079846227020002,-0.0012851436840411803,-0.004408425066702637,0.011428812029462734,20.34301395295188
1630,A,1559986604012647.0,1.2432404,4.36467,-0.87246704,154,1970-01-19 01:19:46.604012647,0.84698486,-0.5958252,0.24494934,4.621383952559939,1.064138713322044,24.656360626220703,-75.4960708618164,-68.07453155517578,20393367.0,50354.0,0.09606145876500001,-0.16154431806500005,0.010218552735119998,0.003496038974691613,-0.005800776085707461,0.004053925386788942,20.39336795709096
1630,A,1559986654366651.0,-0.68074036,5.5364227,0.69355774,154,1970-01-19 01:19:46.654366651,0.17857361,0.6855774,-0.102127075,5.621068055941159,0.715775694632926,24.628023147583008,-75.46280670166016,-68.0360336303711,20443721.0,50354.0,0.014162063507079997,-0.24418938909210006,-0.004504399446099999,0.0027750976202441584,-0.01021515754509431,0.00014386523735765653,20.44372196099721
1630,A,1559986704720654.0,-0.63720703,9.389145,0.069122314,154,1970-01-19 01:19:46.704720654,0.61909485,0.3022766,-0.032836914,9.410996468196082,0.6897302654843601,24.64043617248535,-75.4483642578125,-68.0168685913086,20494075.0,50354.0,-0.033181961438030004,-0.11768818201710006,0.019201995719558003,-0.0004788639702075283,-0.00911099160781633,0.0003700413813768522,20.494075963972136
1630,A,1559986755074658.0,0.17530823,9.348953,2.0242615,154,1970-01-19 01:19:46.755074658,0.30543518,0.14517212,0.08174133,9.567198638687135,0.34791843675938716,24.219797134399414,-75.51754760742188,-67.59319305419922,20544429.0,50354.0,-0.011629226087600001,-0.021700106654000063,0.052705124285078,-0.0011282112683327868,-0.0035093789438722877,0.0018104055603567208,20.544429968111217
1630,A,1559986805428662.0,-3.0236816,12.928482,-0.44641113,154,1970-01-19 01:19:46.805428662,-0.7742462,-0.061904907,0.5598755,13.284862819746783,0.9574706111549162,24.0870304107666,-75.53180694580078,-67.49605560302734,20594783.0,50354.0,-0.07171349633649,0.06740978099499999,0.03972553876549001,-0.002098319722471314,0.0011508324708833552,0.0023271268036241513,20.594783972017467
1630,A,1559986855782666.0,1.0124207,17.76329,1.8207397,154,1970-01-19 01:19:46.855782666,-0.2533722,1.1116943,0.46652222,17.885037331608917,1.231951569721415,23.960693359375,-75.6850357055664,-67.37494659423828,20645137.0,50354.0,-0.0506375156793,0.2792575436440001,0.03460147040689,-0.0030804314295215453,0.008728043232436105,0.0018713311099330116,20.645137975923717
1630,A,1559986906136670.0,1.9373474,11.0147705,6.2298737,154,1970-01-19 01:19:46.906136670,-0.6101532,-0.050598145,0.08421326,12.801945572213182,0.618012113884112,23.919118881225586,-75.68904876708984,-67.36353302001953,20695491.0,50354.0,0.07426631145370001,0.23107602920849996,0.2026902935718,0.0005949021912120691,0.012848668363707395,0.005974294741691479,20.695491980062798
1630,A,1559986956490674.0,3.0036926,4.9407196,7.6486206,154,1970-01-19 01:19:46.956490674,0.38272095,-1.1513519,0.057250977,9.588236359407464,1.2146457086615698,24.01984977722168,-75.74283599853516,-67.44773864746094,20745845.0,50354.0,0.12440056408000001,-0.09175782575230006,0.34941885099110004,0.0050018359253119656,0.003507614408416745,0.013900451932660136,20.745845983969048
1630,A,1559987006844678.0,2.4482574,7.291046,2.2213898,154,1970-01-19 01:19:47.006844678,0.35523987,0.39083862,0.013641357,8.005491160092228,0.5283334919744562,24.003896713256836,-75.72529602050781,-67.41295623779297,20796199.0,50354.0,0.13726374515,-0.18551003748880004,0.24849725184080002,0.006587922313483711,-0.006980772992821177,0.015053733720998747,20.79619998810813
1630,A,1559987057198682.0,-1.0055084,8.631409,1.7790375,154,1970-01-19 01:19:47.057198682,-1.0753326,-0.27815247,-0.44648743,8.870019328849166,1.1971048501855908,24.052528381347656,-75.72884368896484,-67.51858520507812,20846553.0,50354.0,0.036324091573000004,-0.09258955046500006,0.1007187581321,0.004370420965174972,-0.007001713325912825,0.008792211483087705,20.84655399201438
1630,A,1559987107552686.0,-0.7840271,6.1581573,0.029159546,154,1970-01-19 01:19:47.107552686,-0.68377686,-0.6579132,-0.34846497,6.207934447479341,1.0108552855492228,24.133785247802734,-75.7518081665039,-67.6377182006836,20896907.0,50354.0,-0.045055135283500004,-0.12111228926490004,0.045524977027142005,-0.0002198214874992585,-0.005380371218879695,0.003681978520104236,20.89690799592063
1630,A,1559987157906690.0,-0.30291748,5.4621124,-0.72779846,154,1970-01-19 01:19:47.157906690,-0.6108856,0.56988525,-0.15252686,5.518706503185477,0.8492436973427487,24.0848331451416,-75.72268676757812,-67.61873626708984,20947262.0,50355.0,-0.027366547162949995,-0.20090965962825003,-0.017589981257234998,-0.001823396909795495,-0.008107707618257284,0.0007033333559968336,20.94726200005971
1630,A,1559987208260694.0,0.28034973,9.632217,0.7993164,154,1970-01-19 01:19:47.208260694,-1.094696,0.3591919,-0.22181702,9.669390208979522,1.1732778629989105,23.99803924560547,-75.93246459960938,-67.58831024169922,20997616.0,50354.0,-0.00056818824175,-0.11343926869620004,0.00180060717538,-0.0007033128332841318,-0.00791436296842468,-0.00039752907125886327,20.99761600396596
1630,A,1559987258614697.0,3.6695251,11.03894,0.08872986,154,1970-01-19 01:19:47.258614697,-0.54019165,-0.41256714,-0.27970886,11.633206083070377,0.7350208909275993,24.05555534362793,-75.9455795288086,-67.67544555664062,21047970.0,50354.0,0.09944599859491,0.026968519788999987,0.022358340688020003,0.0024894466312615094,-0.002177074045236576,0.000608249830356822,21.047970006940886
1630,A,1559987308968701.0,3.3866882,10.634644,3.7299805,154,1970-01-19 01:19:47.308968701,-0.38174438,0.008392334,-0.307312,11.767670308992153,0.4901427019507196,24.091821670532227,-75.93896484375,-67.73250579833984,21098324.0,50354.0,0.1776542822541,0.052206624367999964,0.09614367073372,0.006976553770935525,0.001993392604440788,0.0029835251415651484,21.098324011079967
1630,A,1559987359322705.0,1.0993195,13.908066,2.4981842,154,1970-01-19 01:19:47.359322705,0.21179199,0.42729187,-0.19348145,14.173345671384928,0.514654506140148,24.096099853515625,-75.98942565917969,-67.72640991210938,21148678.0,50354.0,0.1129442158629,0.12444260966999995,0.1568065026519,0.007316398387091709,0.0044474977653747244,0.006368526515329755,21.148678014986217
1630,A,1559987409676709.0,1.5541382,11.093552,5.7795258,154,1970-01-19 01:19:47.409676709,1.1506348,0.0019989014,-0.10610962,12.604965687944926,1.1555187969195444,24.172863006591797,-75.98712921142578,-67.74620819091797,21199032.0,50354.0,0.06680610451289999,0.13599653638599998,0.20840790466999998,0.004525573816101517,0.006557076380251911,0.009195003133143476,21.199032019125298
1630,A,1559987460030713.0,-1.5496521,6.3355255,3.6582947,154,1970-01-19 01:19:47.460030713,0.40596008,-0.7298889,0.27313232,7.478196647871247,0.8787164827891865,24.203195571899414,-76.02605438232422,-67.7565689086914,21249386.0,50354.0,0.00011294653969999563,-0.054657315782500014,0.23761600672850003,0.0016848209483513099,0.0020478775571343187,0.011229544017280036,21.249386023031548
1630,A,1559987510384717.0,-0.90823364,5.7217407,7.989273,154,1970-01-19 01:19:47.510384717,-0.07795715,0.8592682,-0.14677429,9.868722716308993,0.8751924639599947,24.155550003051758,-75.98384094238281,-67.71148681640625,21299740.0,50354.0,-0.06188218927598001,-0.18990340888260004,0.2932508119829,-0.001555164224371322,-0.006157305364893225,0.01336563389469692,21.299740026937798
1630,A,1559987560738721.0,1.0757294,9.629196,1.9320831,154,1970-01-19 01:19:47.560738721,0.7817993,0.022567749,0.36541748,9.879855993573287,0.8632782769564906,24.240436553955078,-76.01850128173828,-67.75177001953125,21350094.0,50354.0,0.00421704074952,-0.10697866670410004,0.24978998252970003,-0.0014518354444506838,-0.007474600017046349,0.013672138083443731,21.35009403107688
1630,A,1559987611092725.0,1.1414337,6.884308,-0.3761902,154,1970-01-19 01:19:47.611092725,0.63041687,-0.13827515,0.35882568,6.988425187188866,0.7384452015658182,24.217615127563477,-76.03213500976562,-67.69575500488281,21400448.0,50354.0,0.0558215153687,-0.07770870979200004,0.039172715543300006,0.001511590727388425,-0.004649874078042311,0.007275213849383922,21.40044803498313
1630,A,1559987661446729.0,-0.16409302,5.7095795,-0.06248474,154,1970-01-19 01:19:47.661446729,0.22711182,0.36444092,0.11729431,5.712278785980762,0.4451459514726995,24.177461624145508,-76.01793670654297,-67.64269256591797,21450802.0,50354.0,0.024606506300360004,-0.17639289441250006,-0.01104451896438,0.002024936301561924,-0.0063975160890567,0.0007081836052674691,21.45080203912221
1630,A,1559987711800733.0,0.39993286,8.54982,1.3575745,154,1970-01-19 01:19:47.711800733,0.5096588,0.37495422,-0.0069122314,8.666162752219579,0.6327642044681222,24.041555404663086,-76.1171646118164,-67.48426818847656,21501156.0,50354.0,0.00593773965168,-0.13446029878850002,0.03260647488752,0.0007690124803345112,-0.00782635084522158,0.0005428653642768958,21.50115604302846
1630,A,1559987762154737.0,-0.757843,10.312897,1.0879974,154,1970-01-19 01:19:47.762154737,0.61428833,0.09036255,0.047714233,10.397783845015471,0.6227296290104316,24.055997848510742,-76.11402130126953,-67.46752166748047,21551510.0,50354.0,-0.00901110359478,-0.01856257409100004,0.061572163726300005,-7.737808399542873e-05,-0.003852656870487173,0.002371135584380146,21.55151004693471
1630,A,1559987812508740.0,-1.5935822,9.870529,0.9025116,154,1970-01-19 01:19:47.812508740,0.28819275,-0.043426514,0.002822876,10.03899268632727,0.2914599318940188,24.073471069335938,-76.11608123779297,-67.47067260742188,21601864.0,50354.0,-0.0592018322604,0.01468891640199994,0.050115045093,-0.0017173970860258668,-9.752707963595551e-05,0.0028119488564435162,21.601864049909636
1630,A,1559987862862744.0,-1.4531708,12.953201,0.513916,154,1970-01-19 01:19:47.862862744,-0.24902344,0.16456604,0.3406372,13.044586278430973,0.45291098155659154,23.98452377319336,-76.11548614501953,-67.39187622070312,21652218.0,50354.0,-0.076708100281,0.08116385020999996,0.035661397685200005,-0.003421804371594828,0.002413285104990322,0.0021595934998267416,21.652218054048717
1630,A,1559987913216748.0,1.7917328,14.619659,2.8310547,154,1970-01-19 01:19:47.913216748,-0.14682007,-0.29048157,0.29330444,14.998653486805706,0.43813601767965094,24.140907287597656,-76.16240692138672,-67.54904174804688,21702572.0,50354.0,0.008523975473999995,0.20073269622000003,0.08421632731390001,-0.0017166717102658393,0.00709730934946811,0.0030181614823023414,21.702572057954967
1630,A,1559987963570752.0,3.3383484,6.8700104,7.220001,154,1970-01-19 01:19:47.963570752,0.17524719,-1.0693512,0.14909363,10.510472271781689,1.0938247012437199,24.211057662963867,-76.21419525146484,-67.61222076416016,21752926.0,50354.0,0.12916005437240002,0.047576206483799975,0.2530554293589,0.0034664708194428137,0.006251673243373573,0.008491491017751086,21.752926062094048
1630,A,1559988013924756.0,4.5134583,7.440323,4.6734467,154,1970-01-19 01:19:48.013924756,0.6535034,0.10572815,0.08673096,9.87779409726224,0.6676581422678106,24.218793869018555,-76.21118927001953,-67.5865707397461,21803280.0,50354.0,0.1976849372859,-0.13317793598820005,0.2994413327429,0.008228976354981021,-0.0021551947437322807,0.013910210979437019,21.803280066000298
1630,A,1559988064278760.0,-1.0578308,9.167053,1.2918701,154,1970-01-19 01:19:48.064278760,-1.282547,-0.08181763,-0.47122192,9.317875029292443,1.3688210363945696,24.24903106689453,-76.20521545410156,-67.6837158203125,21853634.0,50354.0,0.0870023335675,-0.07534529444800005,0.1501887810736,0.007167571418276053,-0.00524998937269221,0.011320337375558022,21.853634069906548
1630,A,1559988114632764.0,-0.8125305,7.011978,0.5277405,154,1970-01-19 01:19:48.114632764,-1.1563721,-0.36528015,-0.31240845,7.078598118360337,1.2522879306588541,24.27981185913086,-76.2154541015625,-67.77495574951172,21903988.0,50354.0,-0.04709008645010001,-0.08612973651300006,0.0458123360762,0.0010048706456747799,-0.0040654568545051,0.004934720126480515,21.90398807404563
1630,A,1559988164986768.0,0.3010559,4.0805817,-0.16809082,154,1970-01-19 01:19:48.164986768,-0.753952,0.29013062,-0.31300354,4.095123464447436,0.8663663261104485,24.27591323852539,-76.19578552246094,-67.80974578857422,21954342.0,50354.0,-0.012877396004200004,-0.2141918244331001,0.00905489999336,-0.0015098013057519117,-0.007561195939939963,0.0013813924025233122,21.95434207795188
1630,A,1559988215340772.0,1.0349731,7.4402924,1.2939606,154,1970-01-19 01:19:48.215340772,-0.9641113,0.5313721,-0.25621033,7.622562190600594,1.13027016268006,24.555070877075195,-76.20681762695312,-68.12784576416016,22004696.0,50354.0,0.033637202133,-0.20340815278430005,0.02834602345106,0.0005226696389047975,-0.010513914626402485,0.0009416430495601624,22.00469608209096
1630,A,1559988265694776.0,1.7333527,10.464462,0.6178436,154,1970-01-19 01:19:48.265694776,-0.66770935,-0.08265686,-0.09843445,10.625027399781247,0.6799685827516478,25.302427291870117,-76.37583923339844,-68.88782501220703,22055050.0,50354.0,0.0696981386666,-0.04268119847120009,0.0481334943434,0.002601673875311529,-0.006195791596559727,0.0019255248195111194,22.05505008599721
1630,A,1559988316048779.0,2.7216034,10.998871,0.8078613,154,1970-01-19 01:19:48.316048779,-0.33529663,0.169693,-0.31822205,11.359354216748866,0.4924274742990681,25.330001831054688,-76.36134338378906,-68.93343353271484,22105404.0,50354.0,0.11216242972969999,0.04691313494099993,0.0358949722673,0.004578703530513645,0.00010654746450015067,0.002115584703857594,22.105404088972136
1630,A,1559988366402783.0,3.2020264,15.392944,0.9824829,154,1970-01-19 01:19:48.366402783,0.47180176,0.33067322,-0.55441284,15.753125743871449,0.7995719331749531,25.427522659301758,-76.33454895019531,-69.009521484375,22155758.0,50354.0,0.1491392274746,0.17099752625499992,0.0450754959234,0.006578791823432661,0.005486336716931689,0.002038593477637254,22.155758093111217
1630,A,1559988416756787.0,1.0263824,13.899261,7.3974304,154,1970-01-19 01:19:48.416756787,0.29237366,-0.7068176,-0.3835907,15.778621413165185,0.8556957998366275,25.576032638549805,-76.3581771850586,-69.14730072021484,22206112.0,50354.0,0.1064586483576,0.24402064528499995,0.21098107715410003,0.0064351877198272995,0.010448912504862577,0.006446736340372218,22.206112097017467
1630,A,1559988467110791.0,-0.88552856,6.3661804,4.1853027,154,1970-01-19 01:19:48.467110791,0.61068726,-0.7101135,-0.017669678,7.6700177579029845,0.9367562809659625,25.673208236694336,-76.38980865478516,-69.21587371826172,22256466.0,50354.0,0.0035462771296799977,0.016753818127799972,0.29161847125870005,0.0027695940089932486,0.006565518665344064,0.012653948830389068,22.256466100923717
1630,A,1559988517464795.0,-0.6200104,4.597351,6.8124237,154,1970-01-19 01:19:48.517464795,-0.2103424,0.3262024,-0.15776062,8.241915176803923,0.41897535038031103,25.662874221801758,-76.37171173095703,-69.216064453125,22306820.0,50354.0,-0.03790495439592,-0.21744036994220003,0.27688975757280004,-0.0008650484175321246,-0.005052685315031151,0.014313331677290679,22.306820105062798
1630,A,1559988567818799.0,1.5914764,8.64505,4.3947144,154,1970-01-19 01:19:48.567818799,0.51501465,0.39492798,0.21469116,9.827675274032222,0.6835938072303235,25.613502502441406,-76.35852813720703,-69.13875579833984,22357174.0,50354.0,0.024458599482,-0.16006527002300006,0.2821621159437,-0.0003385388776677639,-0.009504459497403844,0.014075249019524921,22.357174108969048
1630,A,1559988618172803.0,2.4343872,8.332703,0.5338898,154,1970-01-19 01:19:48.618172803,0.7827301,-0.0056915283,0.31695557,8.697425978085521,0.8444877952311831,25.594270706176758,-76.36566162109375,-69.0787124633789,22407528.0,50354.0,0.1013591678572,-0.06602031271900004,0.1240874679434,0.0031677139282990387,-0.005692156716695336,0.010228145773525517,22.40752811310813
1630,A,1559988668526807.0,0.04156494,5.9288025,-0.9771118,154,1970-01-19 01:19:48.668526807,0.46702576,-0.49162292,0.39535522,6.008924545868645,0.784927962270521,25.587854385375977,-76.39635467529297,-69.04808044433594,22457882.0,50354.0,0.06233704702878001,-0.13440727602650004,-0.011159000294,0.0041213796021843194,-0.005046165401845456,0.0028432000300089443,22.45788211701438
1630,A,1559988718880811.0,-0.6191101,7.0270996,0.7754364,154,1970-01-19 01:19:48.718880811,0.39144897,0.7717285,0.04486084,7.096811094758485,0.8664927401841384,25.530370712280273,-76.36251068115234,-68.96878051757812,22508236.0,50354.0,-0.01454085449332,-0.16727845282830006,-0.005077581545799999,0.0012033647394652767,-0.007595541595377303,-0.00040878842098064465,22.50823612092063
1630,A,1559988769234815.0,0.9637909,9.746246,0.02104187,154,1970-01-19 01:19:48.769234815,0.66677856,0.3659668,0.057510376,9.793806550659038,0.7627796471626489,25.520566940307617,-76.34725189208984,-68.92440032958984,22558590.0,50354.0,0.0086780285016,-0.07116667782880007,0.020052933403790003,-0.00014760836999353445,-0.006003333054553811,0.0003770344337286143,22.55859012505971
1630,A,1559988819588819.0,-0.1343689,10.085342,2.2155304,154,1970-01-19 01:19:48.819588819,0.28953552,0.2967682,0.39137268,10.326700983933609,0.570153274587889,24.800533294677734,-76.40970611572266,-68.20484924316406,22608944.0,50354.0,0.020882357694,0.005830691075999965,0.05631018004179,0.0007442418432466213,-0.0016449641384752483,0.0019225941072193678,22.60894412896596
1630,A,1559988869942822.0,-1.2917328,14.277298,0.86802673,154,1970-01-19 01:19:48.869942822,-0.2840271,0.032424927,0.6904297,14.361869036145482,0.7472723332677688,24.653762817382812,-76.4227066040039,-68.06847381591797,22659298.0,50354.0,-0.0359049625009,0.11990898727999999,0.07763471786201001,-0.00037822412122332134,0.003165747881969011,0.0033723306945239733,22.659298131940886
1630,A,1559988920296826.0,1.6728821,14.8741,2.8031158,154,1970-01-19 01:19:48.920296826,-0.083221436,0.40904236,0.2596283,15.228093889870461,0.4915773732030001,24.706172943115234,-76.44119262695312,-68.11868286132812,22709652.0,50354.0,0.009596195926100004,0.240475547446,0.09242835547781,-0.0006623758160537395,0.009073401430796501,0.004281677997476648,22.709652136079967
1630,A,1559988970650830.0,1.3664093,9.161987,7.053711,154,1970-01-19 01:19:48.970650830,-0.39239502,-0.41978455,0.16333008,11.643191960747554,0.5973856670295239,24.692163467407227,-76.46370697021484,-68.12446594238281,22760006.0,50354.0,0.07652023957779999,0.11168736239899997,0.24816532834360003,0.0021681534966816905,0.008866405581167565,0.008575127177571642,22.760006139986217
1630,A,1559989021004834.0,4.6249237,5.649887,4.6063843,154,1970-01-19 01:19:49.021004834,0.42739868,-0.656662,-0.02758789,8.633071218452747,0.7839870570260675,24.775861740112305,-76.4929428100586,-68.1885757446289,22810360.0,50354.0,0.150843790941,-0.12055064830200006,0.2935662193681,0.005724344196371828,-0.00022315094917983329,0.013639175176737474,22.810360144125298
1630,A,1559989071358838.0,1.5088806,8.859772,1.8516083,154,1970-01-19 01:19:49.071358838,-0.7182007,0.33285522,-0.09954834,9.176095784900529,0.7978187231185377,25.125526428222656,-76.44734954833984,-68.56288146972656,22860714.0,50354.0,0.1544307908611,-0.12815951535700007,0.16259287969020003,0.007685898146031472,-0.006261775790442646,0.011484717636990821,22.860714148031548
1630,A,1559989121712842.0,-0.36701965,8.2139435,1.6116791,154,1970-01-19 01:19:49.121712842,-0.8700714,-0.4689331,-0.2593994,8.378608522067083,1.0218662055738656,24.424116134643555,-76.57462310791016,-67.9281997680664,22911068.0,50354.0,0.028748633138149998,-0.06360426485650007,0.0871951868698,0.004611908358029117,-0.004828036694435294,0.006288914151781121,22.911068151937798
1630,A,1559989172066846.0,0.12834167,5.112198,0.068984985,154,1970-01-19 01:19:49.172066846,-0.653183,-0.36009216,-0.21844482,5.114274034857522,0.777195300144885,24.464345932006836,-76.58647155761719,-68.00312042236328,22961422.0,50354.0,-0.00600919550246,-0.15795693545450007,0.042314079668045,0.0005725108213537672,-0.005578246340230051,0.0032606548036233237,22.96142215607688
1630,A,1559989222420850.0,0.6238556,5.8069916,0.44889832,154,1970-01-19 01:19:49.222420850,-0.9147644,0.29719543,-0.16696167,5.857632367588525,0.976214746031545,24.831676483154297,-76.73999786376953,-68.40538024902344,23011776.0,50354.0,0.01893807066679,-0.21855676344080008,0.013038747969985002,0.00032551029001233646,-0.009479485397086974,0.0013936181414426812,23.01177615998313
1630,A,1559989272774854.0,1.3424377,9.116669,1.1488953,154,1970-01-19 01:19:49.272774854,-0.73812866,0.05317688,-0.09320068,9.286320748515225,0.7458874352289308,25.30561065673828,-76.81652069091797,-68.90338897705078,23062130.0,50354.0,0.049505366414100006,-0.11773619707380005,0.04022764997074,0.001723200415385568,-0.008466847866876088,0.0013410881009536335,23.06213016412221
1630,A,1559989323128858.0,2.4982758,11.78891,1.7462921,154,1970-01-19 01:19:49.323128858,-0.4889679,-0.10321045,-0.3688507,12.17658889260404,0.621122244900392,26.14220428466797,-76.82499694824219,-69.74602508544922,23112484.0,50354.0,0.0966976437895,0.03287056248299995,0.0728921331698,0.003680953187896038,-0.002136662082092574,0.0028480167801293757,23.11248416802846
1630,A,1559989373482862.0,2.9167786,14.794617,1.2123871,154,1970-01-19 01:19:49.373482862,-0.29681396,-0.20202637,-0.7134247,15.128059097529775,0.7986788989301948,27.156091690063477,-76.9168472290039,-70.7562026977539,23162838.0,50354.0,0.13633482462880003,0.17582425927899997,0.0744906662184,0.005867058457367541,0.0052543095275018725,0.0037106567401967118,23.16283817193471
1630,A,1559989423836865.0,2.63562,13.034882,3.9069214,154,1970-01-19 01:19:49.423836865,0.24368286,0.47912598,-0.20643616,13.860688163439143,0.5758115395893744,27.413618087768555,-76.72457122802734,-70.99465942382812,23213192.0,50354.0,0.1397927395522,0.20719409632300004,0.1288888301045,0.006952063683385038,0.009643253138991555,0.005120485578921654,23.213192174909636
1630,A,1559989474190869.0,0.42352295,8.719177,5.562546,154,1970-01-19 01:19:49.474190869,1.1500549,0.54467773,0.48171997,10.351103189932061,1.3606447854119619,27.32748031616211,-76.71147918701172,-70.84707641601562,23263546.0,50354.0,0.07702004205215,0.05423274344299996,0.2384127807298,0.005458695402452721,0.006581943544788583,0.009247552655975173,23.263546179048717
1630,A,1559989524544873.0,-0.8127136,6.4031982,6.103119,154,1970-01-19 01:19:49.524544873,0.07827759,-0.37193298,0.33299255,8.883102617456876,0.5053172875168541,27.304880142211914,-76.73565673828125,-70.8198471069336,23313900.0,50354.0,-0.00979865299505,-0.11273315958960003,0.29370644770500004,0.0016924329122906068,-0.0014728649773229502,0.01339716581430296,23.313900182954967
1630,A,1559989574898877.0,-0.2914734,7.1507874,3.5601196,154,1970-01-19 01:19:49.574898877,0.29438782,0.07972717,0.44396973,7.993320258141198,0.538636919786264,27.228126525878906,-76.74227905273438,-70.72586822509766,23364254.0,50354.0,-0.027800116099000002,-0.15222050454880004,0.2432913582322,-0.0009466242094808969,-0.006670738402012499,0.013519993760080886,23.364254187094048
1630,A,1559989625252881.0,1.119278,7.789139,0.79522705,154,1970-01-19 01:19:49.625252881,0.70072937,-0.61935425,0.47650146,7.909225983853078,1.0496070590253246,27.73734474182129,-76.88883209228516,-71.18594360351562,23414608.0,50354.0,0.0208416364142,-0.11732667302720007,0.10965456260705002,-0.00017519364302420965,-0.006786389289830955,0.008886119448969798,23.414608191000298
1630,A,1559989675606885.0,0.44007874,5.5168,-0.48999023,154,1970-01-19 01:19:49.675606885,0.7992401,-0.075912476,0.17544556,5.555973538714475,0.8217837829892813,27.751567840576172,-76.89630126953125,-71.15953826904297,23464962.0,50354.0,0.039259924642980004,-0.15846557379700005,0.007684947417140001,0.0015131770027366211,-0.006943621398292887,0.0029542568438790323,23.464962194906548
1630,A,1559989725960889.0,-0.032043457,7.067581,0.13067627,154,1970-01-19 01:19:49.725960889,0.35861206,0.74864197,-0.19543457,7.068861595917593,0.8527966228673806,27.731834411621094,-76.85860443115234,-71.120849609375,23515316.0,50354.0,0.010273104320091,-0.17663223956300006,-0.009046447570920001,0.0012470930702032387,-0.008436757646964723,-3.427848937171908e-05,23.51531619904563
1630,A,1559989776314893.0,0.5752411,9.652267,1.6647339,154,1970-01-19 01:19:49.776314893,0.65586853,0.50216675,-0.19625854,9.81165121272803,0.8490302632844455,27.58072853088379,-76.90455627441406,-70.9410629272461,23565670.0,50354.0,0.013676087057810999,-0.07251358690400005,0.045203041850090005,0.0006029687913214387,-0.006272744472959662,0.0009103145741666633,23.56567020295188
1630,A,1559989826668897.0,-0.97546387,11.448654,0.16065979,154,1970-01-19 01:19:49.826668897,0.42547607,0.08299255,0.14837646,11.491258405479975,0.4581847044372815,27.565486907958984,-76.90435028076172,-70.90357971191406,23616024.0,50354.0,-0.010076408680290002,0.03778868801699996,0.04595793693313,9.062910251084615e-05,-0.0008742687792780013,0.00229515996282513,23.61602420709096
1630,A,1559989877022901.0,-2.8881836,14.700577,0.80474854,154,1970-01-19 01:19:49.877022901,-0.28834534,0.10542297,0.6286926,15.003205952491289,0.6996509293912905,27.420690536499023,-76.91419219970703,-70.76972198486328,23666378.0,50354.0,-0.09727505235219001,0.1648899888869999,0.02430608552441,-0.0027027877344147494,0.005102841048412006,0.0017690372934134847,23.66637821099721
1630,A,1559989927376904.0,0.98742676,14.483734,5.111023,154,1970-01-19 01:19:49.927376904,-0.31832886,0.12294006,0.33551025,15.390780301714695,0.47855475059471064,26.728797912597656,-76.76824951171875,-70.10748291015625,23716732.0,50354.0,-0.047855354960680004,0.2413041980469999,0.14894138006258004,-0.0036539482649161287,0.010226751044437312,0.004361851441083648,23.716732213972136
1630,A,1559989977730908.0,4.9944153,8.12793,6.4578857,154,1970-01-19 01:19:49.977730908,-0.16622925,-0.9821625,0.0019378662,11.520057204199924,0.9961320671915054,26.814346313476562,-76.81214141845703,-70.20389556884766,23767086.0,50354.0,0.15060483754462,0.07582466452799995,0.29127041433990003,0.0025869237230158578,0.007984353373050772,0.011083212347671241,23.767086218111217
1630,A,1559990028084912.0,3.645996,6.043045,5.338318,154,1970-01-19 01:19:50.028084912,0.35317993,-0.47956848,0.105407715,8.84925526658402,0.6048411166131454,26.8581485748291,-76.8359146118164,-70.23075866699219,23817440.0,50354.0,0.2175396353001,-0.13668656242500005,0.2969930205549,0.009268773392811517,-0.0015323200033527716,0.014810708500346381,23.817440222017467
1630,A,1559990078438916.0,0.19259644,8.800415,2.434967,154,1970-01-19 01:19:50.078438916,-0.7813873,0.46463013,-0.25231934,9.133097056968937,0.9434576406194093,26.185874938964844,-76.77794647216797,-69.61443328857422,23867794.0,50354.0,0.09664424186188,-0.11975540758000006,0.195707996445,0.007910207475307173,-0.006456439478815888,0.012404733505006482,23.867794225923717
1630,A,1559990128792920.0,-0.88349915,6.7842407,1.4716187,154,1970-01-19 01:19:50.128792920,-1.0343475,-0.40672302,-0.36473083,6.998010733185318,1.1697550786838498,26.242080688476562,-76.78816223144531,-69.72529602050781,23918148.0,50354.0,-0.017394857529670002,-0.10109432344110007,0.0983561081689,0.001995261749332051,-0.005560333677918238,0.00740365196186416,23.918148230062798
1630,A,1559990179146924.0,-0.35305786,4.303299,-0.81155396,154,1970-01-19 01:19:50.179146924,-0.75491333,-0.02243042,-0.06071472,4.393364538244062,0.7576830054697966,26.21804428100586,-76.78780364990234,-69.73936462402344,23968502.0,50354.0,-0.031132795840770004,-0.21431821297310003,0.016618449958980003,-0.001221780728907568,-0.007941141429300316,0.002894714449985635,23.968502233969048
1630,A,1559990229500928.0,0.62687683,6.365555,-0.069366455,154,1970-01-19 01:19:50.229500928,-0.84643555,0.7693939,-0.09855652,6.396723905492179,1.1480999526589672,26.122360229492188,-76.7510986328125,-69.6845474243164,24018856.0,50354.0,0.006893940207690002,-0.22485946284200006,-0.022178933288455004,-0.0006102616682740552,-0.011057176343996776,-0.0001399962887861921,24.01885623810813
1630,A,1559990279854932.0,2.5776215,10.570877,2.2194366,154,1970-01-19 01:19:50.279854932,-0.5952606,0.1671753,-0.14195251,11.104659921303794,0.6343762904914954,26.85158920288086,-76.65919494628906,-70.42382049560547,24069210.0,50354.0,0.08067965445441,-0.06706065153600006,0.054132316040665,0.0022048403928076918,-0.00734967271969491,0.000804490317552391,24.06921024201438
1630,A,1559990330208936.0,3.492447,11.999527,1.5730438,154,1970-01-19 01:19:50.330208936,-0.1892395,-0.34129333,-0.30130005,12.596043071864134,0.49302580621377357,26.931358337402344,-76.66761016845703,-70.51553344726562,24119564.0,50354.0,0.1528261146245,0.07478586150799997,0.09548327903079999,0.005878974748099717,0.0001944976114650417,0.0037668718371142744,24.11956424592063
1630,A,1559990380562940.0,1.7599487,13.220932,0.72550964,154,1970-01-19 01:19:50.380562940,0.13294983,0.16241455,-0.6050415,13.357276167429818,0.6404134290214263,27.620996475219727,-76.82197570800781,-71.1856918334961,24169918.0,50354.0,0.1322395665389,0.14150629624299998,0.057870679958880004,0.007177098654650923,0.0054455876556969264,0.0038609926254831732,24.16991825005971
1630,A,1559990430916944.0,0.3250885,12.491745,3.9396362,154,1970-01-19 01:19:50.430916944,0.5166931,0.11299133,-0.42478943,13.102294038305189,0.6783692652844052,26.98271369934082,-76.73007202148438,-70.54288482666016,24220272.0,50354.0,0.052494981584400004,0.15389886882899995,0.11745437681368001,0.004651061718100325,0.007437415841017743,0.004414158954362744,24.22027225396596
1630,A,1559990481270947.0,-0.7460327,8.253815,5.6497498,154,1970-01-19 01:19:50.481270947,0.43170166,-0.5500641,-0.06593323,10.030039862647323,0.7023418171900335,27.069787979125977,-76.7530517578125,-70.61016082763672,24270626.0,50354.0,-0.0105981121234,0.02884176411999995,0.24143197132200003,0.0010548374824195972,0.00460086091575697,0.009035681587012017,24.270626256940886
1630,A,1559990531624951.0,-2.066986,5.8592987,5.1449127,154,1970-01-19 01:19:50.531624951,-0.11393738,-0.25532532,-0.012313843,8.066841951509833,0.27986492514031736,27.09113311767578,-76.76414489746094,-70.637939453125,24320980.0,50354.0,-0.0708233718099,-0.13814333637510007,0.2717772177625,-0.0020499487009886944,-0.0027518856846666558,0.01292106775358046,24.320980261079967
1630,A,1559990581978955.0,0.27937317,7.7441864,4.187332,154,1970-01-19 01:19:50.581978955,0.383667,0.29855347,0.15678406,8.808190599906704,0.5107991609313043,27.051790237426758,-76.75444030761719,-70.57781982421875,24371334.0,50354.0,-0.04500672822091,-0.15097425563730005,0.23495792481190003,-0.0029162544284757038,-0.007279113614096198,0.01275807068459567,24.371334264986217
1630,A,1559990632332959.0,1.9698639,7.1571655,0.6226349,154,1970-01-19 01:19:50.632332959,0.9887085,-0.10247803,0.3413086,7.4493661473719675,1.050969935363943,27.046520233154297,-76.76676940917969,-70.52162170410156,24421688.0,50354.0,0.05662904171139,-0.11829786321370005,0.12110053664129998,0.00029261498674981496,-0.00677946413631163,0.008964483884007217,24.421688269125298
1630,A,1559990682686963.0,0.24867249,4.879471,-0.21304321,154,1970-01-19 01:19:50.682686963,0.58358765,0.10241699,0.08943176,4.890446059047263,0.5992176772842072,27.048866271972656,-76.76422119140625,-70.4940414428711,24472042.0,50354.0,0.05585609069103001,-0.19042280283950005,0.01031228997913,0.0028320381784957284,-0.007772660209221419,0.0033085807358225654,24.472042273031548
1630,A,1559990733040967.0,0.21392822,7.0720673,0.3316803,154,1970-01-19 01:19:50.733040967,0.56637573,0.5456238,-0.10601807,7.083072285417518,0.793553167611344,27.0445499420166,-76.7375259399414,-70.46053314208984,24522396.0,50354.0,0.01164689807567,-0.19256532022090006,0.0029869260149299995,0.0016995227481792063,-0.009642491974291694,0.0003348343610824486,24.522396276937798
1630,A,1559990783409057.0,0.4289093,9.602615,1.1436615,154,1970-01-19 01:19:50.783409057,0.8269348,0.24673462,0.048538208,9.67998655228579,0.864323489090419,26.962820053100586,-76.8787612915039,-70.33891296386719,24572764.0,50368.0,0.016189220103680003,-0.07367120095680005,0.037155007891200006,0.0007010248002287505,-0.006704900549339201,0.0010109344634919783,24.57276436709799
1630,A,1559990833763061.0,-2.000473,9.675079,0.30751038,154,1970-01-19 01:19:50.833763061,0.47685242,-0.14447021,0.25222778,9.884513569912166,0.5584610326970261,26.952472686767578,-76.89092254638672,-70.3038101196289,24623118.0,50354.0,-0.0395672592749,-0.008114698162000028,0.03653615442276001,-0.0005885888922138059,-0.0020591235821140297,0.0018553223935785714,24.62311837100424
1630,A,1559990884117065.0,-3.6064148,12.06015,1.6829681,154,1970-01-19 01:19:50.884117065,-0.26358032,0.16514587,0.46452332,12.699835721684618,0.5590435209294369,26.83428955078125,-76.89407348632812,-70.19599914550781,24673472.0,50354.0,-0.1411646141406,0.05375866053299998,0.050114276690960004,-0.004550286376982044,0.0011491780406146658,0.002181597904150129,24.67347237491049
1630,A,1559990934471069.0,0.78712463,14.209717,4.24881,154,1970-01-19 01:19:50.934471069,-0.7545929,0.32791138,0.05456543,14.852205520371095,0.8245687988367006,26.241256713867188,-76.80126190185547,-69.65303039550781,24723826.0,50354.0,-0.07098126861009,0.167927241459,0.1493443772237,-0.005341196890014123,0.005581385954452584,0.0050217705296093955,24.72382637904957
1630,A,1559990984825073.0,3.597519,10.448044,4.5366516,154,1970-01-19 01:19:50.984825073,-0.374588,-0.7902832,-0.2059021,11.945081587041571,0.8984761436625069,26.336660385131836,-76.8321533203125,-69.77027130126953,24774180.0,50354.0,0.11039217267251002,0.12733924869699995,0.2211915667032,0.0009922483315795486,0.007433924422657611,0.009328983460247563,24.77418038295582
1630,A,1559991035179076.0,3.5307617,6.898819,4.8795776,154,1970-01-19 01:19:51.035179076,0.35943604,-0.45283508,0.12973022,9.158070721029056,0.5925232539831128,26.372772216796875,-76.8553466796875,-69.78890991210938,24824534.0,50354.0,0.1794687231839,-0.05672723024900006,0.2370724025684,0.007297827774976835,0.0017777987884652932,0.011537711954351075,24.824534385930747
1630,A,1559991085533080.0,1.7099915,7.751465,3.0452118,154,1970-01-19 01:19:51.085533080,-0.294693,0.46243286,-0.11546326,8.501917165154955,0.560374766265048,26.336244583129883,-76.83203125,-69.76651000976562,24874888.0,50354.0,0.13194644331640001,-0.12461899973200007,0.1995224227238,0.007840499646978054,-0.004565754032231641,0.01099214791638172,24.874888390069827
1630,A,1559991135887084.0,-0.7659912,7.7947235,1.3164673,154,1970-01-19 01:19:51.135887084,-1.2210693,-0.04234314,-0.33847046,7.942137187929895,1.2678191626569466,26.344030380249023,-76.8264389038086,-69.83721923828125,24925242.0,50354.0,0.023767095553100005,-0.10206281213550006,0.10981399470070001,0.003920399768117402,-0.0057071679773880515,0.007788162981496638,24.925242393976077
1630,A,1559991186241088.0,-0.4542389,5.023102,0.58839417,154,1970-01-19 01:19:51.186241088,-1.042099,-0.54545593,-0.26986694,5.077804090349212,1.2067811163082263,26.395427703857422,-76.84490966796875,-69.94353485107422,24975596.0,50354.0,-0.030721733227700002,-0.17075480738650006,0.04795869723019001,-0.00017509691273340415,-0.006868729206705397,0.003972243064744019,24.975596398115158
1630,A,1559991236595092.0,1.2458954,5.583786,-0.009002686,154,1970-01-19 01:19:51.236595092,-0.70262146,0.24356079,-0.1583252,5.721101510189483,0.7603062826473261,26.367467880249023,-76.83047485351562,-69.95088958740234,25025950.0,50354.0,0.019931535700500002,-0.22641958082400004,0.014587339392668002,-0.00027166480314231445,-0.009999659571975761,0.0015747215640536964,25.025950402021408
1630,A,1559991286949096.0,1.9762268,10.104263,0.96351624,154,1970-01-19 01:19:51.286949096,-0.7212982,0.34631348,0.00030517578,10.34069469053946,0.8001276228735057,27.11871910095215,-76.89789581298828,-70.7158432006836,25076304.0,50354.0,0.08112337062940002,-0.09849119032700006,0.024031787749058002,0.002544259376667893,-0.008180278485268729,0.0009723137640472356,25.076304405927658
1630,A,1559991337303100.0,1.8232727,12.0924225,2.0447388,154,1970-01-19 01:19:51.337303100,-0.5202942,-0.022872925,-0.0848999,12.398869384637333,0.5276715060259609,27.463640213012695,-76.91505432128906,-71.07808685302734,25126658.0,50354.0,0.09565999891150001,0.06537675083349995,0.07573883714208002,0.00445087489493124,-0.0008337222431278523,0.0025119250228841823,25.12665841006674
1630,A,1559991387657104.0,2.7774658,13.520081,0.40989685,154,1970-01-19 01:19:51.387657104,-0.0076446533,-0.40838623,-0.18011475,13.808509041325589,0.44640685114058526,27.538267135620117,-76.92906951904297,-71.15512084960938,25177012.0,50354.0,0.11583279321450002,0.15137680061949996,0.06180036176005001,0.005324754027356303,0.005457204164932179,0.0034628244107589275,25.17701241397299
1630,A,1559991438011108.0,3.2859497,13.9831085,4.351288,154,1970-01-19 01:19:51.438011108,0.38676453,-0.23956299,-0.13409424,15.008614060353684,0.4742978948351327,27.981395721435547,-76.73804473876953,-71.57032775878906,25227366.0,50354.0,0.1526586120435,0.1989786020415,0.11987235096845002,0.006759808110180667,0.008820897972795996,0.004573973888365446,25.22736641811207
1630,A,1559991488365112.0,1.1936951,9.6996765,4.481613,154,1970-01-19 01:19:51.488365112,1.1538391,-0.17666626,0.152771,10.751441172149216,1.1772402535388422,28.0280818939209,-76.74945831298828,-71.55902099609375,25277720.0,50354.0,0.11278401712960001,0.102792277945,0.222385948477,0.0066830490746911395,0.00759768544542011,0.008617037205138095,25.27772042201832
1630,A,1559991538719115.0,-1.5544281,5.428299,6.602417,154,1970-01-19 01:19:51.538719115,0.03730774,0.32759094,0.11314392,8.687611121209306,0.3485817523436326,27.976125717163086,-76.7376937866211,-71.50375366210938,25328074.0,50354.0,-0.009082174741,-0.11259216083650002,0.27906262331000004,0.0026109012858177827,-0.0002467316515592961,0.012624970691881301,25.328074424993247
1630,A,1559991589073119.0,-0.63520813,6.7317047,6.277939,154,1970-01-19 01:19:51.589073119,0.23506165,0.15917969,0.36567688,9.226692561483839,0.46293815307852193,27.903512954711914,-76.73920440673828,-71.41706848144531,25378428.0,50354.0,-0.055128471362710006,-0.18731678684510006,0.324288723012,-0.001616631436953107,-0.007550807575779646,0.015190576846348997,25.378428428899497
1630,A,1559991639427123.0,1.8422241,7.962921,1.9748383,154,1970-01-19 01:19:51.639427123,1.3471527,-0.23027039,0.5027466,8.40844140123535,1.4562276585203298,28.41864585876465,-76.6395263671875,-71.84893798828125,25428782.0,50354.0,0.030389041076690004,-0.12350260875110006,0.2077801740821,-0.0006228646363111256,-0.00782549992292553,0.013395898622138157,25.428782433038577
1630,A,1559991689781127.0,0.84646606,6.056549,-1.858551,154,1970-01-19 01:19:51.689781127,1.030716,-0.009262085,0.3204651,6.3915962325333044,1.079425374536173,28.411754608154297,-76.6475601196289,-71.78888702392578,25479136.0,50354.0,0.06769315215832,-0.14050100381000005,0.0029277653521,0.002469415379077847,-0.006646818953450818,0.005304993791134854,25.479136436944827
1630,A,1559991740135131.0,-0.53060913,6.9181213,0.4620819,154,1970-01-19 01:19:51.740135131,0.31567383,0.5120697,0.07032776,6.953809607162153,0.6056495178166795,28.363262176513672,-76.62671661376953,-71.72283172607422,25529490.0,50354.0,0.007952329926610002,-0.16680592585690004,-0.035158902530700004,0.001904526302452283,-0.0077370665682235445,-0.0008114833407456123,25.529490441083908
1630,A,1559991790489135.0,-0.06427002,9.682938,1.1273804,154,1970-01-19 01:19:51.790489135,0.6122589,0.18789673,-0.06607056,9.748559150644724,0.643841176589861,28.00619125366211,-76.80823516845703,-71.34516143798828,25579844.0,50354.0,-0.01497727235955,-0.07550433000390004,0.040017892327100006,-0.00017686697563413037,-0.006100645311807364,0.00012233478610396286,25.579844444990158
1630,A,1559991840843139.0,0.9872589,10.088013,0.06617737,154,1970-01-19 01:19:51.840843139,0.766922,-0.02355957,-0.01574707,10.136422735269988,0.7674453580784562,28.04987144470215,-76.80891418457031,-71.35064697265625,25630198.0,50354.0,0.023238091031760003,0.004304033326999968,0.03005020397529,0.00020798263171023125,-0.0017926098694343133,0.0017641044606052732,25.630198448896408
1630,A,1559991891197143.0,-2.1998138,12.207916,1.1405792,154,1970-01-19 01:19:51.891197143,-0.16531372,0.100494385,0.26385498,12.456858140365856,0.32718068082875407,27.98185157775879,-76.81068420410156,-71.2892837524414,25680552.0,50354.0,-0.030528494717299997,0.067875404433,0.030382510162889998,-0.00018355049359084044,0.0018172617044835192,0.0015215144438569578,25.68055245303549
1630,A,1559991941551147.0,-1.5488281,16.14241,2.5982666,154,1970-01-19 01:19:51.941551147,-0.4968109,0.33087158,0.21421814,16.423375366109283,0.6341817439153906,27.883563995361328,-76.8010482788086,-71.21382904052734,25730906.0,50354.0,-0.0943795571163,0.22030695770200004,0.09413292070660001,-0.0031448100210145474,0.007255567331472896,0.00313492500300115,25.73090645694174
1630,A,1559991991905151.0,2.480713,10.30835,5.321457,154,1970-01-19 01:19:51.991905151,-0.8132019,-0.50582886,-0.08047485,11.863132862516462,0.9610600227119179,27.908601760864258,-76.82157135009766,-71.28131866455078,25781260.0,50354.0,0.023462066127300008,0.17248158452000004,0.1993948810772,-0.001785489670630053,0.009889237127523298,0.007390149465510733,25.78126046108082
1630,A,1559992042259155.0,5.012268,5.5227356,5.386734,154,1970-01-19 01:19:52.042259155,0.06272888,-0.28024292,-0.14743042,9.200018597703341,0.3228106803337789,27.967580795288086,-76.83045959472656,-71.33866119384766,25831614.0,50354.0,0.18865078263700003,-0.09488995784880003,0.269600124807,0.005340365193338782,0.0019535243847008028,0.011807887263146504,25.83161446498707
1630,A,1559992092613158.0,1.6709747,8.430847,2.9612122,154,1970-01-19 01:19:52.092613158,-0.6341553,0.15608215,-0.27877808,9.090660882404421,0.7100928108037701,28.03167152404785,-76.59818267822266,-71.43386840820312,25881968.0,50354.0,0.1682640014579,-0.14215985087980004,0.2101762414774,0.008986043519157298,-0.005968203034359965,0.01207932957394234,25.881968467961997
1630,A,1559992142967162.0,-0.44877625,8.137787,1.5690155,154,1970-01-19 01:19:52.142967162,-1.0429077,-0.24354553,-0.25834656,8.299806444681304,1.1016868161896576,27.199613571166992,-76.73004150390625,-70.67897033691406,25932322.0,50354.0,0.030771290375650004,-0.07632070178200005,0.1140575428029,0.0050111115424932885,-0.005500684874366142,0.008163233986825114,25.932322472101077
1630,A,1559992193321166.0,-0.2437439,4.8203125,0.42852783,154,1970-01-19 01:19:52.193321166,-0.6178589,-0.4547882,-0.11483765,4.845457644797648,0.7757381085301743,27.234498977661133,-76.74760437011719,-70.74652862548828,25982676.0,50354.0,-0.01743557981655,-0.16722312888850005,0.05029214841941,0.0003357531847464608,-0.006131703024791182,0.004137832175904099,25.982676476007327
1630,A,1559992243675170.0,0.4036255,5.955902,-0.16149902,154,1970-01-19 01:19:52.243675170,-0.70674133,0.327713,-0.0900116,5.971747157349783,0.7842073743811192,27.184362411499023,-76.73101043701172,-70.73133850097656,26033030.0,50354.0,0.0040253390432,-0.22215644753350006,0.00672298434937,-0.000337629631950633,-0.009803409595576698,0.0014354699977195743,26.033030479913577
1630,A,1559992294029174.0,1.2875061,9.461273,0.2626648,154,1970-01-19 01:19:52.294029174,-0.596756,0.10272217,0.028076172,9.552086239938648,0.6061830079931987,27.139280319213867,-76.72705078125,-70.71566009521484,26083384.0,50354.0,0.0425776202932,-0.10531098502500004,0.0025470508430599998,0.001173322707212543,-0.008244647549525357,0.00023339167603981013,26.083384484052658
1630,A,1559992344383178.0,1.3534241,10.196106,0.8758545,154,1970-01-19 01:19:52.344383178,-0.623291,0.029632568,-0.05343628,10.322763944935826,0.6262788482676971,27.606552124023438,-76.86022186279297,-71.20128631591797,26133738.0,50354.0,0.06649069964540001,0.0014446310829999795,0.0286645004161,0.0027460130910941325,-0.0026150431931977356,0.0007858132260518713,26.133738487958908
1630,A,1559992394737182.0,3.3253021,13.379898,1.0192871,154,1970-01-19 01:19:52.394737182,0.10102844,0.3279419,-0.38526917,13.824552460708984,0.515931166743135,27.652122497558594,-76.83679962158203,-71.24290466308594,26184092.0,50354.0,0.1177962895374,0.100103852708,0.0477139800632,0.004639793526655356,0.002556686176406007,0.0019229810030273362,26.18409249209799
1630,A,1559992445091186.0,5.097702,14.879059,7.414505,154,1970-01-19 01:19:52.445091186,0.80677795,0.3237915,-0.54026794,17.388152483841118,1.0235336062241904,27.762462615966797,-76.80992889404297,-71.31481170654297,26234446.0,50354.0,0.2120659742257,0.21800656038899996,0.2123375837017,0.008304942214763569,0.008009065870543168,0.006547318220908888,26.23444649600424
1630,A,1559992495445190.0,0.26094055,9.561569,4.203476,154,1970-01-19 01:19:52.495445190,0.89367676,-0.6667938,0.1832428,10.448009484823954,1.129977896613194,27.838977813720703,-76.84369659423828,-71.3475112915039,26284800.0,50354.0,0.13491454348135,0.12187249115599998,0.292505907637,0.008735928494310399,0.008557134880748463,0.01271044458143445,26.28480049991049
1630,A,1559992545799194.0,-2.1000214,6.0121155,7.3928223,154,1970-01-19 01:19:52.545799194,0.16140747,0.060836792,-0.00038146973,9.757532691473573,0.17249241186732556,27.841014862060547,-76.84095001220703,-71.3412857055664,26335154.0,50354.0,-0.04630253856045001,-0.10137054534350003,0.2919600022991,0.0022309844478934997,0.0005161774897213113,0.014715098214461191,26.33515450404957
1630,A,1559992596153198.0,-0.35990906,8.045395,4.7490387,154,1970-01-19 01:19:52.596153198,0.5847931,0.18125916,0.21469116,9.349400184588998,0.6487912970082607,27.81157684326172,-76.83797454833984,-71.2810287475586,26385508.0,50354.0,-0.06193366919142001,-0.13954325814150007,0.305695634397,-0.0027250630025688317,-0.0060654868303418475,0.015047175965097711,26.38550850795582
1630,A,1559992646507201.0,1.5018921,7.5840454,0.8840332,154,1970-01-19 01:19:52.646507201,0.96188354,-0.15382385,0.29481506,7.78170541770927,1.0177414411109325,28.563222885131836,-76.90274810791016,-71.96404266357422,26435862.0,50354.0,0.02875170699808,-0.09996677904920007,0.1418238512263,-0.0008354222621417214,-0.0060301442063502575,0.011267198089537826,26.435862510930747
1630,A,1559992696861205.0,0.8450775,5.3250732,-2.1228027,154,1970-01-19 01:19:52.696861205,0.6032257,0.19352722,0.22441101,5.794553638503296,0.6720820868246962,28.53114891052246,-76.89962005615234,-71.900146484375,26486216.0,50354.0,0.0590896536192,-0.16845632100780003,-0.0311884997015,0.002211581936261259,-0.0067580883901350915,0.00278546624533989,26.486216515069827
1630,A,1559992747215209.0,0.6833191,6.8216248,1.6697998,154,1970-01-19 01:19:52.747215209,0.33547974,0.5393982,0.030151367,7.056183194651333,0.6359293821216916,28.311359405517578,-76.83585357666016,-71.66655731201172,26536570.0,50354.0,0.0384804411982,-0.18765178445400002,-0.011405254013299995,0.0024565222772176803,-0.00896573377121174,-0.0010723829372775195,26.536570518976077
1630,A,1559992797569213.0,0.60258484,9.129761,0.4205017,154,1970-01-19 01:19:52.797569213,0.65431213,0.22920227,-0.13830566,9.159283055251745,0.7069557975052793,28.578182220458984,-77.04764556884766,-71.894775390625,26586924.0,50354.0,0.03237520349738,-0.09186115971340003,0.052627520865499995,0.001783932566500618,-0.0070372973953026306,0.0010378530125378395,26.586924523115158
1630,A,1559992847923217.0,-0.51179504,9.443939,0.49983215,154,1970-01-19 01:19:52.847923217,0.42460632,0.10585022,0.07310486,9.470995205196928,0.44366554589421336,28.574460983276367,-77.04473114013672,-71.8691635131836,26637278.0,50354.0,0.002285814794600001,-0.025839155100000025,0.02317124534145,0.0008726604575371805,-0.0029633408260569733,0.0019083855367923804,26.637278527021408
1630,A,1559992898277221.0,-1.2140656,12.4665985,-0.19458008,154,1970-01-19 01:19:52.898277221,-0.46624756,0.18826294,0.21704102,12.527086446929248,0.5476646110038859,28.490163803100586,-77.0416488647461,-71.80657958984375,26687632.0,50354.0,-0.04345199333328,0.058172402637499974,0.00768533136639,-0.0010364408770683464,0.0008140541732516363,0.0007768760317732877,26.687632530927658
1630,A,1559992948631225.0,0.7924347,16.47757,2.4327545,154,1970-01-19 01:19:52.948631225,-0.34246826,0.13394165,0.30426025,16.675028045431716,0.4772831177008177,28.221168518066406,-77.14966583251953,-71.55736541748047,26737986.0,50354.0,-0.010615401169300001,0.23525813032449996,0.05635051737234,-0.0013612547913914568,0.0073877005283842735,0.0016122305636950053,26.73798653506674
1630,A,1559992998985229.0,2.541092,9.622147,6.147537,154,1970-01-19 01:19:52.998985229,-0.6529083,-0.8138733,0.0823822,11.697652440060015,1.0466450322523966,28.25712776184082,-77.18746185302734,-71.62772369384766,26788340.0,50354.0,0.08392820172590001,0.16364337490900002,0.2160259990955,0.0018457963796135186,0.01004314319726383,0.006857623555110808,26.78834053897299
1630,A,1559993049339233.0,3.169464,4.8268433,6.5119476,154,1970-01-19 01:19:53.049339233,0.33647156,-0.404068,0.28709412,8.703411965154624,0.5990885519281837,28.26041030883789,-77.21206665039062,-71.61383819580078,26838694.0,50354.0,0.143774668412,-0.12968697121690004,0.3187278437742,0.005732875161461909,0.0008549203757560014,0.013463497501930436,26.83869454311207
1630,A,1559993099693237.0,2.5366058,8.666122,2.9532623,154,1970-01-19 01:19:53.099693237,-0.171875,0.09396362,-0.21151733,9.500410397244895,0.2882876313663722,28.283042907714844,-77.20291137695312,-71.64585876464844,26889048.0,50354.0,0.1436617193546,-0.15375681264190005,0.2383055896523,0.007236785934799689,-0.00713626414621301,0.014024430753378992,26.88904854701832
1630,A,1559993150047240.0,-0.37608337,8.646561,1.3658447,154,1970-01-19 01:19:53.150047240,-0.8550415,0.14756775,-0.27435303,8.761848410719603,0.9100229626951692,27.548545837402344,-77.3387222290039,-70.97300720214844,26939402.0,50354.0,0.05439547322011,-0.05758778010900004,0.108742156939,0.004986485937453474,-0.005321022811689412,0.008737621115929161,26.939402549993247
1630,A,1559993200401244.0,-0.21557617,5.8796387,0.43891907,154,1970-01-19 01:19:53.200401244,-0.81503296,-0.03211975,-0.2239685,5.899938497782771,0.8458559529959425,27.555282592773438,-77.3349609375,-71.02167510986328,26989756.0,50354.0,-0.01489621223858,-0.12774307015310005,0.045438537437290004,0.0009944728937319807,-0.004666074817048894,0.003881807342311854,26.989756553899497
1630,A,1559993250755248.0,0.7484131,5.3015137,0.9343109,154,1970-01-19 01:19:53.250755248,-0.56907654,0.4951172,-0.2701416,5.434989101865625,0.8012275795083265,27.806676864624023,-77.31094360351562,-71.29480743408203,27040110.0,50354.0,0.01341523538661,-0.21196132602520004,0.034573810954690004,-3.728655420204869e-05,-0.008552737582581061,0.002014470895464881,27.040110558038577
1630,A,1559993301109252.0,0.7212372,8.742264,0.29551697,154,1970-01-19 01:19:53.301109252,-0.53915405,0.16419983,-0.0069274902,8.776940994669943,0.5636458674770024,28.141319274902344,-77.52152252197266,-71.64694213867188,27090464.0,50354.0,0.037001385603100005,-0.13988900884710004,0.030963376282990004,0.0012693392666579288,-0.0088585358810799,0.0016500297630830697,27.090464561944827
1630,A,1559993351463256.0,2.0551453,10.277725,0.8026581,154,1970-01-19 01:19:53.351463256,-0.5558319,-0.192276,-0.105407715,10.511874875836028,0.597519830311205,29.065401077270508,-77.60539245605469,-72.5784683227539,27140818.0,50354.0,0.0699009822025,-0.014602936947000019,0.027648753737389998,0.0026914809142415913,-0.003889643719258057,0.0014756775975231075,27.140818566083908
1630,A,1559993401817260.0,3.970642,12.548111,3.0137024,154,1970-01-19 01:19:53.401817260,-0.14006042,0.13346863,-0.48042297,13.501980955261741,0.5179160419877668,29.139060974121094,-77.58788299560547,-72.66106414794922,27191172.0,50354.0,0.1517112468521,0.08121687297199999,0.0960845083085,0.005579531090907664,0.0016771390673014244,0.003115232338529373,27.191172569990158
1630,A,1559993452171264.0,3.2676086,15.558273,2.3510132,154,1970-01-19 01:19:53.452171264,0.089416504,0.316391,-0.47053528,16.070606328695167,0.5740226701039431,29.90794563293457,-77.54230499267578,-73.41028594970703,27241526.0,50354.0,0.18223743535620002,0.21416522996800003,0.13506744466120002,0.008407825971958369,0.00743683520572038,0.0058197127199181384,27.241526573896408
1630,A,1559993502525268.0,-0.6112671,10.261276,2.8200378,154,1970-01-19 01:19:53.502525268,1.2217712,0.24172974,0.34028625,10.659270416362805,1.2911052878402174,29.875017166137695,-77.54034423828125,-73.31401062011719,27291880.0,50354.0,0.0668787099455,0.15658958517299992,0.130191551027,0.006271997190260901,0.009334493980804956,0.006678425734441812,27.29188057803549
1630,A,1559993552879272.0,-2.6987762,6.1038513,6.701004,154,1970-01-19 01:19:53.552879272,-0.380188,-0.28053284,0.1388092,9.457475787873534,0.49245262073331036,29.860376358032227,-77.55596160888672,-73.31848907470703,27342234.0,50354.0,-0.08333696016410001,-0.08144438996790003,0.23971126939860005,-0.0004143693657536924,0.0018919305796788002,0.009313043309855334,27.34223458194174
1630,A,1559993603233276.0,-1.565033,5.467865,5.1292267,154,1970-01-19 01:19:53.603233276,0.046722412,0.9390259,0.18615723,7.658710236672158,0.9584399506151549,29.720617294311523,-77.51982879638672,-73.1729736328125,27392588.0,50354.0,-0.1073499242284,-0.2021280987149001,0.29784971833390006,-0.004800923688349974,-0.007139504547566859,0.013534172988141155,27.39258858608082
1630,A,1559993653587280.0,2.1695557,9.81218,3.0054321,154,1970-01-19 01:19:53.653587280,0.51397705,-0.4723053,0.29426575,10.4889689862976,0.7575203204917047,29.987075805664062,-77.34565734863281,-73.4077377319336,27442942.0,50354.0,0.015220068017900006,-0.10876350703500005,0.20480630460760002,-0.0023195533898117586,-0.007827317957965237,0.012655370689598147,27.44294258998707
1630,A,1559993703941283.0,1.0942078,6.5528564,-0.3520813,154,1970-01-19 01:19:53.703941283,0.7294159,-0.83299255,0.20089722,6.652907556129987,1.1252927781391122,30.077747344970703,-77.38674926757812,-73.46326446533203,27493296.0,50354.0,0.08217177363950001,-0.08144667855720006,0.06680341309160001,0.00245203439740836,-0.0047889218426548225,0.00683831786251276,27.493296592961997
1630,A,1559993754295287.0,-0.38842773,5.2845917,-1.3548279,154,1970-01-19 01:19:53.754295287,0.25032043,0.2818451,0.055648804,5.4693092960409775,0.3810429994843434,30.0479679107666,-77.37593841552734,-73.41992950439453,27543650.0,50354.0,0.01776942482239,-0.19543776918630007,-0.042974852928400004,0.002516219553675005,-0.006971119740838103,0.0005999316592288866,27.543650597101077
1630,A,1559993804649291.0,0.35417175,10.165894,0.8359833,154,1970-01-19 01:19:53.804649291,0.4074402,0.46650696,0.05290222,10.206356182576274,0.6216388864810583,29.932321548461914,-77.54544067382812,-73.28410339355469,27594004.0,50354.0,-0.0008624628084600005,-0.10447232153110005,-0.013062950494200004,0.00042566658262471556,-0.0075508363539919824,-0.0014108637767708005,27.594004601007327
1630,A,1559993855003295.0,0.32929993,9.703003,2.2466278,154,1970-01-19 01:19:53.855003295,0.5124512,0.0026245117,0.14471436,9.965141350409429,0.5324991703592721,29.371963500976562,-77.55278778076172,-72.71052551269531,27644358.0,50354.0,0.017207766487360002,0.006770019768999977,0.07761089966470001,0.00041152571072366535,-0.0024598508514643938,0.001625123716265679,27.644358604913577
1630,A,1559993905357299.0,-2.7818146,11.305405,-0.940094,154,1970-01-19 01:19:53.905357299,-0.2049408,-0.2644043,0.32772827,11.680515888077641,0.4683120586962532,29.32633399963379,-77.57234954833984,-72.67430877685547,27694712.0,50354.0,-0.06174696184659001,0.03545948821599999,0.032894601482600004,-0.001121363321559334,0.0010632123225383444,0.0027821970023855724,27.694712609052658
1630,A,1559993955711303.0,-2.1749268,16.729965,4.088028,154,1970-01-19 01:19:53.955711303,-0.5130615,0.7167969,0.76091003,17.358974866488147,1.1644801296657925,29.070758819580078,-77.55964660644531,-72.4388656616211,27745066.0,50354.0,-0.12479587822780001,0.21237731049,0.079255534318,-0.004696589084552919,0.006239787081020963,0.0028236039690517066,27.745066612958908
1630,A,1559994006065307.0,2.819458,9.743683,6.5314484,154,1970-01-19 01:19:54.006065307,-1.0681915,-0.2539673,-0.13475037,12.06434913371275,1.106205284907226,29.07200813293457,-77.5674057006836,-72.49481201171875,27795420.0,50354.0,0.016227362022399997,0.173057835696,0.2673665573228,-0.0027334295325033564,0.009704100675524923,0.008726904401240423,27.79542061709799
1630,A,1559994056419311.0,3.7835388,4.6202393,5.9407196,154,1970-01-19 01:19:54.056419311,0.22015381,-0.6370239,-0.059417725,8.423415364695847,0.676607430695896,29.16518211364746,-77.59381103515625,-72.57894897460938,27845774.0,50354.0,0.1662436504336,-0.13182872825290004,0.31401177373600003,0.004594072680604713,0.0010380252380949278,0.014637362241067412,27.84577462100424
1630,A,1559994106773315.0,0.10472107,8.192505,3.554123,154,1970-01-19 01:19:54.106773315,-0.8511658,0.08232117,-0.24002075,8.930839544894754,0.8881835140050571,29.161136627197266,-77.5843734741211,-72.6183853149414,27896128.0,50354.0,0.09789471874699,-0.17088273675890003,0.23905165214020002,0.006650211720859715,-0.007621366554602091,0.01392447787328509,27.89612862491049
1630,A,1559994157127319.0,-0.7979889,8.609848,2.246048,154,1970-01-19 01:19:54.157127319,-1.0168915,-0.4121399,-0.36790466,8.933700268417963,1.157273286131662,29.22895622253418,-77.59341430664062,-72.7398910522461,27946482.0,50354.0,-0.017454404155910003,-0.07043635851900004,0.14603090526700002,0.0020252458004596215,-0.0060756908618116905,0.009695223547841076,27.94648262904957
1630,A,1559994207481323.0,0.09692383,5.3923645,-0.65737915,154,1970-01-19 01:19:54.207481323,-0.70066833,-0.6997833,-0.48425293,5.433151615456433,1.1023310191759388,29.367868423461914,-77.61209106445312,-72.91799926757812,27996836.0,50354.0,-0.01765071526739,-0.14093549588750004,0.03999791563645,-0.0008838415917204242,-0.005321709178392453,0.0046836476238861615,27.99683663295582
1630,A,1559994257835326.0,0.5709686,5.737152,0.5643463,154,1970-01-19 01:19:54.257835326,-1.3120117,0.5489044,-0.39613342,5.793047985267657,1.476344278180786,29.57570457458496,-77.69623565673828,-73.18590545654297,28047190.0,50354.0,0.016815527710110002,-0.21326136307950003,-0.0023422880644500014,-2.10275171296385e-05,-0.00891761431821216,0.0009480557353802441,28.047190635930747
1630,A,1559994308189330.0,-0.07473755,9.565842,1.9255371,154,1970-01-19 01:19:54.308189330,-1.1065826,0.1940918,-0.033447266,9.758002459203441,1.1239730410703253,28.802400588989258,-77.75035095214844,-72.48365020751953,28097544.0,50354.0,0.012493609145850001,-0.10818572006200004,0.06268779436180001,0.0007379161386225051,-0.008093073212253547,0.0015193188120483814,28.097544640069827
1630,A,1559994358543334.0,2.0690308,10.891632,0.799942,154,1970-01-19 01:19:54.358543334,-0.81108093,0.2273407,-0.4857788,11.115234737878307,0.9723770417978794,29.706308364868164,-77.81108093261719,-73.41004943847656,28147898.0,50354.0,0.05021032115525001,0.021588622897999954,0.0686193873007,0.001578696853190795,-0.0021802551152980305,0.0033059209127167624,28.147898643976077
1630,A,1559994408897338.0,4.5034943,12.980057,5.3602905,154,1970-01-19 01:19:54.408897338,0.03161621,0.29260254,-0.58758545,14.74774745097609,0.6571700633785125,29.792272567749023,-77.78379821777344,-73.49637603759766,28198252.0,50354.0,0.1654764644427,0.10754831395299996,0.1550961736525,0.005430346200999588,0.003251280659097625,0.0056324866781187165,28.198252648115158
1630,A,1559994459251342.0,4.5238953,14.280762,8.46875,154,1970-01-19 01:19:54.459251342,1.0700836,-0.14013672,-0.35481262,17.208297956175272,1.1360498257526308,29.932964324951172,-77.78105926513672,-73.58558654785156,28248606.0,50354.0,0.2272825879592,0.19287643996300002,0.34817375266850004,0.009888494662322637,0.0075637940293431325,0.012670826934983821,28.248606652021408
1630,A,1559994509605346.0,-2.8044586,7.2597504,0.95251465,154,1970-01-19 01:19:54.509605346,0.48913574,-0.8891907,0.5984497,7.840679056553631,1.1781578487375652,29.94009780883789,-77.83453369140625,-73.56787872314453,28298960.0,50354.0,0.04329025779590002,0.04885628069479994,0.23719918009305,0.006812212537576154,0.00608610470800143,0.014737934328137546,28.298960655927658
1630,A,1559994559959350.0,-2.6688995,3.7235565,8.20079,154,1970-01-19 01:19:54.559959350,-0.07992554,0.13031006,0.064331055,9.393660318208898,0.1658532131702857,29.908096313476562,-77.8304672241211,-73.53921508789062,28349314.0,50354.0,-0.1378027368837,-0.21694248217870007,0.23045275117305,-0.002379540685993541,-0.0042319062947601535,0.0117740726734866,28.34931466006674
1630,A,1559994610313354.0,0.70851135,9.362457,2.8933716,154,1970-01-19 01:19:54.610313354,1.386795,0.36650085,0.37535095,9.824926901794964,1.4827041447104763,29.293302536010742,-77.70310974121094,-72.865234375,28399668.0,50354.0,-0.049356692452550005,-0.16400263811050006,0.2793177066032,-0.004712112952398767,-0.009591055293521193,0.012834490815432645,28.39966866397299
1630,A,1559994660667358.0,2.5326538,7.818924,1.3301544,154,1970-01-19 01:19:54.660667358,1.1556549,0.035446167,0.2793274,8.32581638737426,1.1894614222578896,29.291223526000977,-77.70842742919922,-72.8039779663086,28450022.0,50354.0,0.08160281498154999,-0.060893570563000064,0.106335714102,0.0008118606269126327,-0.0056622118457727135,0.00970959617309482,28.45002266811207
1630,A,1559994711021362.0,-0.53749084,6.157898,-0.25230408,154,1970-01-19 01:19:54.711021362,0.4977417,-0.018127441,0.26727295,6.186457914693396,0.5652523629652519,29.264623641967773,-77.71575164794922,-72.75129699707031,28500376.0,50354.0,0.05023221784392,-0.14157475250600005,0.027137037506640004,0.003319210621446858,-0.005097544969908216,0.0033604434672507293,28.50037667201832
1630,A,1559994761375365.0,-0.17327881,7.4786835,1.7146301,154,1970-01-19 01:19:54.761375365,0.46064758,0.32713318,-0.06486511,7.674678417952981,0.5687000904801062,28.39447784423828,-77.7381820678711,-71.87744903564453,28550730.0,50354.0,-0.017895047478050003,-0.15014098757450003,0.03681698220554,0.000814152938301509,-0.00734452718800675,0.0016101703542935563,28.550730674993247
1630,A,1559994811729369.0,0.83551025,10.012268,-0.3965454,154,1970-01-19 01:19:54.811729369,0.8750763,0.09124756,-0.05090332,10.054891154852957,0.8812921172997442,28.438556671142578,-77.73294067382812,-71.87776947021484,28601084.0,50354.0,0.016673000964880003,-0.053099514084500025,0.0331854184919,-3.07674650620811e-05,-0.005116986110268645,0.001762450442359447,28.601084678899497
1630,A,1559994862083373.0,-0.7030182,9.7638855,0.5283661,154,1970-01-19 01:19:54.862083373,0.44841003,0.113220215,0.03404236,9.803410905509914,0.4637340340794675,28.441686630249023,-77.72875213623047,-71.85801696777344,28651438.0,50354.0,0.0033357523428499997,0.004435016669499996,0.0033188497638999993,0.0005037603820287182,-0.0012252260514174558,0.0009190679618762766,28.651438683038577
1630,A,1559994912437377.0,-2.4530334,13.28833,1.0830994,154,1970-01-19 01:19:54.912437377,-0.5817108,-0.12133789,0.26185608,13.556186460826508,0.6493681121053438,28.372909545898438,-77.74028778076172,-71.8173828125,28701792.0,50354.0,-0.0794599111332,0.08691642964349999,0.0405718668935,-0.0019165779458646423,0.002299955363822401,0.0011050365732833598,28.701792686944827
1630,A,1559994962791381.0,1.5384064,15.770477,3.3815155,154,1970-01-19 01:19:54.962791381,-0.1446991,0.24873352,0.17965698,16.202138319858594,0.3392385944657842,28.19708251953125,-77.7094497680664,-71.64972686767578,28752146.0,50354.0,-0.023027563978999997,0.23814438383899994,0.11240560933730001,-0.0025803271608998593,0.0081840561010489,0.0038515139190628523,28.752146691083908
1630,A,1559995013145385.0,3.1912384,6.371826,6.393097,154,1970-01-19 01:19:55.013145385,-0.5382538,-1.0999451,-0.020309448,9.573706615063967,1.2247484843454655,28.293991088867188,-77.75738525390625,-71.77641296386719,28802500.0,50354.0,0.11907826712960001,0.06400756263099996,0.2460954189125,0.002418268553222657,0.007607279556275187,0.009025980388245215,28.802500694990158
1630,A,1559995063499389.0,5.200577,5.0895233,5.2748566,154,1970-01-19 01:19:55.063499389,1.0138702,0.12957764,0.12841797,8.987400108192327,1.0301525723187468,28.30447769165039,-77.7547378540039,-71.73529052734375,28852854.0,50354.0,0.21128073632580002,-0.20490680867390004,0.29376406778720004,0.008317448629996607,-0.0035474203176220956,0.01359204229663835,28.852854698896408
1630,A,1559995113853393.0,-0.038101196,10.521515,1.7807007,154,1970-01-19 01:19:55.113853393,-1.0400085,0.16775513,-0.35662842,10.671205394862483,1.1121795240271521,27.747514724731445,-77.83466339111328,-71.24421691894531,28903208.0,50354.0,0.129975653317308,-0.10043008872090002,0.1776377661421,0.008591812122044531,-0.007687467065708882,0.011868483972837988,28.90320870303549
1630,A,1559995164207397.0,-1.1543274,7.2761993,1.0016327,154,1970-01-19 01:19:55.164207397,-0.9142761,-0.38931274,-0.13948059,7.434972499304926,1.003454050539568,27.77252769470215,-77.84864807128906,-71.31656646728516,28953562.0,50354.0,-0.030021774761492,-0.045376147068900016,0.0700508080118,0.00251653880039978,-0.003670963598479796,0.006236055231472741,28.95356270694174
1630,A,1559995214561401.0,0.5382538,3.2969055,-0.23129272,154,1970-01-19 01:19:55.214561401,-0.2313385,0.17805481,-0.2902527,3.348551828995586,0.4116644832915224,27.80131721496582,-77.83401489257812,-71.35785675048828,29003916.0,50354.0,-0.015510885027199998,-0.22727014045040006,0.01939484967646,-0.0011463757754998985,-0.006864415580873418,0.002251973323617322,29.00391671108082
1630,A,1559995264915405.0,0.77197266,6.584015,0.9848175,154,1970-01-19 01:19:55.264915405,-0.859787,0.55474854,-0.049957275,6.701869949224524,1.024439045198179,27.935443878173828,-77.84761047363281,-71.52873229980469,29054270.0,50354.0,0.03298757158342,-0.2446972645715001,0.018971493386060002,0.00044001053742595103,-0.01188272335623638,0.0009659494192850661,29.05427071498707
1630,A,1559995315269408.0,1.1036835,11.547943,1.9505615,154,1970-01-19 01:19:55.315269408,-0.5928192,-0.5651398,0.26849365,11.76340915571262,0.8619202036865143,27.947765350341797,-77.90814208984375,-71.57003784179688,29104624.0,50354.0,0.04722339514032001,-0.03696089343400002,0.07390403708300002,0.002019471509203602,-0.007091307444104476,0.002338327230619524,29.104624717961997
1630,A,1559995365623412.0,2.2789917,10.653381,-0.37368774,154,1970-01-19 01:19:55.365623412,-0.317688,-0.159729,-0.09806824,10.90082439207495,0.36885823629369807,27.969600677490234,-77.91293334960938,-71.60860443115234,29154978.0,50354.0,0.08516561351040002,0.06549353434799995,0.039700950655520005,0.003333158070799178,0.0007183663002917765,0.0028602327762927184,29.154978722101077
1630,A,1559995415977416.0,2.429016,14.321335,-0.53486633,154,1970-01-19 01:19:55.415977416,0.299469,0.51216125,-0.26542664,14.535709026444104,0.6499554824634162,27.98322105407715,-77.88409423828125,-71.60723114013672,29205332.0,50354.0,0.1185335098629,0.13531922473199995,-0.022874665820389998,0.005128532829169575,0.005055862835357158,0.00042363537329406824,29.205332726007327
1630,A,1559995466331420.0,1.0786896,13.499939,8.61525,154,1970-01-19 01:19:55.466331420,-0.15820313,-0.003479004,-0.19017029,16.050995508670766,0.24739659053696153,28.014799118041992,-77.87979888916016,-71.64762115478516,29255686.0,50354.0,0.08831350389119999,0.20698701549799994,0.20343981965959002,0.005207787265286976,0.008618244210270708,0.004546088878209539,29.255686729913577
1630,A,1559995516685424.0,-0.10984802,7.1259766,4.2588654,154,1970-01-19 01:19:55.516685424,0.8160095,-0.19178772,-0.017868042,8.302381802022998,0.8384350306123679,28.080280303955078,-77.8878402709961,-71.67286682128906,29306040.0,50354.0,0.02439252445966,0.02582947706119994,0.32413160342580005,0.0028375996757896023,0.005861620833162976,0.013282665719020866,29.306040734052658
1630,A,1559995567039428.0,-2.3908691,6.02565,7.0419464,154,1970-01-19 01:19:55.567039428,-0.54875183,0.21188354,0.05810547,9.571505737150648,0.5911002039377092,28.017683029174805,-77.87982177734375,-71.63690185546875,29356394.0,50354.0,-0.06296055493024,-0.16235069709180003,0.2845205386886,-0.0009710273031577926,-0.0034371947567104185,0.01532403498201425,29.356394737958908
1630,A,1559995617393432.0,0.45617676,9.407288,3.6165466,154,1970-01-19 01:19:55.617393432,0.5806885,0.15530396,0.43141174,10.088834127949553,0.7398881965768608,27.941036224365234,-77.88311767578125,-71.52881622314453,29406748.0,50354.0,-0.04870974904418001,-0.10491411997400006,0.268348878261,-0.0028115232431639727,-0.006728926299265649,0.01391959331054008,29.40674874209799
1630,A,1559995667747436.0,1.8448944,7.288666,0.8170929,154,1970-01-19 01:19:55.667747436,0.9496002,-0.28645325,0.32366943,7.56279896691283,1.0433397836717084,29.079662322998047,-77.89715576171875,-72.59408569335938,29457102.0,50354.0,0.05793406859532001,-0.07311516614200005,0.11162574169150001,0.0002322406933390517,-0.004482243336542535,0.009566621006544094,29.45710274600424
1630,A,1559995718101440.0,0.5131073,4.99263,0.12704468,154,1970-01-19 01:19:55.718101440,0.6189575,-0.09980774,0.08720398,5.020535207418587,0.6329885511587062,29.639371871948242,-78.1011962890625,-73.11100769042969,29507456.0,50354.0,0.0593674088009,-0.18426301060800004,0.023770551851660004,0.0029532992964046317,-0.0064800103560347525,0.00340887248253614,29.50745674991049
1630,A,1559995768455444.0,-0.12721252,7.0782013,0.8119812,154,1970-01-19 01:19:55.768455444,0.53219604,0.5515137,0.03869629,7.125758214935438,0.7673965006039157,29.08724021911621,-78.24457550048828,-72.54141235351562,29557810.0,50354.0,0.009715672876060002,-0.18956188035990004,0.02364185458076,0.0017393047473808223,-0.00941178927989882,0.0011937021567490385,29.55781075404957
1630,A,1559995818809448.0,0.45417786,10.34874,0.7735443,154,1970-01-19 01:19:55.818809448,0.9447937,0.13691711,-0.04637146,10.387543881985609,0.955788545062648,29.142789840698242,-78.40715026855469,-72.54930114746094,29608164.0,50354.0,0.008232006365180001,-0.054711098889900056,0.0399187755135,0.0004518687202566995,-0.006150060798572218,0.001600265983883184,29.60816475795582
1630,A,1559995869163451.0,-0.5161438,10.576904,-0.4252472,154,1970-01-19 01:19:55.869163451,0.17970276,-0.27825928,-0.12666321,10.598025185316475,0.3546334412111189,29.211816787719727,-78.41619873046875,-72.61058807373047,29658518.0,50354.0,-0.0015601164713800015,0.03337573898799997,0.0087690760867,0.0001679781718562026,-0.0005371603562501385,0.0012258140397382357,29.658518760930747
1630,A,1559995919517455.0,-2.1833649,14.4526825,0.53048706,154,1970-01-19 01:19:55.919517455,-1.2008667,-0.08131409,0.3588562,14.626295848682458,1.2559739585994043,29.084945678710938,-78.42845153808594,-72.5423583984375,29708872.0,50354.0,-0.06796553053990001,0.1367006993105,0.0026496239552200006,-0.001750447214802997,0.004282014487041334,0.0002874886109554199,29.708872765069827
1630,A,1559995969871459.0,2.4429626,15.179184,5.227829,154,1970-01-19 01:19:55.969871459,-0.19670105,0.94566345,-0.16708374,16.23902365365898,0.9802487642988348,28.825803756713867,-78.15413665771484,-72.29509735107422,29759226.0,50354.0,0.006535891292900001,0.2525723028704999,0.14497712344262,-0.0015466140273217193,0.009800726375911036,0.003716798619235418,29.759226768976077
1630,A,1559996020225463.0,2.8256683,8.220123,6.2681427,154,1970-01-19 01:19:56.020225463,0.39260864,-0.6420593,0.37898254,10.716549649225593,0.8426205875386569,28.840106964111328,-78.19142150878906,-72.2896728515625,29809580.0,50354.0,0.1326483201693,0.09565515233899993,0.2894340794909,0.0035042408919838098,0.008767322639809578,0.010937170856257233,29.809580773115158
1630,A,1559996070579467.0,4.0418396,4.6445313,7.0644226,154,1970-01-19 01:19:56.070579467,0.6491394,-0.43847656,-0.042755127,9.370923381406904,0.7845200157972898,28.932222366333008,-78.2095947265625,-72.3506088256836,29859934.0,50354.0,0.17290324639830001,-0.16957579868890008,0.33567399655810004,0.007692871791472466,-0.001861100113151436,0.015738346030685673,29.859934777021408
1630,A,1559996120933471.0,-0.011245728,9.2438965,1.8179016,154,1970-01-19 01:19:56.120933471,-0.6318512,0.19802856,-0.24157715,9.420961479402889,0.7048480466875368,28.264636993408203,-78.2455062866211,-71.72917175292969,29910288.0,50354.0,0.10147826191534402,-0.14380025327940005,0.2236302763834,0.006908103234812617,-0.007889868860405892,0.014081603679848148,29.910288780927658
1630,A,1559996171287475.0,-1.2895508,6.2364807,0.54914856,154,1970-01-19 01:19:56.171287475,-0.9695587,-0.39678955,-0.027038574,6.392041686988845,1.0479585412690933,28.267053604125977,-78.2623519897461,-71.78115844726562,29960642.0,50354.0,-0.032750154185456,-0.10371974323560003,0.05959522187832,0.0017303675683153909,-0.006231810952258157,0.007130768369735325,29.96064278506674
1630,A,1559996221641479.0,0.24555969,4.555725,-0.93315125,154,1970-01-19 01:19:56.221641479,-0.2185669,-0.17350769,-0.07710266,4.656790857699587,0.289518960421976,28.29227066040039,-78.2681655883789,-71.81806182861328,30010996.0,50354.0,-0.026284564176469998,-0.22175383709110005,-0.00966803572613,-0.001486317104198211,-0.008194448331885328,0.0012570167657536876,30.01099678897299
1630,A,1559996271995483.0,0.981369,7.434555,0.29907227,154,1970-01-19 01:19:56.271995483,-0.5081177,0.5137634,0.030700684,7.505007487329306,0.7232419790297835,28.886411666870117,-78.39803314208984,-72.42206573486328,30061350.0,50354.0,0.030890383628130003,-0.19158992044000006,-0.01596420647946,0.00011596071633444396,-0.010406755783360507,-0.0006453429620101395,30.06135079311207
1630,A,1559996322349487.0,0.1689148,11.845093,1.505127,154,1970-01-19 01:19:56.322349487,-1.7289124,-0.09286499,0.036514282,11.941531211466854,1.7317896194490356,28.453493118286133,-78.52403259277344,-72.08268737792969,30111704.0,50354.0,0.0289606952326,-0.008065502304000039,0.04542432502079,0.0015068706124765994,-0.005026724578425691,0.0007417174045150655,30.11170479701832
1630,A,1559996372703490.0,3.155182,11.336975,0.5669098,154,1970-01-19 01:19:56.372703490,-1.0025635,0.09501648,-0.2707672,11.7814923640889,1.0428214514477923,28.450836181640625,-78.51341247558594,-72.13113403320312,30162058.0,50354.0,0.08369078513360001,0.09018572603599999,0.05216767051360001,0.002836226321179818,0.002067540872900563,0.0024570736715693376,30.162058799993247
1630,A,1559996423057494.0,5.903015,13.451065,4.788376,154,1970-01-19 01:19:56.423057494,0.30285645,0.08332825,-0.5080261,15.450089981674088,0.5972906703070751,28.565959930419922,-78.4976577758789,-72.2331771850586,30212412.0,50354.0,0.22805822586900001,0.13061928307999998,0.13483003058660004,0.00784890485001246,0.005559207714513532,0.004708041120599736,30.212412803899497
1630,A,1559996473411498.0,0.3498993,12.268906,8.587967,154,1970-01-19 01:19:56.473411498,0.70036316,-0.7291107,-0.0927887,14.980042094402322,1.0152441635327758,28.70699691772461,-78.52743530273438,-72.34136199951172,30262766.0,50354.0,0.1574296233311,0.15408250986699995,0.3367761877110001,0.00970542757931092,0.007167937041026618,0.01187362975807868,30.262766808038577
1630,A,1559996523765502.0,-2.7870636,7.4246826,4.5932007,154,1970-01-19 01:19:56.523765502,0.2750244,-0.78904724,0.158432,9.164667363940069,0.8504908383815651,28.78011131286621,-78.5658187866211,-72.40192413330078,30313120.0,50354.0,-0.06136048558110001,0.0023562801821999197,0.3318622591829,0.00241873268113175,0.003938659417068705,0.016834310177447725,30.313120811944827
1630,A,1559996574119506.0,-1.929657,6.9082947,5.894226,154,1970-01-19 01:19:56.574119506,0.37864685,0.464859,0.16156006,9.283857600091304,0.6209420100807531,28.708824157714844,-78.54930114746094,-72.30985260009766,30363474.0,50354.0,-0.11875287454620001,-0.13260783051790007,0.26404194202590003,-0.004534714067925032,-0.003279343282801923,0.01500308007383396,30.363474816083908
1630,A,1559996624473510.0,1.3426819,9.730621,2.3818665,154,1970-01-19 01:19:56.624473510,1.2632599,0.08143616,0.46362305,10.107475834947657,1.348111180724668,28.686321258544922,-78.45086669921875,-72.22146606445312,30413828.0,50354.0,-0.014778272092699997,-0.07455121942110006,0.20836718087250003,-0.003361913678927586,-0.005215643400314207,0.01189384448721302,30.413828819990158
1630,A,1559996674827514.0,1.4903259,6.4953766,-0.15138245,154,1970-01-19 01:19:56.674827514,1.4097443,0.26634216,0.15319824,6.665876169732406,1.4428398519291923,28.692646026611328,-78.44283294677734,-72.15596771240234,30464182.0,50354.0,0.0713266373806,-0.08494725842480005,0.05615689692685001,0.0014237181928534583,-0.004015693176726227,0.006659922706754237,30.464182823896408
1630,A,1559996725181518.0,-0.40538025,4.566864,-0.29005432,154,1970-01-19 01:19:56.725181518,0.6466217,0.36006165,0.04940796,4.593986444270023,0.7417581554812688,28.67218589782715,-78.42829895019531,-72.10211944580078,30514536.0,50354.0,0.02731567663005,-0.21495516841380008,-0.01111405355829,0.002483517539846135,-0.007550643400515436,0.0011340436674902356,30.51453682803549
1630,A,1559996775535522.0,1.5074158,7.5272827,1.6703339,154,1970-01-19 01:19:56.775535522,0.75205994,0.46202087,-0.22720337,7.856354280281544,0.9114158266168727,29.17218780517578,-78.28646850585938,-72.55475616455078,30564890.0,50354.0,0.027745949042350004,-0.18897486853410006,0.03475129898566,0.001386286549554015,-0.010169746540237282,0.0005951149281248944,30.56489083194174
1630,A,1559996825889526.0,0.9582367,9.82811,0.19703674,154,1970-01-19 01:19:56.825889526,0.894928,0.2207489,-0.10575867,9.876678957131123,0.9277990613895764,29.751070022583008,-78.47233581542969,-73.07779693603516,30615244.0,50354.0,0.0620777329925,-0.05651247799210003,0.047014790603279996,0.0022614908425914186,-0.006180634923490139,0.0020586248375807424,30.61524483608082
1630,A,1559996876243530.0,-2.1271973,11.469635,1.0349121,154,1970-01-19 01:19:56.876243530,0.12783813,-0.010787964,0.13742065,11.711043439466813,0.1879984114177157,29.729520797729492,-78.47623443603516,-73.04927825927734,30665598.0,50354.0,-0.029430921026200006,0.04274412586499999,0.031016775944679997,0.0008219487848755351,-0.0003466458015039978,0.001964600750977989,30.66559883998707
1630,A,1559996926597533.0,-1.2968445,14.630447,0.40202332,154,1970-01-19 01:19:56.926597533,-0.19821167,0.14909363,0.13078308,14.693311669831724,0.2803943484541944,29.673629760742188,-78.47299194335938,-73.00236511230469,30715952.0,50354.0,-0.08620710039860001,0.16365256451399998,0.03617772306934,-0.00291141846541219,0.005196449473672082,0.0016917559016759816,30.715952842961997
1630,A,1559996976951537.0,1.0035553,13.402527,3.7765503,154,1970-01-19 01:19:56.976951537,-0.40400696,0.15046692,0.0050964355,13.960558204968638,0.4311471806674998,29.126968383789062,-78.36107635498047,-72.48583984375,30766306.0,50354.0,-0.007384142188400001,0.21231698639799995,0.10520394803074,-0.0023563467146128993,0.009465785383311422,0.003559566333286714,30.766306847101077
1630,A,1559997027305541.0,2.46521,6.3862457,6.57106,154,1970-01-19 01:19:57.027305541,-0.59091187,-0.57666016,0.11555481,9.488952735074008,0.8337065984818991,29.14112663269043,-78.38905334472656,-72.53045654296875,30816660.0,50354.0,0.0873331039581,0.004752730267899942,0.2605217845231,0.002012875010475737,0.005465164256497361,0.00920787676850803,30.816660851007327
1630,A,1559997077659545.0,3.4392853,7.993469,5.3671417,154,1970-01-19 01:19:57.077659545,0.008117676,-0.19927979,-0.09851074,10.224012913559724,0.22244706620100138,29.186113357543945,-78.3953628540039,-72.57597351074219,30867014.0,50354.0,0.14865747816810002,-0.13143112299810003,0.3005681042009,0.005941534886191337,-0.003189381893768248,0.014126560128404148,30.867014854913577
