Subject-id_accel,Activity_accel,Timestamp_accel,accel_x,accel_y,accel_z,Segment_accel,DateTime,gyro_x,gyro_y,gyro_z,accel_magnitude,gyro_magnitude,Roll,Pitch,Yaw,Time_Difference,Difference_Microseconds,vx,vy,vz,dx,dy,dz,Time_diff
1609,A,41846296904307.0,2.5510406,2.442520937337445,-1.406344603681956,46,1970-01-01 11:37:26.296904307,-0.52093506,2.4728088,0.6138458,16.7472050542579,2.6005698153043855,-87.59228515625,-16.214189529418945,-34.896812438964844,15005496.0,50354.0,0.1841248669267,-0.22892741459531035,-0.11657170813750123,0.014468368337769617,-0.011833228349470967,-0.007945422292803277,15.005496452002262
1609,A,41846347258311.0,0.41885376,10.495773937337443,0.9893310363180438,46,1970-01-01 11:37:26.347258311,0.30177307,1.8683624,0.506897,8.318770136865336,1.9592829331467125,-87.55040740966797,-16.18490982055664,-34.992889404296875,15055850.0,50354.0,0.07477303030172,-0.1677217499403104,-0.010499150585521219,0.00651827235851993,-0.009986436015513323,-0.0031992630100695367,15.0558504560031
1609,A,41846397612314.0,-0.3927307,16.077866637337443,1.0018432463180438,46,1970-01-01 11:37:26.397612314,0.3575592,-1.3268738,1.1119232,2.755316876776216,1.7677148710494348,-87.55242156982422,-16.1322021484375,-34.92141342163086,15106204.0,50354.0,0.0006577002816200009,0.1755753487485896,0.05013179491392877,0.0018991195038967513,0.0001977300571960457,0.000997831086256317,15.106204458999855
1609,A,41846447966318.0,2.5242767,10.295624937337443,2.0581481963180437,46,1970-01-01 11:37:26.447966318,0.4424286,-3.7186432,1.3605652,8.925645301500813,3.984367952192071,-87.48577880859375,-16.08057975769043,-34.75251007080078,15156558.0,50354.0,0.05366593364200001,0.1705361973755896,0.07704140455124878,0.001367706131294981,0.00871405039676846,0.0032018396429347755,15.156558463000692
1609,A,41846498320322.0,3.139328,7.976318937337444,3.627560396318044,46,1970-01-01 11:37:26.498320322,0.83039856,-4.8604584,0.3690338,11.552483576879991,4.944674263500384,-87.51446533203125,-16.0727481842041,-34.49900436401367,15206912.0,50354.0,0.14259257553190002,-0.0334364690673104,0.14314908523679878,0.004941200485471281,0.003451759859617545,0.005543735961393674,15.20691246700153
1609,A,41846548674326.0,1.5828705,11.881745437337443,2.8528716963180436,46,1970-01-01 11:37:26.548674326,1.3460083,-2.5682068,-0.002960205,7.3130546562993635,2.899557427272095,-87.484130859375,-16.07849884033203,-34.365501403808594,15257266.0,50354.0,0.11889079163450002,0.0064972867611896015,0.16315783879629878,0.006583366735148454,-0.0006782477929212033,0.007711889426381298,15.257266471002367
1609,A,41846599028330.0,2.493164,10.603378937337444,2.4951293963180436,46,1970-01-01 11:37:26.599028330,1.8246002,1.085556,-0.3328247,8.683115869185908,2.1490393202326774,-87.19973754882812,-16.11061668395996,-34.471885681152344,15307620.0,50354.0,0.10262232060650002,0.07263877638118961,0.13464662350929876,0.0055770356268916585,0.0019924086617356816,0.00749782294746803,15.307620475003205
1609,A,41846649382334.0,3.5464172,8.945923937337444,1.7833526463180438,46,1970-01-01 11:37:26.649382334,1.9034271,5.7355194,-0.32757568,10.498048056529232,6.051985074247807,-86.99292755126953,-16.20328140258789,-34.77897644042969,15357974.0,50354.0,0.15205853587240004,-0.00127640152431038,0.10771934238744876,0.006412099923569266,0.0017966905117716484,0.006102047923382412,15.357974479004042
1609,A,41846699736338.0,8.791199,8.801758937337443,-7.497241003681957,46,1970-01-01 11:37:26.699736338,-0.17488098,10.213318,-0.36946106,15.850824595534487,10.221494479827598,-86.85324096679688,-16.194316864013672,-35.311012268066406,15408328.0,50354.0,0.31062416306740004,-0.04663578826431042,-0.14385856717335127,0.011648962311207347,-0.001206285202308106,-0.0009098772624346674,15.408328482997604
1609,A,41846750090342.0,4.652191,8.471222937337444,-0.36934200368195613,46,1970-01-01 11:37:26.750090342,-3.1003418,4.7379303,-0.18193054,11.426112383584277,5.665086188741529,-86.93943786621094,-16.190574645996094,-35.55785369873047,15458682.0,50354.0,0.33846423003000004,-0.058587335341310415,-0.19805696037640125,0.016342098473013243,-0.002649202583018716,-0.008608407237120119,15.458682486998441
1609,A,41846800444346.0,9.90329,10.523422937337443,2.595776396318044,46,1970-01-01 11:37:26.800444346,0.16615295,-2.6101685,0.93692017,12.994773867134233,2.7782019016152844,-86.9696273803711,-16.150726318359375,-35.41956329345703,15509036.0,50354.0,0.366463345137,-0.015241000813310396,0.05605493870339879,0.017747961559979562,-0.0018587760193648883,-0.003575184899661183,15.509036490999279
1609,A,41846850798350.0,9.58577,11.280564337337443,0.8966644163180437,46,1970-01-01 11:37:26.850798350,0.29838562,-1.9732056,-1.1026764,12.186856460513816,2.2800152546005266,-86.98245239257812,-16.210987091064453,-35.32000732421875,15559390.0,50354.0,0.4906760636200001,0.05548978761448959,0.08792918233973879,0.021580198894274993,0.0010133437052932887,0.003625088215503075,15.559390495000116
1609,A,41846901152354.0,8.325409,6.398926937337444,1.3814819163180438,46,1970-01-01 11:37:26.901152354,-1.1990051,-0.43170166,-2.809433,14.941818072270694,3.0849462450035925,-87.04655456542969,-16.352388381958008,-35.30516815185547,15609744.0,50354.0,0.45094975368300005,-0.048352648177510386,0.05735689021677878,0.023707313202237634,0.0001796917596048254,0.003657867448755443,15.609744499000954
1609,A,41846951506357.0,5.5766754,-0.17423906266255784,2.3182036963180437,46,1970-01-01 11:37:26.951506357,-1.2423553,-2.025528,-3.2817078,19.817289997335543,4.051643673227315,-87.11815643310547,-16.521244049072266,-35.213462829589844,15660098.0,50354.0,0.3500127789388,-0.3367502333793104,0.09314698466933878,0.02016583368381906,-0.009695735248956078,0.003789236058007782,15.660098501997709
1609,A,41847001860361.0,-1.6871948,2.545090937337445,-1.5230438036819562,46,1970-01-01 11:37:27.001860361,-1.2196503,-3.5302277,-1.5318756,16.55478368621671,4.0369168089041345,-87.23045349121094,-16.606447219848633,-35.033477783203125,15710452.0,50354.0,0.0979254530662,-0.43377826235131045,0.020019740616898776,0.011277740867189886,-0.019399595937009843,0.0028491986425316033,15.710452505998546
1609,A,41847052214365.0,-0.50331116,12.589920937337443,1.9845244963180437,46,1970-01-01 11:37:27.052214365,-0.8724518,-4.1757507,0.031036377,6.295938053015992,4.26603203323311,-87.33631134033203,-16.614791870117188,-34.815757751464844,15760806.0,50354.0,-0.05515036855492001,-0.1124150060313104,0.011618699398498775,0.0010769483027404964,-0.013751507918069245,0.0007965610042676641,15.760806509999384
1609,A,41847102568369.0,-0.17353821,15.584061737337443,3.3715026963180437,46,1970-01-01 11:37:27.102568369,0.03967285,-3.888092,-0.30949402,3.943008321430166,3.900592247839664,-87.3921127319336,-16.639190673828125,-34.61383056640625,15811160.0,50354.0,-0.017041036588490002,0.21586716180028956,0.1348486966289988,-0.0018175630072956343,0.0026046149257955885,0.0036876096297843064,15.811160514000221
1609,A,41847152922373.0,-0.8674774,14.589737937337443,4.027569596318044,46,1970-01-01 11:37:27.152922373,0.44981384,-2.168167,-0.30059814,5.202837542822966,2.2346453571687848,-87.40180969238281,-16.659130096435547,-34.501502990722656,15861514.0,50354.0,-0.026209650012969998,0.2662165544092896,0.18628644311169879,-0.0010889225365649585,0.012137421723008574,0.008085219413251543,15.861514518001059
1609,A,41847203276377.0,-0.34228516,14.527405937337443,4.582440196318044,46,1970-01-01 11:37:27.203276377,0.8291321,-0.9741974,0.26805115,5.52437044101196,1.3070470658830509,-87.37507629394531,-16.647958755493164,-34.450069427490234,15911868.0,50354.0,-0.03045819197312,0.23961313133268952,0.2167742165491988,-0.001426726257683788,0.012735273997925808,0.010147858228282418,15.911868522001896
1609,A,41847253630381.0,3.4355164,8.277786937337444,0.6976897963180437,46,1970-01-01 11:37:27.253630381,2.392746,-0.6905365,0.33233643,11.079294413264485,2.512473200066698,-87.38545227050781,-16.66972541809082,-34.379058837890625,15962222.0,50354.0,0.07787828292948001,0.0806971410056896,0.13293783282459878,0.0011938956300082762,0.008064451726663372,0.008804700267084102,15.962222526002734
1609,A,41847303984385.0,7.1610413,2.936310937337444,-9.578098003681957,46,1970-01-01 11:37:27.303984385,-2.1205444,7.9298706,-1.7109222,20.42273623726896,8.384915685895033,-87.37144470214844,-16.737045288085938,-34.796669006347656,16012576.0,50354.0,0.2667895332129,-0.2111318578093104,-0.22358203743680127,0.008677701607016702,-0.003283954864964761,-0.002282149139521422,16.01257653000357
1609,A,41847354338389.0,0.14041138,10.958573437337444,0.2883727963180438,46,1970-01-01 11:37:27.354338389,1.3281555,0.92814636,0.97055054,7.887917571934064,1.8887617765233897,-87.29180145263672,-16.68640899658203,-34.842708587646484,16062930.000000002,50354.00000000186,0.1838286741243668,-0.1436376960988157,-0.2338874115458099,0.011345214606130785,-0.008932033058745221,-0.011517708317035627,16.062930533997132
1609,A,41847404692393.0,5.2198486,2.6212779373374424,1.1492889233180439,46,1970-01-01 11:37:27.404692393,-0.52430725,-0.07952881,1.4965668,17.003087661008152,1.5877452915643677,-87.38326263427734,-16.642005920410156,-34.81681442260742,16113284.0,50353.99999999814,0.13495526551645498,-0.15156928193980482,0.03619600911527644,0.008026023248336673,-0.007432426086078073,-0.0049772764389933565,16.11328453799797
1609,A,41847455046396.0,0.60606384,11.479996937337443,3.019787596318044,46,1970-01-01 11:37:27.455046396,-0.8221283,2.661911,-0.11218262,7.594604367528404,2.7882342178898734,-87.38455963134766,-16.64154052734375,-34.95585250854492,16163637.999999998,50353.99999999814,0.14667899750187458,-0.13844140248030531,0.10496483953487389,0.0070907058400122205,-0.007301599001644843,0.0035540066864647034,16.163638541002
1609,A,41847505400400.0,-0.37698364,14.508072937337444,1.5261810163180438,46,1970-01-01 11:37:27.505400400,0.48321533,0.54008484,0.75413513,4.3325677551245905,1.045900800193284,-87.35285949707031,-16.602632522583008,-34.982200622558594,16213992.000000002,50354.000000003725,0.005767552195400426,0.1608324352347015,0.11445385176034724,0.0038381467817285766,0.0005637390316574746,0.005524304390740191,16.21399254500284
1609,A,41847555754404.0,3.7408905,7.134125937337444,2.1765105963180438,46,1970-01-01 11:37:27.555754404,1.214386,-1.922699,1.3258972,12.301165349410022,2.6323959023226045,-87.25662994384766,-16.56886863708496,-34.89735794067383,16264346.0,50353.99999999814,0.08469308301421685,0.05141644106768771,0.09322266673133532,0.00227752741267245,0.005343789958665055,0.005228671706064898,16.264346549003676
1609,A,41847606108408.0,3.0807495,9.988525937337444,2.1439177963180436,46,1970-01-01 11:37:27.606108408,1.6233215,-3.4733124,0.6619873,9.395603324645453,3.8906681824228215,-87.12903594970703,-16.609506607055664,-34.74285888671875,16314699.999999998,50353.99999999814,0.17174843027999365,-0.062372193751308064,0.10877542564139474,0.0064564279802080985,-0.00027583298531549944,0.005085705971668036,16.314700552997238
1609,A,41847656462412.0,1.1667175,13.072007237337443,4.5075652963180435,46,1970-01-01 11:37:27.656462412,2.2358704,-0.61138916,0.39569092,6.768404936612676,2.351485584632003,-87.02664184570312,-16.5913028717041,-34.70994567871094,16365054.0,50354.00000000186,0.10693847665900397,0.08712584373879283,0.16746438982330497,0.007016500256003403,0.0006232226457349269,0.006954889833955002,16.365054556998075
1609,A,41847706816416.0,3.8865356,9.418488937337443,-0.5545380036819563,46,1970-01-01 11:37:27.706816416,2.4724274,4.1505737,0.3898468,10.29175830489117,4.846869073419736,-86.84165954589844,-16.560739517211914,-34.925079345703125,16415408.0,50354.0,0.1272257532987,0.07277402218978958,0.09952536814669878,0.005895552817645113,0.00402579892448392,0.006722001136410785,16.415408560998912
1609,A,41847757170420.0,5.302353,9.084213937337443,-7.073596003681956,46,1970-01-01 11:37:27.757170420,-0.8351898,2.3735352,0.42767334,13.762351600088518,2.5522765981393625,-86.84855651855469,-16.532859802246094,-35.0474739074707,16465762.000000002,50354.00000000186,0.23134864828220855,-0.02762664972431144,-0.19205352990340832,0.00902782770860287,0.0011366753965633852,-0.0023295815285487623,16.46576256499975
1609,A,41847807524424.0,4.9683533,9.127609937337443,1.6994140463180438,46,1970-01-01 11:37:27.807524424,-1.374588,3.2774658,-0.07458496,10.893123723234966,3.554832929431683,-86.86865997314453,-16.527603149414062,-35.21836853027344,16516116.0,50353.99999999814,0.25858557251509046,-0.034950110307309136,-0.13530577914054623,0.01233507387701314,-0.001575495087316053,-0.008241925323799339,16.516116569000587
1609,A,41847857878428.0,6.3246155,8.896820937337443,1.624142436318044,46,1970-01-01 11:37:27.857878428,-0.15657043,-1.0175323,0.67778015,11.764833480382462,1.2325876085811092,-86.89209747314453,-16.49653434753418,-35.16345977783203,16566469.999999998,50353.99999999814,0.2843230754775895,-0.03966810386830896,0.08367718156332568,0.013668811030511195,-0.001878662778299467,-0.0012998532012016336,16.566470573001425
1609,A,41847908232432.0,8.101166,10.249039937337443,1.2064483463180438,46,1970-01-01 11:37:27.908232432,0.6542511,-2.1713562,0.071746826,11.781947211666008,2.2689160090604332,-86.89155578613281,-16.49884033203125,-35.050201416015625,16616824.000000002,50354.000000003725,0.36319790082552683,-0.011433860758311272,0.07126578413443405,0.016302635620384764,-0.0012865941634045129,0.003900999047372785,16.616824577002262
1609,A,41847958586436.0,7.773117,11.532456437337444,-2.5443756036819565,46,1970-01-01 11:37:27.958586436,-1.5335236,3.093048,-1.9098053,11.250605844563589,3.9453766418390335,-86.92082214355469,-16.58584213256836,-35.2166633605957,16667178.0,50353.99999999814,0.39966682309098517,0.054923534225187566,-0.03368499455864998,0.019206645154045313,0.0010949395088755039,0.0009461715391494804,16.6671785810031
1609,A,41848008940439.0,6.4562836,5.084168937337443,2.444592296318044,46,1970-01-01 11:37:28.008940439,-1.7729645,-1.499527,-2.7665863,15.221730442927631,3.6119224932626866,-86.97042083740234,-16.940326690673828,-35.16303634643555,16717531.999999998,50353.99999999814,0.35825361890618673,-0.07511242294180762,-0.002512244329501132,0.019082162968162092,-0.0005082956512183241,-0.0009113378834869469,16.717532583999855
1609,A,41848059294443.0,5.509857,-0.3431690626625574,3.310421696318044,46,1970-01-01 11:37:28.059294443,-0.51594543,-3.8134308,-2.4844666,20.04554692855479,4.580505260300668,-86.96318054199219,-17.050579071044922,-34.996803283691406,16767886.0,50354.00000000186,0.30127152188621115,-0.37410504615532425,0.14489398729260414,0.016604864469730817,-0.011309948219458908,0.003584745142582177,16.767886588000692
1609,A,41848109648447.0,-2.0264893,8.018494937337444,-1.3658630036819563,46,1970-01-01 11:37:28.109648447,-0.05482483,-1.7217102,-1.1666718,11.24739766821439,2.080484285853611,-86.99138641357422,-17.11336898803711,-34.91008758544922,16818240.0,50354.0,0.0877007485829,-0.3002275204533104,0.04895815420449878,0.009793154853600812,-0.016977671029505596,0.00488061536647256,16.81824059200153
1609,A,41848160002451.0,-0.24507141,14.953873737337444,2.1076018963180436,46,1970-01-01 11:37:28.160002451,0.3481598,-2.2757416,-0.11872864,3.986281315394943,2.3052790647257546,-87.00889587402344,-17.125253677368164,-34.7915153503418,16868594.0,50354.0,-0.05719108399567001,0.08490612612228962,0.018674760099898772,0.0007681418253126896,-0.005421146745072111,0.0017027938834418173,16.868594596002367
1609,A,41848210356455.0,0.24150085,15.283555137337444,3.708935496318044,46,1970-01-01 11:37:28.210356455,1.0079346,-2.824463,-0.58865356,4.387092174623803,3.0561473148306897,-87.00151824951172,-17.16202163696289,-34.64553451538086,16918948.0,50354.0,-8.989598912000001e-05,0.2678185467776896,0.1464429619343988,-0.001442163233077058,0.008880549089602778,0.00415716888765751,16.918948600003205
1609,A,41848260710459.0,-0.6151428,14.326264437337443,4.270550496318044,46,1970-01-01 11:37:28.260710459,1.0344543,-1.7820892,-0.51353455,5.519622878609945,2.1235949118390804,-86.97689819335938,-17.192344665527344,-34.55381393432617,16969302.0,50354.0,-0.00940718337515,0.2520172274315896,0.2008995188365988,-0.00023910796715422583,0.013087905287267023,0.008745041638371408,16.969302604004042
1609,A,41848311064463.0,-1.1952972,13.419617937337444,3.221035796318044,46,1970-01-01 11:37:28.311064463,1.3375244,-2.3190308,0.9814911,5.908100281923037,2.8513505837275095,-86.94657897949219,-17.14948081970215,-34.429893493652344,17019656.0,50354.0,-0.04558144788,0.20508888054718963,0.1886156680896988,-0.0013844487691109116,0.011508560480581726,0.009806823861243395,17.019656607997604
1609,A,41848361418467.0,7.72966,3.8248299373374444,-6.778262303681957,46,1970-01-01 11:37:28.361418467,-0.53564453,1.9089661,0.52897644,18.606099016816575,2.0520435442609894,-86.94441986083984,-17.117982864379883,-34.528160095214844,17070010.0,50354.0,0.16451565221560002,-0.05930573585931038,-0.08956029177590123,0.002994406462557402,0.0036703822338067364,0.0024939172094524814,17.07001061199844
1609,A,41848411772471.0,2.7909698,6.281387937337444,-2.121676603681956,46,1970-01-01 11:37:28.411772471,-0.34791565,6.8686523,-0.9603119,13.227753016118664,6.944179480910025,-86.85530090332031,-17.147354125976562,-34.88973617553711,17120364.0,50354.0,0.2648778964746,-0.2390249525693104,-0.22407376187070124,0.010810841375373168,-0.007511071742567385,-0.00789636456866051,17.12036461599928
1609,A,41848462126475.0,3.911087,6.546463937337444,-0.1893494036819563,46,1970-01-01 11:37:28.462126475,0.39305115,-1.3463898,1.3112335,12.93022634528911,1.9200489555171798,-87.08474731445312,-17.10192108154297,-34.74870681762695,17170718.0,50354.0,0.1687376840536,-0.17050237335131038,-0.05818470178740122,0.010917139470958494,-0.01031066948470347,-0.0071064213395200465,17.170718620000116
1609,A,41848512480479.0,3.5543365,5.998840937337443,0.8615844563180438,46,1970-01-01 11:37:28.512480479,-0.8700104,2.3707275,0.045562744,13.290724223915673,2.525736118244584,-87.19232177734375,-17.0549259185791,-34.842952728271484,17221072.0,50354.0,0.18795696745950002,-0.17761605917031043,0.016924861920218776,0.00898050124114532,-0.008764577775596846,-0.0010387989883360524,17.221072624000954
1609,A,41848562834482.0,-1.0778809,15.877701937337443,1.3937194663180437,46,1970-01-01 11:37:28.562834482,0.14143372,2.6960602,-0.20574951,3.131475498592513,2.7075961589650546,-87.14378356933594,-17.058542251586914,-34.98431396484375,17271426.0,50354.0,0.06234972264119999,0.05731651995568957,0.05678178686020878,0.006301971536665324,-0.0030287814988065095,0.0018557122963448246,17.27142662699771
1609,A,41848613188486.0,-0.21252441,10.561890937337443,1.1264465163180437,46,1970-01-01 11:37:28.613188486,0.73324585,1.1081696,0.6580963,8.244126327332351,1.482828405102921,-87.09066772460938,-17.022890090942383,-35.04045867919922,17321780.0,50354.0,-0.032488534489870005,0.1722004298056896,0.06345021894482879,0.0007518151340860351,0.005778548244142243,0.003027081210153431,17.321780630998546
1609,A,41848663542490.0,0.71017456,7.169266937337444,1.2925994663180438,46,1970-01-01 11:37:28.663542490,0.73088074,-1.8853607,0.57766724,11.65719825824086,2.102967205016915,-87.0833740234375,-16.998836517333984,-34.94047546386719,17372134.0,50354.0,0.012529337826550002,-0.04705183818931041,0.060904320704828784,-0.0005025126943924077,0.0031508660911255784,0.0031308742447594285,17.372134634999384
1609,A,41848713896494.0,0.7981262,12.463257937337444,1.5701873563180437,46,1970-01-01 11:37:28.713896494,0.7655945,-2.8039093,0.99539185,6.407205090820344,3.072270697074586,-87.05426025390625,-16.711538314819336,-34.8014030456543,17422488.0,50354.0,0.03797448823452,0.0008188787696896011,0.07207638383350878,0.0012715348287395596,-0.0011640072193077934,0.0033480551981617253,17.42248863900022
1609,A,41848764250498.0,2.0296783,11.544114137337443,1.9959533563180438,46,1970-01-01 11:37:28.764250498,1.0183411,-1.6599731,0.94644165,7.590454574625696,2.1652438859231404,-86.92639923095703,-16.639568328857422,-34.741737365722656,17472842.0,50354.0,0.07119563389650001,0.1109644067240896,0.08978472472203879,0.002748576164892691,0.002814367778876879,0.004075177130103021,17.47284264300106
1609,A,41848814604502.0,2.848877,9.709656937337444,2.370678696318044,46,1970-01-01 11:37:28.814604502,1.8965759,0.41349792,0.6179657,9.613574304273572,2.037121076588632,-86.70460510253906,-16.62387466430664,-34.79624938964844,17523196.0,50354.0,0.12282738678810001,0.0416369943470896,0.10993869518921878,0.004884917591776176,0.0038420454747690787,0.005028436543105732,17.523196647001896
1609,A,41848864958506.0,6.367996,7.444656937337443,1.5887725663180439,46,1970-01-01 11:37:28.864958506,2.5144806,4.2861786,0.69255066,13.03098028118441,5.017326588487215,-86.51571655273438,-16.576635360717773,-35.01735305786133,17573550.0,50354.0,0.232053211521,-0.0615750395773104,0.09968710443938879,0.008934828823628211,-0.0005019801647612692,0.005277748757249453,17.573550651002734
1609,A,41848915312510.0,6.4379272,7.726380437337443,-1.2873870036819561,46,1970-01-01 11:37:28.915312510,-1.0425415,4.9198303,-0.17292786,13.032621955285824,5.032049980354381,-86.49461364746094,-16.57027244567871,-35.27408218383789,17623904.0,50354.0,0.3224147284064,-0.11150799201781042,0.007587984310488781,0.01395983932355215,-0.004357711486470357,0.0027008649094556678,17.62390465500357
1609,A,41848965666514.0,9.1167755,9.265473437337443,2.9743773963180438,46,1970-01-01 11:37:28.965666514,-1.7415771,0.82966614,0.35028076,13.326410383743443,1.9606461460276527,-86.56969451904297,-16.55027961730957,-35.31617736816406,17674258.0,50354.0,0.3916207498779,-0.06566529499731043,0.042473357115398784,0.017977271236763823,-0.004460691847179698,0.0012603943930795712,17.674258658997132
1609,A,41849016020518.0,10.860474,11.198990937337443,-0.7709839036819561,46,1970-01-01 11:37:29.016020518,-0.4991455,-0.68955994,-1.3695221,13.389537024761701,1.612522844306853,-86.60368347167969,-16.620685577392578,-35.284515380859375,17724612.0,50354.0,0.5029672106615,0.021764619561189576,0.05547483796409878,0.022523041082500476,-0.0011052873054552147,0.00246604170751651,17.72461266299797
1609,A,41849066374521.0,7.620758,5.606186937337444,-0.42142030368195615,46,1970-01-01 11:37:29.066374521,-1.7411652,1.105423,-3.3582306,15.315241602049394,3.940980718729337,-86.6712417602539,-16.78506851196289,-35.352413177490234,17774966.0,50354.0,0.465301978064,-0.0703652366493104,-0.030021160728801222,0.024378113364541914,-0.0012236177364276179,0.0006408472317530866,17.774966666002
1609,A,41849116728525.0,1.8793488,-0.2379910626625552,-4.065448003681956,46,1970-01-01 11:37:29.116728525,-2.0446472,-1.2210999,-3.6314545,19.819057656229027,4.342709859502255,-86.7888412475586,-16.969829559326172,-35.299537658691406,17825320.0,50354.0,0.23918418890360005,-0.3583141324633104,-0.11296588337450122,0.017736848225743267,-0.010792860476148454,-0.0035999848093888464,17.82532067000284
1609,A,41849167082529.0,-0.3480835,5.763229937337444,1.6065337963180437,46,1970-01-01 11:37:29.167082529,-1.0962067,-2.807541,-1.1685486,13.054436781338376,3.2325626716844718,-86.88550567626953,-17.035913467407227,-35.15632629394531,17875674.0,50354.0,0.0385526664581,-0.35436026085231037,-0.061908082998801225,0.0069925808074415225,-0.017943003200507384,-0.004402801851380636,17.875674674003676
1609,A,41849217436533.0,-0.22827148,12.968415337337444,2.419186396318044,46,1970-01-01 11:37:29.217436533,-0.19332886,-2.7389374,-0.25016785,5.986172371462845,2.7571249667726856,-86.93689727783203,-17.0557804107666,-35.013999938964844,17926028.0,50354.0,-0.014510889331459999,-0.02186256691951039,0.1013555572899988,0.0006052998227174155,-0.009472162134811132,0.0009931690602294815,17.926028677997238
1609,A,41849267790537.0,-0.42160034,14.719849637337443,3.3785521963180436,46,1970-01-01 11:37:29.267790537,0.2537384,-2.5459442,-0.30821228,4.6944616765862355,2.5770544919910017,-86.96298217773438,-17.077943801879883,-34.88188552856445,17976382.0,50354.0,-0.01636182281214,0.2036382472673896,0.1459696645467988,-0.0007772822736394171,0.004576566304118556,0.006226907110185054,17.976382681998075
1609,A,41849318144541.0,-0.6951294,15.696045937337443,3.793499696318044,46,1970-01-01 11:37:29.318144541,-0.017852783,-0.8968048,-0.09436035,4.169666761116271,0.9019320633041091,-86.97756958007812,-17.08502769470215,-34.8353157043457,18026736.0,50354.0,-0.028115904663980004,0.27231180288358964,0.1805707505008988,-0.0011198157446662732,0.011982994412651205,0.008221308029655882,18.026736685998912
1609,A,41849368498545.0,-1.3069153,15.774796537337444,3.1396299963180434,46,1970-01-01 11:37:29.368498545,0.7141571,-0.5359192,0.5089264,3.877438437986198,1.02773334723848,-86.95048522949219,-17.06103515625,-34.805908203125,18077090.0,50354.0,-0.0504054794119,0.2988722009848896,0.1745554062714988,-0.001976932886878431,0.014380699665396702,0.008941011249058654,18.07709068999975
1609,A,41849418852549.0,8.466507,5.268890937337444,-5.310779003681956,46,1970-01-01 11:37:29.418852549,0.7020569,0.2965393,0.88482666,17.203903376806004,1.1677917903157462,-86.91157531738281,-17.01606559753418,-34.81892013549805,18127444.0,50354.0,0.1802570402309,0.03634771954988962,-0.054663018558401236,0.0032692727467399634,0.008439831939304136,0.003018530645452657,18.127444694000587
1609,A,41849469206553.0,6.5863495,3.962891937337444,-1.3946716036819564,46,1970-01-01 11:37:29.469206553,0.3554535,4.532898,0.37184143,16.426973809553346,4.561992713511356,-86.82491302490234,-16.985116958618164,-35.05450439453125,18177798.0,50354.0,0.37898576810050005,-0.2610406025643104,-0.16882312994160123,0.01408005618535966,-0.0056570927156540714,-0.005626710760784563,18.177798698001425
1609,A,41849519560557.0,6.258606,4.502747937337444,-1.545382703681956,46,1970-01-01 11:37:29.519560557,-0.43045044,0.6482544,0.5421448,15.832839237711847,0.9483893359705146,-86.83702087402344,-16.956260681152344,-35.08677291870117,18228152.0,50354.0,0.32339744462350006,-0.2803297848753104,-0.07402174729650123,0.017683902146752153,-0.013630082244567332,-0.006114105474223705,18.228152702002262
1609,A,41849569914561.0,1.6959686,9.361466937337443,2.262600696318044,46,1970-01-01 11:37:29.569914561,-0.89598083,1.9690552,-0.15180969,9.662925488194393,2.1686415587534107,-86.75297546386719,-16.788450241088867,-35.218650817871094,18278506.0,50354.0,0.20027232470420003,-0.1444098621003104,0.01805739740059879,0.013184433782363508,-0.010693670091905206,-0.0014090144373291357,18.2785067060031
1609,A,41849620268564.0,-0.9788513,15.050309237337444,1.4835784763180437,46,1970-01-01 11:37:29.620268564,0.6095123,0.2871399,0.49430847,3.897282986725554,0.835640729941427,-86.71861267089844,-16.762962341308594,-35.232154846191406,18328860.0,50354.0,0.018054862262100003,0.12114608874978962,0.09431755302945878,0.0054968235862505365,-0.0005857120216460617,0.0028292641269775597,18.328860708999855
1609,A,41849670622568.0,1.8772278,8.924378937337444,1.4958465363180438,46,1970-01-01 11:37:29.670622568,0.8587494,-1.3274841,1.1841278,10.063377873423898,1.975303322147262,-86.72200775146484,-16.557687759399414,-35.15211486816406,18379214.0,50354.0,0.0226184251405,0.11014152417378964,0.07501298354313879,0.0010240313569352603,0.0058231282305769546,0.004263234919288289,18.379214713000692
1609,A,41849720976572.0,2.9339905,8.599960937337444,2.1952483963180436,46,1970-01-01 11:37:29.720976572,1.121109,-3.3096313,0.6764221,10.672958294993128,3.5592262627134423,-86.64436340332031,-16.51892852783203,-34.998023986816406,18429568.0,50354.0,0.12113204313910002,-0.052258894975310374,0.09293069711897876,0.00361920553987549,0.0014573109553301126,0.0042283180480301346,18.42956871700153
1609,A,41849771330576.0,1.6925507,12.675263437337444,2.835491896318044,46,1970-01-01 11:37:29.771330576,1.6131287,-2.8776245,0.46296692,6.589722658946213,3.3312528176015443,-86.606689453125,-16.504289627075195,-34.84679412841797,18479922.0,50354.0,0.1164824277924,0.04217712408118963,0.12665894834769878,0.0059824195346423765,-0.00025382874580127804,0.00552860850391454,18.479922721002367
1609,A,41849821684580.0,2.1969604,9.963196937337443,2.5385863963180437,46,1970-01-01 11:37:29.821684580,3.3414154,2.1742554,0.41886902,9.221656310512712,4.008477850219716,-86.26036834716797,-16.410537719726562,-35.00030517578125,18530276.0,50354.0,0.09792622096470001,0.0764993168531896,0.13530316917369878,0.005398166549757508,0.002987916753404866,0.006595420232836226,18.530276725003205
1609,A,41849872038584.0,2.3585815,9.382691437337444,-5.372348003681957,46,1970-01-01 11:37:29.872038584,1.510025,2.2225952,0.8378906,11.67120176067861,2.8146341824927092,-86.15306091308594,-16.36138153076172,-35.11299133300781,18580630.0,50354.0,0.1146948784163,-0.006397768390810404,-0.07134561598860124,0.005353161419115437,0.0017649466856373209,0.0016102593165412008,18.580630729004042
1609,A,41849922392588.0,4.6372986,9.216904937337443,-0.14845580368195632,46,1970-01-01 11:37:29.922392588,-0.88449097,2.4793243,0.28308105,10.722130150220385,2.647547571140344,-86.16128540039062,-16.338951110839844,-35.240901947021484,18630984.0,50354.0,0.17613527327770004,-0.025187162074810414,-0.13899727745800125,0.00732223072919984,-0.0007952137943329354,-0.005295803028305112,18.630984732997604
1609,A,41849972746592.0,4.3265686,8.132385937337444,0.8736083763180438,46,1970-01-01 11:37:29.972746592,-0.7441101,1.0425568,0.1307373,11.516862215780673,1.2875235002746708,-86.305419921875,-16.473352432250977,-35.260154724121094,18681338.0,50354.0,0.2256832844944,-0.05666610364831041,0.018257166321258775,0.010116585829028165,-0.002060819671111013,-0.0030398737780897656,18.68133873699844
1609,A,41850023100596.0,8.553436,7.841263937337443,2.445370496318044,46,1970-01-01 11:37:30.023100596,-1.0252686,-1.1393585,0.5244751,13.968996126995428,1.619996180300503,-86.37397766113281,-16.450822830200195,-35.19912338256836,18731692.0,50354.0,0.3242798758142,-0.0913006171053104,0.08356193107635879,0.013846422487089621,-0.0037253581284139112,0.0025634994151798175,18.73169274099928
1609,A,41850073454600.0,9.23558,9.239868937337443,2.749539196318044,46,1970-01-01 11:37:30.073454600,-0.53367615,-1.3666077,-0.7082672,13.396674111234477,1.6291314450878274,-86.420166015625,-16.49045753479004,-35.13033676147461,18782046.0,50354.0,0.447874055832,-0.06341751761431044,0.1307922413314988,0.01944051953705638,-0.003895338477835894,0.005396794998712631,18.782046745000116
1609,A,41850123808604.0,7.432373,10.001785937337443,-1.0631592036819562,46,1970-01-01 11:37:30.123808604,-0.91952515,1.2432709,-2.1160278,11.721363525226119,2.620843887499248,-86.44575500488281,-16.592185974121094,-35.20192337036133,18832400.0,50354.0,0.41964905268100006,-0.009022055220310434,0.04245798907459879,0.021841629303031806,-0.00182381112525725,0.00436192105093432,18.832400749000954
1609,A,41850174162607.0,2.1918945,3.0392469373374436,-3.248874003681957,46,1970-01-01 11:37:30.174162607,-2.7467194,2.8378448,-3.2962494,16.49943418387319,5.144228871096597,-86.53768157958984,-16.74801254272461,-35.36029815673828,18882754.0,50354.0,0.24231018284750003,-0.1651351153143104,-0.10856406006180125,0.016666147672901047,-0.00438475508255015,-0.0016643525492447964,18.88275475199771
1609,A,41850224516611.0,-0.6416321,3.355118937337444,-1.9188110036819561,46,1970-01-01 11:37:30.224516611,-0.16543579,-2.3376312,-1.3150787,15.753628321394737,2.6872514982822233,-86.5799331665039,-16.82065773010254,-35.242549896240234,18933108.0,50354.0,0.0390309564448,-0.3324782503733104,-0.13010680543040123,0.007083325863962238,-0.01252841170791723,-0.006009016380497182,18.933108755998546
1609,A,41850274870615.0,0.59046936,12.944596337337444,2.123577896318044,46,1970-01-01 11:37:30.274870615,0.11416626,-3.0773468,-0.008926392,5.976413975461102,3.07947673198983,-86.62065887451172,-16.83022689819336,-35.08211898803711,18983462.0,50354.0,-0.0012881243049799997,-0.08309126852951038,0.005155416055898781,0.0009502512847842482,-0.01046279377741632,-0.0031459011302818482,18.983462759999384
1609,A,41850325224619.0,0.9352417,14.961045337337444,3.362347396318044,46,1970-01-01 11:37:30.325224619,0.80729675,-2.3453217,-0.4149475,4.555188239123648,2.51484459694982,-86.61536407470703,-16.85785675048828,-34.96108627319336,19033816.0,50354.0,0.03841282735762,0.20911114044328957,0.1381191410926988,0.0009346886487563173,0.003172802315173219,0.0036072235253302412,19.03381676400022
1609,A,41850375578623.0,-0.5825043,12.261734937337444,2.618786596318044,46,1970-01-01 11:37:30.375578623,0.9316559,-0.56536865,-0.34207153,6.740440383224247,1.1422072307791495,-86.5770263671875,-16.876609802246094,-34.93266296386719,19084170.0,50354.0,0.0088808695198,0.19191873897548958,0.1505870105325988,0.0011907134062828033,0.010096729274126604,0.0072687547794701175,19.08417076800106
1609,A,41850425932627.0,-1.4835205,12.425843337337444,1.4297607263180439,46,1970-01-01 11:37:30.425932627,0.2784729,0.7464142,0.31045532,6.555908345904617,0.8550227012847976,-86.5521011352539,-16.85887908935547,-34.97062301635742,19134524.0,50354.0,-0.0520163063896,0.1280899582214896,0.10193027594200879,-0.0010860208940709547,0.008056858969328347,0.006357627721571195,19.134524772001896
1609,A,41850476286631.0,1.2490234,9.006302937337443,-6.797015403681956,46,1970-01-01 11:37:30.476286631,-0.41534424,0.9087982,1.3049011,12.646044322592063,1.6435303121042908,-86.56033325195312,-16.7910213470459,-35.01390838623047,19184878.0,50354.0,-0.005903933486700001,0.04612794675748959,-0.13513137101199124,-0.0014582578793656052,0.00438628419365576,-0.0008359039705769482,19.184878776002734
1609,A,41850526640635.0,11.559265,4.696823937337443,-1.6719849036819563,46,1970-01-01 11:37:30.526640635,-0.8218994,2.447403,-0.59765625,18.44717653983886,2.649998690809756,-86.56401062011719,-16.813514709472656,-35.143375396728516,19235232.0,50354.0,0.32247427704680004,-0.14846557467631044,-0.21322402073850125,0.00797029153981264,-0.002576554458112153,-0.00877054369810215,19.23523278000357
1609,A,41850576994639.0,6.2231445,11.198655237337444,-0.02659910368195617,46,1970-01-01 11:37:30.576994639,-0.48690796,1.4012604,0.43856812,9.89086646851516,1.5469169551077575,-86.567626953125,-16.787429809570312,-35.21506118774414,19285586.0,50354.0,0.44770772398150005,-0.0932687208192104,-0.042765249553401226,0.01939087223988951,-0.0060861443576907285,-0.006445041858139229,19.285586783997132
1609,A,41850627348643.0,7.2772064,4.038773937337444,8.755856296318044,46,1970-01-01 11:37:30.627348643,0.05029297,-0.47872925,0.6927643,18.153245597795596,0.8435836964945882,-86.57295989990234,-16.754289627075195,-35.18795394897461,19335940.0,50354.0,0.3398983346093,-0.10983644566921037,0.21977650833899878,0.019829557737140572,-0.00511357877667897,0.00445661246244499,19.33594078799797
1609,A,41850677702646.0,-0.084869385,8.415634937337444,-7.384677003681956,46,1970-01-01 11:37:30.677702646,0.85217285,5.1733093,-0.71347046,13.413436920952893,5.291348389308364,-86.45191192626953,-16.774160385131836,-35.45985794067383,19386294.0,50354.0,0.181081469026655,-0.17990454776231038,0.03452218105069878,0.013116708516142439,-0.007294808991625399,0.006402478102764416,19.386294791002
1609,A,41850728056650.0,-1.9481049,15.518219937337443,0.9045837263180438,46,1970-01-01 11:37:30.728056650,-1.0750732,0.120407104,0.6251373,3.8242823937287613,1.2494306302885314,-86.50444030761719,-16.742595672607422,-35.46413803100586,19436648.0,50354.0,-0.051184193573445,0.1091134641796896,-0.16314930844419123,0.0032704237040854685,-0.0017823071113596434,-0.00323844518638596,19.43664879500284
1609,A,41850778410654.0,1.2127533,10.187256937337443,2.5164916963180435,46,1970-01-01 11:37:30.778410654,0.23280334,-2.5435333,0.7294922,8.815262707137105,2.6562977832285455,-86.53160858154297,-16.71390724182129,-35.32926940917969,19487002.0,50354.0,-0.0185139472332,0.15371759127368959,0.08613241591570878,-0.0017547900910889014,0.006617297483149729,-0.001939054303189603,19.487002799003676
1609,A,41850828764658.0,1.2481995,7.157654937337444,2.443752996318044,46,1970-01-01 11:37:30.828764658,0.4905243,-3.5766602,0.12583923,11.788976738167406,3.6123327348074574,-86.56079864501953,-16.718399047851562,-35.14248275756836,19537356.0,50354.0,0.0619594086456,-0.05677635373131041,0.12488408062649878,0.0010938263819799947,0.0024406895376044807,0.00531276233344316,19.537356802997238
1609,A,41850879118662.0,0.72036743,11.979798337337444,2.433727996318044,46,1970-01-01 11:37:30.879118662,0.7431183,-2.3833923,1.0419312,6.989549183678026,2.7052549397473835,-86.56025695800781,-16.67354393005371,-35.01502990722656,19587710.0,50354.0,0.04956260959661,-0.011645538903510382,0.12280033895159878,0.0028077898532841215,-0.0017226579908668832,0.006235950631717763,19.587710806998075
1609,A,41850929472666.0,3.4581757,10.160980937337444,3.6197020963180435,46,1970-01-01 11:37:30.929472666,2.5398865,0.9190674,1.1981506,9.643145695088096,2.954872785570535,-86.42066192626953,-16.610939025878906,-35.059078216552734,19638064.0,50354.0,0.10520318038401,0.06396919979848961,0.1524072094422988,0.0038965382943420696,0.0013173528103528921,0.0069289004459131606,19.638064810998912
1609,A,41850979826670.0,4.074646,8.855332437337443,-1.2126953036819563,46,1970-01-01 11:37:30.979826670,2.8302155,2.802826,0.925827,10.996266443787853,4.0893898073728865,-86.2383804321289,-16.555770874023438,-35.201908111572266,19688418.0,50354.0,0.1896538519409,-0.014695478165810408,0.06060121001819878,0.00742361550284426,0.0012405644895459645,0.005362912976756948,19.68841881499975
1609,A,41851030180674.0,6.183014,9.511673937337443,-2.855273503681956,46,1970-01-01 11:37:31.030180674,-1.6630554,1.8748779,0.34487915,11.841318906104895,2.5297948595651567,-86.2940673828125,-16.532453536987305,-35.29831314086914,19738772.0,50354.0,0.25825710582000005,-0.031043080504810416,-0.10241925066300123,0.011277054183546182,-0.0011515596916502205,-0.0010528528093141914,19.738772819000587
1609,A,41851080534678.0,5.546997,7.914368937337443,2.3789946963180437,46,1970-01-01 11:37:31.080534678,-0.9654236,1.287735,0.19036865,12.286957525107324,1.6206617107110242,-86.32347106933594,-16.518814086914062,-35.364707946777344,19789126.0,50354.0,0.29532648694700003,-0.05473371854431043,-0.011991271533001223,0.013937574115094761,-0.0021596024696597157,-0.002880513717328754,19.789126823001425
1609,A,41851130888682.0,8.730804,8.886673937337443,2.2519194963180436,46,1970-01-01 11:37:31.130888682,0.12098694,-0.427063,0.54852295,13.26232504121058,0.705618928527478,-86.32425689697266,-16.492815017700195,-35.34064865112305,19839480.0,50354.0,0.359472195777,-0.07046934354431043,0.11659252662799878,0.01648586643494215,-0.0031522374942052076,0.0026335457995267536,19.839480827002262
1609,A,41851181242686.0,9.131134,11.757370937337445,-0.2306854036819561,46,1970-01-01 11:37:31.181242686,0.18946838,-1.1010895,-0.8352661,11.610163074078475,1.3949787854441675,-86.33026885986328,-16.538015365600586,-35.28612518310547,19889834.0,50354.0,0.449710013026,0.026285917809689623,0.050888610750298775,0.020372780471033133,-0.0011124061097205482,0.004216672595773398,19.8898348310031
1609,A,41851231596689.0,8.201599,7.368363437337443,0.8784759363180438,46,1970-01-01 11:37:31.231596689,-1.3157043,-0.4330902,-2.6302185,14.073813528614119,2.97265778119796,-86.4000244140625,-16.670637130737305,-35.27227783203125,19940188.0,50354.0,0.436386218741,-0.01194058564881038,0.01630942224017878,0.02230924482719776,0.0003611724278144567,0.0016918448766012535,19.940188833999855
1609,A,41851281950693.0,2.660843,0.20787193733744402,-1.4815400036819562,46,1970-01-01 11:37:31.281950693,-1.8794861,-1.5471649,-3.2415924,18.961500644679443,4.053900407708974,-86.51422119140625,-16.83718490600586,-35.20210647583008,19990542.0,50354.0,0.273483702234,-0.3027223219718104,-0.015183344024021222,0.017872395000387575,-0.00792226802516437,2.835127124819884e-05,19.990542838000692
1609,A,41851332304697.0,-1.294632,5.029831937337443,1.5069244163180437,46,1970-01-01 11:37:31.332304697,-0.5637512,-2.4022217,-1.3107452,13.840064778138634,2.7940181622128675,-86.57758331298828,-16.90983772277832,-35.08094024658203,20040896.0,50354.0,0.034397094347,-0.36159952954731045,0.0006391033569387774,0.007751514815519837,-0.01672563125569691,-0.0003661803472751347,20.04089684200153
1609,A,41851382658701.0,-0.53471375,13.441300437337443,1.7497985963180438,46,1970-01-01 11:37:31.382658701,0.12072754,-2.682434,-0.46444702,5.4274241429036545,2.7250207958210764,-86.61186981201172,-16.94098663330078,-34.94243240356445,20091250.0,50354.0,-0.04605743794775,-0.02842150020281044,0.08199451528913879,-0.0002935724708360828,-0.009819559466018793,0.0020804666166522948,20.091250846002367
1609,A,41851433012705.0,-1.0369415,14.545655337337443,4.397686796318044,46,1970-01-01 11:37:31.433012705,0.6735382,-2.278061,-0.6978302,5.483505619905578,2.475920559026941,-86.61222839355469,-16.982547760009766,-34.82571029663086,20141604.0,50354.0,-0.03956956422925,0.21115838553898958,0.15477523973039878,-0.002155831033810329,0.004600766562108982,0.005961152122126898,20.141604850003205
1609,A,41851483366709.0,-1.6247101,14.851517737337444,3.6652189963180435,46,1970-01-01 11:37:31.483366709,0.80511475,-1.0205841,-0.4053192,4.982948604187229,1.3616480160926363,-86.5871810913086,-17.005807876586914,-34.77370834350586,20191958.0,50354.0,-0.06701240233320001,0.24666342650108958,0.20299977914119877,-0.0026834141721428038,0.011526579761733073,0.009007701650130213,20.191958854004042
1609,A,41851533720713.0,-1.9284515,14.894654337337442,3.072766096318044,46,1970-01-01 11:37:31.533720713,0.81921387,-0.655365,0.5300293,4.7836051121767795,1.1753917248661687,-86.55670928955078,-16.981313705444336,-34.73785400390625,20242312.0,50354.0,-0.08945794960320001,0.25545017432408956,0.1696422506772988,-0.0039394540507027434,0.012641714127975536,0.009382008384740315,20.242312857997604
1609,A,41851584074717.0,2.6876526,6.951218937337444,-0.10499880368195624,46,1970-01-01 11:37:31.584074717,0.04437256,-0.072128296,0.670105,12.212651809039494,0.6754347682713833,-86.79096984863281,-16.846641540527344,-34.663665771484375,20292666.0,50354.0,0.0191144060947,0.05654435143648959,0.07471947712669878,-0.001771039394913505,0.007855086175074102,0.006152295220921247,20.29266686199844
1609,A,41851634428721.0,6.1719666,5.239868937337443,0.26014399631804375,46,1970-01-01 11:37:31.634428721,-0.85887146,4.1039276,-0.26838684,14.925334779074156,4.201418025706258,-86.9317626953125,-17.040315628051758,-34.83187484741211,20343020.0,50354.0,0.22305863259840003,-0.18653418057931043,0.0039060905149987755,0.00609719059517618,-0.0032727539283288003,0.0019795559165150197,20.34302086599928
1609,A,41851684782725.0,2.6652222,12.138077937337442,-0.37236330368195625,46,1970-01-01 11:37:31.684782725,1.0146179,-0.67866516,1.5970764,7.327979548952026,2.010146489645766,-86.89271545410156,-16.962404251098633,-34.79194641113281,20393374.0,50354.0,0.2224939024176,-0.055944631536310456,-0.002825345501501225,0.011217676174097833,-0.006104889052634987,2.720991720482783e-05,20.393374870000116
1609,A,41851735136729.0,5.5828857,1.897690937337444,1.9647796463180438,46,1970-01-01 11:37:31.735136729,-0.5450287,2.4193268,-0.124694824,17.824473859661914,2.4830922754006384,-86.88752746582031,-16.994335174560547,-34.91727066040039,20443728.0,50354.0,0.20766261259830004,-0.14009064704231042,0.04009226625854878,0.010830050578555316,-0.004935580208773938,0.0009382692639001865,20.443728874000954
1609,A,41851785490732.0,-0.53956604,11.877213537337443,1.6588408963180439,46,1970-01-01 11:37:31.785490732,-0.6898041,5.0286255,-0.39492798,6.969352856029752,5.091058065374421,-86.84494018554688,-17.000307083129883,-35.18092346191406,20494082.0,50354.0,0.12697565907982,-0.1466584300411104,0.09123189440194879,0.008425187766040029,-0.0072194815137292855,0.0033063483929493473,20.49408287699771
1609,A,41851835844736.0,-0.9309845,16.164948537337445,0.9664275963180438,46,1970-01-01 11:37:31.835844736,0.19976807,2.3617554,0.6411438,2.8009788445367394,2.4553739477927032,-86.79949188232422,-16.96175193786621,-35.302345275878906,20544436.0,50354.0,-0.037024050945580006,0.21254831455408962,0.06609638483909878,0.0022647116379957604,0.001658909622383278,0.0039610540864518555,20.544436880998546
1609,A,41851886198740.0,1.7543945,8.487656937337444,0.39207149631804383,46,1970-01-01 11:37:31.886198740,0.6622772,-0.32841492,0.31925964,10.487709502241682,0.8052292636581063,-86.77165222167969,-16.946739196777344,-35.28427505493164,20594790.0,50354.0,0.02073099357,0.12720944803588966,0.03420293165529878,-0.00041021030554497776,0.008554081188727908,0.0025252358913794475,20.594790884999384
1609,A,41851936552744.0,-0.29145813,8.952988937337443,1.2601440263180437,46,1970-01-01 11:37:31.936552744,0.6325531,-3.5104065,0.32937622,9.855842110778887,3.5821175181536615,-86.793701171875,-16.94014549255371,-35.10011291503906,20645144.0,50354.0,0.03683234898749,-0.05436605881331041,0.04159783021340878,0.001449272275569926,0.0018339780104568778,0.0019084357815684504,20.64514488900022
1609,A,41851986906748.0,1.1859131,12.324341937337444,1.6523864563180437,46,1970-01-01 11:37:31.986906748,0.7740021,-2.7103271,1.3983917,6.609558210654103,3.146498305486229,-86.75456237792969,-16.713394165039062,-34.966983795166016,20695498.0,50354.0,0.022519692779690004,0.04223015943168958,0.07332877996132878,0.0014943063555722912,-0.0003055455387310675,0.0028935072643693676,20.69549889300106
1609,A,41852037260752.0,3.509613,9.101914937337444,2.251858496318044,46,1970-01-01 11:37:32.037260752,1.477951,-0.61465454,0.94610596,10.380606725838584,1.8593697452338878,-86.60430908203125,-16.744794845581055,-34.957035064697266,20745852.0,50354.0,0.11821926061970002,0.04597966933368961,0.09829717517251878,0.003543384629736443,0.0022208588588259522,0.0043210266724048796,20.745852897001896
1609,A,41852087614756.0,4.517578,7.939972937337444,1.4282195963180437,46,1970-01-01 11:37:32.087614756,2.017044,2.5971527,0.9175415,11.76970583683451,3.414022707785574,-86.50543212890625,-16.83677864074707,-35.078067779541016,20796206.0,50354.0,0.20210058780700002,-0.06440558897931038,0.09265332613829878,0.008064692823839027,-0.0004639093789177942,0.004807560771502454,20.796206901002734
1609,A,41852137962668.0,7.154373,8.941101937337443,-0.8970368036819563,46,1970-01-01 11:37:32.137962668,0.70936584,4.7694244,0.8266754,12.346655636356092,4.892238875938033,-86.3988265991211,-16.780765533447266,-35.324031829833984,20846554.0,50348.0,0.293829694474,-0.06844622110493442,0.013371995621820865,0.012484548926141894,-0.0033444114670607783,0.002669081449989252,20.846554812997056
1609,A,41852188316672.0,7.9982758,8.921738937337443,0.36019589631804383,46,1970-01-01 11:37:32.188316672,-1.152008,1.25531,0.73143005,12.734425895929634,1.8541616828656022,-86.43826293945312,-16.74034881591797,-35.3870735168457,20896908.0,50354.0,0.38149823883760003,-0.04373645529831044,-0.013516043524701224,0.017002731376986154,-0.002824423243804496,-3.626694050818789e-06,20.896908816997893
1609,A,41852238670676.0,9.7760315,11.352295937337445,2.637356596318044,46,1970-01-01 11:37:32.238670676,-1.051178,-1.4363708,-0.0901947,12.387372633422755,1.782209680897489,-86.5123062133789,-16.749263763427734,-35.3125114440918,20947262.0,50354.0,0.44750373489210005,0.01697017603968961,0.07546937910709878,0.02087178269259266,-0.0006738946128942967,0.0015597991299580232,20.94726282099873
1609,A,41852289024679.0,7.6124268,12.195633937337444,0.8299377263180439,46,1970-01-01 11:37:32.289024679,-1.2979889,1.6213684,-1.9312439,10.083803349951191,2.8360736369722455,-86.55101776123047,-16.84074592590332,-35.40313720703125,20997616.0,50354.0,0.43778921461910003,0.09939703045468964,0.08729606916100878,0.022289020589843486,0.002929777157908987,0.004097945691046144,20.997616824002762
1609,A,41852339378683.0,7.563675,4.365875937337444,-0.5971100036819563,46,1970-01-01 11:37:32.339378683,-1.11203,0.2622528,-3.4121704,16.386916098680526,3.5983738119661774,-86.59952545166016,-17.0102596282959,-35.42746353149414,21047970.0,50354.0,0.38208871501860003,-0.07650006588531039,0.005861903572808776,0.020642066634488376,0.0005764768769632616,0.002345438279519325,21.0479708280036
1609,A,41852389732687.0,2.113205,-0.2417740626625573,-0.5174286036819562,46,1970-01-01 11:37:32.389732687,-1.3540039,-2.0018463,-3.3043518,19.230138853931447,4.093831455763921,-86.69499206542969,-17.181049346923828,-35.333038330078125,21098324.0,50354.0,0.24363480776000002,-0.38963668710131044,-0.028060738517601228,0.015753841132996813,-0.011735925029944153,-0.0005589000674050396,21.09832483199716
1609,A,41852440086691.0,-1.1400299,8.252472937337444,0.8257415563180438,46,1970-01-01 11:37:32.440086691,-0.6403351,-1.5623932,-0.8390808,10.615753868618873,1.885512699672662,-86.75041198730469,-17.227401733398438,-35.253902435302734,21148678.0,50354.0,0.024501629492699996,-0.29178383443231043,0.007762395208518778,0.006750871080711229,-0.017156124470651974,-0.0005110513894927689,21.148678835998
1609,A,41852490440695.0,-0.3648224,15.328248137337443,2.454922496318044,46,1970-01-01 11:37:32.490440695,0.24888611,-2.3183289,-0.10896301,3.7471476434481,2.334194962267377,-86.77375793457031,-17.2393856048584,-35.13304901123047,21199032.0,50354.0,-0.0378876663571,0.10022261449708961,0.08259727885321878,-0.00033702025013499897,-0.004822936834309055,0.0022749855138523667,21.199032839998836
1609,A,41852540794699.0,-0.95654297,14.585221337337444,3.615215996318044,46,1970-01-01 11:37:32.540794699,1.4239044,-2.7731628,-0.48010254,5.00267201442341,3.1541138382369227,-86.74515533447266,-17.271190643310547,-34.98952102661133,21249386.0,50354.0,-0.03326801592049,0.25966222096388963,0.15282787682909882,-0.0017914866127028836,0.009060820502401076,0.00592729914461371,21.249386843999673
1609,A,41852591148703.0,-2.0444489,12.083680237337443,3.220699996318044,46,1970-01-01 11:37:32.591148703,0.6437683,-0.9659729,0.019256592,7.336508390097969,1.160996160180883,-86.72798156738281,-17.272979736328125,-34.938968658447266,21299740.0,50354.0,-0.07555597231099001,0.1779737349455896,0.1721078569465988,-0.0027398615517039726,0.011018360461932959,0.00818090696927074,21.29974084800051
1609,A,41852641502707.0,-1.0050964,11.731095337337443,2.6983001963180437,46,1970-01-01 11:37:32.641502707,0.48536682,-0.38728333,0.8866577,7.319565448089071,1.0824653364529004,-86.71048736572266,-17.229822158813477,-34.916053771972656,21350094.0,50354.0,-0.0767784020181,0.10611540464358958,0.14902266784999876,-0.0038353225424835,0.007152512267436765,0.008085103222803936,21.350094852001348
1609,A,41852691856711.0,5.6134644,4.658676937337443,-2.9950897036819564,46,1970-01-01 11:37:32.691856711,-1.9702759,-1.0190887,0.27142334,15.759426561913827,2.2347705766107753,-86.82502746582031,-17.219152450561523,-34.86199951171875,21400448.0,50354.0,0.116024881136,-0.08082390344051044,-0.007472269426901229,0.0009881086047513683,0.0006367641257899237,0.0035638143810983267,21.400448856002185
1609,A,41852742210715.0,5.141098,5.288239937337444,3.940579196318044,46,1970-01-01 11:37:32.742210715,0.90179443,3.0257874,0.82221985,14.735940397101945,3.262616751276773,-86.52139282226562,-17.253679275512695,-35.080726623535156,21450802.0,50354.0,0.27076761754480005,-0.24303567384631042,0.02380458895609878,0.009738274739286503,-0.008153812577350289,0.0004111988087866068,21.450802860003023
1609,A,41852792564719.0,4.4379883,4.7961279373374435,-1.6514770036819562,46,1970-01-01 11:37:32.792564719,-0.7327118,1.752533,0.449646,14.948991407245972,1.9520297188476,-86.53131103515625,-17.22593116760254,-35.17087936401367,21501156.0,50354.0,0.24117265577510003,-0.23957507001931042,0.057632725903998795,0.012889120261375125,-0.012150690698304737,0.0020503472762326766,21.50115686400386
1609,A,41852842918722.0,1.6085968,7.551972437337444,1.5489776463180438,46,1970-01-01 11:37:32.842918722,-0.8133545,3.262024,0.17459106,11.374491259730975,3.366426615489809,-86.55284118652344,-16.98102569580078,-35.33158493041992,21551510.0,50354.0,0.1522348730627,-0.1825810768668104,-0.0025806263203512216,0.009904821353549293,-0.010628625310151863,0.001386046711217495,21.551510867000616
1609,A,41852893272726.0,0.026245117,13.906739337337443,1.0275848213180439,46,1970-01-01 11:37:32.893272726,0.21920776,1.2156067,0.49972534,4.897123857578184,1.3324703023209272,-86.52381896972656,-16.952411651611328,-35.3934326171875,21601864.0,50354.0,0.041160414944309,0.0467967863509896,0.06487011324767378,0.004869113166152466,-0.0034186410823168205,0.0015682624123692002,21.601864871001453
1609,A,41852943626730.0,1.5488129,11.893448937337443,1.3837554763180437,46,1970-01-01 11:37:32.943626730,0.4161682,-1.793808,1.1909332,7.086877648497821,2.193003647606971,-86.56018829345703,-16.79034996032715,-35.28773498535156,21652218.0,50354.0,0.039655235694009,0.15610214019148952,0.06071031467358377,0.0020346956361209324,0.005108386273559997,0.003161738433773502,21.65221887500229
1609,A,41852993980734.0,4.1129303,9.225937937337443,2.3676421963180436,46,1970-01-01 11:37:32.993980734,1.087204,-4.6136627,0.8466034,10.499746052273327,4.815042405200483,-86.47804260253906,-16.919517517089844,-35.07296371459961,21702572.0,50354.0,0.1425457085464,0.03825360334368957,0.09444893920395878,0.004587273173140778,0.004893294554985204,0.0039064445348748885,21.702572879003128
1609,A,41853044334738.0,2.3767548,11.261322937337443,2.668408196318044,46,1970-01-01 11:37:33.044334738,1.911789,-4.1381683,0.14103699,8.06135718299392,4.56062117394047,-86.24095153808594,-16.93528938293457,-34.91618347167969,21752926.0,50354.0,0.16339080176270004,0.02233856704168958,0.12679264073539878,0.007702563520052213,0.0015255290737926908,0.005570199258133205,21.752926883003965
1609,A,41853094688742.0,2.2954102,10.733399437337443,3.0167815963180438,46,1970-01-01 11:37:33.094688742,2.9631805,0.49176025,0.10588074,8.605842259444398,3.005574412681087,-85.8449935913086,-16.89706802368164,-35.011383056640625,21803280.0,50354.0,0.11763109820499999,0.060291925227189576,0.1431360234091988,0.007075288375486785,0.0020803879038535705,0.006795993977168534,21.803280886997527
1609,A,41853145042746.0,3.5303955,8.670105937337443,-1.912768603681956,46,1970-01-01 11:37:33.145042746,2.0755157,4.3926544,0.2086029,11.145775818442026,4.862786574452374,-85.67496490478516,-16.87042236328125,-35.239471435546875,21853634.0,50354.0,0.1466763101089,-0.0049471451818104365,0.027795735115598783,0.0066544676191190606,0.0013934155272025107,0.004303548884378829,21.853634890998364
1609,A,41853195396750.0,4.615097,8.863464937337444,-2.811740103681956,46,1970-01-01 11:37:33.195396750,-1.6474152,5.3208466,-0.27223206,11.636564481302967,5.57669218053269,-85.67658996582031,-16.863933563232422,-35.51775360107422,21903988.0,50354.0,0.2050790646725,-0.052026486088310425,-0.1189489557253012,0.008856145070871308,-0.001434425114487833,-0.002294964635290478,21.903988894999202
1609,A,41853245750754.0,4.7360535,8.251480937337444,1.7141387963180437,46,1970-01-01 11:37:33.245750754,-1.4082184,2.1026154,0.100982666,11.58211750114228,2.5326405353401786,-85.73902893066406,-17.03240966796875,-35.619937896728516,21954342.0,50354.0,0.23543391613849998,-0.0625662077133104,-0.02763430811550122,0.011090795317878547,-0.0028851002518434075,-0.0036905268337198826,21.95434289900004
1609,A,41853296104758.0,9.223343,10.553131937337444,-1.6927979036819563,46,1970-01-01 11:37:33.296104758,-0.19631958,0.19934082,0.34474182,12.686250975195927,0.44398768278699036,-85.74618530273438,-17.014480590820312,-35.62899398803711,22004696.0,50354.0,0.35145572568050004,-0.02002546165431039,0.0005372996538987727,0.014776120512076964,-0.0020794104596685886,-0.0006822213820377648,22.004696903000877
1609,A,41853346458762.0,8.302109,11.661591637337445,1.0184600663180439,46,1970-01-01 11:37:33.346458762,-1.1799316,-0.7905884,-1.2126007,10.951483568755888,1.8675302023082814,-85.81590270996094,-17.07785415649414,-35.59242630004883,22055050.0,50354.0,0.4412383050040001,0.06583089543958963,-0.016977803731311223,0.01995765761054366,0.0011532434064119754,-0.0004139225711570133,22.055050907001714
1609,A,41853396812765.0,6.9638977,7.736618937337443,1.6508910963180439,46,1970-01-01 11:37:33.396812765,-0.81211853,-0.89245605,-2.4407196,13.08694260824505,2.7227057266210615,-85.86750030517578,-17.202804565429688,-35.55511474609375,22105404.0,50354.0,0.3843522506859,-0.005080452361410384,0.06720625422168879,0.020785893420604617,0.001529513905379319,0.001264601697996236,22.10540490999847
1609,A,41853447166769.0,6.398987,-0.43002206266255527,0.6192748963180438,46,1970-01-01 11:37:33.447166769,-0.78060913,-1.9837341,-2.5658417,20.27554321624895,3.3358799772775187,-86.07266235351562,-17.369434356689453,-35.42002868652344,22155758.0,50354.0,0.3364373480919,-0.3095110104863104,0.05715596919659878,0.018147319728428674,-0.007920469260117066,0.0031310676990022263,22.155758913999307
1609,A,41853497520773.0,1.7774353,3.351502937337443,-9.413699003681957,46,1970-01-01 11:37:33.497520773,0.10359192,-2.031662,0.016571045,18.77443322189051,2.0343687885104997,-86.09920501708984,-17.37554359436035,-35.31378173828125,22206112.0,50354.0,0.20585778424710002,-0.4199150760183104,-0.22141721575110124,0.013653364546899005,-0.01836476057992684,-0.004135605404502709,22.206112918000144
1609,A,41853547874777.0,4.0457306,14.514115437337445,0.49677732631804383,46,1970-01-01 11:37:33.547874777,-1.141922,2.1845856,-0.5179138,5.92704735905896,2.518855851779097,-86.12163543701172,-17.393964767456055,-35.429805755615234,22256466.0,50354.0,0.14660984786429998,-0.043666526180810385,-0.22450133707099124,0.008874077573668718,-0.011671593998567265,-0.011226891404401822,22.256466922000982
1609,A,41853598228781.0,-0.3375702,14.270264737337444,2.5749785963180436,46,1970-01-01 11:37:33.598228781,-0.8940582,-0.7353058,-2.4034424,4.778463889829224,2.6676862736496285,-86.17533111572266,-17.516338348388672,-35.399818420410156,22306820.0,50354.0,0.0933603543908,0.2312351396577897,0.07733759886420878,0.0060417297821766525,0.004722414981509908,-0.0037051414368321624,22.30682092600182
1609,A,41853648582785.0,-1.5305634,13.106293937337444,3.520382696318044,46,1970-01-01 11:37:33.648582785,0.918808,-3.5625458,-0.63812256,6.375740184142877,3.7340515689452647,-86.18489074707031,-17.560043334960938,-35.21565246582031,22357174.0,50354.0,-0.0470339996472,0.19579041775228959,0.15346291126469877,0.0011663586333796171,0.010751222458913568,0.005810864443515506,22.357174930002657
1609,A,41853698936789.0,-0.61032104,12.295838437337444,3.2009093963180435,46,1970-01-01 11:37:33.698936789,1.4044495,-1.9217224,1.3478088,6.8649376419529915,2.735339822045782,-86.14637756347656,-17.499229431152344,-35.11038589477539,22407528.0,50354.0,-0.053901047545879995,0.14608028679718965,0.16922197101629877,-0.0025412416831801753,0.008607278728442238,0.008124237281188676,22.407528934003494
1609,A,41853749290793.0,5.892624,9.187119937337444,-3.0412170036819566,46,1970-01-01 11:37:33.749290793,1.3839874,-0.91322327,1.6331635,12.014687009634207,2.3273635044746452,-86.09326171875,-17.420848846435547,-35.05684280395508,22457882.0,50354.0,0.13299254162392002,0.047407242999189636,0.004020575369398761,0.001991286546402814,0.0048714355376834415,0.004361727590352707,22.457882937997056
1609,A,41853799644797.0,7.360611,4.476166937337444,-0.3207428036819562,46,1970-01-01 11:37:33.799644797,-0.633667,-0.09207153,-0.9129944,16.16989853480956,1.1151546116825688,-86.12539672851562,-17.46670150756836,-35.05526351928711,22508236.0,50354.0,0.333676697595,-0.1494686263563104,-0.08464406207000123,0.011749331435814749,-0.0025695994487822294,-0.0020298575246610684,22.508236941997893
1609,A,41853849998801.0,1.5142059,11.307648937337444,-0.6415283036819561,46,1970-01-01 11:37:33.849998801,0.6148071,1.9039001,0.3448639,7.843081461877347,2.030210449808992,-86.0651626586914,-17.44301414489746,-35.15359115600586,22558590.0,50354.0,0.2234412650913,-0.09608006772331039,-0.024227099670101223,0.014026558946552976,-0.006182179470842613,-0.0027410492391305597,22.55859094599873
1609,A,41853900352804.0,4.7312164,3.717331937337443,0.23437192631804382,46,1970-01-01 11:37:33.900352804,-0.593277,2.244278,0.6423187,15.834154765990144,2.4085959919386006,-86.24051666259766,-17.405181884765625,-35.21467590332031,22608944.0,50354.0,0.15724099724710003,-0.11518525651831042,-0.01025097611289122,0.009584437318893899,-0.005319027068431287,-0.0008680545139884008,22.608944949002762
1609,A,41853950706808.0,1.1622772,8.909912937337443,0.6385314763180439,46,1970-01-01 11:37:33.950706808,0.33462524,3.5149994,0.106933594,9.97210538858171,3.532510385939605,-86.16895294189453,-17.38821029663086,-35.39807891845703,22659298.0,50354.0,0.14838048836720003,-0.17555305579031044,0.02197708896816878,0.0076946321433112325,-0.007319918488994147,0.0002952283433573231,22.6592989530036
1609,A,41854001060812.0,-0.87005615,17.123917637337442,0.8349425963180438,46,1970-01-01 11:37:34.001060812,0.01473999,0.70376587,0.5863037,1.909982069402609,0.9161089977266608,-86.1578369140625,-17.35660743713379,-35.43281173706055,22709652.0,50354.0,0.0073572493758499976,0.16198455237858952,0.037097656726758785,0.00392100902315677,-0.00034161421039689756,0.0014873248723611915,22.70965295699716
1609,A,41854051414816.0,1.8267517,9.543869937337444,1.4405029163180438,46,1970-01-01 11:37:34.051414816,-0.3041687,-1.0116119,1.001648,9.44394176491086,1.4557389704838226,-86.2344970703125,-17.15538787841797,-35.36323165893555,22760006.0,50354.0,0.02408672386235,0.17794568776758957,0.05728889167163879,0.0007916649142181614,0.008558423656160353,0.002376370129026456,22.760006960998
1609,A,41854101768820.0,2.8869934,7.130432937337444,2.8788115963180436,46,1970-01-01 11:37:34.101768820,-0.23358154,-3.888794,0.47247314,12.155200333748116,3.9243483507821053,-86.18220520019531,-17.060813903808594,-35.1951904296875,22810360.0,50354.0,0.11867796038270002,-0.07366027652431038,0.10874738148463879,0.0035943864552376243,0.00262559379887204,0.004180295249255601,22.810360964998836
1609,A,41854152122824.0,1.9944763,13.099732437337444,3.425518796318044,46,1970-01-01 11:37:34.152122824,0.9616699,-3.5468292,0.7592621,6.473808669978746,3.7525038716882175,-86.18916320800781,-17.034732818603516,-35.007469177246094,22860714.0,50354.0,0.12290076263690002,0.01586567363818962,0.15872412629539878,0.0060822275094644706,-0.0014550947168638624,0.006734130151378007,22.860714968999673
1609,A,41854202476828.0,3.6865845,10.109955937337444,3.440472396318044,46,1970-01-01 11:37:34.202476828,3.5528717,0.96681213,0.66503906,9.728108114808593,3.7416440187037714,-85.9974365234375,-16.998262405395508,-35.0555305480957,22911068.0,50354.0,0.14303206776160002,0.09088112420918963,0.1728650602569988,0.006695390870943035,0.0026875641294034675,0.008348420949829714,22.91106897300051
1609,A,41854252830832.0,2.88945,7.757126937337443,-7.330096003681957,46,1970-01-01 11:37:34.252830832,3.1425323,3.0449677,0.701416,14.19341120031647,4.431627461288074,-85.79471588134766,-16.95238494873047,-35.2116813659668,22961422.0,50354.0,0.16556482060650002,-0.043629654464310406,-0.09792905356260125,0.007769543858443656,0.0011896502537668244,0.0018866638405448473,22.961422977001348
1609,A,41854303184836.0,5.6127625,9.160370937337444,0.6671722263180437,46,1970-01-01 11:37:34.303184836,-2.5163727,3.7056885,0.057403564,11.165859577643294,4.479682354084655,-85.86428833007812,-16.936044692993164,-35.40464782714844,23011776.0,50354.0,0.21406020411249999,-0.06753735600931043,-0.16775243194269124,0.009557819247350264,-0.002798851822694352,-0.006689062760566749,23.011776981002185
1609,A,41854353538840.0,5.087738,9.336151937337444,1.953137196318044,46,1970-01-01 11:37:34.353538840,-0.8312378,2.0933685,0.10368347,10.781305336802971,2.254750145557669,-85.87420654296875,-16.92333984375,-35.513389587402344,23062130.0,50354.0,0.2694065010885,-0.02778224358431039,0.06597153033370878,0.012172241236845578,-0.0023998615589685916,-0.0025625377598093514,23.062130985003023
1609,A,41854403892844.0,8.694305,9.815155937337444,1.2441985963180437,46,1970-01-01 11:37:34.403892844,0.3242035,-0.9098358,0.33369446,12.50587913323754,1.0218909359655666,-85.87216186523438,-16.90997314453125,-35.46470642089844,23112484.0,50354.0,0.346990496611,-0.011296721639310378,0.08049932325119878,0.015519027211080314,-0.0009838911074351,0.0036876966807072183,23.11248498900386
1609,A,41854454246847.0,8.348434,11.016602537337445,1.9829223463180439,46,1970-01-01 11:37:34.454246847,-1.1667938,-0.9252167,-1.5218506,11.450127606617674,2.129193030797746,-85.94290924072266,-16.98917007446289,-35.42214584350586,23162838.0,50354.0,0.42908503980299995,0.031011983116889633,0.08124922397274878,0.01953925378029528,0.000496371138221013,0.0040723431734573275,23.162838992000616
1609,A,41854504600851.0,7.5566864,5.503540937337444,2.063671856318044,46,1970-01-01 11:37:34.504600851,-0.93400574,-0.65597534,-2.914154,15.326831154845959,3.129690704327995,-85.99649810791016,-17.136821746826172,-35.39862823486328,23213192.0,50354.0,0.4004432163108,-0.07754154773811037,0.1018811022397688,0.020885032904177144,-0.0011714748484684746,0.004610672223052555,23.213192996001453
1609,A,41854554954855.0,2.836731,-0.24713106266255735,-2.9301330036819566,46,1970-01-01 11:37:34.554954855,-0.7100067,-1.9783325,-2.9012756,19.677794594558737,3.5826399626192553,-86.0594482421875,-17.288387298583984,-35.305843353271484,23263547.0,50355.0,0.2616802665885,-0.36113574038037305,-0.021815325537754914,0.016670613990697126,-0.011044797421603116,0.0020158560929149547,23.26354700000229
1609,A,41854605308859.0,-0.5665741,5.641480937337443,1.727307096318044,46,1970-01-01 11:37:34.605308859,-0.9220123,-3.1924133,-1.015213,13.188815000870717,3.4745167713996117,-86.1541519165039,-17.349872589111328,-35.142642974853516,23313901.0,50354.0,0.0571557402713,-0.35765565320531045,-0.030283547869701232,0.008027334144709186,-0.018097010916306756,-0.0013116933357795234,23.313901004003128
1609,A,41854655662863.0,-0.57658386,13.925064937337444,2.617153896318044,46,1970-01-01 11:37:34.655662863,0.20858765,-2.4981995,-0.34490967,5.140722566520246,2.530508294788279,-86.18231964111328,-17.375429153442383,-35.01327133178711,23364255.0,50354.0,-0.028781287958919998,-0.0008422745133104104,0.10938049441159879,0.0007143835858687914,-0.009025902326171719,0.001991423823085355,23.364255008003965
1609,A,41854706016867.0,-0.55015564,14.995728537337444,3.7763029963180434,46,1970-01-01 11:37:34.706016867,1.2931061,-1.9270477,-0.5279236,4.685698889005564,2.3799873006739887,-86.147216796875,-17.4082088470459,-34.91437911987305,23414609.0,50354.0,-0.028367920391499997,0.23466961731188962,0.1609680641858988,-0.0014388456186385243,0.0058870710096398295,0.0068065656598091965,23.414609011997527
1609,A,41854756370871.0,-1.1661072,13.718674937337443,3.261120596318044,46,1970-01-01 11:37:34.756370871,0.922348,-0.7776947,-0.45233154,5.646032730865665,1.2884636982045172,-86.11280059814453,-17.433399200439453,-34.87532043457031,23464963.0,50354.0,-0.04321034952268,0.22947333628188957,0.17718121379179877,-0.0018021261016293098,0.011685727142630581,0.008513584371644492,23.464963015998364
1609,A,41854806724875.0,-1.4496613,13.438965937337443,3.477978496318044,46,1970-01-01 11:37:34.806724875,0.8302002,-0.952652,0.69973755,6.043660592232735,1.4444413605487911,-86.08695220947266,-17.401737213134766,-34.823028564453125,23515317.0,50354.0,-0.0658572035245,0.19027872430168957,0.1696702978552988,-0.002745993783068851,0.010568097629312774,0.008732680508738976,23.515317019999202
1609,A,41854857078879.0,1.7468109,8.148422937337443,0.9530608963180438,46,1970-01-01 11:37:34.857078879,0.118621826,-0.5119171,0.98939514,10.798074322004569,1.1202825527212337,-86.21147155761719,-17.153854370117188,-34.756675720214844,23565671.0,50354.0,0.0074813354792,0.050036489697689576,0.11156027878839878,-0.0014697292297765183,0.00605041614286237,0.007080542228158374,23.56567102400004
1609,A,41854907432883.0,5.236801,4.365708437337444,1.7747466963180438,46,1970-01-01 11:37:34.907432883,-1.8416443,3.3351135,-0.5401459,15.372702568969144,3.8479076624695074,-86.27902221679688,-17.23900604248047,-34.924556732177734,23616025.0,50354.0,0.1758263968063,-0.1784009143798104,0.06867801175979878,0.004615138775752033,-0.0032318311202217567,0.00453785944113197,23.616025028000877
1609,A,41854957786887.0,4.6766815,8.116013937337444,-1.6301758036819562,46,1970-01-01 11:37:34.957786887,0.9237366,1.19133,0.9343567,11.981183366542984,1.773577998824537,-86.21536254882812,-17.188486099243164,-34.98357391357422,23666379.0,50354.0,0.24959174890250002,-0.1792168757728104,0.0036398613638987773,0.010710752654510458,-0.009003743102672533,0.0018207470916353336,23.666379032001714
1609,A,41855008140890.0,3.4847717,2.7054149373374443,-0.30807800368195615,46,1970-01-01 11:37:35.008140890,-1.1867065,1.4074402,0.28359985,16.53087250397225,1.8626833087345558,-86.47710418701172,-17.049251556396484,-34.990257263183594,23716733.0,50354.0,0.20548090721640003,-0.2210180852223104,-0.048799416108001224,0.011457364263105547,-0.010076715612974158,-0.0011369821097922672,23.71673303499847
1609,A,41855058494894.0,-0.012664795,13.118103937337445,1.871273796318044,46,1970-01-01 11:37:35.058494894,-0.30303955,2.754776,0.1377716,5.737061439314419,2.774816172795373,-86.45024108886719,-17.033878326416016,-35.13359451293945,23767087.0,50354.0,0.087417235547185,-0.09508046529231036,0.039356580471198783,0.007374296540358782,-0.007958413206306608,-0.00023774227282777506,23.767087038999307
1609,A,41855108848898.0,-0.12860107,14.347000937337445,1.1184203923180438,46,1970-01-01 11:37:35.108848898,0.45655823,0.9479523,0.81733704,4.458126349512501,1.3323283444451615,-86.41372680664062,-16.990142822265625,-35.18041229248047,23817441.0,50354.0,-0.0035566506831050007,0.19801974542968967,0.07527153058729079,0.0021113579451229425,0.002591702256018799,0.0028859919521195924,23.817441043000144
1609,A,41855159202902.0,2.583786,8.149048937337444,1.5624053763180439,46,1970-01-01 11:37:35.159202902,0.8664551,-1.6897583,0.95578,10.972711108925555,2.1259216733301582,-86.42509460449219,-16.86358070373535,-35.08094024658203,23867795.0,50354.0,0.06181419098261,0.07291384769468963,0.06749515037695078,0.0014667500921206375,0.006821295074092498,0.00359443672663671,23.867795047000982
1609,A,41855209556906.0,2.4565735,10.718338937337444,1.9697082363180438,46,1970-01-01 11:37:35.209556906,1.114685,-3.643341,0.82315063,8.494386392890801,3.8979524434214685,-86.36131286621094,-16.833009719848633,-34.90681076049805,23918149.0,50354.0,0.1269011311315,-0.018444975479310382,0.08892802442533879,0.004751285664866948,0.0013713627957666033,0.003938266271997244,23.91814905100182
1609,A,41855259910910.0,2.2668152,12.087784937337442,3.2135283963180434,46,1970-01-01 11:37:35.259910910,1.931488,-2.499466,0.6459503,7.395778531460999,3.2241631424867587,-86.30306243896484,-16.808774948120117,-34.77436065673828,23968503.0,50354.0,0.11892075729990001,0.0807205807926896,0.13049834869987878,0.006189057685037359,0.0015679129149749485,0.005524497796173603,23.968503055002657
1609,A,41855310264914.0,3.43573,9.324036937337443,0.9726074063180438,46,1970-01-01 11:37:35.310264914,3.2563782,1.6298218,0.50938416,10.083454630018919,3.676926747114958,-86.22589111328125,-16.857036590576172,-34.82590103149414,24018857.0,50354.0,0.1435729805004,0.04561623933868955,0.10539434110296879,0.006608804836598154,0.003180782120447733,0.005939070251166293,24.018857059003494
1609,A,41855360618918.0,4.2539673,8.523850937337443,-6.817965703681956,46,1970-01-01 11:37:35.360618918,0.4373169,4.4856567,0.4801941,13.65561637292566,4.53243295316713,-86.13677978515625,-16.818143844604492,-35.058040618896484,24069211.0,50354.0,0.19360350892210001,-0.04411292697931045,-0.14716858585273124,0.008489092474190283,3.7848895272087666e-05,-0.0010517501600647693,24.069211062997056
1609,A,41855410972922.0,4.091049,8.623367937337443,1.8401000963180438,46,1970-01-01 11:37:35.410972922,-1.8162994,2.1291962,-0.2701416,10.996016152322404,2.8116536864602226,-86.18811798095703,-16.949935913085938,-35.17195129394531,24119565.0,50354.0,0.21010247538510005,-0.06175367039231044,-0.12532772239660123,0.010164105566902377,-0.002665403322025299,-0.006860639552793444,24.119565066997893
1609,A,41855461326926.0,6.770233,9.089172937337443,2.446514896318044,46,1970-01-01 11:37:35.461326926,-0.62994385,0.5155029,0.6729584,11.916748733348616,1.056146534431559,-86.21246337890625,-16.914655685424805,-35.196502685546875,24169919.0,50354.0,0.273454496914,-0.04752055839831043,0.10792410566959877,0.01217451389157444,-0.002751197258261462,-0.00043817085833574085,24.16991907099873
1609,A,41855511680929.0,9.545242,10.252915437337444,1.0681579413180438,46,1970-01-01 11:37:35.511680929,0.16952515,-0.24490356,-0.08607483,12.814865241172697,0.31004097558665533,-86.2076187133789,-16.919761657714844,-35.18402862548828,24220273.0,50354.0,0.410774714075,-0.006493440990810405,0.08848891803316378,0.017226838845070053,-0.0013599104626198953,0.004945090697764452,24.220273074002762
1609,A,41855562034933.0,8.124451,11.874497437337443,-0.7444946036819562,46,1970-01-01 11:37:35.562034933,-1.1836243,1.2217865,-1.962265,10.836092254470346,2.5969621994472196,-86.24623107910156,-17.013635635375977,-35.2545051574707,24270627.0,50354.0,0.4448698606610001,0.0636326739456896,0.008148871851663778,0.021542563458128276,0.0014385944681049936,0.0024330496359303037,24.2706270780036
1609,A,41855612388937.0,7.233597,2.832275937337444,-0.7306854036819561,46,1970-01-01 11:37:35.612388937,-1.1625671,-1.8071442,-3.0652466,17.628174372665292,3.743403416732908,-86.32904052734375,-17.172428131103516,-35.17055130004883,24320981.0,50354.0,0.38666957449600003,-0.12319676674581041,-0.037140607045401224,0.020935668358947793,-0.001499645164428642,-0.0007299249169727277,24.32098108199716
1609,A,41855662742941.0,0.0665741,0.1069959373374445,-0.8870575036819561,46,1970-01-01 11:37:35.662742941,-1.1660004,-1.8031464,-2.4022827,18.80178867548915,3.222088770247091,-86.41289520263672,-17.29800796508789,-35.08430862426758,24371335.0,50354.0,0.18379640778470002,-0.4194671520113104,-0.04072991317870122,0.014362622035881187,-0.013662649482548032,-0.0019605460876822274,24.371335085998
1609,A,41855713096945.0,-0.2678833,9.576447937337443,1.2038238363180438,46,1970-01-01 11:37:35.713096945,-0.6546173,-2.424469,-0.48960876,9.231248955016744,2.5585719609362227,-86.48286437988281,-17.3299503326416,-34.95915985107422,24421689.0,50354.0,-0.0050683617284,-0.2496691335673104,0.00797522595677878,0.004499836015559466,-0.01684684426201294,-0.0008246647601863414,24.421689089998836
1609,A,41855763450949.0,-0.5015564,14.636628237337444,2.115643296318044,46,1970-01-01 11:37:35.763450949,-0.049102783,-2.7267303,-0.44932556,4.31754787253065,2.7639397010618283,-86.52739715576172,-17.360681533813477,-34.81802749633789,24472043.0,50354.0,-0.0193721833269,0.1161434188497896,0.08357422399837877,-0.0006153396028572882,-0.0033617769194430216,0.002304940501521002,24.472043093999673
1609,A,41855813804953.0,-0.75753784,14.392990937337444,3.762600696318044,46,1970-01-01 11:37:35.813804953,0.43312073,-2.0271454,-0.43626404,5.206438043303959,2.1183102586953626,-86.5369873046875,-17.388586044311523,-34.713401794433594,24522397.0,50354.0,-0.03170021568048,0.23740952196078963,0.14799654900259882,-0.0012858497898088064,0.008901402390787953,0.005830257351845613,24.52239709800051
1609,A,41855864158957.0,-1.3115997,14.181671937337445,3.1659819963180436,46,1970-01-01 11:37:35.864158957,0.35211182,-0.69351196,0.0642395,5.228990243304924,0.7804282707635622,-86.5302734375,-17.387475967407227,-34.67692947387695,24572751.0,50354.0,-0.052094675844579996,0.22595508719568966,0.17444092645249878,-0.002109703983926436,0.011666130764732678,0.008118008319532993,24.572751102001348
1609,A,41855914512961.0,-0.165802,12.862000537337444,2.5892760963180437,46,1970-01-01 11:37:35.914512961,0.89682007,-0.80526733,0.81936646,6.126994241862397,1.4574303093091845,-86.49877166748047,-17.349029541015625,-34.632205963134766,24623105.0,50354.0,-0.0371965426009,0.18740934189488964,0.14490013299829876,-0.00224808500680185,0.010407276231213515,0.00804004985379273,24.623105106002185
1609,A,41855964866965.0,11.06282,3.8282939373374436,-9.566959003681957,46,1970-01-01 11:37:35.964866965,-0.95732117,3.8106232,-0.6075287,21.457991813602433,3.97572686640218,-86.48663330078125,-17.367698669433594,-34.833404541015625,24673459.0,50354.0,0.27435422218600003,-0.0732576560111104,-0.17567712255870127,0.005970918898914064,0.0028739969954959103,-0.0007748722661622539,24.673459110003023
1609,A,41856015220969.0,6.4432526,8.050873937337444,-2.859317003681956,46,1970-01-01 11:37:36.015220969,0.86091614,1.0444336,0.31285095,13.145906624868738,1.3892061984591642,-86.42758178710938,-17.348854064941406,-34.887001037597656,24723813.0,50354.0,0.44075038985020004,-0.19438739041931039,-0.3128563510374013,0.018004188817235412,-0.006738499333978703,-0.012299807264729075,24.72381311400386
1609,A,41856065574972.0,2.6464386,3.1036079373374434,0.4141204663180438,46,1970-01-01 11:37:36.065574972,-0.24273682,-0.09339905,0.6109009,15.935939968323185,0.6639611855714345,-86.59825897216797,-17.126811981201172,-34.83377456665039,24774167.0,50354.0,0.22885115534240003,-0.2126328098413104,-0.06156271322121122,0.016858558103314093,-0.01024754758196165,-0.009426748780839087,24.774167117000616
1609,A,41856115928976.0,0.834671,8.587463937337443,1.6941955363180439,46,1970-01-01 11:37:36.115928976,-0.06384277,2.9204102,0.028793335,10.266953393640918,2.9212498509517695,-86.55658721923828,-17.116657257080078,-34.9862060546875,24824521.0,50354.0,0.08764389639920002,-0.19912308341131044,0.053081071998368784,0.007968395917698264,-0.010366778124421236,-0.00021354228106750404,24.824521121001453
1609,A,41856166282980.0,-1.3732605,15.327713937337442,1.3631408563180438,46,1970-01-01 11:37:36.166282980,0.40605164,0.79241943,0.4421692,3.7461595015104083,0.9941428915487223,-86.52452087402344,-17.09220314025879,-35.02619171142578,24874875.0,50354.0,-0.0135600678415,0.10864323335068955,0.07697455835739878,0.0018652085515972134,-0.002278011184976252,0.00327441060546716,24.87487512500229
1609,A,41856216636984.0,0.7747803,9.075379437337444,2.0583007663180437,46,1970-01-01 11:37:36.216636984,0.5213318,-1.0334473,1.0096436,9.80548327195574,1.5359623584546236,-86.51522827148438,-17.044946670532227,-34.969024658203125,24925229.0,50354.0,-0.015067935995400001,0.1209274818941896,0.08614163573310878,-0.0007207672526016313,0.005779901897720323,0.0041067764186167085,24.925229129003128
1609,A,41856266990988.0,1.552948,8.651566937337444,2.506695496318044,46,1970-01-01 11:37:36.266990988,0.6232147,-2.4169312,0.8170166,10.36549081614953,2.6263033169276335,-86.40808868408203,-16.80286979675293,-34.87338638305664,24975583.0,50354.0,0.058605215409100006,-0.047157871124810374,0.11493291090438879,0.001096138083798725,0.0018572974903406608,0.005062453860692277,24.975583133003965
1609,A,41856317344992.0,1.7449341,12.035996537337443,2.0315215963180435,46,1970-01-01 11:37:36.317344992,1.0735016,-2.0158691,0.8538208,7.050233359936629,2.438266571162803,-86.27851104736328,-16.705947875976562,-34.79636764526367,25025937.0,50354.0,0.0830307776317,0.027381585601889594,0.11425869174129878,0.0035659693967882216,-0.0004979075406105765,0.005770356979810476,25.025937136997527
1609,A,41856367698996.0,3.8811646,9.579636937337444,4.205608996318044,46,1970-01-01 11:37:36.367698996,2.4519958,2.071228,0.70314026,10.477374938580615,3.2858294320360737,-86.12562561035156,-16.66400718688965,-34.90180969238281,25076291.0,50354.0,0.1416482869699,0.050747603991889594,0.1570322369307988,0.005656744809474484,0.0019670586064025786,0.006830291711177401,25.076291140998364
1609,A,41856418053000.0,6.83078,9.515289937337444,-6.891543603681956,46,1970-01-01 11:37:36.418053000,1.6622009,4.7620087,0.6251068,14.02890322604956,5.08236138052409,-85.97217559814453,-16.616422653198242,-35.147483825683594,25126645.0,50354.0,0.2696946291942,-0.012716226076310377,-0.06762377560960123,0.010356380600263547,0.0009575160017805379,0.0022510368306837914,25.126645144999202
1609,A,41856468407004.0,5.9545135,9.817413937337443,1.4588897563180439,46,1970-01-01 11:37:36.468407004,-2.3068848,4.35553,0.4297638,10.785601328550756,4.947429229929568,-86.02320098876953,-16.57978630065918,-35.37260818481445,25176999.0,50354.0,0.3218953344495,-0.006729714547310391,-0.13677792591508123,0.014894460514657438,-0.0004895904470809001,-0.00514622163928693,25.17699914900004
1609,A,41856518761008.0,7.0869446,10.181931937337444,1.5290191463180438,46,1970-01-01 11:37:36.518761008,-0.07954407,-0.046295166,0.56877136,11.168469635919335,0.5761695596119097,-86.02845001220703,-16.551576614379883,-35.368141174316406,25227353.0,50354.0,0.32834479058370003,0.010054331086689598,0.07522658244166879,0.01637109562796088,8.37038706119503e-05,-0.0015496781746301052,25.227353153000877
1609,A,41856569115012.0,7.2973175,9.899735937337443,1.6208312963180438,46,1970-01-01 11:37:36.569115012,0.72164917,-1.800705,0.0942688,11.523592518179154,1.9422159067004183,-86.0191650390625,-16.55311393737793,-35.27409744262695,25277707.0,50354.0,0.36215256689170006,0.012126952080689587,0.07930378459424878,0.01738465196915815,0.0005584581663051057,0.003890611050863296,25.277707157001714
1609,A,41856619469015.0,8.35762,10.068604937337444,-0.6293366036819563,46,1970-01-01 11:37:36.619469015,-0.9293823,0.3517456,-1.2896881,12.212228915544916,1.6281191055798896,-86.05908203125,-16.616230010986328,-35.297054290771484,25328061.0,50354.0,0.39414436143750003,0.009273718201689587,0.024962861876498776,0.019041287764544272,0.0005388046756994604,0.0026251213581940116,25.32806115999847
1609,A,41856669823019.0,8.409897,6.460770937337443,2.032376096318044,46,1970-01-01 11:37:36.669823019,-1.3774872,-1.8822021,-2.4378967,14.964287493249701,3.3739436941477163,-86.15360260009766,-16.74423599243164,-35.207672119140625,25378415.0,50354.0,0.4221557755090001,-0.0773091036033104,0.03532432530609878,0.020551988547902036,-0.0017129268982566076,0.0015178505116962588,25.378415163999307
1609,A,41856720177023.0,4.3273773,0.4490209373374441,1.2744720263180438,46,1970-01-01 11:37:36.720177023,-0.90335083,-2.0413666,-2.9613495,18.858248125707814,3.7084782834482795,-86.31047058105469,-16.81241798400879,-35.0873908996582,25428769.0,50354.0,0.32068635505110005,-0.3195013699713104,0.08325651518360878,0.01870253632111164,-0.009990497293188228,0.0029855098210093676,25.428769168000144
1609,A,41856770531027.0,-1.7007904,3.3813179373374442,-1.0372650036819564,46,1970-01-01 11:37:36.770531027,-1.6152649,-1.8647919,-0.92588806,15.662105052418374,2.635108769506144,-86.41850280761719,-16.864530563354492,-34.99323654174805,25479123.0,50354.0,0.06612957838130001,-0.39703275815231037,0.005972161208908772,0.009738864756027537,-0.0180401797437684,0.0022465103855344145,25.479123172000982
1609,A,41856820885031.0,-0.55722046,12.827805637337445,2.6196257963180436,46,1970-01-01 11:37:36.820885031,-0.051513672,-3.3377686,-0.09585571,6.1904600990722605,3.339542064817943,-86.47151184082031,-16.879661560058594,-34.81949234008789,25529477.0,50354.0,-0.05684993942222001,-0.08537209576041035,0.03983909767619877,0.00023363347007275724,-0.012145507006960569,0.0011533900649503526,25.52947717600182
1609,A,41856871239035.0,0.06201172,15.357819637337442,2.4801757963180435,46,1970-01-01 11:37:36.871239035,0.5828247,-3.2191925,-0.4741211,3.711633913066332,3.3057035257947063,-86.49073028564453,-16.91320037841797,-34.653106689453125,25579831.0,50354.0,-0.012467870446980002,0.2161602875404896,0.12839770469779876,-0.0017452144990768488,0.0032928543044470552,0.0042356979733701354,25.579831180002657
1609,A,41856921593039.0,0.21775818,14.413483737337444,4.941067496318044,46,1970-01-01 11:37:36.921593039,0.23466492,-1.3497772,-0.51213074,5.83623613729741,1.4626154686626947,-86.49901580810547,-16.94288444519043,-34.584327697753906,25630185.0,50354.0,0.007043766772300001,0.25608290506418957,0.18684464237869877,-0.0001365626582174184,0.011889666860208009,0.00793685657234498,25.630185184003494
1609,A,41856971947043.0,-0.84375,15.167939237337443,3.366650396318044,46,1970-01-01 11:37:36.971947043,0.77430725,0.02998352,0.09732056,4.365708050542323,0.7809750445903292,-86.4599380493164,-16.937936782836914,-34.58558654785156,25680539.0,50354.0,-0.01576059605214,0.25130228623338957,0.2091634133828988,-0.00021946361077853163,0.01277443696129915,0.009970294819909744,25.680539187997056
1609,A,41857022301047.0,2.6699677,9.737015937337443,-0.6166870036819563,46,1970-01-01 11:37:37.022301047,1.123642,0.41426086,0.7675934,9.606060417582658,1.4224566889770316,-86.39820861816406,-16.898344039916992,-34.604698181152344,25730893.0,50354.0,0.0459786830329,0.13356285643278956,0.06923582833639878,0.0007608007759145947,0.009689749696906391,0.007009257708766756,25.730893191997893
1609,A,41857072655051.0,8.06189,2.057083937337442,-3.6995117036819565,46,1970-01-01 11:37:37.072655051,-1.8042603,4.4447937,-0.8420105,19.19570225179781,4.8703724649995745,-86.42015838623047,-16.92643928527832,-34.839271545410156,25781247.0,50354.0,0.2701959813129,-0.19652914745531047,-0.10866893485530126,0.007960329524234207,-0.001585302309074009,-0.0009928073228264076,25.78124719599873
1609,A,41857123009054.0,4.9421997,8.144226937337443,-0.5829193036819562,46,1970-01-01 11:37:37.123009054,1.1251068,0.50445557,1.0475311,11.869130712494616,1.6179190767703664,-86.35725402832031,-16.872575759887695,-34.86213684082031,25831601.0,50354.0,0.3274039663769,-0.23663079610831048,-0.10781876547240124,0.015045773882986094,-0.010905667899101286,-0.0054505108311505655,25.831601199002762
1609,A,41857173363058.0,2.662094,2.598450937337443,-2.0319245036819567,46,1970-01-01 11:37:37.173363058,-1.1375427,2.5437012,0.46505737,16.718211988951218,2.825012840076315,-86.37612915039062,-16.8413143157959,-34.993228912353516,25881955.0,50354.0,0.1914533024849,-0.22300079914931045,-0.06583392253800124,0.01306326945813354,-0.011572144673801122,-0.004372053726037903,25.8819552030036
1609,A,41857223717062.0,-0.36180115,12.331864437337444,1.9239165963180438,46,1970-01-01 11:37:37.223717062,-0.08364868,2.3502045,0.2842865,6.5334819525987315,2.3688134387427477,-86.34510040283203,-16.819669723510742,-35.114803314208984,25932309.0,50354.0,0.057914473084450004,-0.11756864981181042,-0.0027193150837012342,0.006278332485509525,-0.00857451701649414,-0.0017259648636016036,25.93230920699716
1609,A,41857274071066.0,-0.06626892,14.071091937337442,0.8514526163180438,46,1970-01-01 11:37:37.274071066,0.38334656,-0.104156494,0.889801,4.739198248121772,0.9744480385875922,-86.32837677001953,-16.77560806274414,-35.10641098022461,25982663.0,50354.0,-0.01077752015239,0.1712780326451896,0.06987547066653879,0.0011867670639704748,0.0013522411315959875,0.0016907905291091011,25.982663210998
1609,A,41857324425070.0,2.3574066,8.338440937337444,2.078808596318044,46,1970-01-01 11:37:37.324425070,0.42211914,-2.561386,0.82769775,10.771490397404238,2.7246956480872138,-86.30402374267578,-16.639446258544922,-34.98240661621094,26033017.0,50354.0,0.05768397336936,0.07073560918568957,0.07377518655053879,0.0011809637726436536,0.0060931774603760445,0.003616692596754363,26.033017214998836
1609,A,41857374779074.0,1.8922119,9.910263937337444,2.916180396318044,46,1970-01-01 11:37:37.374779074,0.92082214,-3.2961578,0.5544281,9.27143368150582,3.4669814210757792,-86.10800170898438,-16.50492286682129,-34.8658561706543,26083371.0,50354.0,0.10699264497450002,-0.0340215573703104,0.1257588378675988,0.004146063220043364,0.0009243496825558012,0.005023668132775451,26.083371218999673
1609,A,41857425133078.0,2.3220825,11.406739337337443,4.583477796318044,46,1970-01-01 11:37:37.425133078,2.1388855,-0.5644989,0.6549072,8.49860344585108,2.307031345869254,-86.01004028320312,-16.47418975830078,-34.83413314819336,26133725.0,50354.0,0.1061032901088,0.0432289914464896,0.1888188943159988,0.0053651163575922445,0.00023181556773596362,0.007920123563186438,26.13372522300051
1609,A,41857475487082.0,4.8655243,9.207169937337444,0.12557676631804382,46,1970-01-01 11:37:37.475487082,2.9679718,4.346756,0.5845642,10.803230246259684,5.2957397625877425,-85.79824829101562,-16.429513931274414,-35.05799865722656,26184079.0,50354.0,0.1809623764036,0.02552719380848959,0.11855986672348877,0.007227452285782696,0.0017310744761646112,0.00773887506669118,26.184079227001348
1609,A,41857525841086.0,5.5491333,9.598099937337443,-4.443454003681956,46,1970-01-01 11:37:37.525841086,-0.89312744,3.9252167,0.53001404,12.094258342483796,4.060285414676777,-85.78584289550781,-16.38868522644043,-35.2600212097168,26234433.0,50354.0,0.2622098343952,-0.020008920365310424,-0.10871119520511123,0.011157746751281387,0.0001389335704789219,0.0002479600028181913,26.234433231002185
1609,A,41857576195090.0,6.1568756,9.559387937337444,0.7865569963180438,46,1970-01-01 11:37:37.576195090,-0.94117737,3.0145416,0.32000732,11.11102710037197,3.1742212564319234,-85.7890625,-16.36165428161621,-35.41546630859375,26284787.0,50354.0,0.29472218607530004,-0.011141127779310409,-0.09206969595440123,0.014021877479385781,-0.0007842647621371187,-0.005055060496723046,26.284787235003023
1609,A,41857626549094.0,6.454941,9.797745937337444,2.246014396318044,46,1970-01-01 11:37:37.626549094,0.0256958,-2.1152496,0.4248047,11.138926258979145,2.157637638154259,-85.81919860839844,-16.34821128845215,-35.30392074584961,26335141.0,50354.0,0.31752770653820006,-0.006114640437310376,0.07635104995239878,0.015414615546330092,-0.0004344484763898615,-0.0003957483503924159,26.33514123900386
1609,A,41857676903097.0,8.675964,9.689621937337444,1.4584167263180439,46,1970-01-01 11:37:37.676903097,0.45825195,-1.1041718,-0.15916443,12.588007867919092,1.2060362885797704,-85.8122787475586,-16.360177993774414,-35.24714660644531,26385495.0,50354.0,0.380950795185,-0.0028357390193103817,0.09326646237460878,0.017585593237885007,-0.00022534370357934079,0.00427046010785707,26.385495242000616
1609,A,41857727257101.0,7.808243,11.435486937337444,-1.936847003681956,46,1970-01-01 11:37:37.727257101,-1.5643921,2.0841064,-1.8960266,11.157167867516783,3.2226912661579807,-85.85787200927734,-16.44715690612793,-35.3626594543457,26435849.0,50354.0,0.4150228796390001,0.03839766613768962,-0.012045439093191218,0.020040229211043852,0.0008953426390594341,0.00204490170315625,26.435849246001453
1609,A,41857777611105.0,6.437546,5.208435937337443,1.7259185663180436,46,1970-01-01 11:37:37.777611105,-1.4200897,-1.2784882,-2.7463074,15.054929148823664,3.3456525774324044,-85.98070526123047,-16.80961799621582,-35.29597091674805,26486203.0,50354.0,0.35866622965300005,-0.0744251537843104,-0.005310545267511223,0.01947917070464469,-0.0009070640564789715,-0.0004369716182494054,26.48620325000229
1609,A,41857827965109.0,2.4518127,-0.3751820626625566,-2.364810203681956,46,1970-01-01 11:37:37.827965109,-0.38339233,-2.5182495,-2.4298553,19.64272676147441,3.520336205803526,-86.03540802001953,-16.939577102661133,-35.173553466796875,26536557.0,50354.0,0.22380738398990002,-0.37178236719731045,-0.016085374753911225,0.014664938170687297,-0.011234166755754268,-0.0005386850783793529,26.536557254003128
1609,A,41857878319113.0,-0.57118225,8.724426937337444,1.4508788963180437,46,1970-01-01 11:37:37.878319113,-0.37876892,-3.3548737,-0.46195984,10.101037003878911,3.407645863566589,-86.10488891601562,-16.97412109375,-35.0002555847168,26586911.0,50354.0,0.047348632839650004,-0.2832602617903104,-0.023010048525501224,0.006826895035717582,-0.01649200827002133,-0.0009843054719057673,26.586911258003965
1609,A,41857928673117.0,-0.15933228,15.127045737337443,2.199352996318044,46,1970-01-01 11:37:37.928673117,0.32244873,-3.0280762,-0.16534424,3.8400048927276433,3.0496815201240657,-86.1347427368164,-16.99261474609375,-34.842899322509766,26637265.0,50354.0,-0.01839216432181,0.10703932753028962,0.09190188836089878,0.0007290370078736578,-0.004436714461864544,0.0017344898515358046,26.637265261997527
1609,A,41857979027121.0,0.3585205,14.494797937337443,3.575009096318044,46,1970-01-01 11:37:37.979027121,0.6888733,-2.0361786,-0.5505066,4.981037974865807,2.2189247916940333,-86.13079071044922,-17.02693748474121,-34.73860549926758,26687619.0,50354.0,0.005014961814940001,0.25231995819728964,0.14538111440629878,-0.00033679782751546604,0.009047588736763264,0.005974074160669733,26.687619265998364
1609,A,41858029381125.0,-0.5889282,13.321045937337445,3.5461242963180437,46,1970-01-01 11:37:38.029381125,0.52130127,-0.24368286,-0.40559387,6.031479142313295,0.7040189896181561,-86.1080322265625,-17.04800033569336,-34.72732925415039,26737973.0,50354.0,-0.0058009746629,0.2068503012326896,0.1792887754263988,-1.9789445473088898e-05,0.011560529621668588,0.008174213816317827,26.737973269999202
1609,A,41858079735129.0,-1.1462555,14.134354637337443,2.887234496318044,46,1970-01-01 11:37:38.079735129,0.78300476,-0.5014801,0.37123108,5.128563366488415,1.0011949159063054,-86.07693481445312,-17.031192779541016,-34.69984436035156,26788327.0,50354.0,-0.0436867200149,0.1977754202685896,0.16197267432219878,-0.0012459516889029708,0.010187261790237706,0.008591939520320441,26.78832727400004
1609,A,41858130089133.0,8.077042,4.899933937337444,-6.1743500036819565,46,1970-01-01 11:37:38.130089133,0.05470276,0.69052124,0.5954132,17.648645633297473,0.9134160353185153,-86.06428527832031,-16.999122619628906,-34.733734130859375,26838681.0,50354.0,0.1744964117105,-0.014242916555410398,-0.08275970712890124,0.0032933956078201212,0.004620797845986713,0.001994344875025652,26.838681278000877
1609,A,41858180443137.0,4.5675354,7.221466937337443,-2.126727303681956,46,1970-01-01 11:37:38.180443137,-0.87312317,4.511734,-0.75071716,12.861554677571949,4.656357375789074,-86.0383071899414,-17.02103614807129,-34.97177505493164,26889035.0,50354.0,0.3183525251998,-0.18828869017831043,-0.2089962233675012,0.012408457684590625,-0.00509913826273489,-0.0073455390621079255,26.889035282001714
1609,A,41858230797140.0,3.0035706,10.114868937337443,1.5702026163180438,46,1970-01-01 11:37:38.230797140,0.61058044,-0.6195221,1.398941,9.204843099312876,1.6473166142487619,-86.04026794433594,-17.0040225982666,-34.928104400634766,26939389.0,50354.0,0.19061773576200003,-0.05699227168331045,-0.014011622053761214,0.012814344260235241,-0.006175438776790029,-0.005614668524171125,26.93938928499847
1609,A,41858281151144.0,5.287903,2.3485889373374427,-0.5485565036819562,46,1970-01-01 11:37:38.281151144,-0.21522522,3.6495056,0.08328247,17.362005931105116,3.6567949066860055,-86.23546600341797,-17.0113468170166,-35.04795455932617,26989743.0,50354.0,0.2087544308272,-0.17967672108931046,0.025721984177838778,0.01005499303821629,-0.0059586152310362765,0.00029483178719790084,26.989743288999307
1609,A,41858331505148.0,-1.1511078,15.235505137337444,0.9743316463180438,46,1970-01-01 11:37:38.331505148,0.23782349,1.4494019,0.009918213,3.750983752346483,1.4688172966943518,-86.20147705078125,-17.006078720092773,-35.1235466003418,27040097.0,50354.0,0.10415209275040001,-0.05075446348191041,0.010719740766148778,0.007878047544113236,-0.0058015659339496276,0.0009174933089147747,27.040097293000144
1609,A,41858381859152.0,-0.88793945,15.951523937337443,1.6145141463180437,46,1970-01-01 11:37:38.381859152,0.30895996,-1.1919708,0.94844055,3.0305389434387453,1.5542812235307175,-86.20514678955078,-16.962703704833984,-35.05807113647461,27090451.0,50354.0,-0.05133709261325,0.2917266310130896,0.06517937052119878,0.0013297232584530258,0.006066956261932499,0.0019109119248815495,27.090451297000982
1609,A,41858432213156.0,2.6496277,5.303208437337444,4.096615596318044,46,1970-01-01 11:37:38.432213156,0.16149902,-3.3329926,1.1293488,14.07990168379613,3.5228327120624336,-86.24885559082031,-16.917329788208008,-34.880367279052734,27140805.0,50354.0,0.04435402507025,0.041661196997189606,0.1437891135303488,-0.00017581269153011105,0.0083937053458148,0.005261199522965813,27.14080530100182
1609,A,41858482567160.0,1.4636383,9.571579937337443,3.415997296318044,46,1970-01-01 11:37:38.482567160,0.679657,-3.5351563,0.52589417,9.629323494042913,3.6381078022948525,-86.26901245117188,-16.902618408203125,-34.6942253112793,27191159.0,50354.0,0.103559698082,-0.1189666530908104,0.18914505479789878,0.003724023807804198,-0.001946319468069091,0.00838228355600029,27.191159305002657
1609,A,41858532921164.0,1.3224487,13.630982437337444,3.1937682963180434,46,1970-01-01 11:37:38.532921164,1.6688843,-2.0483093,0.5279846,5.734089878723774,2.694348443147274,-86.21711730957031,-16.882986068725586,-34.58560562133789,27241513.0,50354.0,0.07014531239900001,0.0907017129071896,0.16641406832579878,0.004373371048880138,-0.000711626399003021,0.008951912042885334,27.241513309003494
1609,A,41858583275168.0,3.5375671,9.922791937337443,2.950115996318044,46,1970-01-01 11:37:38.583275168,3.3829498,2.784851,0.06086731,9.736275780191336,4.382174034762617,-85.81201934814453,-16.984285354614258,-34.78723907470703,27291867.0,50354.0,0.12236061779660001,0.09954417743118961,0.15468457483569878,0.004846721804534622,0.004789820781049374,0.008084300538877024,27.291867312997056
1609,A,41858633629172.0,8.426544,7.119431937337444,-5.740619003681957,46,1970-01-01 11:37:38.633629172,1.7380371,8.986496,-0.49594116,15.947696093459676,9.166451928263987,-85.5877456665039,-16.975322723388672,-35.25766372680664,27342221.0,50354.0,0.30122042516470005,-0.06439712950731041,-0.07025649421640123,0.010664499918636652,0.0008848972255795066,0.0021256457857520544,27.342221316997893
1609,A,41858683983176.0,4.429596,7.097321937337444,-2.4859802036819563,46,1970-01-01 11:37:38.683983176,-3.4838562,6.841812,-1.1837769,13.019906110373977,7.768460157238116,-85.65633392333984,-17.00822639465332,-35.619056701660156,27392575.0,50354.0,0.32367903678000004,-0.1355339876973104,-0.20712108824380124,0.015733093753381715,-0.005033665737860738,-0.006983535393600518,27.39257532099873
1609,A,41858734337179.0,9.036102,10.124298937337443,6.003155496318043,46,1970-01-01 11:37:38.734337179,-1.8448944,0.4745636,1.49646,13.453769889922164,2.4224447339818345,-85.7430648803711,-16.931835174560547,-35.63792419433594,27442929.0,50354.0,0.339025878546,-0.059880451238310414,0.08855192234269876,0.016684921653162706,-0.004919949329082126,-0.002985215889892057,27.442929324002762
1609,A,41858784691183.0,12.428177,14.134552937337443,-1.3431732036819561,46,1970-01-01 11:37:38.784691183,-0.823349,-1.4320831,-0.9636383,13.499309742110292,1.9124236858848773,-85.80492401123047,-16.98516273498535,-35.56697463989258,27493283.0,50354.0,0.5404061523829999,0.11729591364868956,0.11732437418169878,0.022141460242699435,0.0014455490971061159,0.0051833475175947575,27.4932833280036
1609,A,41858835045187.0,8.523422,8.374085937337444,2.3412749963180435,46,1970-01-01 11:37:38.835045187,-0.8772888,-1.6647949,-3.4694672,13.526035789128645,3.9469456988343894,-85.87040710449219,-17.164213180541992,-35.49329376220703,27543637.0,50354.0,0.5274984080230001,0.07323080094768959,0.025129208833198774,0.026886633117341865,0.004796891093393038,0.003586553859566076,27.54363733199716
1609,A,41858885399191.0,9.036942,-0.41813606266255476,2.0525329463180437,46,1970-01-01 11:37:38.885399191,-0.41680908,-2.253357,-3.6062775,21.26105683594528,4.272772517420708,-85.95314025878906,-17.55128288269043,-35.37980270385742,27593991.0,50354.0,0.442117284428,-0.2931622500053104,0.11062290257174877,0.02441201428883883,-0.0055372140929237194,0.003417830908842364,27.593991335998
1609,A,41858935753195.0,-1.3513641,4.3116009373374435,-0.11847230368195616,46,1970-01-01 11:37:38.935753195,-1.4716492,-0.019210815,-2.0035706,14.605528148929107,2.4860441614054176,-86.0248031616211,-17.651287078857422,-35.38615798950195,27644345.0,50354.0,0.1934997947883,-0.39544343485031036,0.04869384479964878,0.01600293120342879,-0.017337025327609966,0.0040111177485696765,27.644345339998836
1609,A,41858986107199.0,-1.4506683,14.309677937337444,2.233563196318044,46,1970-01-01 11:37:38.986107199,0.4131317,-2.7933655,-0.56941223,4.8557890266414505,2.8805900273743767,-86.04790496826172,-17.68934440612793,-35.24198532104492,27694699.0,50354.0,-0.0705467697348,-0.024641261772310397,0.053251643403898784,0.00309558831177197,-0.010576472406867723,0.0025666815565007174,27.694699343999673
1609,A,41859036461203.0,-1.5652313,16.166031937337443,3.6971251963180434,46,1970-01-01 11:37:39.036461203,1.5015869,-3.734665,-0.50450134,4.01788936466637,4.056723737517556,-86.03174591064453,-17.727401733398438,-35.04825973510742,27745053.0,50354.0,-0.07593130422920001,0.2738177475146896,0.14931694166139878,-0.003687878468191628,0.006273516381535882,0.0051000692661889975,27.74505334800051
1609,A,41859086815207.0,-2.5640259,16.220795737337443,3.0878569963180436,46,1970-01-01 11:37:39.086815207,1.0123291,-3.066864,-0.2427826,4.146069557426775,3.2387356162653305,-86.02980041503906,-17.7501277923584,-34.88853073120117,27795407.0,50354.0,-0.1039623085244,0.3219339603652896,0.17082549666399877,-0.004529181488297387,0.014999240749294238,0.008060226169718535,27.795407352001348
1609,A,41859137169211.0,-1.9226685,16.192078637337445,4.381542996318044,46,1970-01-01 11:37:39.137169211,0.8261261,-3.4392395,0.9639435,4.612505458598866,3.6660659763094428,-86.0444107055664,-17.71392822265625,-34.70492935180664,27845761.0,50354.0,-0.11296150490879998,0.3225897381311897,0.18805708361459877,-0.005461490850807676,0.01622717315704586,0.00903558672367425,27.845761356002185
1609,A,41859187523215.0,1.0191498,7.0599679373374435,2.184384096318044,46,1970-01-01 11:37:39.187523215,0.19496155,-2.1480103,0.91677856,11.83707241685777,2.343595780624331,-86.06986236572266,-17.675588607788086,-34.58915710449219,27896115.0,50354.0,-0.022747890309899994,0.09194757661058965,0.1653103464112988,-0.0034167554434212095,0.01043680597325378,0.008896731785762023,27.896115360003023
1609,A,41859237877219.0,5.8536987,-0.19615106266255466,-1.631793203681956,46,1970-01-01 11:37:39.237877219,-0.22201538,2.804367,-0.20503235,20.067687306929976,2.8206033688188183,-86.0361557006836,-17.676158905029297,-34.73670959472656,27946469.0,50354.0,0.1730377066845,-0.32065888254631036,0.013912580903898785,0.003783846706863305,-0.0057582645495436405,0.00451229564101473,27.94646936400386
1609,A,41859288231222.0,-1.5390472,13.713608937337444,1.6953551963180438,46,1970-01-01 11:37:39.288231222,-0.32009888,3.5795898,-0.27139282,5.350324651816026,3.604106060036087,-85.99495697021484,-17.677257537841797,-34.92509460449219,27996823.0,50354.0,0.1086299808155,-0.15314016308931036,0.0016003002885987814,0.0070915473681875,-0.011928838571968022,0.0003905678097835112,27.996823367000616
1609,A,41859338585226.0,-2.58049,18.698258467337443,1.9101531963180438,46,1970-01-01 11:37:39.338585226,-0.22767639,0.4262848,0.112091064,2.7063428685484516,0.49610450099059195,-85.99967956542969,-17.670177459716797,-34.94699478149414,28047177.0,50354.0,-0.1037175880844,0.3225643856474996,0.09077588480139878,0.00012367931179090475,0.004265593651347531,0.002325755212010869,28.047177371001453
1609,A,41859388939230.0,-2.4574738,10.978180937337443,5.384487996318043,46,1970-01-01 11:37:39.388939230,0.13809204,-0.89941406,1.6204681,9.252941812042883,1.8584756995868028,-86.00883483886719,-17.592487335205078,-34.89400100708008,28097531.0,50354.0,-0.12684081459260002,0.2536945148914995,0.18365718130699876,-0.00580476890419883,0.01450847033887038,0.006909401305411126,28.09753137500229
1609,A,41859439293234.0,2.91008,5.367020937337443,3.501248196318044,46,1970-01-01 11:37:39.439293234,1.4272308,-2.1706238,2.2934265,13.955664223175072,3.465313917742133,-85.81720733642578,-17.349496841430664,-34.819156646728516,28147885.0,50354.0,0.0113952662974,-0.08194605240131042,0.22371618012199881,-0.002906572569428251,0.004324111040115491,0.010256439120697873,28.147885379003128
1609,A,41859489647238.0,2.92424,8.554001937337443,3.280682396318044,46,1970-01-01 11:37:39.489647238,1.8173828,-3.3817596,0.46487427,10.878787257482912,3.86720652678856,-85.58280181884766,-17.298799514770508,-34.69926834106445,28198239.0,50354.0,0.14689067464,-0.14297960708431043,0.1707486665307988,0.00398516513498092,-0.005662953328869477,0.009931441444177486,28.198239383003965
1609,A,41859540001242.0,2.5054626,11.768799937337445,2.5198333963180435,46,1970-01-01 11:37:39.540001242,2.1588745,-1.006897,-0.2857666,7.600860803647907,2.3992172108908374,-85.31787109375,-17.36858367919922,-34.6992301940918,28248593.0,50354.0,0.13670362236020003,0.018197982798689602,0.14603958611119877,0.007140053615574036,-0.003141626954639076,0.007975777836767574,28.248593386997527
1609,A,41859590355246.0,5.558304,10.124954937337444,2.055096396318044,46,1970-01-01 11:37:39.590355246,2.7241821,7.023773,0.073135376,10.349743981403924,7.533916913048091,-85.0724105834961,-17.335525512695312,-35.065547943115234,28298947.0,50354.0,0.2030214516882,0.05774986647968963,0.11518300738919877,0.008553258189316569,0.001912139001281754,0.00657680123655951,28.298947390998364
1609,A,41859640709250.0,6.7194977,9.059296937337443,-3.7895690036819563,46,1970-01-01 11:37:39.640709250,-0.86169434,7.9029236,-0.190979,12.806875416452419,7.952055805982878,-84.9924545288086,-17.31082534790039,-35.478782653808594,28349301.0,50354.0,0.3091182134009,-0.01046729055131041,-0.04366881683560122,0.012894140347948273,0.0011904334141488036,0.0018005127755679258,28.349301394999202
1609,A,41859691063254.0,4.611725,7.758011937337443,1.3480651663180439,46,1970-01-01 11:37:39.691063254,-1.8006287,3.7197723,-0.4984131,11.971882480017538,4.162617601625519,-85.11388397216797,-17.453874588012695,-35.648250579833984,28399655.0,50354.0,0.2852861939179,-0.07005981446231044,-0.06146974211331123,0.014965319763065428,-0.002027430922927932,-0.002647073498656769,28.39965539900004
1609,A,41859741417258.0,8.0672,8.115524937337444,2.0673339963180437,46,1970-01-01 11:37:39.741417258,-0.04664612,-1.0331726,0.84965515,13.425359806531107,1.3384824824491866,-85.1335220336914,-17.415939331054688,-35.59052276611328,28450009.0,50354.0,0.319217294725,-0.09382116210631042,0.08598950471768878,0.015219584333562292,-0.004126031347068167,0.0006173340630904136,28.450009403000877
1609,A,41859791771262.0,10.666321,10.906037437337442,-1.547961403681956,46,1970-01-01 11:37:39.791771262,0.78611755,-2.0124664,-0.17802429,13.533456985042788,2.1678778704938537,-85.12544250488281,-17.433347702026367,-35.48622512817383,28500363.0,50354.0,0.471653858217,-0.01456332409281043,0.013076243764798781,0.019911763017620737,-0.0027287962090352656,0.0024941783495435895,28.500363407001714
1609,A,41859842125265.0,7.9789734,9.731247937337443,0.6549041563180438,46,1970-01-01 11:37:39.842125265,-0.9203186,0.11091614,-2.4191284,12.089840859638574,2.590650677205443,-85.16648864746094,-17.553403854370117,-35.50275421142578,28550717.0,50354.0,0.46943257710880004,0.02611573387818955,-0.02248450231688122,0.023693733182197668,0.00029085502116649013,-0.00023687172556577957,28.55071740999847
1609,A,41859892479269.0,6.2712555,2.390976937337445,1.889431746318044,46,1970-01-01 11:37:39.892479269,-1.158371,-1.9751434,-3.5211182,17.587274868895317,4.20015335464978,-85.30223846435547,-17.820676803588867,-35.3992919921875,28601071.0,50354.0,0.3587780130153,-0.18826794433031038,0.06405874502066879,0.020851858027554467,-0.004082506202553046,0.0010467147085532597,28.601071413999307
1609,A,41859942833273.0,-0.19706726,-0.04722506266255522,0.23429563631804373,46,1970-01-01 11:37:39.942833273,-1.6336365,-2.1065369,-2.613144,18.871418052433366,3.7329328268708317,-85.41439056396484,-17.959430694580078,-35.300086975097656,28651425.0,50354.0,0.15292983731848,-0.43446055905131037,0.053469084312628784,0.012883268547853578,-0.015678435529639066,0.0029589981591244333,28.651425418000144
1609,A,41859993187277.0,-0.83955383,8.481720937337444,2.128765896318044,46,1970-01-01 11:37:39.993187277,-0.6432495,-1.8096771,-0.6903839,10.406459339660886,2.0409142693640687,-85.4749526977539,-18.001026153564453,-35.2081413269043,28701779.0,50354.0,-0.02609900918293,-0.2811138973633104,0.059494800207178775,0.003193219759968742,-0.018016018089150907,0.002844091720555195,28.701779422000982
1609,A,41860043541281.0,-0.29162598,14.995713337337444,2.4053771963180437,46,1970-01-01 11:37:40.043541281,0.4343872,-2.3136292,-0.85110474,4.035229033346876,2.5031882855804013,-85.48966979980469,-18.052562713623047,-35.09039306640625,28752133.0,50354.0,-0.02847971407637,0.09762216273348961,0.11415612064329878,-0.0013741285154993963,-0.004619771402774997,0.004372009234252474,28.75213342600182
1609,A,41860093895285.0,-0.6879425,15.028306037337444,4.120525996318044,46,1970-01-01 11:37:40.093895285,1.3014069,-2.7282867,-1.0380554,4.882568716482918,3.196054951066026,-85.46766662597656,-18.11505889892578,-34.95164489746094,28802487.0,50354.0,-0.02466259562096,0.2624455357961897,0.1643026646809988,-0.0013379639312496774,0.009065424445881737,0.00701075683810984,28.802487430002657
1609,A,41860144249289.0,-0.9446106,14.335877437337444,3.990765396318044,46,1970-01-01 11:37:40.144249289,1.3448029,-1.9496918,-0.11039734,5.403607200159128,2.3710715989853037,-85.43209838867188,-18.1283016204834,-34.84986114501953,28852841.0,50354.0,-0.041102789398700004,0.24583284734188965,0.20421798339239877,-0.00165577509863998,0.012796924852267423,0.009278244356543931,28.852841434003494
1609,A,41860194603293.0,-0.25816345,12.456833937337443,3.3115509963180436,46,1970-01-01 11:37:40.194603293,1.483551,-2.2495728,1.4558868,6.725249729808173,3.062859403648016,-85.39645385742188,-18.064727783203125,-34.72578048706055,28903195.0,50354.0,-0.03028224225685,0.18109089428018962,0.18385041981739877,-0.0017972609419917825,0.01074865904281909,0.009770398187613072,28.903195437997056
1609,A,41860244957297.0,9.399582,2.704300937337443,-7.338000503681956,46,1970-01-01 11:37:40.244957297,-1.349823,2.6793976,0.23493958,20.46335040605346,3.00938369711563,-85.42072296142578,-18.042293548583984,-34.86524963378906,28953549.0,50354.0,0.23015349483335004,-0.11175730726031044,-0.10137391924690123,0.005032158526118542,0.0017456117203994983,0.0020765108548634168,28.953549441997893
1609,A,41860295311301.0,3.7748718,9.342911937337444,-5.118335003681956,46,1970-01-01 11:37:40.295311301,-0.14978027,6.548691,-0.70835876,11.934426873329118,6.588593178792496,-85.3209457397461,-18.051170349121094,-35.21150588989258,29003903.0,50354.0,0.33169322332260004,-0.19015652145431042,-0.31361315906890125,0.014145614823012357,-0.00760128446554801,-0.01044812967075696,29.00390344599873
1609,A,41860345665304.0,2.2104797,6.733185937337444,3.1338622963180436,46,1970-01-01 11:37:40.345665304,0.43928528,-1.3084869,1.4249573,12.438004558876154,1.983837904547541,-85.19600677490234,-17.79236602783203,-35.17561340332031,29054257.0,50354.0,0.15069319471550002,-0.08872128380931038,-0.04996306935330123,0.012145042846945247,-0.007021306503122182,-0.009153758702985793,29.054257449002762
1609,A,41860396019308.0,6.6898956,1.4907089373374447,3.0030333963180436,46,1970-01-01 11:37:40.396019308,0.22276306,-0.65605164,0.93714905,18.657310097644586,1.165450761363669,-85.16073608398438,-17.82901954650879,-35.14814758300781,29104611.0,50354.0,0.2240847489281,-0.2864161987403104,0.15450862285349878,0.00943578428711492,-0.009444836398151803,0.0026321434004744743,29.1046114530036
1609,A,41860446373312.0,0.3468628,13.117524237337443,0.041638196318043885,46,1970-01-01 11:37:40.446373312,0.5389099,5.711502,-0.14788818,5.793998559473463,5.738775992326738,-85.04210662841797,-17.811996459960938,-35.44767379760742,29154965.0,50354.0,0.17716446623680002,-0.1256777133612104,0.07665569668779877,0.010102251490206689,-0.01037528842497999,0.005820024073091249,29.15496545699716
1609,A,41860496727316.0,-0.40847778,15.146302337337444,-0.5221283036819562,46,1970-01-01 11:37:40.496727316,0.66430664,2.5409698,0.5102539,4.021860363548513,2.6754793736684532,-84.96898651123047,-17.77552032470703,-35.57826232910156,29205319.0,50354.0,-0.0015512803514599997,0.2181291616705896,-0.01209729943310122,0.004421413181035206,0.0023276501140852405,0.0016253867676815205,29.205319460998
1609,A,41860547081320.0,0.85427856,8.171280937337444,0.09281609631804377,46,1970-01-01 11:37:40.547081320,-0.050079346,-2.7290344,-0.04736328,10.71378735634995,2.729904756135552,-85.01502990722656,-17.789793014526367,-35.43573760986328,29255673.0,50354.0,0.011223926238060001,0.09359759410648963,-0.010808793444801222,0.00024352820548692822,0.007848344530199523,-0.0005767067003869498,29.255673464998836
1609,A,41860597435324.0,0.6637726,9.337433937337444,2.3024413963180437,46,1970-01-01 11:37:40.597435324,-0.057785034,-5.502884,0.77967834,9.564776294733793,5.558144451296272,-85.10690307617188,-17.774641036987305,-35.14432907104492,29306027.0,50354.0,0.03821997405532001,-0.05265228560031037,0.06030539789209878,0.0012448490776864286,0.0010308800322600753,0.0012461760101696107,29.306027468999673
1609,A,41860647789328.0,2.0156555,12.188401337337442,4.879894996318043,46,1970-01-01 11:37:40.647789328,1.1190796,-3.692276,1.1610107,7.880176694426973,4.029042945517788,-85.11144256591797,-17.7325439453125,-34.946006774902344,29356381.0,50354.0,0.0674599612737,0.04848675471048958,0.18082968335739877,0.002660703731778737,-0.00010487557121301814,0.006071057940618601,29.35638147300051
1609,A,41860698143332.0,3.6480255,9.312500937337443,1.811825546318044,46,1970-01-01 11:37:40.698143332,3.2904053,1.2269745,0.42526245,10.19250367075407,3.537383441655477,-84.9427719116211,-17.787015914916992,-35.00383758544922,29406735.0,50354.0,0.14259449653700002,0.04785901656948956,0.16847744810194878,0.005288541084299995,0.0024256974835160346,0.008794505648751994,29.406735477001348
1609,A,41860748497336.0,6.38118,8.223404937337444,-0.9273255036819561,46,1970-01-01 11:37:40.748497336,2.2457428,3.541916,0.5965729,12.520679677661922,4.2360865075942735,-84.77482604980469,-17.741437911987305,-35.18624496459961,29457089.0,50354.0,0.25250530687350004,-0.05196769779331041,0.022269057573448783,0.00994742775046616,-0.00010344426717213764,0.004802424773389485,29.457089481002185
1609,A,41860798851340.0,7.0324097,9.056488937337443,-2.3015015036819566,46,1970-01-01 11:37:40.798851340,-1.3191528,5.8130493,-0.084991455,12.49129955855252,5.961453666799847,-84.74813842773438,-17.719133377075195,-35.49052429199219,29507443.0,50354.0,0.3377139478769,-0.05841331191731042,-0.08129217756440124,0.014859950176850822,-0.002779062681484301,-0.0014860250920122101,29.507443485003023
1609,A,41860849205344.0,7.850708,9.316528937337443,2.3839690963180438,46,1970-01-01 11:37:40.849205344,-1.5631256,0.31874084,0.8445587,12.38049592039067,1.8050586589374196,-84.82244110107422,-17.675630569458008,-35.503143310546875,29557797.0,50354.0,0.3747122543329,-0.030891728969310427,0.0020762865797987664,0.017936754493036135,-0.0022484330144024534,-0.0019944184873193368,29.55779748900386
1609,A,41860899559347.0,11.672653,12.992386937337443,-2.194842503681956,46,1970-01-01 11:37:40.899559347,-0.8357086,1.3847656,-0.5024414,13.449200060931329,1.693644588303957,-84.84151458740234,-17.694412231445312,-35.57789611816406,29608151.0,50354.0,0.49153965989700005,0.06820237497668957,0.00476164022279878,0.021809624444566196,0.0009393701345277847,0.00017215848310899842,29.608151492000616
1609,A,41860949913351.0,8.230011,9.409561937337443,0.6230437963180437,46,1970-01-01 11:37:40.949913351,-1.1435089,-0.38879395,-2.9004517,12.498116629706775,3.1418773693396598,-84.9007339477539,-17.840591430664062,-35.5711784362793,29658505.0,50354.0,0.501089371528,0.07054466681768957,-0.039573176055301224,0.02499142112418723,0.0034932342712570836,-0.0008764500376549141,29.658505496001453
1609,A,41861000267355.0,6.3775177,-0.2137900626625573,-1.5486328036819563,46,1970-01-01 11:37:41.000267355,-1.3524933,-1.625412,-3.5449219,20.23220068497467,4.127671689147346,-84.9895248413086,-18.02431297302246,-35.50251388549805,29708859.0,50354.0,0.3677737500799,-0.26194725151131043,-0.02330355443840123,0.0218753668127221,-0.004818942874831293,-0.001583047443639947,29.70885950000229
1609,A,41861050621359.0,-0.96173096,2.2230539373374434,0.029415896318043755,46,1970-01-01 11:37:41.050621359,-1.4398804,-1.928772,-1.9414215,16.64260393782599,3.0923347870097135,-85.09013366699219,-18.129358291625977,-35.41027069091797,29759213.0,50354.0,0.13635326275298001,-0.44288196342731045,-0.03824932407670123,0.01269240580209342,-0.017745485144509656,-0.0015497168223747347,29.759213504003128
1609,A,41861100975363.0,-1.0033722,11.660172537337443,2.4687621963180435,46,1970-01-01 11:37:41.100975363,-0.5873871,-1.9056244,-0.34695435,7.3416805343926566,2.0240566395498156,-85.1501235961914,-18.154747009277344,-35.31192398071289,29809567.0,50354.0,-0.049475402259320005,-0.14393120704711043,0.06289662983829877,0.002187323893648878,-0.014774195193034493,0.0006205452171597414,29.809567508003965
1609,A,41861151329367.0,-0.40237427,14.857117737337443,2.237621996318044,46,1970-01-01 11:37:41.151329367,0.51293945,-2.0572968,-0.60336304,4.1261536448533365,2.204455479408596,-85.15728759765625,-18.193500518798828,-35.20673370361328,29859921.0,50354.0,-0.03539247887519,0.17415661724548964,0.11849263481799878,-0.0021367186433235586,0.0007609851525645934,0.004566837516251604,29.859921511997527
1609,A,41861201683371.0,-0.8876343,15.138398237337444,2.9107177963180435,46,1970-01-01 11:37:41.201683371,0.743103,-2.2611542,-0.69773865,4.182483178036993,2.4802942584480703,-85.15624237060547,-18.237810134887695,-35.09123611450195,29910275.0,50354.0,-0.03247854576689,0.26172790569438964,0.12961975095919878,-0.0017087887874136483,0.01097426463405734,0.006246725536712503,29.910275515998364
1609,A,41861252037375.0,-1.6768646,15.158234637337443,3.4269683963180437,46,1970-01-01 11:37:41.252037375,0.61909485,-2.2180023,0.35409546,4.63755846063163,2.3298489716920336,-85.16217041015625,-18.229522705078125,-34.97331237792969,29960629.0,50354.0,-0.06456638880530001,0.2693091258856896,0.15956392527199878,-0.0024433003177240283,0.013369919344091655,0.007280777416472862,29.960629519999202
1609,A,41861302391379.0,0.7659302,10.944275937337444,2.922238096318044,46,1970-01-01 11:37:41.302391379,1.5519104,-2.1831055,1.6470642,8.103455203111933,3.1443911958724295,-85.12262725830078,-18.156713485717773,-34.85149383544922,30010983.0,50354.0,-0.0229345953888,0.16371370873858962,0.15985397186509878,-0.0022030122790548563,0.01090221590733548,0.008041984396220706,30.01098352400004
1609,A,41861352745383.0,9.359024,2.117127937337443,-8.154132003681957,46,1970-01-01 11:37:41.352745383,-2.0772247,5.9828644,-1.3444672,21.252753301267532,6.4743432821370615,-85.12672424316406,-18.198265075683594,-35.17121505737305,30061337.0,50354.0,0.2549159718934,-0.1646222346473104,-0.13172339290570126,0.005840595116256314,-2.287395680386324e-05,0.0007082435864607515,30.061337528000877
1609,A,41861403099387.0,1.4481506,10.542893937337444,-2.1611970036819566,46,1970-01-01 11:37:41.403099387,0.792572,-0.052337646,0.69692993,8.998551457507,1.0567028587557745,-85.08894348144531,-18.163772583007812,-35.165348052978516,30111691.0,50354.0,0.27209223490420004,-0.1747278292613104,-0.25970903841840126,0.013268485622543178,-0.008543816559027346,-0.00985509432344693,30.111691532001714
1609,A,41861453453390.0,2.9989166,2.378342937337443,3.688336196318044,46,1970-01-01 11:37:41.453453390,0.36386108,-0.22865295,1.2550659,16.895673449342567,1.326599966238986,-84.97183990478516,-17.90544319152832,-35.18000030517578,30162045.0,50354.0,0.1119638108944,-0.1681512192063104,0.03844878345299878,0.009669379065071353,-0.008632665803269289,-0.005570669439263938,30.16204553499847
1609,A,41861503807394.0,-0.2322998,10.300247937337444,1.3801391463180437,46,1970-01-01 11:37:41.503807394,0.9114685,2.6764374,0.12988281,8.510734659054473,2.830364203939929,-84.88341522216797,-17.887142181396484,-35.31947326660156,30212399.0,50354.0,0.0696551111736,-0.17426031754831042,0.1276090037015488,0.004572619600906037,-0.008620895260871089,0.004180836907190044,30.212399538999307
1609,A,41861554161398.0,-1.4165497,16.780701737337445,1.3164489563180437,46,1970-01-01 11:37:41.554161398,0.861557,0.22935486,0.86299133,2.4786256483860427,1.2408215632031014,-84.837890625,-17.843137741088867,-35.32740020751953,30262753.0,50354.0,-0.0415130838615,0.1883478699592896,0.06789199866006877,0.0007085318216367417,0.0003546823070512226,0.004922128736458445,30.262753543000144
