Subject-id_accel,Activity_accel,Timestamp_accel,accel_x,accel_y,accel_z,Segment_accel,DateTime,gyro_x,gyro_y,gyro_z,accel_magnitude,gyro_magnitude,Roll,Pitch,Yaw,Time_Difference,Difference_Microseconds,vx,vy,vz,dx,dy,dz,Time_diff
1645,A,1131722644605000.0,-2.155732267910448,1.3196558,0.58677983,228,1970-01-14 02:22:02.644605,0.25246766,-1.9206718,-2.5427864,3.6310481064467086,3.196636163013563,-96.59797668457031,-1.5522854328155518,-72.1193618774414,16119319.0,3223831.0,-16.90998514196431,-13.352353947929103,3.6520984596792156,-72.7871816099552,-34.639091636253774,6.03000653788826,16.119319000048563
1645,A,1131725868455000.0,1.518227932089552,-6.3707523,-0.98435307,228,1970-01-14 02:22:05.868455,-0.96619487,-0.026631612,-0.95660746,6.455442179085996,1.3599042621080673,-96.64649200439453,-1.5996450185775757,-72.1125259399414,19343169.0,3223850.0,-1.027609176518098,-39.7357187257625,-0.640858244887,-28.914056721819755,-85.57399154454035,4.853893383228942,19.34316899999976
1645,A,1131729092305000.0,-4.596257367910448,-1.2022998,0.36883304,228,1970-01-14 02:22:09.092305,1.7395768,1.6255935,0.8085357,5.907412103491844,2.5144406233822623,-96.5571517944336,-1.5688291788101196,-72.19795227050781,22567019.0,3223850.0,-4.961552598335599,-43.8009220062925,-0.9921721243577502,-9.654079593931046,-134.65479961201777,-2.632322477944844,22.56701900018379
1645,A,1131732316228000.0,-11.295126867910447,6.224656,-4.148174,228,1970-01-14 02:22:12.316228,-0.9853696,0.43356264,-0.46552056,14.542221755436856,1.1728764654432464,-96.60589599609375,-1.594436764717102,-72.21681213378906,25790942.0,3223923.0,-25.616299569850206,-23.4986005663137,-6.09215212289304,-49.29032044780705,-108.48423935542216,-11.419657940084754,25.790941999992356
1645,A,1131735540095000.0,-4.883659467910448,3.6691701,-2.0070264,228,1970-01-14 02:22:15.540095,0.4111921,0.017044231,-2.4905882,7.3625598609119045,2.5243611134090997,-96.58572387695312,-1.7182378768920898,-72.20335388183594,29014809.0,3223867.0,-26.07912768405195,-15.64570686623565,-9.9217737239734,-83.32959098737788,-63.09802048482529,-25.813383539079886,29.014809000073
1645,A,1131738763931000.0,0.8859427620895519,-6.835386,-3.0776002,228,1970-01-14 02:22:18.763931,-1.5254587,-0.9800433,-1.0663297,7.5018735843584405,2.1034657459494484,-96.66365814208984,-1.7655433416366577,-72.14849853515625,32238645.0,3223836.0,-6.443991517013407,-36.697273201096195,-8.196001139818799,-52.42460125634287,-84.3725917441734,-29.204367422894194,32.23864500015043
1645,A,1131741987790000.0,-3.1688252679104476,-2.5962012,0.5963599,228,1970-01-14 02:22:21.987790,1.8226675,0.7819041,1.0354371,5.096190176601204,2.2373244791959594,-96.57115936279297,-1.7186205387115479,-72.19332122802734,35462504.0,3223859.0,-3.6798456561666235,-46.7968718395024,-3.99958443615885,-16.3189117926455,-134.58667546821957,-19.658424159692863,35.462504000170156
1645,A,1131745211629000.0,-10.186232867910448,2.7327175,-0.7376661,228,1970-01-14 02:22:25.211629,0.92464954,0.24607609,1.3102753,11.709241079703864,1.6224523338705485,-96.52435302734375,-1.6549372673034668,-72.21302795410156,38686343.0,3223839.0,-21.52727863276335,-31.37356891396215,-0.22777421925089988,-40.63185518024986,-126.0044577741042,-6.814161850148756,38.686343000037596
1645,A,1131748435518000.0,-10.059296867910447,5.149292,-2.919529,228,1970-01-14 02:22:28.435518,-1.0130665,0.26844665,-0.69987875,12.699012326731319,1.260237121346628,-96.57472229003906,-1.6912347078323364,-72.22235870361328,41910232.0,3223889.0,-32.63467030724294,-18.888750337527252,-5.89519552687195,-87.30605570312396,-81.02006907468245,-9.869887405929124,41.91023200005293
1645,A,1131751659465000.0,-3.7412353679104484,3.2213013,-2.5171657,228,1970-01-14 02:22:31.659465,-0.531567,0.18429075,-1.474326,6.394493982657145,1.578025256547107,-96.6012954711914,-1.7655229568481445,-72.22307586669922,45134179.0,3223947.0,-22.246092250039034,-18.101506021122454,-8.763807783990451,-88.46633490213077,-59.627313008349816,-23.62992487352245,45.13417900004424
1645,A,1131754883338000.0,-1.8611446679104482,-2.1483326,-0.52690434,228,1970-01-14 02:22:34.883338,1.5701998,-1.603223,0.0958738,3.7570773790547136,2.246117357836736,-96.52521514892578,-1.7515981197357178,-72.14395141601562,48358052.0,3223873.0,-9.03068086661101,-29.864397989112454,-4.906847606032461,-50.416172188946966,-77.31799142959403,-22.03622840209967,48.358052000170574
1645,A,1131758107494000.0,-3.154455267910448,-8.52627,-1.6142433,228,1970-01-14 02:22:38.107494,-1.1568772,-0.20026971,-1.1685951,9.698126300821002,1.656528695908204,-96.58354949951172,-1.8084988594055176,-72.12731170654297,51582208.0,3224156.0,-8.085538313338278,-48.8050208102028,-3.4516970051959195,-27.59268038317429,-126.82123931916253,-13.474625879779824,51.5822080001235
1645,A,1131761331015000.0,-12.837519867910448,6.9216065,0.19160157,228,1970-01-14 02:22:41.331015,1.804558,0.8245147,2.3158848,15.630636696247173,3.049520695576787,-96.4916763305664,-1.6981532573699951,-72.18148040771484,54805729.0,3223521.0,-25.775233840898252,-34.176839045091754,-2.292957746065665,-54.57545505769834,-133.74688393129946,-9.259007614220748,54.80572900013067
1645,A,1131764554966000.0,-7.120607867910448,2.2441335,-2.4956105,228,1970-01-14 02:22:44.554966,1.3859091,1.4913702,1.1632688,8.94950261582377,2.3448077550119732,-96.42002868652344,-1.6487380266189575,-72.26216125488281,58029680.0,3223951.0,-32.17201293601376,-16.819771480630003,-3.7140059469412154,-93.40954209683612,-82.20528675050559,-9.683078302516613,58.02968000015244
1645,A,1131767778944000.0,-10.849653367910449,4.790039,-0.0071850587,228,1970-01-14 02:22:47.778944,-0.2545982,0.30786142,0.44528055,12.944288859432634,0.5982254303989082,-96.43223571777344,-1.6283398866653442,-72.27994537353516,61253658.0,3223978.0,-28.96786343926969,-20.2559757058975,-4.034478909873255,-98.55680817831679,-59.765696631463285,-12.4904723558515,61.25365800014697
1645,A,1131771002818000.0,-11.132265867910448,-0.1939966,-2.7111623,228,1970-01-14 02:22:51.002818,-2.4181504,0.330232,-2.0527647,12.604564545980509,3.18909821805636,-96.70254516601562,-1.669669270515442,-72.280517578125,64477532.0,3223874.0,-35.433468947231425,-24.185434401871202,-4.381804686340802,-103.81089052309943,-71.63675328488635,-13.5665189312305,64.47753200004809
1645,A,1131774226698000.0,-17.27549086791045,-4.471502,0.37122804,228,1970-01-14 02:22:54.226698,-2.380866,-0.096939065,-2.2253375,18.988945884620538,3.260375297597705,-96.8221206665039,-1.7795929908752441,-72.26258850097656,67701412.0,3223880.0,-45.79159939273914,-39.114527813284,-3.7718336310643994,-130.92993665993214,-102.03574109309727,-13.14317574935814,67.70141199999489
1645,A,1131777450532000.0,-16.382147867910447,-2.0501368,-3.1614258,228,1970-01-14 02:22:57.450532,-1.7406421,-0.38456047,-1.4871092,17.95764753546978,2.3214683818875654,-96.99404907226562,-1.6435295343399048,-72.23226165771484,70925246.0,3223834.0,-54.25332005812821,-42.105913649579605,-4.49756720270592,-161.26410642648375,-130.92061034149472,-13.329587783768552,70.92524600005709
1645,A,1131780674486000.0,1.422427152089552,2.555486,9.965676,228,1970-01-14 02:23:00.674486,-0.29827404,-0.34301516,-0.6199839,10.291067064158531,0.7687696919019097,-97.00955963134766,-1.6722095012664795,-72.21144104003906,74149200.0,3223954.0,-24.11472572032682,-30.780137912631606,10.968294824645401,-126.3274873298166,-117.49063873909853,10.430664099831139,74.1492000001017
1645,A,1131787122484000.0,8.035076532089551,7.7622585,8.064031,228,1970-01-14 02:23:07.122484,-0.28975195,-0.25566345,0.27057716,13.127518761675727,0.4717329665270073,-97.02436828613281,-1.6572177410125732,-72.20040130615234,80597198.0,6447998.0,30.490982420289747,-29.925982449744506,58.12775733829301,20.557045224423774,-195.71647134218023,222.76560307726126,80.59719800017774
1645,A,1131787162761000.0,8.082976732089552,5.6354814,6.9886675,228,1970-01-14 02:23:07.162761,-0.010652645,0.38775626,-0.48363006,11.327402238981442,0.6199729275946549,-97.0244140625,-1.6835918426513672,-72.21668243408203,80637475.0,40277.0,0.32459341566067085,-0.12490421502385005,0.30313876874225,0.6205794739722875,-0.6051797810984375,1.1767106012515296,80.6374749999959
1645,A,1131787203056000.0,7.867424832089552,3.9972878,5.688172,228,1970-01-14 02:23:07.203056,0.22796659,0.44315,-0.77231675,9.649469134715492,0.91914299811661,-97.01251983642578,-1.7246252298355103,-72.23397064208984,80677770.0,40295.0,0.32136071551429846,-0.200814782543,0.25540662382624996,0.013014360857847691,-0.006562423503478111,0.011253293296773853,80.67777000018395
1645,A,1131787243355000.0,7.522542132089552,3.551814,6.071375,228,1970-01-14 02:23:07.243355,-0.099069595,0.38456047,-0.44421527,9.474115932815314,0.5958428868764465,-97.01697540283203,-1.7490185499191284,-72.25035095214844,80718069.0,40299.0,0.31010013934472686,-0.24281957328090004,0.2369489922765,0.01272362049498193,-0.008939010452673674,0.00992071948666236,80.71806900016963
1645,A,1131787283652000.0,7.398001132089552,2.2800586,6.6030693,228,1970-01-14 02:23:07.283652,-0.3834952,0.3057309,-0.21624869,9.354983877706974,0.5360069473099822,-97.03572845458984,-1.7616209983825684,-72.26419830322266,80758366.0,40297.0,0.30062656595831266,-0.2774071149189,0.25537104097854996,0.01230522702179829,-0.010481787427193672,0.009919510190039373,80.75836600014009
1645,A,1131787323937000.0,6.495079132089552,2.2896388,5.1708474,228,1970-01-14 02:23:07.323937,-0.2759035,0.36112466,-0.070307456,7.763728232329698,0.45986617590507517,-97.04898834228516,-1.7673269510269165,-72.28169250488281,80798651.0,40285.0,0.2798413692212276,-0.30274787012050003,0.23715611712975002,0.01169207538435389,-0.011685771786156117,0.009920728282196431,80.79865100001916
1645,A,1131787364230000.0,6.6004594320895515,2.9338992,4.4451566,228,1970-01-14 02:23:07.364230,-0.14807177,0.30466563,-0.0127831735,7.602286576950166,0.3389834873544151,-97.05592346191406,-1.7698314189910889,-72.29674530029297,80838944.0,40293.0,0.26382926768323434,-0.289635391683,0.19372882458600002,0.010953060486395744,-0.011934449383924215,0.008680823478276358,80.83894400019199
1645,A,1131787404511000.0,7.687798432089552,2.2489235,5.999524,228,1970-01-14 02:23:07.404511,-0.112918034,0.31638354,-0.22583607,9.135581450462096,0.4047850754393023,-97.06112670898438,-1.782982349395752,-72.3110580444336,80879225.0,40281.0,0.28777265751349923,-0.29036915941065,0.21036108962429997,0.011109538574424812,-0.011681581661301657,0.008138572917152547,80.8792250000406
1645,A,1131787444765000.0,8.339243732089553,2.0357666,6.2869267,228,1970-01-14 02:23:07.444765,0.2609898,0.5049353,-0.314253,9.746054422588733,0.6494846271461165,-97.04735565185547,-1.8016772270202637,-72.33419799804688,80919479.0,40254.0,0.32257627763843283,-0.3082512423573,0.24728939323889998,0.012284493017802935,-0.012048432826383529,0.009211131268587625,80.9194790001493
1645,A,1131787485056000.0,8.971529132089552,2.3566992,8.090376,228,1970-01-14 02:23:07.485056,0.3323625,0.44101948,-0.13209279,11.479657707143433,0.5678129254567076,-97.03007507324219,-1.810935139656067,-72.35528564453125,80959770.0,40291.0,0.3487341747353202,-0.30636338022610005,0.28963795154285,0.01352388471829544,-0.012381718879253887,0.010816669824300745,80.95977000007406
1645,A,1131787525336000.0,9.349942132089552,2.0860622,6.622229,228,1970-01-14 02:23:07.525336,0.35260254,0.18216023,-0.008522116,10.724884650545844,0.3969679169268242,-97.01215362548828,-1.8124725818634033,-72.36427307128906,81000050.0,40280.0,0.36899443126056714,-0.30526678540400004,0.29631186470000004,0.014455054124757174,-0.012318231535790217,0.011801029299131,81.0000500001479
1645,A,1131787565603000.0,9.54393813208955,2.184258,7.5970025,228,1970-01-14 02:23:07.565603,0.43675843,0.47723848,0.066046394,11.51139295492836,0.6502896424895437,-96.98956298828125,-1.8121018409729004,-72.38837432861328,81040317.0,40267.0,0.38039993829884994,-0.3086401082533,0.28628289740525,0.015087931539524523,-0.012360094443449248,0.011729671642846051,81.04031700012274
1645,A,1131787605883000.0,9.58944413208955,2.4932153,8.966953,228,1970-01-14 02:23:07.605883,-0.05006743,0.37390783,0.27377295,12.546425133717536,0.4661174112107553,-96.9914321899414,-1.8007923364639282,-72.40861511230469,81080597.0,40280.0,0.38534631880056713,-0.30053968773800005,0.33359806377,0.015422129617982262,-0.012268881091264786,0.012484402558069537,81.08059700019658
1645,A,1131787646185000.0,8.789507732089552,3.0009596,10.095008,228,1970-01-14 02:23:07.646185,-0.37603834,0.068176925,0.51026165,12.995553166668431,0.6375106883128578,-97.01002502441406,-1.775882363319397,-72.41510009765625,81120899.0,40302.0,0.370354259015073,-0.2842464815901,0.384117576111,0.015228122343562963,-0.011784026098130543,0.014462687859242032,81.12089899997227
1645,A,1131787686471000.0,7.683008532089552,2.5770411,8.406519,228,1970-01-14 02:23:07.686471,-0.0031957934,0.18855181,0.39840892,10.938703970676269,0.44078528297267133,-97.00981903076172,-1.7572612762451172,-72.42689514160156,81161185.0,40286.0,0.33180589510935976,-0.28244513189990006,0.372676258361,0.01414361198452845,-0.011414869170529073,0.015244098207769497,81.16118500009179
1645,A,1131787726731000.0,7.089043532089552,1.4944923,8.677156,228,1970-01-14 02:23:07.726731,-0.023435818,-0.008522116,0.30360037,10.606304756301643,0.3046227973914354,-97.01094818115234,-1.7421424388885498,-72.42832946777344,81201445.0,40260.0,0.29736140805192535,-0.312588032658,0.34389437775,0.012665137812636668,-0.011978017602550529,0.01442456690491443,81.20144500001334
1645,A,1131787767000000.0,6.923787532089552,1.4705421,7.913145,228,1970-01-14 02:23:07.767000,-0.10972224,-0.04261058,0.30679616,9.890419949200549,0.3286008449004652,-97.01644134521484,-1.726656436920166,-72.42808532714844,81241714.0,40269.0,0.2821413470617141,-0.33493671487320004,0.3340374154845,0.011667998222835574,-0.013037587029166946,0.013649817690880039,81.24171400000341
1645,A,1131787807292000.0,6.794456332089552,1.9974464,5.980364,228,1970-01-14 02:23:07.807292,-0.11504856,-0.1555286,0.37284255,8.44538438613136,0.4200439068318169,-97.0223617553711,-1.7072038650512695,-72.42265319824219,81282006.0,40292.0,0.27636774088775223,-0.32499550367900004,0.27989863231400003,0.011251724085829948,-0.013294994474952623,0.012368355618948583,81.28200600016862
1645,A,1131787847568000.0,6.8710971320895515,1.8824854,5.278623,228,1970-01-14 02:23:07.847568,-0.24074976,-0.24820662,0.23329292,7.990288068323391,0.41712415378878315,-97.03472137451172,-1.694108009338379,-72.41175842285156,81322282.0,40276.0,0.2751969156616388,-0.31657073341159997,0.22673348020599998,0.011107409053591637,-0.012919860882530504,0.010202557481927759,81.32228199997917
1645,A,1131787887832000.0,6.602854632089552,1.7579445,4.493057,228,1970-01-14 02:23:07.887832,-0.26312032,-0.2908172,0.11824436,7.261645947472205,0.40962015976334953,-97.04827117919922,-1.6864618062973022,-72.39802551269531,81362546.0,40264.0,0.27125759691645374,-0.32129806525320004,0.19672346176,0.01100122224722216,-0.012841574654719754,0.008525035155659512,81.362546000164
1645,A,1131787928132000.0,7.007613132089552,0.98914313,4.3493557,228,1970-01-14 02:23:07.928132,-0.2695119,-0.35473305,0.013848438,7.342073400945927,0.4457173770888368,-97.06227111816406,-1.6835969686508179,-72.38050842285156,81402846.0,40300.0,0.27425092544820895,-0.33958618425549997,0.17817461590500003,0.010991996725647955,-0.013316817627600305,0.007554196264949751,81.4028460001573
1645,A,1131787968421000.0,7.084253632089552,1.7028589,4.799619,228,1970-01-14 02:23:07.968421,-0.3387541,-0.38136467,0.05752428,7.800423242244773,0.5133248431359398,-97.07975769042969,-1.6783918142318726,-72.3619384765625,81443135.0,40289.0,0.2838736100310059,-0.340603165106665,0.18430152084415,0.011243139704961042,-0.01370207434822613,0.007301900536743252,81.44313500006683
1645,A,1131788008728000.0,7.716538832089552,2.5698562,7.086863,228,1970-01-14 02:23:08.008728,-0.48682585,-0.32810146,0.12037488,9.980472719434141,0.599282978247646,-97.10453796386719,-1.6703953742980957,-72.34639739990234,81483442.0,40307.0,0.29828777092683356,-0.30889843623215,0.23955421498700002,0.011732589391133818,-0.01308973052258181,0.008542176572073082,81.48344200011343
1645,A,1131788049039000.0,8.447020132089552,2.43813,8.722662,228,1970-01-14 02:23:08.049039,-0.5613944,-0.44315,-0.007456851,11.614681360310493,0.7152630281778838,-97.13324737548828,-1.66801917552948,-72.3243408203125,81523753.0,40311.0,0.3257846127025119,-0.2941093341459,0.3186488811375,0.012578490928241273,-0.012153923115854788,0.011250862503937361,81.52375300019048
1645,A,1131788089359000.0,8.384749132089553,2.3902297,7.582632,228,1970-01-14 02:23:08.089359,-0.3717773,-0.53263223,-0.094808534,10.732162728372465,0.6564328688824868,-97.15264129638672,-1.6694096326828003,-72.29733276367188,81564073.0,40320.0,0.3393284683658508,-0.29779626844800006,0.32871472704,0.013408679714338194,-0.011932816948293025,0.013050850340858402,81.56407300010324
1645,A,1131788129656000.0,8.463785132089551,3.06323,10.44468,228,1970-01-14 02:23:08.129656,-0.53263223,-0.35260254,-0.007456851,13.0992487669074,0.6388123732959943,-97.17977905273438,-1.6675817966461182,-72.27976989746094,81604370.0,40297.0,0.3394726926218127,-0.28503156723455003,0.363223295832,0.013676825192159936,-0.01174310664724986,0.013941513253836493,81.60437000007369
1645,A,1131788169948000.0,6.691470532089552,5.108577,9.244776,228,1970-01-14 02:23:08.169948,-0.8341021,-0.72011876,0.35153726,11.915818230427533,1.1566658060549102,-97.22245788574219,-1.6456323862075806,-72.2462387084961,81644662.0,40292.0,0.3053177806105522,-0.23023237617800002,0.396663780576,0.012989948873739223,-0.010380507403989235,0.01530868504131557,81.64466200000606
1645,A,1131788210278000.0,6.842356532089552,5.1636624,11.05541,228,1970-01-14 02:23:08.210278,-0.9938917,-0.7275756,0.24927188,13.453476913943947,1.2567113571552477,-97.27314758300781,-1.6286780834197998,-72.21170806884766,81684992.0,40330.0,0.27290962274917163,-0.188094292499,0.40935325069,0.011659955588748832,-0.008435557273871705,0.016253333435478887,81.68499199999496
1645,A,1131788250569000.0,6.902232132089552,4.126619,9.5633135,228,1970-01-14 02:23:08.250569,-0.94808537,-0.47830373,-0.12996227,11.886070002170912,1.0698273311911146,-97.32125091552734,-1.6320860385894775,-72.18714141845703,81725283.0,40291.0,0.27689161093422016,-0.20769443605630003,0.41537449426925005,0.011076020753168768,-0.007973361831110796,0.016614552786076573,81.72528300015256
1645,A,1131788290882000.0,6.222046132089552,4.505032,8.052056,228,1970-01-14 02:23:08.290882,-0.6221144,-0.3355583,-0.10759171,10.516469150517963,0.7149836889377086,-97.35283660888672,-1.6352769136428833,-72.1697998046875,81765596.0,40313.0,0.2645395148319261,-0.22108352661850003,0.35506419532675,0.010913356486505328,-0.008642663004654608,0.015529347446841776,81.76559600001201
1645,A,1131788331192000.0,5.654427132089552,4.9720607,9.010064,228,1970-01-14 02:23:08.331192,-0.588026,-0.17896444,0.09267801,11.223247218721928,0.6216044248540012,-97.38248443603516,-1.6295355558395386,-72.1615219116211,81805906.0,40310.0,0.23937031863952984,-0.2040271966315,0.3438870286,0.010156302693617196,-0.00856810662710375,0.014087361918243644,81.80590600008145
1645,A,1131788371493000.0,4.950291132089552,4.8355446,8.145462,228,1970-01-14 02:23:08.371493,-0.3387541,0.09161274,0.053263225,10.196973964055914,0.3549425383558841,-97.39928436279297,-1.6274840831756592,-72.16641235351562,81846207.0,40301.0,0.213690375382341,-0.19732164940235,0.345692426663,0.009129399514887709,-0.008087379922005094,0.013895370813277078,81.84620700008236
1645,A,1131788411803000.0,4.988611332089552,3.3650026,6.574329,228,1970-01-14 02:23:08.411803,0.018109497,0.18216023,-0.2130529,8.311620244334867,0.2808947159945447,-97.39815521240234,-1.6392229795455933,-72.174072265625,81886517.0,40310.0,0.20031857916552984,-0.229755971184,0.296677387605,0.008344350478912337,-0.008607749442917884,0.01294696360657154,81.8865170001518
1645,A,1131788452085000.0,4.911970732089552,3.0991554,4.6918435,228,1970-01-14 02:23:08.452085,0.0,-0.16405073,-0.15659387,6.751116849693669,0.22679127438045274,-97.3984146118164,-1.6459295749664307,-72.16490936279297,81926799.0,40282.0,0.19940762335463133,-0.264568993722,0.22691198032249998,0.008050885444958565,-0.009956199118171746,0.010545613459427778,81.92679900000803
1645,A,1131788492386000.0,5.204163132089552,3.6931202,5.122947,228,1970-01-14 02:23:08.492386,-0.06711166,-0.1768339,-0.101200126,7.490788652964789,0.2145126303963976,-97.40205383300781,-1.6498090028762817,-72.15550231933594,81967100.0,40301.0,0.20384515543014103,-0.2580820505222,0.19777293597025,0.008125745118902555,-0.010531679867042752,0.008557613405757057,81.96710000000894
1645,A,1131788532662000.0,5.946619432089552,3.3123121,6.928792,228,1970-01-14 02:23:08.532662,-0.10439592,0.043675844,-0.221575,9.041065165246787,0.2488002574089479,-97.40725708007812,-1.6610767841339111,-72.15624237060547,82007376.0,40276.0,0.22455445927743878,-0.2536294043426,0.242697919982,0.008627111440981243,-0.010304845278067343,0.008870202097166411,82.00737600005232
1645,A,1131788572900000.0,6.085530132089552,3.7985013,8.519085,228,1970-01-14 02:23:08.572900,-0.049002163,0.0958738,-0.14274544,10.540847176931592,0.17879949145876273,-97.40959167480469,-1.668772578239441,-72.16008758544922,82047614.0,40238.0,0.2420748170817194,-0.2512699452054001,0.31079583736300004,0.009388114411069905,-0.010158070013556215,0.011135740904024057,82.04761400003918
1645,A,1131788613197000.0,6.269947132089552,3.173401,7.8676395,228,1970-01-14 02:23:08.613197,0.13102753,0.23222765,-0.03834952,9.8955126278334,0.26938556146656006,-97.4027099609375,-1.672171950340271,-72.17135620117188,82087911.0,40297.0,0.24894433365731267,-0.25443722650845,0.33016791858825,0.009893299358665387,-0.01018924094927651,0.01291445823678376,82.08791100000963
1645,A,1131788653478000.0,6.372932832089552,3.6979103,9.812395,228,1970-01-14 02:23:08.653478,-0.035153728,0.52411014,0.25672874,11.70335200631872,0.5846681703198022,-97.4036636352539,-1.6628174781799316,-72.19900512695312,82128192.0,40281.0,0.2546339239185493,-0.25636215476235,0.35608473484725,0.010142317896706646,-0.010287754938484548,0.013821471566517687,82.12819200009108
1645,A,1131788693752000.0,5.223323132089552,5.221143,10.41594,228,1970-01-14 02:23:08.693752,-0.54648066,0.36005938,0.79255676,12.334304538640922,1.0278278487673496,-97.4303207397461,-1.6258423328399658,-72.22197723388672,82168466.0,40274.0,0.2335138063506746,-0.2150822236979,0.407337981895,0.009829830844431361,-0.009493475449054054,0.015373043247038688,82.16846600011922
1645,A,1131788734129000.0,4.533557532089552,5.848638,11.352393,228,1970-01-14 02:23:08.734129,-0.72970617,0.35473305,0.8671253,13.204481473092223,1.1875238596333388,-97.4661636352539,-1.585150957107544,-72.24519348144531,82208843.0,40377.0,0.19697678528877985,-0.17221232628150007,0.4394699907705,0.008690959309313127,-0.007818896022259119,0.01709578275615745,82.20884300000034
1645,A,1131788774428000.0,3.846187032089552,5.4103494,9.275911,228,1970-01-14 02:23:08.774428,-0.54648066,0.28549087,0.5539375,11.065518160290596,0.8288503498905231,-97.49300384521484,-1.5595468282699585,-72.26295471191406,82249142.0,40299.0,0.16884766309592686,-0.16806723338370003,0.415650011448,0.007371179722727649,-0.006856462987473949,0.017230240484701665,82.24914199998602
1645,A,1131788814735000.0,4.1790946320895515,4.033213,8.657996,228,1970-01-14 02:23:08.814735,-0.45380265,-0.15659387,0.28868666,10.012384336013838,0.5601771799444841,-97.5158462524414,-1.5442177057266235,-72.25707244873047,82289449.0,40307.0,0.16173751401903358,-0.2046877651716,0.3614309947245001,0.006662448366986356,-0.00751231786338424,0.015660902057897483,82.28944900003262
1645,A,1131788855061000.0,5.319124132089552,2.1219873,8.669971,228,1970-01-14 02:23:08.855061,-0.1736381,0.23648871,-0.111852765,9.840673666658107,0.31398748504871865,-97.52424621582031,-1.5513083934783936,-72.26806640625,82329775.0,40326.0,0.19151258494214327,-0.2710874963511,0.34938379862100005,0.007122581745354209,-0.009593056598082201,0.014332158678225319,82.32977499999106
1645,A,1131788895415000.0,5.187397832089552,2.7422974,7.776629,228,1970-01-14 02:23:08.895415,-0.0031957934,0.15339808,0.13102753,9.170035503511262,0.20176569991215748,-97.524169921875,-1.5458165407180786,-72.27653503417969,82370129.0,40354.0,0.21199009367124177,-0.2973225276081001,0.3318430482,0.00814147354638227,-0.01146880905342478,0.013745114088307319,82.3701290001627
1645,A,1131788935742000.0,5.223323132089552,3.4560134,8.655601,228,1970-01-14 02:23:08.935742,-0.0010652645,0.080960095,0.46658584,10.161022853732275,0.4735588853135052,-97.52404022216797,-1.523219347000122,-72.28361511230469,82410456.0,40327.0,0.20991657216122536,-0.27022496018420006,0.33133126960500003,0.008507115056512951,-0.011443743770100044,0.013371915357061118,82.41045600012876
1645,A,1131788976076000.0,5.292778832089552,2.6512868,7.8987746,228,1970-01-14 02:23:08.976076,0.25246766,0.1917476,0.3930826,9.293544508676822,0.5049960315432148,-97.51107788085938,-1.5049883127212524,-72.2956771850586,82450790.0,40334.0,0.2120782283116,-0.2721072768666001,0.3338520927252,0.008510369141135468,-0.010937214224603488,0.013414752868113144,82.45079000014812
1645,A,1131789016386000.0,5.424505132089552,2.5243506,7.084468,228,1970-01-14 02:23:09.016386,0.4016047,-0.066046394,0.38136467,8.637941700426634,0.5577521606831318,-97.49102020263672,-1.4856523275375366,-72.2948989868164,82491100.0,40310.0,0.21600685829802982,-0.29072302820300006,0.301987254603,0.008628054920617089,-0.011343844798677791,0.012815342045399872,82.49109999998473
1645,A,1131789056649000.0,5.671192132089552,2.7303224,7.810159,228,1970-01-14 02:23:09.056649,0.41225734,-0.128897,0.30040458,9.416067793804734,0.5261306517186126,-97.47052001953125,-1.4699188470840454,-72.29046630859375,82531363.0,40263.0,0.22337302947382165,-0.2887929505005,0.2998511834505,0.008845376210679027,-0.01166652592526951,0.012115910515674035,82.53136300016195
1645,A,1131789096854000.0,6.030445132089552,3.5087037,8.851993,228,1970-01-14 02:23:09.096854,0.4612595,-0.3089267,0.32384038,10.688168335288685,0.642704149692286,-97.44780731201172,-1.4518591165542603,-72.27725219726562,82571568.0,40205.0,0.23523216310316045,-0.26858897782475,0.33495091058,0.009219110883778782,-0.011204770214158338,0.012761109095248123,82.57156800013036
1645,A,1131789137086000.0,5.778967732089552,4.670288,8.993299,228,1970-01-14 02:23:09.137086,0.47830373,-0.6593987,0.45593318,11.130171662815753,0.9335181671068407,-97.42463684082031,-1.424989104270935,-72.24749755859375,82611800.0,40232.0,0.23755814917582685,-0.22974500296279998,0.35897589387199996,0.009510649921804106,-0.010024486357522355,0.01395903159835643,82.61180000007153
1645,A,1131789177280000.0,5.802917832089552,5.360054,8.3322735,228,1970-01-14 02:23:09.177280,0.7488809,-0.6178534,0.29933932,10.934703198034025,1.015957407952928,-97.38790893554688,-1.4061663150787354,-72.2187728881836,82651994.0,40194.0,0.23276115418330745,-0.192321416826,0.3481920305325,0.009452007039608521,-0.008482268838495514,0.014211953776757236,82.651994000189
1645,A,1131789217510000.0,5.539465832089552,6.3899126,9.994417,228,1970-01-14 02:23:09.217510,0.9438243,-0.2034655,0.24820662,12.63967785152645,0.9968997167080369,-97.34091186523438,-1.392554759979248,-72.21027374267578,82692224.0,40230.0,0.22815204740496267,-0.15790342184100004,0.36864137940749997,0.009271269049948053,-0.007044772629786707,0.0144191040409431,82.69222400011495
1645,A,1131789257740000.0,6.787271132089552,5.6761966,10.38241,228,1970-01-14 02:23:09.257740,0.41225734,-0.5091964,0.3153183,13.095912546054688,0.7270919601204002,-97.32086181640625,-1.373668909072876,-72.18701171875,82732454.0,40230.0,0.24795231403446272,-0.15154421344200003,0.409879875105,0.009576839230354042,-0.006224539183717547,0.01565995503451894,82.73245400004089
1645,A,1131789297970000.0,6.210071432089552,5.508545,5.5420756,228,1970-01-14 02:23:09.297970,0.58696073,-0.7957525,0.2428803,9.295330096951913,1.0182022293957487,-97.29241943359375,-1.3565596342086792,-72.14909362792969,82772684.0,40230.0,0.2614415456784627,-0.16927292271600006,0.320321027844,0.010246457488125495,-0.006453236693818172,0.014687991162819136,82.77268399996683
1645,A,1131789338235000.0,5.1921881320895515,6.452183,0.52690434,228,1970-01-14 02:23:09.338235,0.97471696,0.5699165,-0.25672874,7.618408507405193,1.1579238381801626,-97.24304962158203,-1.3729002475738525,-72.17573547363281,82812949.0,40265.0,0.22955599067583582,-0.15379764354000006,0.12218373864205001,0.009885007900652915,-0.006504218175148922,0.008908727211280403,82.81294900015928
1645,A,1131789378442000.0,5.889138632089552,0.5628296,15.768809,228,1970-01-14 02:23:09.378442,0.24714136,3.943609,-1.1749867,16.46779401914292,4.122344544295217,-97.22604370117188,-1.45601487159729,-72.36400604248047,82853156.0,40207.0,0.2227734526036746,-0.25300229419590003,0.32760087313069,0.009093404962969637,-0.008178102548273667,0.009042244942773277,82.85315600014292
1645,A,1131789418685000.0,4.849700332089552,3.4751735,5.47741,228,1970-01-14 02:23:09.418685,-0.644485,2.4948494,-0.51026165,7.454987237707807,2.6267853729161206,-97.25515747070312,-1.4970455169677734,-72.48458099365234,82893399.0,40243.0,0.21608154821772985,-0.31313072062335,0.4275057956085,0.008830420899027889,-0.01139144545768554,0.015193878835035611,82.89339900016785
1645,A,1131789458931000.0,3.151631332089552,3.3697927,13.594131,228,1970-01-14 02:23:09.458931,-0.7222493,0.96086854,0.0031957934,14.144258429496109,1.2020493399223167,-97.29002380371094,-1.5029692649841309,-72.53227233886719,82933645.0,40246.0,0.1610107970782761,-0.25666954515740004,0.38377661954299996,0.007588229264391527,-0.011466090748306032,0.016325436040093632,82.93364499998279
1645,A,1131789499189000.0,4.892810732089552,3.03928,8.389753,228,1970-01-14 02:23:09.499189,-0.45593318,-0.0777643,-1.2175972,9.666529478814688,1.302484277228421,-97.3131332397461,-1.5628623962402344,-72.52067565917969,82973903.0,40258.0,0.1619265743098612,-0.26552017562170005,0.44251360103600007,0.006500406348671816,-0.010511156889562506,0.016632395850034693,82.97390300012194
1645,A,1131789539479000.0,6.432808132089552,3.7170706,6.586304,228,1970-01-14 02:23:09.539479,0.09054748,-0.98856544,-1.6064188,9.210471116203793,1.8883966310842073,-97.31025695800781,-1.636238694190979,-72.46139526367188,83014193.0,40290.0,0.22815459201888807,-0.258735317163,0.301692668265,0.007858185095692654,-0.010561126902147782,0.014992035295068647,83.01419300003909
1645,A,1131789579789000.0,5.307148832089552,-0.11256592,3.9422023,228,1970-01-14 02:23:09.579789,-0.15659387,-1.3763217,-2.2945797,5.7115819093230575,2.680275930135656,-97.32054138183594,-1.7412694692611694,-72.37850189208984,83054503.0,40310.0,0.23661883261302982,-0.32238920817460004,0.21220204447649998,0.009367508373456304,-0.011712564808179329,0.010357547935304932,83.05450300010853
1645,A,1131789620046000.0,9.26611613208955,-4.87147,5.975574,228,1970-01-14 02:23:09.620046,-0.43569317,-0.9576728,-1.6021577,11.17554868504236,1.9167355127700272,-97.34410858154297,-1.814608097076416,-72.32074737548828,83094760.0,40257.0,0.2933379638314791,-0.49483976701572,0.19962996025455002,0.010667235377233297,-0.01644959342711836,0.008289560507228939,83.09476000000723
1645,A,1131789660342000.0,9.337967132089553,5.7767873,9.517808,228,1970-01-14 02:23:09.660342,-0.20453078,-0.19068234,0.6178534,13.805139993271863,0.6781853866361646,-97.3545150756836,-1.7827517986297607,-72.31525421142578,83135056.0,40296.0,0.37483506960668056,-0.3766604670396,0.312160660536,0.01346235027771204,-0.017558986715746586,0.010311557427688002,83.13505599997006
1645,A,1131789700638000.0,9.060144832089552,4.9552956,6.241421,228,1970-01-14 02:23:09.700638,1.0290455,0.33981937,0.4527374,11.2104472727899,1.174471369875063,-97.30243682861328,-1.7624648809432983,-72.33499145507812,83175352.0,40296.0,0.3706851598542806,-0.17867079373080003,0.317516945892,0.015020741583179443,-0.011188814242002017,0.012686744414311345,83.17535200016573
1645,A,1131789740926000.0,11.074356132089552,1.84177,10.775193,228,1970-01-14 02:23:09.740926,0.48363006,0.14061491,-0.8021441,14.747186159929122,0.9471566633956189,-97.2781982421875,-1.803139567375183,-72.33686828613281,83215640.0,40288.0,0.40558938742242384,-0.2579023105536,0.34278267241599997,0.015637274480341933,-0.008794328612704953,0.013301075511196352,83.21564000006765
1645,A,1131789781212000.0,10.669597132089553,2.4141798,13.165423,228,1970-01-14 02:23:09.781212,0.09054748,-0.45167214,-0.58269966,16.41005629521441,0.7427957067395082,-97.27450561523438,-1.8291809558868408,-72.3107681274414,83255926.0,40286.0,0.43798845060035974,-0.30907520317860004,0.482235828088,0.01699218839129293,-0.011420628059107707,0.016618347655652073,83.25592600018717
1645,A,1131789821502000.0,11.021665132089552,2.184258,8.873548,228,1970-01-14 02:23:09.821502,0.7030745,-0.69774824,-0.89801794,13.433282406935877,1.3370125577327954,-97.24066162109375,-1.8693171739578247,-72.27047729492188,83296216.0,40290.0,0.43697047831188807,-0.302206470519,0.443975070795,0.017626047622937232,-0.012314269316638154,0.018658518557998036,83.29621600010432
1645,A,1131789861793000.0,8.085371832089553,2.6273365,14.947317,228,1970-01-14 02:23:09.861793,0.6487461,-1.5009576,-1.5733956,16.67537684168985,2.2692110817115116,-97.21102905273438,-1.9379215240478516,-72.18608856201172,83336507.0,40291.0,0.38492081316187016,-0.29791982300025005,0.4798832358575,0.016557411012384594,-0.012089844246092052,0.018611587516667936,83.33650700002909
1645,A,1131789902090000.0,5.805313132089552,1.2430152,3.3841627,228,1970-01-14 02:23:09.902090,1.7417074,-2.4426515,-2.0612867,5.867758526884974,3.6399167404301846,-97.12857818603516,-2.0249338150024414,-72.05195617675781,83376804.0,40297.0,0.2798764660007627,-0.31692881877255,0.36935181873545,0.013394667979208309,-0.012388277858759263,0.01711081249746605,83.37680399999954
1645,A,1131789942371000.0,4.531162632089552,4.239185,4.631968,228,1970-01-14 02:23:09.942371,1.8546255,-2.8730183,-2.146508,7.119317184306038,4.037495076337448,-97.0414810180664,-2.113722801208496,-71.89606475830078,83417085.0,40281.0,0.20818179012844923,-0.2843395468719,0.16144888036334998,0.009829737307570393,-0.012109845518262044,0.010690591480199378,83.41708500008099
1645,A,1131789982632000.0,6.138220632089552,4.2918754,5.4319043,228,1970-01-14 02:23:09.982632,1.0439591,-2.8208203,-1.433846,8.517745681009965,3.332085250872327,-96.99484252929688,-2.1676504611968994,-71.74722290039062,83457346.0,40261.0,0.21478001979955744,-0.22282328861779999,0.20259078133515,0.008514432714755738,-0.010209441459825405,0.0073283004098216534,83.45734600001015
1645,A,1131790022974000.0,10.686363132089554,4.6583133,0.8047266,228,1970-01-14 02:23:10.022974,1.1121361,-2.59818,-0.5400891,10.620707017418072,2.877339440049092,-96.94424438476562,-2.1786892414093018,-71.61489868164062,83497688.0,40342.0,0.33936867910725677,-0.21481734373230005,0.12579908188390002,0.01117773340564935,-0.008827649195133869,0.006623951930991458,83.49768800009042
1645,A,1131790063318000.0,8.561980632089552,9.70941,-3.8200562,228,1970-01-14 02:23:10.063318,1.3944311,-2.5523736,-0.13848437,12.783662254733528,2.911739515711951,-96.87937927246094,-2.170203447341919,-71.48728942871094,83538032.0,40344.0,0.3882775904110209,-0.10554548559240003,-0.060825228691199995,0.014678080548722697,-0.006462358993137849,0.0013106525666031447,83.53803200018592
1645,A,1131790103610000.0,7.747673832089552,9.283096,-1.9160157,228,1970-01-14 02:23:10.103610,-0.19920446,-3.045591,-0.76272935,11.534179644216497,3.1459597927367593,-96.89525604248047,-2.189803123474121,-71.3314208984375,83578324.0,40292.0,0.3285742988353522,-0.012238574124000017,-0.1155589044974,0.014441698160757433,-0.0023728776670465953,-0.0035534347472175355,83.5783240001183
1645,A,1131790143986000.0,5.031721732089552,6.4066777,3.283572,228,1970-01-14 02:23:10.143986,-2.5310683,-2.8687572,-1.3912354,8.16675935303593,4.070824308420826,-97.02765655517578,-2.241464376449585,-71.18049621582031,83618700.0,40376.0,0.2579904376496478,-0.07893964854440001,0.0276082265844,0.01184156890015918,-0.0018407059592296599,-0.001775548285707644,83.6186999999918
1645,A,1131790184318000.0,1.573313392089552,6.8114357,10.734478,228,1970-01-14 02:23:10.184318,-4.5785065,-2.0879183,-1.6703347,12.719384368938046,5.302088513787866,-97.2611083984375,-2.3113515377044678,-71.0664291381836,83659032.0,40332.0,0.1331971383141958,-0.12869712517560003,0.28268799629999997,0.00788868865688687,-0.004187203178837521,0.00625743363068681,83.65903199999593
1645,A,1131790224654000.0,0.31113803208955193,6.945557,30.867014,228,1970-01-14 02:23:10.224654,-4.7148604,-1.3901701,-1.8429075,31.65060587268069,5.249646612104326,-97.50017547607422,-2.393803119659424,-70.985595703125,83699368.0,40336.0,0.03800561632284416,-0.11784177122640002,0.839018890656,0.003452817155519822,-0.0049721964626355366,0.022622584496128605,83.69936800003052
1645,A,1131790265054000.0,-4.316039867910448,9.311836,35.034348,228,1970-01-14 02:23:10.265054,0.6103965,-1.7502295,-2.1497037,36.66436249335859,2.838505449647083,-97.47394561767578,-2.488969326019287,-70.88472747802734,83739768.0,40400.0,-0.0808990170835821,-0.06752066140000003,1.3312075124,-0.0008664466953669064,-0.003744321139053281,0.0438385733417312,83.73976800008677
1645,A,1131790305310000.0,-13.551234867910448,13.6995125,14.437179,228,1970-01-14 02:23:10.305310,9.399894,-0.82557994,-3.0882018,24.75868681627364,9.928573905958984,-97.00666046142578,-2.636946678161621,-70.82424926757812,83780024.0,40256.0,-0.359632505882603,0.06866362260799998,0.995762895456,-0.008867018494263374,2.300552319462296e-05,0.04683726036932556,83.78002399997786
1645,A,1131790345598000.0,-4.881264367910448,8.657996,-12.063714,228,1970-01-14 02:23:10.345598,13.247629,1.0546118,-4.6498795,16.036876058722665,14.07953335643126,-96.34306335449219,-2.873986005783081,-70.84963989257812,83820312.0,40288.0,-0.3713042646063761,0.055547251224,0.047811078960000024,-0.014723990304729994,0.002502103842471807,0.021021754140635902,83.82031200011261
1645,A,1131793610664000.0,-8.29177286791045,3.9469924,0.011975098,228,1970-01-14 02:23:13.610664,-0.7861652,-0.036218993,0.15339808,10.257323959678708,0.8018095210788286,-96.38240814208984,-2.8661623001098633,-70.84867095947266,87085378.0,3265066.0,-21.505417997706395,-11.4195872723828,-19.674861464898765,-35.714471025060256,-18.55217034786244,-32.04180744770777,87.08537800004706
1645,A,1131796834328000.0,-9.81260986791045,2.924319,-1.2406201,228,1970-01-14 02:23:16.834328,-1.1845741,0.50387007,-1.3752564,11.438296008094257,1.8837279558294968,-96.4407730102539,-2.937309741973877,-70.8660659790039,90309042.0,3223664.0,-29.18122343384367,-20.5165076035152,-1.9803693308636638,-81.6983506318982,-51.47561967600842,-34.904593963995346,90.30904199997894
1645,A,1131800058008000.0,-15.301995867910449,-5.738467,2.1195924,228,1970-01-14 02:23:20.058008,-1.6692694,0.5486112,-2.7419908,17.57664527541939,3.2566774672703525,-96.52361297607422,-3.076634168624878,-70.87785339355469,93532722.0,3223680.0,-40.48072610922556,-36.12802031232,1.4167627120320003,-112.2839167515007,-91.3019158758598,-0.9084436924976285,93.53272200003266
1645,A,1131803282230000.0,-11.422062867910448,-1.4705421,-0.16525635,228,1970-01-14 02:23:23.282230,-0.8032094,0.59122175,-2.5438516,12.684417375500413,2.732374326614855,-96.5629653930664,-3.2063655853271484,-70.89274597167969,96756944.0,3224222.0,-43.08214905266296,-43.2190984692101,3.1506066439015505,-134.71263024010725,-127.91636300601128,7.363106379763392,96.75694400002249
1645,A,1131806506256000.0,-6.303905867910448,3.046465,-0.59156984,228,1970-01-14 02:23:26.506256,0.50813115,-0.0063915867,-2.610963,8.097901466252761,2.659955996882254,-96.53842163085938,-3.336024045944214,-70.87751007080078,99980970.0,3224026.0,-28.57449203973685,-29.0550465982023,-1.2200136570204698,-115.51143697728268,-116.50686141255467,3.1121409925611316,99.98097000014968
1645,A,1131809729832000.0,-1.6695431679104482,-3.0847852,2.3710694,228,1970-01-14 02:23:29.729832,-0.25246766,-3.0967238,-1.901497,4.820114820936769,3.642681574587781,-96.56075286865234,-3.4128193855285645,-70.7125473022461,103204546.0,3223576.0,-12.85150947454769,-31.652808838517604,2.86817603681328,-66.76993212870565,-97.8481928986399,2.656488345801494,103.20454600010999
1645,A,1131812953985000.0,-1.6216426679104479,-3.2596216,-0.977168,228,1970-01-14 02:23:32.953985,1.0162623,-1.5329156,0.32597092,4.405149351060234,1.867853404261238,-96.51437377929688,-3.387901782989502,-70.63813781738281,106428699.0,3224153.0,-5.3056433430597245,-41.8243685087202,2.2470756902571,-29.270719364173697,-118.45083088781439,8.246177100794572,106.42869900004007
1645,A,1131816177902000.0,-7.858273867910449,-9.685459,-0.60354495,228,1970-01-14 02:23:36.177902,-0.82557994,-0.3206446,-0.9672601,13.258423416814969,1.3114828622180212,-96.55691528320312,-3.4341230392456055,-70.61666107177734,109652616.0,3223917.0,-15.28123203920705,-52.46131930635511,-2.5480436758125755,-33.18518876088568,-151.98461590185707,-0.4851479025440259,109.65261600003578
1645,A,1131819401612000.0,-9.065363867910449,1.7459693,-0.07185059,228,1970-01-14 02:23:39.401612,1.1472899,0.82557994,1.7811222,10.389118463211489,2.273818955701015,-96.34477233886719,-3.5064544677734375,-70.67715454101562,112876326.0,3223710.0,-27.27845010267159,-44.3896641703935,-1.0886396781267,-68.60003645879779,-156.10974197191464,-5.861806247463791,112.8763260000851
1645,A,1131822625742000.0,-6.921821867910448,-1.9567311,-0.6610254,228,1970-01-14 02:23:42.625742,1.1749867,-0.041545313,1.5275892,8.356809290692015,1.9276536312745083,-96.28563690185547,-3.4303066730499268,-70.6834945678711,116100456.0,3224130.0,-25.772382573216117,-31.936235721117004,-1.1814437328193501,-85.52139057765491,-123.04231180860788,-3.6595220138667446,116.10045600007288
1645,A,1131825849616000.0,-6.105119367910448,-1.3771362,1.0442286,228,1970-01-14 02:23:45.849616,0.97258645,0.9598033,0.9235843,7.483169952710459,1.649289161008761,-96.23387145996094,-3.3896379470825195,-70.736328125,119324330.0,3223874.0,-20.998608574845427,-36.9679492539601,0.6176994165984001,-75.39189115823287,-111.06920521617086,-0.9087203218562495,119.324329999974
1645,A,1131829073474000.0,-10.080852867910448,-0.49337405,1.1112891,228,1970-01-14 02:23:49.073474,0.9214538,0.45380265,1.4114754,11.322069924913961,1.7456450829096455,-96.18601989746094,-3.321930170059204,-70.76657104492188,122548188.0,3223858.0,-26.090638040114538,-34.60893811677226,3.4745414906432996,-75.9045222068058,-115.37686048261722,6.596401793369206,122.54818799998611
1645,A,1131832297164000.0,-4.723193267910448,-4.0571632,-0.30177248,228,1970-01-14 02:23:52.297164,0.535828,1.0833739,0.36964676,7.165825501556339,1.2639024408409485,-96.15599060058594,-3.309375762939453,-70.822509765625,125771878.0,3223690.0,-23.86182774379223,-38.92692271372625,1.3048153163639,-80.5156322114612,-118.52840960033487,7.703582372590519,125.77187800011598
1645,A,1131835521259000.0,0.6320706720895519,-6.480923,2.2776637,228,1970-01-14 02:23:55.521259,-0.5603291,2.295645,0.16831179,6.890986238845887,2.3690258599231906,-96.17736053466797,-3.313342332839966,-70.93772888183594,128995972.99999999,3224094.999999985,-6.595083952786555,-48.58402651349427,3.185230501472936,-49.097988358190364,-141.0718069243671,7.238167135529293,128.99597300007008
1645,A,1131838745099000.0,-9.393481367910447,-0.13651612,-1.346001,228,1970-01-14 02:23:58.745099,0.9044095,0.7041398,1.417867,10.655458622653606,1.8232159036502753,-96.15676879882812,-3.145556688308716,-70.97882080078125,132219812.99999999,3223840.0,-14.122693128807615,-42.2604144663104,1.5017657393840003,-33.39539923336328,-146.43397130416676,7.555062980562112,132.21981300017796
1645,A,1131841969036000.0,-4.744748267910448,-1.9782863,-0.2706372,228,1970-01-14 02:24:01.969036,1.091896,0.8117315,1.0322412,6.248123244089067,1.707825166076929,-96.09968566894531,-3.098572254180908,-71.02476501464844,135443750.0,3223937.000000015,-22.79038081870986,-35.00357748476394,-2.6059698542967125,-59.502712441569095,-124.54712120938594,-1.7799422508096805,135.44375000009313
1645,A,1131845192937000.0,-8.018739867910448,1.214275,-0.5292993,228,1970-01-14 02:24:05.192937,0.6114618,0.74035877,1.2420983,9.289407085223765,1.5699760597021992,-95.99713897705078,-3.1510016918182373,-71.0720443725586,138667651.0,3223901.0,-20.574111082280563,-32.825778197040655,-1.2894580411432501,-69.90141440204746,-109.33756380596277,-6.279236943768396,138.667650999967
1645,A,1131848416709000.0,-9.158769867910447,5.7719975,2.2848487,228,1970-01-14 02:24:08.416709,-0.2790993,0.69668293,1.0759171,12.055645385544398,1.3118159666227138,-96.00889587402344,-3.1011476516723633,-71.11236572265625,141891423.0,3223772.0,-27.688187458033397,-20.331890765064998,2.8297455001684,-77.79332334495251,-85.68410239265263,2.4827677911782127,141.89142300002277
1645,A,1131851640617000.0,-12.933319867910448,3.774551,-2.2321582,228,1970-01-14 02:24:11.640617,-0.57098174,0.053263225,-0.3717773,14.774821134789693,0.6834292058041698,-96.03739929199219,-3.1199119091033936,-71.1130599975586,145115331.0,3223908.0,-35.61143241801544,-16.205701359231004,0.08493466223699961,-102.03607545767643,-58.896917775127434,4.6983303465100335,145.11533100018278
1645,A,1131854864636000.0,-8.191180867910447,4.615203,3.319497,228,1970-01-14 02:24:14.864636,-0.27057716,0.44208476,0.5656554,10.957114952598562,0.7672137681813871,-96.0495834350586,-3.0941176414489746,-71.1380615234375,148339350.0,3224019.0,-34.05289586890027,-18.071023049337004,1.7528004753186,-112.29955900962688,-55.25440537549351,2.9624465002234333,148.33935000002384
1645,A,1131858088440000.0,-10.741877867910446,2.799778,0.7161109,228,1970-01-14 02:24:18.088440,-0.64341974,-0.004261058,-0.20879184,12.263000875165377,0.6764622316785561,-96.08182525634766,-3.104475259780884,-71.1367416381836,151563154.0,3223804.0,-30.518235242387167,-19.641056496138,6.505004445225801,-104.08233538054645,-60.78817644351025,13.31077226703536,151.56315400009044
1645,A,1131861312293000.0,-8.325302867910448,5.5396805,4.287085,228,1970-01-14 02:24:21.312293,-0.29294774,0.59761333,0.41864893,11.804108434234,0.7862741234168535,-96.09474182128906,-3.086827516555786,-71.16871643066406,154787007.0,3223853.0,-30.7348939083592,-18.151165248199753,8.06478405590135,-98.73554208601057,-60.91828372357425,23.485428184362135,154.78700700006448
1645,A,1131864536204000.0,-9.429406867910448,2.1219873,0.96758795,228,1970-01-14 02:24:24.536204,0.30679616,-0.007456851,1.0620687,10.858554205508002,1.105517712177092,-96.07911682128906,-3.0339856147766113,-71.17398071289062,158010918.0,3223911.0,-28.619802009560043,-19.244060250617103,8.470298962453725,-95.67712853571749,-60.27943941655808,26.653818014394066,158.0109180000145
1645,A,1131867760100000.0,-9.180324867910446,2.794988,1.2789404,228,1970-01-14 02:24:27.760100,0.4293016,0.67005134,0.9044095,10.802579726672752,1.2046680894290367,-96.05565643310547,-2.9925613403320312,-71.21212768554688,161234814.0,3223896.0,-29.997919852093016,-23.6682722991156,3.6212868807258003,-94.48871951944793,-69.17244862887652,19.491007616741552,161.23481400008313
1645,A,1131870983948000.0,-12.739323867910446,-2.924319,-4.361331,228,1970-01-14 02:24:30.983948,0.18535602,0.37603834,0.63915867,14.872856344005276,0.7643856963185307,-96.04524993896484,-2.962763547897339,-71.2342300415039,164458662.0,3223848.0,-35.33280786883935,-31.802182142844,-4.9685793855144,-105.3081679508362,-89.41415680590129,-2.171733123488859,164.4586620000191
1645,A,1131874207840000.0,-2.500614967910448,-3.0296998,-0.9148975,228,1970-01-14 02:24:34.207840,0.0063915867,-1.9004318,-0.9406285,4.850948890157708,2.120486702114407,-96.05010223388672,-2.999523878097534,-71.1346435546875,167682554.0,3223892.0,-24.56595844664615,-41.191698388584804,-8.504995425661,-96.5535767671816,-117.66219374711454,-21.718675022574942,167.68255400005728
1645,A,1131877431695000.0,-10.825702867910447,-3.2021413,-1.1975098,228,1970-01-14 02:24:37.431695,-1.8226675,0.6764429,-1.8983012,12.478877061198686,2.7172116697891058,-96.13998413085938,-3.0974948406219482,-71.15823364257812,170906409.0,3223855.0,-21.481058193300186,-41.63905504472025,-3.40504741807075,-74.2244524148871,-133.51716930486384,-19.198125585989413,170.90640900004655
1645,A,1131880655564000.0,-8.387573367910448,-0.16046631,0.94603276,228,1970-01-14 02:24:40.655564,0.18642128,-0.24074976,1.1217234,9.611331464418468,1.162315244107405,-96.13098907470703,-3.0404460430145264,-71.15225219726562,174130278.0,3223869.0,-30.970542822549838,-37.01421941652155,-0.4053645167338799,-84.5485452576837,-126.78392664204459,-6.142134456923334,174.13027800014243
1645,A,1131883879440000.0,-8.318116867910447,0.55803955,-0.5676197,228,1970-01-14 02:24:43.879440,-0.15020229,-0.83729786,0.14168017,9.527167522387822,0.8623814149510949,-96.07296752929688,-3.0369713306427,-71.11490631103516,177354154.0,3223876.0,-26.928536907348665,-30.953121386660886,0.6099783911102802,-93.32972678165314,-109.5591393996003,0.3298248794345459,177.35415400005877
