Subject-id_accel,Activity_accel,Timestamp_accel,accel_x,accel_y,accel_z,Segment_accel,DateTime,gyro_x,gyro_y,gyro_z,accel_magnitude,gyro_magnitude,Roll,Pitch,Yaw,Time_Difference,Difference_Microseconds,vx,vy,vz,dx,dy,dz,Time_diff
1643,A,710160082700000.0,0.22992188,9.39930253163158,1.7785793551312632,218,1970-01-09 05:16:00.082700,0.06178534,0.3834952,-0.50600064,9.246026799446062,0.6379048865954589,-90.03939056396484,-4.7373762130737305,-79.451416015625,15034282.0,40318.0,0.13315954635692,-0.10074398637517798,-0.04247627273061773,0.0090595552096767,-0.0073112354717769015,-0.00552483880355494,15.03428200003691
1643,A,710160123049000.0,-3.2380664,2.463325531631579,2.504270355131263,218,1970-01-09 05:16:00.123049,0.84155893,0.47830373,0.35579833,16.535226686116143,1.031304194903447,-89.8230209350586,-4.324854373931885,-79.48888397216797,15074631.0,40349.0,-0.060687811618740005,-0.15609761013769743,0.08640435147969135,0.0014620810124754125,-0.0051816507888490055,0.0008862270247231858,15.074631000054069
1643,A,710160163363000.0,0.35925296,11.56679553163158,-2.654602044868737,218,1970-01-09 05:16:00.163363,0.9534117,0.19920446,1.2101405,7.690944812741748,1.5534208432749421,-90.37352752685547,-4.232815265655518,-79.4539566040039,15114945.0,40314.0,-0.05802824251008001,-0.11227204972780454,-0.0030302358700382594,-0.002392959503074625,-0.005409527233908924,0.0016805720483437775,15.114945000037551
1643,A,710160203673000.0,-1.2861255,14.76893653163158,3.6754348551312632,218,1970-01-09 05:16:00.203673,0.05006743,0.6764429,0.48363006,5.089099337222231,0.8330544876794185,-89.47471618652344,-3.7688097953796387,-79.55037689208984,15155255.0,40310.0,-0.0186811160437,0.135758679735069,0.020574885290841217,-0.0015460771216514358,0.0004733730277964152,0.0003536124090762836,15.15525500010699
1643,A,710160243978000.0,-0.7711963,12.81939053163158,7.483516155131263,218,1970-01-09 05:16:00.243978,-0.54435015,0.8852348,0.74035877,9.047948306759201,1.275965847995931,-88.40472412109375,-3.548124074935913,-79.66426086425781,15195560.0,40305.0,-0.0414601775745,0.16098476114241084,0.22488076023431558,-0.0012119974196407755,0.005980122192283412,0.004946544896445723,15.195560000021942
1643,A,710160284273000.0,0.87418216,4.374550531631581,2.406074555131263,218,1970-01-09 05:16:00.284273,0.76592517,0.624245,0.95234644,14.333427485962714,1.3723290158869348,-88.21644592285156,-3.4987800121307373,-79.70328521728516,15235855.0,40295.0,0.002074907614350002,-0.0484760724279055,0.19925052883501423,-0.000793514726522122,0.0022667688058754963,0.008545185146524322,15.23585500009358
1643,A,710160324554000.0,3.7146754,9.51905353163158,-1.3541062448687367,218,1970-01-09 05:16:00.324554,1.9100192,0.829841,0.3089267,9.952465282536048,2.1052897984891605,-88.43062591552734,-3.9368810653686523,-79.7244873046875,15276136.0,40281.0,0.09242188568718,-0.11492966736384835,0.02118716775284241,0.001903212665489465,-0.0032910733022758184,0.004439725428127726,15.276136000058614
1643,A,710160364866000.0,-0.06706055,9.75137053163158,2.901843555131263,218,1970-01-09 05:16:00.364866,0.3920173,2.198706,-0.43249738,9.120344319056802,2.2748713417778497,-88.0683822631836,-3.8489325046539307,-79.85795593261719,15316448.0,40312.0,0.0735213249166,-0.006642932580867806,0.031196193225651484,0.00334475135292979,-0.002450417324485699,0.001055839023882523,15.316448000026867
1643,A,710160405178000.0,2.9482691,11.372798531631581,3.744890455131263,218,1970-01-09 05:16:00.405178,-0.5368933,1.3667343,-0.28549087,8.40523093730455,1.4959017679094897,-87.58277893066406,-4.278365135192871,-79.9627914428711,15356760.0,40312.0,0.05807363953380001,0.03072115163913223,0.13397157071085147,0.0026524281034622627,0.00048532058333837773,0.0033291214499041534,15.35675999999512
1643,A,710160445479000.0,2.929109,9.78729553163158,0.9283474151312632,218,1970-01-09 05:16:00.445479,0.42077947,0.8330368,0.36325517,9.255295880024152,1.0014789019542298,-87.55432891845703,-4.609141826629639,-80.00416564941406,15397061.0,40301.0,0.11843210740404998,0.03143667542178429,0.09416807970472503,0.0035566790536711457,0.0012525112941909982,0.004597128025699074,15.397060999996029
1643,A,710160485779000.0,4.033213,9.77771553163158,-0.43681379486873684,218,1970-01-09 05:16:00.485779,0.7435546,1.1472899,0.5816344,9.71050601588394,1.485747668040078,-87.71102142333984,-5.06721305847168,-80.0438461303711,15437361.0,40300.0,0.14029078830000002,-0.0007050270752473508,0.009904402448289907,0.005213266348436608,0.0006192427141827195,0.0020970605153832513,15.437361000105739
1643,A,710160526083000.0,2.8213332,9.54060853163158,2.178547655131263,218,1970-01-09 05:16:00.526083,0.3206446,0.98430437,0.5944176,9.590925818747921,1.1937337791568172,-87.49766540527344,-5.335422039031982,-80.10957336425781,15477665.0,40304.0,0.1381328150224,-0.005676333477120817,0.035099420752010425,0.005610792454153005,-0.0001285971778513233,0.0009069170451324523,15.477665000013076
1643,A,710160566387000.0,6.5407987,9.29631653163158,0.37988791513126313,218,1970-01-09 05:16:00.566387,0.350472,0.3834952,0.8309063,11.339354301988452,0.979951259291364,-87.54891967773438,-6.007129669189453,-80.12014770507812,15517969.0,40304.0,0.1886656820488,-0.01537748612512081,0.05155759361193043,0.006585643312978823,-0.0004242765726243732,0.001746312153462136,15.517969000036828
1643,A,710160606692000.0,6.4426026,8.61852653163158,1.299575485131263,218,1970-01-09 05:16:00.606692,0.31638354,-0.22796659,0.4079963,11.869645507516116,0.5643831068988951,-87.4927749633789,-6.634615421295166,-80.11248016357422,15558274.0,40305.0,0.26164799469825,-0.03396012516758917,0.033845386173790556,0.009074946370644927,-0.000994276211576338,0.001721083550131742,15.558274000068195
1643,A,710160647004000.0,2.6321266,5.107427531631579,2.556960855131263,218,1970-01-09 05:16:00.647004,-0.1438107,-1.0215886,-0.49960902,13.854515154511343,1.1462695834531293,-87.35635375976562,-6.770582675933838,-80.07964324951172,15598586.0,40312.0,0.18291024175520001,-0.11839726990086778,0.07773234647433147,0.00896051581395574,-0.0030709156549998187,0.0022489607792555476,15.598586000036448
1643,A,710160687310000.0,1.5974782,4.4128715316315805,-1.5361278448687368,218,1970-01-09 05:16:00.687310,-0.4111921,-1.5020229,-0.98856544,14.384180526442067,1.8445631906739368,-87.65806579589844,-6.816351890563965,-79.97413635253906,15638892.0,40306.0,0.0852392255344,-0.2031362129780576,0.020572847655820688,0.005404016214287309,-0.006479864280458983,0.0019811445773049562,15.63889200007543
1643,A,710160727606000.0,-0.9412427,8.61613053163158,-1.157714644868737,218,1970-01-09 05:16:00.727606,-1.5158713,-0.81705785,-1.3166668,10.127925157235204,2.167731715557198,-88.03636169433594,-6.585803508758545,-79.90113067626953,15679188.0,40296.0,0.013221832854000002,-0.13239246642937388,-0.05427553848323062,0.001983793404409483,-0.006760231832700929,-0.0006790418147906553,15.679188000038266
1643,A,710160767898000.0,-5.5732107,4.858345031631579,1.2061697051312632,218,1970-01-09 05:16:00.767898,-2.9859362,0.037284255,-1.3699301,14.805184206662563,3.285409195979605,-88.16511535644531,-5.9663825035095215,-79.90835571289062,15719480.0,40292.0,-0.1312401781964,-0.12340481530250044,0.0009761756440488532,-0.0023775975852679903,-0.00515329203777034,-0.0010737689637581559,15.71948000008706
1643,A,710160808203000.0,-0.19160157,10.66866303163158,-0.0009201948687368455,218,1970-01-09 05:16:00.808203,-2.1145499,0.6562029,-0.8841695,7.909412108512152,2.3840468179733114,-88.41001892089844,-5.826936721801758,-79.92820739746094,15759785.0,40305.0,-0.11617537927117501,-0.08208097000508922,0.02428879075556556,-0.004986042021865305,-0.0041410522884112,0.0005091522353682294,15.759785000002012
1643,A,710160848543000.0,5.0918117,8.50117053163158,0.7056105851312631,218,1970-01-09 05:16:00.848543,-1.623463,0.4261058,-0.82877576,11.273600471077598,1.8719154696530018,-88.50216674804688,-6.381650924682617,-79.94898223876953,15800125.0,40340.0,0.0988372383221,-0.008676457028982105,0.014213605171595154,-0.00034971030294284305,-0.0018305773032772188,0.0007765933258508316,15.800125000067055
1643,A,710160888872000.0,4.0811133,8.03414153163158,-1.109814244868737,218,1970-01-09 05:16:00.888872,-1.3837786,0.85327685,-1.5084145,11.405946454122406,2.2177102832367743,-88.80841827392578,-6.819067478179932,-79.96580505371094,15840454.0,40329.0,0.18496744616249997,-0.06179789990033004,-0.00815056469677629,0.0057227795602897156,-0.0014210801703011147,0.00012225817965448495,15.84045400004834
1643,A,710160929178000.0,0.4047583,12.83855053163158,-0.30987771486873683,218,1970-01-09 05:16:00.929178,-1.1185277,0.47617322,-2.0485036,5.794911337389243,2.3820604841870447,-89.10009765625,-6.853005409240723,-79.96348571777344,15880760.0,40306.0,0.0904037703548,0.025648563150942414,-0.02861105206458931,0.005549556126473146,-0.0007285175835104089,-0.000740856862591801,15.88076000008732
1643,A,710160969492000.0,1.4010864,13.731893031631579,-1.5385228448687371,218,1970-01-09 05:16:00.969492,-1.0460896,-0.8117315,-1.0354371,5.434608222285597,1.6808752087459735,-89.72699737548828,-7.120724201202393,-79.8539810180664,15921074.0,40314.0,0.03640041161790001,0.14050323090469546,-0.037258210082628265,0.0025559918960237145,0.003349121712779493,-0.001327726717101465,15.921074000070803
1643,A,710161009804000.0,2.1028273,13.612142131631579,-1.7947899448687368,218,1970-01-09 05:16:01.009804,-0.93636745,-0.51452273,-0.2695119,5.855786185870456,1.1018867025914076,-90.356689453125,-7.494558811187744,-79.75423431396484,15961386.0,40312.0,0.0706248845372,0.15608877275073219,-0.06718625258994852,0.002157201869302196,0.0059781084256788,-0.0021051825896284578,15.961386000039056
1643,A,710161050124000.0,2.9674294,15.48025733163158,-0.6978709448687369,218,1970-01-09 05:16:01.050124,-0.6785734,-0.29933932,0.13422333,4.448238866875116,0.7537120073356344,-90.78628540039062,-8.305292129516602,-79.68480682373047,16001705.999999998,40319.99999999814,0.10221637507199527,0.19136677317937642,-0.05025204353710515,0.0034844797937212155,0.007004703805950666,-0.0023675560499212926,16.001706000068225
1643,A,710161090424000.0,5.8821683,14.04085053163158,-2.901288844868737,218,1970-01-09 05:16:01.090424,0.10013486,-0.4016047,0.4878911,8.17204457792191,0.6398054788047064,-91.3825912475586,-9.184700965881348,-79.57388305664062,16042006.0,40300.00000000186,0.17831939365500823,0.1999103234447619,-0.07252306976321345,0.005652795739849381,0.007884233496976752,-0.002473918533001534,16.04200600006152
1643,A,710161130683000.0,6.6270194,11.91886353163158,-4.266450344868736,218,1970-01-09 05:16:01.130683,1.1920309,0.624245,0.3920173,10.535985495596158,1.401533820526319,-91.95733642578125,-9.908357620239258,-79.50032043457031,16082265.0,40259.0,0.25180369380715,0.12801786423645575,-0.14428300601982047,0.008658162689069514,0.006601030453929071,-0.004364197902474581,16.082265000091866
1643,A,710161170995000.0,6.593489,8.668821531631579,-1.861850444868737,218,1970-01-09 05:16:01.170995,1.3763217,0.42397526,0.13954964,12.124016771637285,1.4468899560806576,-92.13131713867188,-10.466861724853516,-79.47880554199219,16122577.0,40312.0,0.2664725673104,0.0199077801351322,-0.12352203071794851,0.010446376319085338,0.0029815892879537266,-0.0053978783204864725,16.12257700006012
1643,A,710161211310000.0,-0.44786867,11.16203693163158,-2.882128844868737,218,1970-01-09 05:16:01.211310,1.3060142,-0.6295713,0.17576863,8.157613350751612,1.4604546291060898,-92.63099670410156,-10.139206886291504,-79.34696197509766,16162892.0,40315.0,0.12388034180197499,0.00465352947322709,-0.09562676253288313,0.007868538765432698,0.0004950945984305024,-0.004417491799953639,16.162892000051215
1643,A,710161251566000.0,4.5864625,-8.613639468368419,-3.363527844868737,218,1970-01-09 05:16:01.251566,1.6777915,-0.30146983,1.2665994,27.82968694671428,2.123709588421364,-92.68742370605469,-10.06005573272705,-79.31031799316406,16203147.999999998,40255.99999999814,0.08330161661023615,-0.3432146558594233,-0.12571257785103007,0.004170158458920793,-0.006814558351901042,-0.004455118243247199,16.203148000058718
1643,A,710161291886000.0,-2.9746144,15.73173433163158,-0.7816966448687369,218,1970-01-09 05:16:01.291886,0.44101948,0.97471696,1.3038837,4.307886113991205,1.6866191143755018,-93.05335235595703,-8.855813026428223,-79.29727935791016,16243468.0,40320.00000000186,0.032494857696001495,-0.25163520755662633,-0.08356772571311134,0.0023344569220138584,-0.011992173246468113,-0.0042190909198532855,16.243468000087887
1643,A,710164556714000.0,15.675404,-10.29254946836842,-14.852436844868736,218,1970-01-09 05:16:04.556714,2.6674223,-0.18748654,2.0676782,36.25889484387777,3.380175449288646,-93.4737548828125,-9.183425903320312,-79.20703887939453,19508296.0,3264828.0,20.7329467540944,-23.116312880621134,-25.521378386516307,33.89779760326922,-38.146165610414606,-41.797872502848875,19.508296000072733
1643,A,710164597021000.0,2.8716285,14.23963693163158,0.5762795301312631,218,1970-01-09 05:16:04.597021,0.38029942,-0.05219796,-0.18322548,5.186072707881225,0.42535144575013306,-93.36919403076172,-9.785501480102539,-79.21812438964844,19548603.0,40307.0,0.37378761948875006,-0.315460972809126,-0.2877145364425617,0.425374571198008,-0.4722322543551068,-0.5201435542228516,19.548603000002913
1643,A,710164637277000.0,-5.8270826,0.7149615316315803,1.687568555131263,218,1970-01-09 05:16:04.637277,-0.07350325,0.4079963,-0.70200926,18.805903397016323,0.8152795285667365,-93.19983673095703,-9.154597282409668,-79.26465606689453,19588859.0,40256.0,-0.059487380124799996,-0.09350264213143915,0.04556673426016413,0.006326235217917587,-0.008231619641523696,-0.004873950962327298,19.588859000010416
1643,A,710164677580000.0,1.4489869,10.25192953163158,2.446789855131263,218,1970-01-09 05:16:04.677580,-0.13102753,-0.1470065,1.5243934,8.646335590306572,1.537060298955025,-92.8081283569336,-9.099111557006836,-79.32477569580078,19629162.0,40303.0,-0.08822519549854999,-0.17397009473865244,0.08331352350440528,-0.0029766299676739372,-0.00538997685703765,0.0025971305143427203,19.629162000026554
1643,A,710164717893000.0,-0.3520679,16.43108013163158,2.968904155131263,218,1970-01-09 05:16:04.717893,0.5539375,0.59228706,0.8213189,3.254475658575613,1.1542163795610005,-91.6446533203125,-8.764920234680176,-79.53223419189453,19669475.0,40313.0,0.0221100478235,0.14276868427756387,0.10916143631785662,-0.001332649974112145,-0.0006289112299589318,0.0038796215276574223,19.66947500000242
1643,A,710164758147000.0,-1.7531544,14.05043083163158,5.730362155131264,218,1970-01-09 05:16:04.758147,-0.043675844,0.87032104,0.16831179,7.101138019772342,0.8875219155991575,-90.55455780029297,-8.27242374420166,-79.73728942871094,19709729.0,40254.0,-0.042371809232099995,0.2190121711575976,0.17509013302665385,-0.00040780847187089203,0.007281563277343495,0.005721131336196962,19.70972900011111
1643,A,710164798440000.0,4.3278003,3.0644755316315795,2.501875355131263,218,1970-01-09 05:16:04.798440,0.71798825,0.04474111,1.2261194,16.206788120267554,1.4215757725560938,-90.3287582397461,-8.392837524414062,-79.76765441894531,19750022.0,40293.0,0.05187010362435,-0.05006593895251879,0.16585077300050402,0.0001913573879734648,0.003403675267119621,0.006868765963276137,19.750022000051104
1643,A,710164838660000.0,-1.0346485,11.34405853163158,-3.4713034448687368,218,1970-01-09 05:16:04.838660,2.6780748,-0.15339808,0.75101143,8.314205833834944,2.7856119208054397,-90.88501739501953,-7.996414661407471,-79.66143798828125,19790242.0,40220.0,0.06622528269799999,-0.10440037998777789,-0.019495198884620594,0.002374898218942458,-0.0031063176738893657,0.0029432105954704155,19.790242000017315
1643,A,710164878860000.0,2.955454,7.485681531631579,1.790554455131263,218,1970-01-09 05:16:04.878860,0.46658584,2.0975058,-0.13635385,11.528869681168231,2.15309667677324,-90.66722869873047,-8.177225112915039,-79.7925796508789,19830442.0,40200.0,0.03860819055,-0.015482224728410526,-0.03378305469372322,0.0021071528122848,-0.0024096403547953873,-0.0010708928969247107,19.830442000064068
1643,A,710164919244000.0,3.537444,11.80629753163158,2.3797293551312633,218,1970-01-09 05:16:04.919244,-1.1089402,1.5275892,-0.20026971,7.84319500065777,1.898258435481366,-90.35536193847656,-8.652441024780273,-79.92157745361328,19870826.0,40384.0,0.13110459641600003,-0.00621955875459031,0.08420637069682095,0.003426840594417473,-0.00043820241208875294,0.0010181475967345494,19.870825999998488
1643,A,710164959635000.0,3.1374757,11.49494453163158,1.5678176551312633,218,1970-01-09 05:16:04.959635,0.4463458,0.7946873,0.32810146,7.797688954719323,0.9687120552636174,-90.12582397460938,-9.010912895202637,-79.99285125732422,19911217.0,40391.0,0.13480334080135,0.07474843408863113,0.07972268564575687,0.005370143746072993,0.0013839749018086215,0.0033106292573665307,19.911217000102624
1643,A,710164999930000.0,3.3889527,9.52623853163158,-0.7769065448687368,218,1970-01-09 05:16:04.999930,0.700944,0.7850999,0.5571333,9.734740416526305,1.190840819792847,-90.27642822265625,-9.267446517944336,-80.00225067138672,19951512.0,40295.0,0.131491216189,0.0286332857670945,0.015934881594014252,0.005365169586963076,0.002082883200793232,0.0019272608359632885,19.951512000057846
1643,A,710165040202000.0,3.8344264,10.43395153163158,0.9738527951312632,218,1970-01-09 05:16:05.040202,0.5187838,0.79255676,0.62104917,8.99427557922689,1.1326892426971427,-90.16595458984375,-9.630925178527832,-80.05547332763672,19991784.0,40272.0,0.1454499615576,0.007252787113866978,0.003965709695286233,0.005576487555105538,0.0007226019635310403,0.0004007183062013546,19.991784000070766
1643,A,710165080494000.0,8.6077,9.23404553163158,0.8564968151312631,218,1970-01-09 05:16:05.080494,0.082025364,0.1587244,0.6775082,12.693780553979238,0.7006703622688293,-90.1199722290039,-10.378676414489746,-80.0707015991211,20032076.0,40292.0,0.2506590784544,0.0013698688364995881,0.03687422324834885,0.007980012720081751,0.00017371202677608487,0.0008227612890824723,20.032076000003144
1643,A,710165120792000.0,6.368357,9.68670453163158,1.5654226551312633,218,1970-01-09 05:16:05.120792,-0.03195793,-0.9289106,0.049002163,10.969221665524415,0.9307510000321909,-89.9902572631836,-10.985501289367676,-80.04936218261719,20072374.0,40298.0,0.30175257249299997,-0.013686206975310618,0.04879925540631965,0.011130542354939162,-0.0002481618971589034,0.001726234921412916,20.072374000097625
1643,A,710165161154000.0,2.8764186,2.8369485316315792,0.6241799251312632,218,1970-01-09 05:16:05.161154,0.07669904,-1.5243934,-0.6764429,15.982161568028785,1.6695008169093213,-89.99293518066406,-11.003911972045898,-79.9732894897461,20112736.0,40362.0,0.1865688163836,-0.1428077575302862,0.04418836967227806,0.009854813948918665,-0.00315820469768745,0.0018765832617111803,20.112736000097357
1643,A,710165201453000.0,0.19160157,5.09305653163158,-3.277307044868737,218,1970-01-09 05:16:05.201453,-0.7957525,-1.3156016,-1.1366372,13.994250946621648,1.912060076358128,-90.44237518310547,-10.816396713256836,-79.83125305175781,20153035.0,40299.0,0.061819072415415004,-0.235144562977779,-0.053459184899150226,0.005004891765355754,-0.00761555028207726,-0.00018680229141386078,20.153035000083037
1643,A,710165241702000.0,-4.9481106,3.0932155316315804,1.9438357551312633,218,1970-01-09 05:16:05.241702,-3.0786142,-0.50600064,-1.7651432,16.298334080003112,3.584638413651827,-90.4641342163086,-10.22244930267334,-79.83065032958984,20193284.0,40249.0,-0.095722365974235,-0.22969556786286055,-0.026835442970321793,-0.0006822868312244731,-0.00935467521310245,-0.0016158892385591897,20.193284000037238
1643,A,710165281991000.0,-2.4093897,8.31914903163158,-0.0033152448687369107,218,1970-01-09 05:16:05.281991,-2.7973845,1.1675298,-1.8034927,10.531930590429786,3.5271903540469123,-90.65601348876953,-9.743457794189453,-79.87894439697266,20233573.0,40289.0,-0.14821316479335,-0.1649358220553453,0.03909081541898346,-0.004913959299547616,-0.007949652034207296,0.00024687835029206496,20.23357300006319
1643,A,710165322323000.0,6.983877,8.95143453163158,-0.19012674486873682,218,1970-01-09 05:16:05.322323,-1.6287893,0.8341021,-1.1217234,11.898638531936282,2.146379342783204,-90.80500030517578,-10.43278980255127,-79.90708923339844,20273905.0,40332.0,0.09224911089179999,-0.046975011863235126,-0.003900951165045895,-0.0011285711109786576,-0.004273393876802093,0.000709638802544905,20.273905000067316
1643,A,710165362695000.0,5.400769,10.45311053163158,2.861128355131263,218,1970-01-09 05:16:05.362695,-0.8223842,0.644485,-1.3827133,10.014278826896506,1.7330818669732628,-90.48405456542969,-11.052772521972656,-80.00509643554688,20314277.0,40372.0,0.249996464156,-0.0039454533529698676,0.053916838504759354,0.006908569177914889,-0.001027880510854314,0.0010096207018394558,20.314277000026777
1643,A,710165403054000.0,1.5711329,12.83376053163158,-1.3541062448687367,218,1970-01-09 05:16:05.403054,-0.49747851,-0.737163,-1.4189322,6.2278823991125245,1.6745933072473627,-90.9469223022461,-11.22449016571045,-79.88368225097656,20354636.0,40359.0,0.14068949439105,0.0743992146211189,0.03041095267404265,0.007883847300500195,0.0014217216755106135,0.001701692662092635,20.354636000003666
1643,A,710165443359000.0,-0.5364844,15.05873393163158,0.41102317113126313,218,1970-01-09 05:16:05.443359,-0.58483016,-1.2612731,-0.7765778,3.5420363885326314,1.592453838665999,-91.01399230957031,-10.7738676071167,-79.81410217285156,20394941.0,40305.0,0.02085075389625,0.16711449467091077,-0.019005481643494436,0.003255439853609813,0.004867105026507628,0.00022984875494312288,20.394941000035033
1643,A,710165483657000.0,-0.102985844,13.84924893163158,-1.184059944868737,218,1970-01-09 05:16:05.483657,-0.05219796,-1.901497,-0.18322548,5.012210791914199,1.91101728002611,-91.50859832763672,-10.498527526855469,-79.6297607421875,20435239.0,40298.0,-0.012884685946355999,0.18754654671188942,-0.015575917954036362,0.00016050830312241426,0.007146065322822041,-0.0006967806204906482,20.435239000013098
1643,A,710165523956000.0,-0.88376224,15.55929303163158,0.5834645851312631,218,1970-01-09 05:16:05.523956,0.43675843,-0.89588743,0.45380265,3.1265317908064927,1.0951296994215307,-91.4334945678711,-9.826471328735352,-79.59558868408203,20475538.0,40299.0,-0.019882480518558,0.19763721628877098,-0.012101696201030231,-0.0006602420206847846,0.007761260232581806,-0.0005576900864175143,20.475537999998778
1643,A,710165564350000.0,0.81909674,12.931956531631581,1.0504933951312632,218,1970-01-09 05:16:05.564350,1.0972224,0.60507023,1.3486248,5.7089219314775885,1.8408682270790195,-91.20506286621094,-9.721930503845215,-79.65647888183594,20515932.0,40394.0,-0.0013060491035000008,0.179576567429226,0.033001049327362246,-0.0004279447327767054,0.007618586789752384,0.0004221042350925277,20.515932000009343
1643,A,710165604653000.0,11.987073,-3.37812846836842,-17.94680284486874,218,1970-01-09 05:16:05.604653,2.279666,0.21411815,2.2242723,31.085338227055757,3.192195313301289,-91.93150329589844,-9.980900764465332,-79.52579498291016,20556235.0,40303.0,0.25806352951561,-0.20244543378315244,-0.34048597987638474,0.005174048366524634,-0.00046084196033114845,-0.006196282577958626,20.55623500002548
1643,A,710165644939000.0,7.7478886,9.04483953163158,5.438169555131264,218,1970-01-09 05:16:05.644939,0.7882957,0.15126756,0.5070659,13.214000864169607,0.9494249903439732,-91.31428527832031,-10.606860160827637,-79.6375503540039,20596521.0,40286.0,0.3975213315088,-0.2806582390526902,-0.25196140035518194,0.01320544585561469,-0.00973115728193238,-0.011933667580004447,20.596521000028588
1643,A,710165685247000.0,-3.9254372,4.75056953163158,-5.231643144868737,218,1970-01-09 05:16:05.685247,0.16405073,1.0982877,-1.7534252,15.467892948473205,2.075487520073263,-91.80850982666016,-10.100757598876953,-79.59918212890625,20636829.0,40308.0,0.07703768551559999,-0.11698572573899431,0.004162333272430974,0.009564262429109755,-0.008014116466411609,-0.004994142397985762,20.6368290000828
1643,A,710165725555000.0,3.0608351,4.76493953163158,3.232356355131263,218,1970-01-09 05:16:05.725555,-0.20133498,-0.28442562,0.5763081,14.384430640365048,0.6734721476123529,-91.50376892089844,-10.132197380065918,-79.64137268066406,20677137.0,40308.0,-0.017425190723400007,-0.2032428303389943,-0.04029362596036904,0.0012014302200419984,-0.006453886319195782,-0.0007281900728327037,20.677137000020593
1643,A,710165765844000.0,-0.1939966,16.50532583163158,4.396335855131263,218,1970-01-09 05:16:05.765844,0.2545982,0.33449304,0.53795856,4.380991704719759,0.6827190121338025,-90.18749237060547,-9.928366661071777,-79.88555145263672,20717426.0,40289.0,0.05775102816324999,0.0336466606102547,0.15367619022963347,0.000812343832307058,-0.0034164300411005945,0.002284035065922197,20.717426000046544
1643,A,710165806176000.0,0.27542725,14.14383653163158,3.012014455131263,218,1970-01-09 05:16:05.806176,0.4079963,0.9395633,0.30466563,5.071094061918754,1.06867269153089,-89.44363403320312,-9.774264335632324,-80.05564880371094,20757758.0,40332.0,0.0016421304879000005,0.2228174082175649,0.1493967923567541,0.0011977224373590908,0.00517185441198181,0.0061117697668370925,20.75775800005067
1643,A,710165846489000.0,3.3937428,5.253523531631579,0.2936672051312631,218,1970-01-09 05:16:05.846489,0.7318367,-0.21198763,1.0567423,13.73240740299552,1.3027770336282403,-89.4477310180664,-9.834846496582031,-80.03778076171875,20798071.0,40313.0,0.073957626112825,-0.0040845118848361625,0.06663097238508162,0.0015238264939225136,0.004408889624930647,0.004354363640018811,20.79807100002654
1643,A,710165886800000.0,0.63707525,10.98001553163158,1.2540700551312631,218,1970-01-09 05:16:05.886800,0.8692558,-0.00958738,0.80747044,7.638894632738651,1.1864678989179176,-89.2807388305664,-9.669227600097656,-80.05776977539062,20838382.0,40311.0,0.081243153206775,-0.06785270341039944,0.03119541834922135,0.003128149307576198,-0.0014499305428831212,0.0019717398184452436,20.838382000103593
1643,A,710165927140000.0,1.1591895,10.23995403163158,4.736428755131263,218,1970-01-09 05:16:05.927140,0.49534798,0.9150622,0.21518342,9.392484737635918,1.0625499307805806,-88.6139144897461,-9.616899490356445,-80.21028137207031,20878722.0,40340.0,0.036230660007500005,0.0326747860910179,0.12082836100299515,0.0023694468125319266,-0.0007095385923319256,0.003066319629534207,20.87872200005222
1643,A,710165967442000.0,1.468147,9.94776153163158,-0.6930808448687368,218,1970-01-09 05:16:05.967442,0.6562029,1.2186625,0.046871636,8.819695561857564,1.3848962001305283,-88.80663299560547,-9.61546516418457,-80.23261260986328,20919024.0,40302.0,0.0529434578115,0.011843056315315898,0.08147750373970017,0.001796947648170669,0.0008970790423300322,0.0040766654804300535,20.919024000060745
1643,A,710166007748000.0,1.3555812,10.19923853163158,0.8085964551312632,218,1970-01-09 05:16:06.007748,0.87138635,0.92784536,0.294013,8.472384387368866,1.306389998127991,-88.73750305175781,-9.589581489562988,-80.28230285644531,20959330.0,40306.0,0.056906594414600005,0.01102369227494244,0.002327986093620695,0.0022138081025125933,0.0004608335843394763,0.0016889320366109154,20.959330000099726
1643,A,710166048052000.0,4.392466,10.50340653163158,0.20265645513126312,218,1970-01-09 05:16:06.048052,0.12463594,0.6103965,0.8863,9.180174273814757,1.083349294896126,-88.80624389648438,-10.011275291442871,-80.29867553710938,20999634.0,40304.0,0.11583464717440001,0.02222050331487918,0.02037876864761043,0.0034810815005015283,0.0006699370295260853,0.0004575865215452896,20.999634000007063
1643,A,710166088358000.0,3.7625759,9.67712453163158,0.5331691747312631,218,1970-01-09 05:16:06.088358,0.28655612,1.0290455,0.793622,9.644915850160055,1.330746005015121,-88.81041717529297,-10.291584014892578,-80.3453140258789,21039940.0,40306.0,0.1643485594107,0.01169944251794244,0.014829093918619493,0.00564653216230952,0.0006835886683688542,0.0007095440542972316,21.039940000046045
1643,A,710166128663000.0,5.582791,10.54651653163158,1.4911770051312632,218,1970-01-09 05:16:06.128663,0.5368933,0.58909124,0.6263755,9.811804808609379,1.0137204602995233,-88.66016387939453,-10.852067947387695,-80.39640808105469,21080245.0,40305.0,0.18833250645225,0.012567926527410817,0.04079563638967956,0.0071074051798031,0.0004890481546864815,0.0011209773775379967,21.08024500007741
1643,A,710166168982000.0,7.2545147,10.999175531631579,1.0720485551312633,218,1970-01-09 05:16:06.168982,0.28868666,-0.1257012,0.4111921,10.490692783879215,0.5178993362090799,-88.59626007080078,-11.609878540039062,-80.39949035644531,21120564.0,40319.0,0.25879366425915,0.039224179149353625,0.0516733456821124,0.00901384003845647,0.0010441029543907328,0.0018641284440762901,21.120564000098966
1643,A,710166209309000.0,5.757627,6.85339653163158,1.9414407551312634,218,1970-01-09 05:16:06.209309,0.06924219,-1.0034791,-0.10439592,13.120009764783163,1.0112681608383864,-88.47785949707031,-11.974245071411133,-80.3740005493164,21160891.0,40327.0,0.26237031916795,-0.03523426320239333,0.06076249170747846,0.010508489979832331,8.045067019653384e-05,0.0022671000072050154,21.16089100006502
1643,A,710166249601000.0,3.307522,5.464284531631581,-0.5661448448687368,218,1970-01-09 05:16:06.249601,0.19068234,-1.2410331,-0.5305017,13.549338986805738,1.3630682168499033,-88.63750457763672,-12.057886123657227,-80.27877807617188,21201183.0,40292.0,0.182626491754,-0.1467095972995004,0.027706711408148864,0.008964905752833605,-0.003665441013671151,0.0017823005659674282,21.2011829999974
1643,A,710166289905000.0,-0.5005591,6.491748531631579,-1.184059944868737,218,1970-01-09 05:16:06.289905,-0.95660746,-0.902279,-1.1909657,12.197630991426026,1.7741489579359286,-88.93457794189453,-11.765852928161621,-80.18475341796875,21241487.0,40304.0,0.0565659163608,-0.15404122170912082,-0.03527012692278957,0.004820205408329449,-0.0060607305046617346,-0.00015241794945103956,21.241487000021152
1643,A,710166330228000.0,-2.811753,4.92780153163158,-0.17575664486873688,218,1970-01-09 05:16:06.330228,-2.646117,0.10972224,-1.8375812,13.934976399961846,3.2234575868518975,-89.16590881347656,-11.289274215698242,-80.17252349853516,21281810.0,40323.0,-0.06678118040414999,-0.16493014139951984,-0.027415942173992076,-0.0002059550460100007,-0.006430941137314858,-0.001263845182094763,21.281810000073165
1643,A,710166370548000.0,-2.572251,6.6474245316315805,1.357055955131263,218,1970-01-09 05:16:06.370548,-2.6120284,1.0450244,-1.9217371,12.213010729034067,3.4070283005162034,-89.2079849243164,-10.815058708190918,-80.24263763427734,21322130.0,40320.0,-0.10854152064,-0.1617794425646147,0.02381499409489253,-0.003534505653050064,-0.006586465212716952,-7.259511327464686e-05,21.322130000102334
1643,A,710166410851000.0,9.268726,7.5910625316315805,-1.0427537448687367,218,1970-01-09 05:16:06.410851,-1.6714,0.4889564,-1.087635,14.444925208777626,2.053194149204103,-89.46125793457031,-11.568217277526855,-80.2339096069336,21362433.0,40303.0,0.1349440159625,-0.10804252794465244,0.0063336609901052995,0.0005320498844913587,-0.005437317438717497,0.0006075406229453338,21.362433000002056
1643,A,710166451153000.0,4.8523097,10.97762053163158,0.9642727151312631,218,1970-01-09 05:16:06.451153,-1.0982877,0.26205507,-1.4125407,9.010706043502095,1.8083638906040136,-89.4544448852539,-12.152632713317871,-80.25980377197266,21402735.0,40302.0,0.2845529903907,-0.020782067592184088,-0.0015814712302398308,0.008453284175023333,-0.002595944424662793,9.576137585104905e-05,21.40273500001058
1643,A,710166491453000.0,0.5412744,11.97394853163158,-0.18533674486873686,218,1970-01-09 05:16:06.491453,-0.7137272,-0.60933125,-1.5233282,6.644821330741344,1.789195320014459,-89.66815948486328,-12.044575691223145,-80.19346618652344,21443035.0,40300.0,0.108680719615,0.06753411662475263,0.015695559800789904,0.007923659256614854,0.0009420537880062562,0.000284398884696584,21.443035000003874
1643,A,710166531753000.0,-0.122146,15.27428553163158,-0.3458030448687368,218,1970-01-09 05:16:06.531753,-0.21624869,-1.3038837,-0.90654004,3.40075760854252,1.602713649775158,-90.07791137695312,-11.751302719116211,-80.04772186279297,21483335.0,40300.0,0.008445437260000003,0.15411191637475263,-0.010702466763210095,0.00236009206103125,0.0044661675649400314,0.00010061082470723317,21.48333499999717
1643,A,710166572066000.0,1.9974464,13.75105353163158,-2.1540428448687368,218,1970-01-09 05:16:06.572066,0.035153728,-1.4913702,-0.13422333,5.856910374828861,1.4978106557094013,-90.761474609375,-11.995328903198242,-79.8337173461914,21523648.0,40313.0,0.0377994925126,0.18998184682866387,-0.050388143676493385,0.000932135926961412,0.006935725938009665,-0.0012313728893278831,21.52364800008945
1643,A,710166612342000.0,0.83586186,15.14255953163158,0.9906179051312631,218,1970-01-09 05:16:06.612342,0.19600865,-0.11824436,0.43888897,3.5460374719143513,0.4949996439739053,-90.54421997070312,-12.017319679260254,-79.87137603759766,21563924.0,40276.0,0.05705716173988,0.18715477986799348,-0.023429051436433243,0.001910223303336442,0.007594777388417286,-0.0014865306751841163,21.563924000016414
1643,A,710166652647000.0,1.5926881,14.82881193163158,-0.2811374848687369,218,1970-01-09 05:16:06.652647,0.70200926,0.1257012,1.1728562,4.135412552808783,1.372665093417046,-90.78282928466797,-12.228739738464355,-79.82066345214844,21604229.0,40305.0,0.0489413530689,0.20900906341341083,0.01429780416934056,0.002136135069683939,0.0079836918517285,-0.00018401746055008532,21.60422900004778
1643,A,710166692957000.0,11.120076,-2.223728468368421,-10.129458844868736,218,1970-01-09 05:16:06.692957,1.8663434,-0.9108011,2.1880531,25.868339230330598,3.016682399409056,-91.2874984741211,-12.474336624145508,-79.64989471435547,21644539.0,40310.0,0.2562257604355,-0.14098254279793104,-0.20982556902585875,0.006150643172681182,0.0013710745230049951,-0.003940862100683124,21.644539000000805
1643,A,710166733268000.0,2.2129982,8.77899253163158,-0.9589280448687368,218,1970-01-09 05:16:06.733268,1.4828482,-0.64555025,1.2602079,10.136211045855008,2.0502921403401793,-91.40387725830078,-12.41645336151123,-79.57865905761719,21684850.0,40311.0,0.26873477703809995,-0.2629231751728994,-0.22349198195610362,0.010580842113049143,-0.008140921698561074,-0.008733731898816943,21.68485000007786
1643,A,710166773575000.0,1.104104,7.73476453163158,-2.520480844868737,218,1970-01-09 05:16:06.773575,-0.033023197,0.28868666,-0.5454154,11.299050615184003,0.6179874414251607,-91.76386260986328,-12.283605575561523,-79.51545715332031,21725157.0,40307.0,0.0668512191877,-0.06219859702552594,-0.07012226705932419,0.006763232374936659,-0.006552341636000966,-0.005917354767532425,21.72515700000804
1643,A,710166813880000.0,-1.2358302,3.9937425316315807,2.2935085551312633,218,1970-01-09 05:16:06.813880,0.5230448,0.58909124,0.36645097,14.722362398113978,0.8688444425014863,-91.51160430908203,-11.848349571228027,-79.59194946289062,21765462.0,40305.0,-0.0026546122455000025,-0.15863026140758918,-0.0045740590689344355,0.0012937221214026856,-0.004450253569573352,-0.001505317712299732,21.765462000039406
1643,A,710166854183000.0,1.9974464,11.99550393163158,-0.18533674486873686,218,1970-01-09 05:16:06.854183,0.535828,0.41864893,1.0396981,6.8968900029944455,1.2423166711099691,-91.59532165527344,-11.922395706176758,-79.59103393554688,21805765.0,40303.0,0.015347708854299999,-0.07276209989555243,0.0424828242345053,0.0002557849363122331,-0.004662903168800258,0.0007639184812340013,21.805765000055544
1643,A,710166894492000.0,-0.76401126,15.69341403163158,4.9160551551312635,218,1970-01-09 05:16:06.894492,-0.29614353,0.8745821,0.2727077,5.29333913697772,0.9627898678530851,-90.3682632446289,-11.551353454589844,-79.8868637084961,21846074.0,40309.0,0.02485926852913,0.16302809709058735,0.09534526419963608,0.00081035152567434,0.0018192660404673312,0.002777856208345902,21.846074000000954
1643,A,710166934797000.0,1.1663746,12.666109131631579,7.311074755131264,218,1970-01-09 05:16:06.934797,0.026631612,0.34088463,0.58483016,9.057902910872256,0.677449547769855,-89.26310729980469,-11.515503883361816,-80.12445068359375,21886379.0,40305.0,0.00810862720935,0.17652629054766078,0.24640723551656557,0.0006643855188697181,0.006842869796879795,0.006887167250530754,21.88637900003232
1643,A,710166975087000.0,2.315984,4.228454531631581,0.9546926551312631,218,1970-01-09 05:16:06.975087,1.8034927,-0.8330368,1.135572,14.521545341984345,2.288243867312121,-89.15742492675781,-11.400896072387695,-80.0859146118164,21926669.0,40290.0,0.07015211399699998,-0.05450101500356368,0.16651388447973858,0.0015765626316019204,0.0024581991758358362,0.008318295962325547,21.926669000065885
1643,A,710167015393000.0,0.44786867,7.75871353163158,-4.412546644868737,218,1970-01-09 05:16:07.015393,2.3137543,1.1941614,0.60080916,11.885222673976967,2.6721624308335663,-89.0298080444336,-11.369911193847656,-80.14632415771484,21966975.0,40306.0,0.05569992285851,-0.15342140202105756,-0.06968613145517931,0.002536296098749093,-0.004190260470297191,0.001951369706703943,21.966975000104867
1643,A,710167055699000.0,2.6536818,11.20514733163158,4.293350055131263,218,1970-01-09 05:16:07.055699,-0.46339005,1.7662084,-0.00958738,8.675330067732068,1.8260105061375818,-89.03524017333984,-11.36889934539795,-80.23640441894531,22007281.0,40306.0,0.06250554662191,-0.012820112022657584,-0.0024021688729793057,0.0023821948264389045,-0.0033502652325229916,-0.0014527955165133807,22.007281000027433
1643,A,710167096004000.0,2.327959,10.46508553163158,2.3030886551312633,218,1970-01-09 05:16:07.096004,-0.15339808,0.98430437,-0.28229508,8.605431449763298,1.0354113076169247,-89.03295135498047,-11.382184028625488,-80.2868423461914,22047586.0,40305.0,0.100392516222,0.04172036777691079,0.13293473110856557,0.0032828032114618965,0.0005824124040875876,0.002630557460452652,22.0475860000588
1643,A,710167136294000.0,3.3171022,10.34054453163158,0.04937521513126314,218,1970-01-09 05:16:07.136294,0.7797736,0.85966843,0.2396845,8.874634915569596,1.1851267174171185,-88.98535919189453,-11.369460105895996,-80.33047485351562,22087876.0,40290.0,0.11371975787399999,0.02428741762443631,0.04739038466643859,0.00431329176166392,0.0013297268369101372,0.0036326494572874587,22.087876000092365
1643,A,710167176605000.0,3.1111305,10.17289353163158,0.5427492531312631,218,1970-01-09 05:16:07.176605,0.38029942,0.82344943,0.5432849,8.943539437621906,1.0572866665137093,-88.98039245605469,-11.565367698669434,-80.36758422851562,22128187.0,40311.0,0.12956424418485,0.018410800884100572,0.011934564720065346,0.004903510703497151,0.0008606039431488152,0.00119572401735968,22.128187000053003
1643,A,710167216915000.0,2.6153615,10.10104253163158,0.2170265751312631,218,1970-01-09 05:16:07.216915,0.25353295,0.572047,0.65513766,8.857554587122968,0.9059371283345098,-89.0385971069336,-11.67250919342041,-80.38076782226562,22168497.0,40310.0,0.11541744626,0.013583181355068943,0.015313281818631215,0.004937605970915951,0.0006448387120304615,0.0005491803469874292,22.168497000006028
1643,A,710167257186000.0,6.224656,8.50356453163158,0.7966213351312632,218,1970-01-09 05:16:07.257186,0.24181503,0.22264028,0.69987875,11.828179266958163,0.7732227801312774,-89.02434539794922,-11.63733196258545,-80.39153289794922,22208768.0,40271.0,0.17799817237125,-0.020042734477664678,0.0204103074970911,0.0059080701889495345,-0.00013006633190002645,0.0007193123326667267,22.208768000011332
1643,A,710167297489000.0,7.558682,11.16443203163158,1.582187855131263,218,1970-01-09 05:16:07.297489,0.036218993,-0.39840892,0.3270362,10.625529867715866,0.5167147753838093,-89.02669525146484,-11.621323585510254,-80.37091064453125,22249071.0,40303.0,0.277754935707,0.001370232744597561,0.047936573397575295,0.009184108757438855,-0.00037627891867390205,0.0013772921703488698,22.24907100002747
1643,A,710167337798000.0,4.8834453,3.8883615316315794,-0.5254294448687368,218,1970-01-09 05:16:07.337798,-0.1768339,-1.2719258,-0.44208476,15.497022841073735,1.3581253270295446,-89.1718978881836,-11.81375789642334,-80.28128051757812,22289380.0,40309.0,0.25076485466785,-0.09164667212921267,0.02129843737963608,0.010652052115109913,-0.001819476497577225,0.0013953970247093067,22.289380000089295
1643,A,710167378075000.0,2.3638844,6.192371531631579,-1.303810944868737,218,1970-01-09 05:16:07.378075,-0.6764429,-1.3283848,-1.1451592,12.722377763684797,1.8797794464181403,-89.45104217529297,-11.847816467285156,-80.16676330566406,22329657.0,40277.0,0.14595034916345,-0.19170375720547492,-0.03683815758872812,0.007989249132356635,-0.0057062526211566055,-0.0003129466554308,22.32965700002387
1643,A,710167418386000.0,-1.2382251,4.451191531631579,-0.3434080048687369,218,1970-01-09 05:16:07.418386,-2.5683527,-0.8990832,-1.8716697,14.187861765702692,3.3027161031517105,-89.58877563476562,-11.941778182983398,-80.12163543701172,22369968.0,40311.0,0.022688226021149997,-0.18052146467839944,-0.03320052154143365,0.0033989948021332056,-0.0075023854596804294,-0.0014116645972079753,22.369968000100926
1643,A,710167458695000.0,-4.4906616,4.51825253163158,0.8852370551312632,218,1970-01-09 05:16:07.458695,-3.1798143,0.68389976,-2.3222766,14.744564900641048,3.9964867660384047,-89.7403564453125,-12.057692527770996,-80.15728759765625,22410277.0,40309.0,-0.11546284699515,-0.21425353962696267,0.010920293593516085,-0.0018698260984204827,-0.00795649282427242,-0.0004490468541763046,22.410277000046335
1643,A,710167499000000.0,6.318062,10.44592553163158,-0.4176536448687369,218,1970-01-09 05:16:07.499000,-1.7235979,0.6530071,-1.2825783,10.325737915533244,2.2454877174381758,-89.81948852539062,-12.121697425842285,-80.19093322753906,22450582.0,40305.0,0.036826686561,-0.09342340158008919,0.009422974675315561,-0.0015847152231492079,-0.006200459557675113,0.00040996771378762976,22.450582000077702
1643,A,710167539321000.0,6.2989016,10.963250131631579,-0.8152268448687369,218,1970-01-09 05:16:07.539321,-0.9715212,-0.1107875,-1.2772521,9.95820975972179,1.6085708685538538,-89.86922454833984,-12.185575485229492,-80.18545532226562,22490903.0,40321.0,0.2543642946578,0.0364738859592169,-0.024855487113352344,0.005870555776861619,-0.0011481307096745958,-0.0003111271670070406,22.49090299999807
1643,A,710167579622000.0,3.300337,11.40872383163158,0.44455345113126316,218,1970-01-09 05:16:07.579622,-0.7073356,-0.77870834,-1.4104102,7.874628307662714,1.7595360928599775,-89.9129867553711,-12.256166458129883,-80.14573669433594,22531204.0,40301.0,0.19342945740929998,0.05585666134673425,-0.007469254220506963,0.009023268001028099,0.0018605066934885683,-0.0006513597002479319,22.53120399999898
1643,A,710167619914000.0,0.05269043,15.10663413163158,1.4217214551312631,218,1970-01-09 05:16:07.619914,-0.5390238,-1.7491642,-0.96939063,3.564758944094037,2.071192953121432,-89.9589614868164,-12.304733276367188,-80.05628967285156,22571496.0,40292.0,0.06755009060478,0.1393168015278996,0.03759797426156486,0.005257693974291655,0.003931964583072374,0.0006069731939471524,22.571496000047773
1643,A,710167660218000.0,-0.9316626,13.05649753163158,-0.5541697448687369,218,1970-01-09 05:16:07.660218,0.3153183,-2.1422467,-0.69135666,5.684193902039758,2.273020146259627,-89.96658325195312,-12.339365005493164,-79.9466781616211,22611800.0,40304.0,-0.017713047169840002,0.1725642292780792,0.01748290206521043,0.001004316099300911,0.006285026532802085,0.0011099898197371755,22.611800000071526
1643,A,710167700549000.0,-0.46463382,15.31739593163158,0.43736838513126314,218,1970-01-09 05:16:07.700549,0.8309063,-1.623463,-0.06178534,3.2749352063257136,1.824788979577531,-89.94281005859375,-12.342520713806152,-79.86358642578125,22652131.0,40331.0,-0.028157015457510003,0.17692994863343325,-0.002355357819786028,-0.0009249927479118266,0.007047724844674605,0.0003050544934811058,22.65213100006804
1643,A,710167740805000.0,-0.8047266,14.47674423163158,1.189404555131263,218,1970-01-09 05:16:07.740805,1.257012,0.44421527,0.757403,4.2115157214462124,1.533318518330152,-89.87512969970703,-12.30461597442627,-79.8862533569336,22692387.0,40256.0,-0.02554968653376,0.2051876532061609,0.03274368574160413,-0.0010810084976802827,0.007691263089827351,0.0006116562644103547,22.69238700007554
1643,A,710167781125000.0,5.695357,2.432189531631579,-5.210087844868736,218,1970-01-09 05:16:07.781125,2.3307986,0.70840085,1.7928401,18.03972716830044,3.0246866783537585,-89.75093841552734,-12.21485710144043,-79.92218780517578,22732707.0,40320.0,0.09859510886399998,-0.05425189533261475,-0.08105697512110746,0.0014725957141776382,0.00304286487873069,-0.0009739959138907872,22.73270700010471
1643,A,710171046303000.0,8.078402,2.36273353163158,4.717268555131263,218,1970-01-09 05:16:11.046303,1.7204021,0.068176925,1.7385116,18.576042517452724,2.446804868010816,-89.6642837524414,-12.127918243408203,-79.92522430419922,25997885.0,3265178.0,22.486887432051002,-24.170605751070266,-0.8045713514132113,36.872810355989884,-39.549236120083236,-1.445867063988337,25.997885000077076
1643,A,710171086617000.0,-1.7268091,11.947603231631579,-7.217114444868736,218,1970-01-09 05:16:11.086617,-0.082025364,0.8841695,-1.3113406,10.32991332667033,1.5836975829614512,-89.65877532958984,-12.193220138549805,-79.97084045410156,26038199.0,40314.0,0.12802905808530002,-0.10662374186290455,-0.05038939359943824,0.4558488716916775,-0.48935611488905395,-0.01723344373721998,26.03819900006056
1643,A,710171126885000.0,-2.1124072,2.425004531631579,8.305008155131263,218,1970-01-09 05:16:11.126885,-0.40373522,0.36751625,0.12676647,18.032468615943213,0.5604819888263777,-89.67500305175781,-12.186777114868164,-79.98960876464844,26078467.0,40268.0,-0.0772987809842,-0.1052483152944596,0.021903651962425722,0.0010214033991535478,-0.0042658319988063695,-0.00057353192211961,26.07846700004302
1643,A,710171167201000.0,1.101709,16.40952493163158,1.6061380551312632,218,1970-01-09 05:16:11.167201,0.32384038,-0.95447695,1.4455639,2.6430102531634208,1.762258161786478,-89.66918182373047,-12.114775657653809,-79.94037628173828,26118783.0,40316.0,-0.020373654315599996,-0.015430355079541264,0.19978888530647199,-0.001968880950773368,-0.0024326406373991094,0.00446887816626644,26.11878300004173
1643,A,710171207513000.0,-0.50534916,15.62635353163158,5.275308155131263,218,1970-01-09 05:16:11.207513,0.680704,1.0375676,0.19387813,5.599972888566935,1.255982957479144,-89.62401580810547,-12.10476016998291,-79.99336242675781,26159095.0,40312.0,0.012020228935040001,0.2506575663055322,0.13870242981405148,-0.00016837164197056726,0.004741239669471074,0.006822630947569271,26.159095000009984
1643,A,710171247788000.0,3.791316,6.70490553163158,2.219262955131263,218,1970-01-09 05:16:11.247788,0.3334278,0.06498113,1.0460896,12.558564510081775,1.099863671687122,-89.41876983642578,-12.191424369812012,-80.03589630126953,26199370.0,40275.0,0.0661711572405,0.05500072938646184,0.15092192573291163,0.0015745790391099366,0.00615519392949753,0.005832310459826969,26.199370000045747
1643,A,710171288087000.0,-2.7854078,10.21121453163158,-1.124184444868737,218,1970-01-09 05:16:11.288087,1.9366508,-0.6892261,0.92784536,8.953425821966908,2.2553372142842365,-89.32947540283203,-12.145410537719727,-80.00013732910156,26239669.0,40299.0,0.0202685472759,-0.054078838785279,0.02206528444253477,0.0017417168261532018,1.857563466853366e-05,0.0034856057914301576,26.239669000031427
1643,A,710171328344000.0,3.0799952,8.18023753163158,-0.3529880848687369,218,1970-01-09 05:16:11.328344,1.5574167,1.2623384,0.13954964,10.861049810827351,2.009606706691033,-89.37361145019531,-12.247167587280273,-80.03604125976562,26279926.0,40257.0,0.005929602480899994,-0.024326257144607528,-0.029733267264820742,0.0005273294573797488,-0.001578176973424721,-0.0001543449922383832,26.279926000046544
1643,A,710171368655000.0,2.5459058,10.87223953163158,2.944953955131263,218,1970-01-09 05:16:11.368655,-0.74248934,1.5382419,-0.17896444,8.448587129877142,1.7174128314746455,-89.3940200805664,-12.255294799804688,-80.11485290527344,26320237.0,40311.0,0.11339284760549999,-0.011035598551399413,0.05224236809807634,0.002405003642716435,-0.0007127358824808679,0.00045368218184468326,26.320237000007182
1643,A,710171408981000.0,3.4584084,10.69740293163158,1.0720485551312633,218,1970-01-09 05:16:11.408981,0.30360037,1.2101405,0.007456851,8.604668102602625,1.2476653473713308,-89.3656997680664,-12.254271507263184,-80.17676544189453,26360563.0,40326.0,0.12106498721459999,0.039713900986775054,0.08099482161442331,0.004727373323477676,0.000578240612004479,0.0026864614561731303,26.36056300008204
1643,A,710171449250000.0,2.8883936,10.26869453163158,0.8517067851312632,218,1970-01-09 05:16:11.449250,0.53795856,0.50387007,0.40266997,8.783851010922755,0.8398973535253456,-89.2950668334961,-12.407109260559082,-80.21054077148438,26400832.0,40269.0,0.127789684869,0.027505689374072044,0.03873385189851584,0.005010564395067244,0.001353432842120476,0.002410676976846273,26.400832000072114
1643,A,710171489553000.0,2.6584718,9.612459531631579,-1.5361278448687368,218,1970-01-09 05:16:11.489553,0.43995422,0.85753787,0.5422196,9.558226904996724,1.1058630153884819,-89.26371765136719,-12.379463195800781,-80.25408172607422,26441135.0,40303.0,0.11177765810809999,0.005665676105847514,-0.013792110985299698,0.00482764131200303,0.0006684527714685989,0.000502613492012675,26.441135000088252
1643,A,710171529830000.0,4.4283915,9.22446653163158,2.370149155131263,218,1970-01-09 05:16:11.529830,0.13422333,0.535828,0.80747044,10.493147250790788,0.9783333068919214,-89.25125122070312,-12.3387451171875,-80.28096771240234,26481412.0,40277.0,0.14271879656705,-0.015367164474974914,0.016795938156721885,0.005125176852475508,-0.00019537342352167215,6.049257349168573e-05,26.48141200002283
1643,A,710171570137000.0,8.784932,11.97873883163158,2.204892955131263,218,1970-01-09 05:16:11.570137,0.05539375,-0.15233281,0.65513766,11.102364922386002,0.6748919217858769,-89.250244140625,-12.3060941696167,-80.27274322509766,26521719.0,40307.0,0.26629471515725,0.03231019928852404,0.09220311116917583,0.008243053808535681,0.00034146145211486236,0.0021967123405894798,26.521719000069425
1643,A,710171610470000.0,7.3455253,4.58052253163158,1.012173095131263,218,1970-01-09 05:16:11.610470,0.05006743,-1.3124058,-0.11504856,15.797290292154482,1.3183898901988436,-89.26204681396484,-12.31269645690918,-80.20565032958984,26562052.0,40333.0,0.32529486714045003,-0.06132105571775353,0.06487696250261923,0.011930291311406566,-0.0005850474361800565,0.003167755305702255,26.562052000081167
1643,A,710171650744000.0,1.5160475,3.9817675316315793,0.006264855131263181,218,1970-01-09 05:16:11.650744,0.14274544,-1.510545,-0.8628642,14.664102758646463,1.7454675835739355,-89.34236145019531,-12.197978973388672,-80.11383819580078,26602326.0,40274.0,0.1784454914736,-0.22226636499606978,0.02050828500443649,0.010143819601411126,-0.005710599890914259,0.001719402729049581,26.602326000109315
1643,A,710171691052000.0,-0.95561284,6.587549531631581,-1.646298644868737,218,1970-01-09 05:16:11.691052,-1.5243934,-1.099353,-1.4732608,12.204143373925787,2.3880639944082738,-89.43033599853516,-12.272223472595215,-80.05841064453125,26642634.0,40308.0,0.011295000137639998,-0.18200438390699428,-0.033053240998369045,0.003824029867932931,-0.008147672673392352,-0.00025283104310171666,26.64263400004711
1643,A,710171731329000.0,-5.352869,3.8284865316315795,1.5294973551312632,218,1970-01-09 05:16:11.731329,-3.4045851,-0.015978966,-1.9995013,15.70366277710459,3.9483490827430807,-89.60054779052734,-12.372199058532715,-80.05845642089844,26682911.0,40277.0,-0.12704336153484,-0.18495125773997487,-0.0023522027733781144,-0.002330998375997512,-0.007389936189307488,-0.0007130125293973302,26.682911000098102
1643,A,710171771640000.0,2.339934,9.98608253163158,-1.646298644868737,218,1970-01-09 05:16:11.771640,-2.1049626,1.0205233,-1.6831179,9.148238286767615,2.881878071421839,-89.6944580078125,-12.45604133605957,-80.11125183105469,26723222.0,40311.0,-0.0607272113925,-0.11660825324539943,-0.0023541883953036515,-0.0037846097826370016,-0.006078082723665712,-9.485966720036532e-05,26.72322200005874
1643,A,710171811965000.0,6.6102543,10.10583353163158,2.724612155131263,218,1970-01-09 05:16:11.811965,-0.90654004,0.58056915,-1.401888,10.951944885612258,1.7675308615690206,-89.73326873779297,-12.525989532470703,-80.1413345336914,26763547.0,40325.0,0.18045817159875002,0.009918257625543424,0.021741496150668182,0.0024140754851585157,-0.0021511370366853466,0.00039089659261753735,26.763547000009567
1643,A,710171852253000.0,2.191443,9.95015753163158,0.8062014051312631,218,1970-01-09 05:16:11.852253,-0.3121225,-0.18961707,-1.8322549,8.886550617775805,1.8682968465465128,-89.71202087402344,-12.661514282226562,-80.14051818847656,26803835.0,40288.0,0.1773013904112,0.009185483978373078,0.07112470835792832,0.007206708617128433,0.00038482577086929395,0.0018706968236211678,26.803835000027902
1643,A,710171892568000.0,0.100590825,14.61326033163158,-0.4056785448687369,218,1970-01-09 05:16:11.892568,-0.14487597,-1.4796523,-1.4828482,4.055478916682876,2.099809219863074,-89.73584747314453,-12.736011505126953,-80.0650405883789,26844150.0,40315.0,0.04620167182743749,0.10005009557872711,0.008073539555741872,0.004505262977075334,0.002201916194922247,0.0015964386823198067,26.844150000019
1643,A,710171932850000.0,-0.6179151,14.71864103163158,-1.703779144868737,218,1970-01-09 05:16:11.932850,0.0777643,-1.8333201,-0.624245,4.484933762634756,1.938244488046722,-89.75267028808594,-12.767632484436035,-79.97119903564453,26884432.0,40282.0,-0.010419428222775,0.19601022535748328,-0.042486587329002456,0.0007206901684415072,0.005962950923976213,-0.0006931131952012413,26.884432000108063
1643,A,710171973143000.0,0.37601808,14.83360193163158,-0.2595823048687369,218,1970-01-09 05:16:11.973143,0.08522116,-0.9619338,0.27377295,3.8257198936255095,1.0037583921671032,-89.75932312011719,-12.754151344299316,-79.92182922363281,26924725.0,40293.0,-0.004873378313430002,0.20050286285938126,-0.03955486144713602,-0.0003080965268816541,0.007988350931761062,-0.0016528480477684738,26.924725000048056
1643,A,710172013449000.0,-0.20357667,15.44433193163158,0.9475075551312631,218,1970-01-09 05:16:12.013449,0.34408042,0.20879184,1.0365024,3.1478805328505097,1.1119004420737146,-89.73980712890625,-12.702281951904297,-79.93229675292969,26965031.0,40306.0,0.00347521173573,0.21519240114634247,0.01386375756854069,-2.8177251040388135e-05,0.008377506655507351,-0.0005177528164653317,26.965031000087038
1643,A,710172053737000.0,0.68018556,11.42788413163158,0.6505251391312632,218,1970-01-09 05:16:12.053737,1.1046792,0.26418558,1.933455,7.163345124933534,2.2424001410581424,-89.66385650634766,-12.424704551696777,-79.9491195678711,27005319.0,40288.0,0.009600809480159999,0.14649152037837307,0.032190770593224324,0.0002634033713728881,0.007285760915193869,0.0009277224152905944,27.005319000105374
1643,A,710172094040000.0,17.74949,-17.396175468368423,-16.62475084486874,218,1970-01-09 05:16:12.094040,2.1475732,-0.25992453,2.6567695,43.612485852686895,3.4260845854684048,-89.5595474243164,-12.291962623596191,-79.9349136352539,27045622.0,40303.0,0.37138560704733997,-0.5152394228722526,-0.32190460930916875,0.007677447772653915,-0.007430823357105412,-0.005838168420884354,27.045622000005096
1643,A,710172134328000.0,2.3926246,16.74003753163158,0.04698018513126312,218,1970-01-09 05:16:12.134328,0.36112466,0.4282363,-0.4079963,3.0435470481550833,0.6930067312165846,-89.53677368164062,-12.3121919631958,-79.95699310302734,27085910.0,40288.0,0.40574275650240005,-0.408039642597627,-0.3339426121697517,0.01565447375534596,-0.01859853349482525,-0.013211386429471372,27.085910000023432
1643,A,710172174631000.0,-4.6199927,2.2405895316315814,0.33917258513126314,218,1970-01-09 05:16:12.174631,-0.08841695,1.1217234,-1.0705907,16.95978415822276,1.553140492705458,-89.5288314819336,-12.365264892578125,-80.01483917236328,27126213.0,40303.0,-0.04488480826715,-0.012481293734652456,0.007781557549945297,0.007271828943862641,-0.008474127648499929,-0.006572634492171028,27.12621300003957
1643,A,710172214937000.0,1.7387843,8.38860453163158,2.782092655131263,218,1970-01-09 05:16:12.214937,-0.2972088,0.17576863,1.7310548,10.559617057847207,1.7651567643392347,-89.54190826416016,-12.27863883972168,-80.02311706542969,27166519.0,40306.0,-0.058064992885200006,-0.18078865204305752,0.0629028583870107,-0.0020747473426233095,-0.003894969217258189,0.001424503034377474,27.16651900007855
1643,A,710172255226000.0,1.3004956,16.82865333163158,3.591609255131263,218,1970-01-09 05:16:12.255226,0.6945524,0.13209279,0.9715212,3.748352635533243,1.2015427514513097,-89.5058364868164,-12.230015754699707,-80.02946472167969,27206808.0,40289.0,0.06122477394555,0.11315685102650466,0.12839503813128345,6.365220957022049e-05,-0.001362408815577949,0.0038536004764127764,27.206808000104502
1643,A,710172295520000.0,-0.17004639,14.96532803163158,5.656116155131263,218,1970-01-09 05:16:12.295520,0.112918034,0.2790993,0.036218993,6.26133488962907,0.3032469573084769,-89.4971923828125,-12.228086471557617,-80.04373168945312,27247102.0,40294.0,0.022775160233870002,0.24567214252566288,0.18631392384055911,0.001692346673912775,0.007229327733095521,0.006340441456846713,27.24710200005211
1643,A,710172335813000.0,4.9337406,2.4154245316315794,2.0611917551312633,218,1970-01-09 05:16:12.335813,0.6828345,-0.05752428,1.0769824,16.948808733889443,1.2765042448380375,-89.3436508178711,-12.292556762695312,-80.06582641601562,27287395.0,40293.0,0.09597176540176502,-0.04471006848421878,0.155476743814104,0.002392334937318321,0.004048682424675954,0.006885885685904671,27.287395000108518
1643,A,710172376108000.0,-3.163821,11.74642183163158,-4.309560844868736,218,1970-01-09 05:16:12.376108,2.932673,0.43995422,0.6125271,8.935002100027761,3.0280885206445367,-89.19232177734375,-12.261655807495117,-80.08795166015625,27327690.0,40295.0,0.035659455141,-0.10956520039615553,-0.04529901623548573,0.002652040015885358,-0.003108260979767341,0.0022198057663902113,27.32769000006374
1643,A,710172416402000.0,3.1949563,8.28322353163158,2.801252855131263,218,1970-01-09 05:16:12.416402,0.8511463,1.4508902,0.12676647,10.99685969356795,1.6868912633527955,-89.13401794433594,-12.254255294799805,-80.16207122802734,27367984.0,40294.0,0.0006272828890999973,0.008656065133662828,-0.030387881069240875,0.0007310689110924247,-0.002033016348133441,-0.001524863919998327,27.367984000011347
1643,A,710172456688000.0,2.2728736,11.06144623163158,2.741377355131263,218,1970-01-09 05:16:12.456688,-1.1100056,1.1547467,-0.16831179,8.13934292730039,1.6105530825915841,-89.17695617675781,-12.261821746826172,-80.22126770019531,27408270.0,40286.0,0.1101384976757,-0.005143116958590217,0.11164520032531808,0.0022311551179167665,7.07613150904876e-05,0.0016367661817751633,27.408270000014454
1643,A,710172496982000.0,3.163821,10.62076253163158,0.7080056051312631,218,1970-01-09 05:16:12.496982,0.6221144,0.79894835,0.3121225,8.546265344929042,1.0596061757376334,-89.12627410888672,-12.48121166229248,-80.26435089111328,27448564.0,40294.0,0.10953308610620001,0.04195025995346287,0.06949471850040913,0.0044257233984539394,0.0007415535099176994,0.0036494259445819265,27.448564000078477
1643,A,710172537281000.0,3.2620168,10.11062353163158,0.3727028551312631,218,1970-01-09 05:16:12.537281,0.5006743,0.7350325,0.5028048,9.05657233119252,1.0216458278874239,-89.13960266113281,-12.670623779296875,-80.29154205322266,27488863.0,40299.0,0.1294774187511,0.022796863481721025,0.021775735120059776,0.004815942167622167,0.0013046221636572378,0.0018390540052256382,27.488863000064157
1643,A,710172577560000.0,2.5339308,10.929719931631581,1.2444900051312633,218,1970-01-09 05:16:12.577560,0.21837921,0.76592517,0.5635249,8.069614542111886,0.975649095894504,-89.01109313964844,-12.78325366973877,-80.35440826416016,27529142.0,40279.0,0.1167274866902,0.029007797178388407,0.03256945560925715,0.004958443693135061,0.0010433199633642738,0.0010944849686930784,27.529142000013962
1643,A,710172617822000.0,8.784932,7.260549531631581,0.23618675513126314,218,1970-01-09 05:16:12.617822,0.18429075,0.1768339,0.6945524,14.314013414403618,0.7400245570726234,-89.0,-12.748381614685059,-80.36284637451172,27569404.0,40262.0,0.2278600270268,-0.028379285435049317,0.02980750386084492,0.006936891238636928,1.265256990515922e-05,0.0012557105710926245,27.569404000067152
1643,A,710172658250000.0,8.052056,7.92157553163158,1.7258890551312631,218,1970-01-09 05:16:12.658250,0.027696876,-0.81066626,0.16405073,13.393819478956031,0.8275624109733838,-89.00782775878906,-12.740882873535156,-80.32115936279297,27609832.0,40428.0,0.3403428754319999,-0.08930292397119849,0.0396614004286467,0.011485653470302181,-0.002378828180937893,0.0014042444313077836,27.60983200010378
1643,A,710172698558000.0,2.6488917,3.2752375316315803,1.0840236951312632,218,1970-01-09 05:16:12.698558,-0.31638354,-1.8152106,-0.9438243,15.520347494699953,2.0702396904720435,-89.01664733886719,-12.716863632202148,-80.2349624633789,27650140.0,40308.0,0.2156668999458,-0.16935782952299427,0.056630981568790956,0.01120582101296418,-0.005213048825921961,0.0019406766667763584,27.650140000041574
1643,A,710172738869000.0,-1.4250367,6.04866953163158,-3.279702144868737,218,1970-01-09 05:16:12.738869,-1.3869743,-1.1685951,-1.8098843,13.15409607873352,2.5622243063383405,-89.09890747070312,-12.808306694030762,-80.17659759521484,27690451.0,40311.0,0.024667409452500004,-0.2071197911863994,-0.044254996993683654,0.004844058173077435,-0.007588094684208184,0.0002494441571035752,27.690451000002213
1643,A,710172779176000.0,-6.9934573,2.2980685316315785,2.271953355131263,218,1970-01-09 05:16:12.779176,-3.193663,0.13848437,-2.2221417,17.785412234130447,3.893144617553037,-89.25663757324219,-12.9193115234375,-80.18534088134766,27730758.0,40307.0,-0.16966211882900004,-0.22679261444202597,-0.02030966523397418,-0.0029221508754192936,-0.008744853666832472,-0.0013012039202051021,27.73075800004881
1643,A,710172819505000.0,1.1136842,10.50580153163158,-1.4115867448687367,218,1970-01-09 05:16:12.819505,-2.2945797,0.95660746,-1.4231933,8.357551327411304,2.864554590393528,-89.36017608642578,-12.989889144897461,-80.23529815673828,27771087.0,40329.0,-0.11856268467495,-0.13704056210933008,0.01734886251263871,-0.0058119090502554,-0.007336514088569819,-5.970310647436913e-05,27.771087000030093
1643,A,710172859814000.0,6.478528,9.66514953163158,1.0720485551312633,218,1970-01-09 05:16:12.859814,-1.3060142,0.52411014,-1.0801781,11.015650620646216,1.7740206473353317,-89.41929626464844,-13.043622016906738,-80.2627944946289,27811396.0,40309.0,0.15301724078489998,0.011507233204537304,-0.006843222445063907,0.0006944143511179868,-0.0025300614774116455,0.00021173592274193633,27.811396000091918
1643,A,710172900093000.0,3.7985013,10.56328203163158,0.8564968151312631,218,1970-01-09 05:16:12.900093,-0.9395633,0.025566347,-1.530785,8.857084441425373,1.796311651420993,-89.46578979492188,-13.120141983032227,-80.26485443115234,27851675.0,40279.0,0.20697423158734998,0.012656297468338368,0.038839939484402154,0.007250048257840928,0.0004866414259863797,0.0006443978828137527,27.851675000041723
1643,A,710172940400000.0,0.37122804,14.81444193163158,-0.024870444868736907,218,1970-01-09 05:16:12.940400,-0.64555025,-1.24849,-1.3347764,3.802592738318786,1.9383215531412796,-89.51249694824219,-13.187431335449219,-80.20136260986328,27891982.0,40307.0,0.08403464025369001,0.11644135989362406,0.016760182053085822,0.005864847298648399,0.00260176963764431,0.001120537049405764,27.89198200008832
1643,A,710172980705000.0,-0.96758795,14.66355553163158,-1.4882273448687369,218,1970-01-09 05:16:12.980705,-0.14487597,-1.6447684,-0.69029135,4.492013086044102,1.789624062256323,-89.53898620605469,-13.22263240814209,-80.11720275878906,27932287.0,40305.0,-0.012018143086275,0.19906634387841082,-0.030492703207684442,0.001451312459166331,0.006358269000265933,-0.00027674463256804866,27.93228700000327
1643,A,710173021011000.0,0.45026368,15.08268403163158,0.2529518551312631,218,1970-01-09 05:16:13.021011,0.098004326,-1.0120013,0.20133498,3.51521741390297,1.03647829368878,-89.673828125,-13.067805290222168,-80.03607940673828,27972593.0,40306.0,-0.010425636013310001,0.20447716591844245,-0.02489450694467931,-0.00045230948019393656,0.008132612352935985,-0.0011162184462005867,27.972593000042252
1643,A,710173061312000.0,-0.07903565,15.039573731631581,0.7606960351312632,218,1970-01-09 05:16:13.061312,0.39095205,-0.0010652645,1.0098706,3.5266742977224443,1.0829050138086984,-89.65435791015625,-13.017311096191406,-80.03570556640625,28012894.0,40301.0,0.007480430418514999,0.21202875505863428,0.020425511812735036,-5.934736533791668e-05,0.008392802560648584,-9.005248640624311e-05,28.01289400004316
1643,A,710173101618000.0,3.7458107,6.448637531631579,-0.621230344868737,218,1970-01-09 05:16:13.101618,1.6117451,0.12783173,1.9078887,12.727585048887113,2.5008203674307543,-89.71393585205078,-13.0258150100708,-80.00980377197266,28053200.0,40306.0,0.07389651758265,0.038053121588542446,0.0028106520558606905,0.0016399896330674783,0.005039900060070553,0.0004682784104438097,28.053200000082143
1643,A,710173141936000.0,8.837623,-5.694110468368422,-13.139997844868736,218,1970-01-09 05:16:13.141936,2.5395904,-0.18216023,2.0463731,29.208757920170743,3.266549343507522,-89.58921813964844,-12.923553466796875,-79.99983215332031,28093518.0,40318.0,0.2536694399583,-0.37990588893167804,-0.27741259907691773,0.0066034021380680106,-0.00689140993687027,-0.005535700649997489,28.093518000096083
1643,A,710173182245000.0,2.914739,14.119885931631579,-3.227011644868737,218,1970-01-09 05:16:13.182245,0.07243799,0.43036684,-0.5368933,6.504786659008057,0.6918939911227121,-89.58059692382812,-12.950243949890137,-80.0220947265625,28133827.0,40309.0,0.23686297992900002,-0.22521090842566271,-0.32986889276091386,0.009886435656618587,-0.012195826492338524,-0.012239454827245574,28.133827000041492
1643,A,710173222591000.0,-4.799619,0.4155845316315805,5.004670655131264,218,1970-01-09 05:16:13.222591,0.008522116,0.42077947,-0.49428272,19.29233428189555,0.649186718999393,-89.57528686523438,-12.97480297088623,-80.04386901855469,28174173.0,40346.0,-0.03802368424,-0.10216675434459231,0.03586071521402595,0.004011185111934198,-0.006604189591064355,-0.00593102696565337,28.174173000035807
1643,A,710173262909000.0,3.8272414,9.90704653163158,1.792949455131263,218,1970-01-09 05:16:13.262909,0.09161274,-0.08841695,1.6447684,9.543447709267602,1.6496889224384608,-89.57184600830078,-12.892600059509277,-80.0386962890625,28214491.0,40318.0,-0.019602160038399995,-0.18702248039567795,0.13703322380278227,-0.0011616793948082654,-0.005829765783129108,0.003485368916639837,28.214491000049748
1643,A,710173303201000.0,0.102985844,16.70171723163158,4.087378255131263,218,1970-01-09 05:16:13.303201,0.3653857,0.49747851,0.5539375,4.013140369023403,0.829360194115054,-89.5479507446289,-12.864712715148926,-80.06401062011719,28254783.0,40292.0,0.07917835805762401,0.1411985547746996,0.11846508205094884,0.0012002220852952868,-0.0009231688055602302,0.005147268869729268,28.25478300009854
1643,A,710173343509000.0,0.059875492,15.11381933163158,5.500439655131263,218,1970-01-09 05:16:13.343509,-0.098004326,-0.004261058,-0.035153728,6.046698221301583,0.10420551387662566,-89.55289459228516,-12.866469383239746,-80.06380462646484,28295091.0,40308.0,0.003282307365744,0.24619192389600572,0.19323288216343093,0.0016619122509425588,0.007807467707129394,0.00628196077077661,28.295091000036336
1643,A,710173383811000.0,4.071533,3.6871805316315793,0.3535427051312631,218,1970-01-09 05:16:13.383811,1.2665994,-0.48363006,0.7978831,15.419008606109768,1.5731463747158347,-89.52310943603516,-12.887933731079102,-80.03246307373047,28335393.0,40302.0,0.08325201252229199,-0.016100651755384096,0.11796359854165014,0.0017437530800638132,0.004636569224905666,0.006270920282688089,28.33539300004486
1643,A,710173424113000.0,-2.8213332,10.24234953163158,-3.260541844868737,218,1970-01-09 05:16:13.424113,2.7409256,0.51771855,0.40266997,9.564605132222775,2.818306006538194,-89.38018035888672,-12.867552757263184,-80.05880737304688,28375695.0,40302.0,0.025192776169799987,-0.11426563969518409,-0.05857893966484983,0.0021852709369343452,-0.0026270111390203996,0.001196660261026403,28.375695000053383
1643,A,710173464419000.0,2.4213648,9.57413853163158,4.621467655131264,218,1970-01-09 05:16:13.464419,-0.13954964,1.5180018,0.38456047,10.163856939006093,1.572161035617532,-89.3698959350586,-12.847501754760742,-80.1364517211914,28416001.0,40306.0,-0.008060563165200003,0.004362883938942429,0.027426737854220704,0.0003452654886817035,-0.0022148702367555386,-0.0006278103230896088,28.416001000092365
1643,A,710173504718000.0,3.5613942,10.95846053163158,1.2828103051312632,218,1970-01-09 05:16:13.504718,-0.5944176,0.6775082,0.16831179,8.426145131809058,0.9168852179580627,-89.39190673828125,-12.838722229003906,-80.17109680175781,28456300.0,40299.0,0.12054960247049999,0.018791404825221004,0.11896824876030979,0.0022665978974821424,0.0004665473414535111,0.002949785782789482,28.456300000078045
1643,A,710173545004000.0,3.300337,10.31420053163158,0.09488058513126313,218,1970-01-09 05:16:13.545004,0.75101143,0.5422196,0.36751625,8.890450396441418,0.9965382364108603,-89.43470764160156,-13.043560981750488,-80.17940521240234,28496586.0,40286.0,0.1382158515616,0.03369241179730979,0.027750827602558068,0.00521231254056859,0.0010571815182276378,0.0029553623551772474,28.49658600008115
1643,A,710173585287000.0,1.9255958,9.70586453163158,-0.14701644486873688,218,1970-01-09 05:16:13.585287,0.52411014,0.6135923,0.4495416,9.084332631210453,0.9237286395910163,-89.52526092529297,-13.001812934875488,-80.18274688720703,28536869.0,40283.0,0.10525812549119999,0.008460740471714887,-0.0010500944189023277,0.004903931108808971,0.0008490277164265605,0.0005377928174186021,28.536869000061415
1643,A,710173625600000.0,3.5661843,10.09625353163158,1.4289065551312632,218,1970-01-09 05:16:13.625600,0.36112466,0.5581986,0.6348976,9.226215612173403,0.9192886704337411,-89.50084686279297,-12.969834327697754,-80.21112823486328,28577182.0,40313.0,0.11069506558565,0.004073992742163859,0.025838418007506615,0.0043528604959405266,0.000252656350025547,0.0004996458444137023,28.577182000037283
1643,A,710173665908000.0,8.064031,9.47354753163158,0.6553151751312631,218,1970-01-09 05:16:13.665908,0.12144015,-0.18748654,0.66365975,12.147789700629643,0.7002450831553597,-89.49697875976562,-12.93674087524414,-80.20120239257812,28617490.0,40308.0,0.23439535915619997,-0.000608629370994301,0.042005404751710954,0.006954952420247244,6.984093338255127e-05,0.0013673244038892708,28.617490000091493
1643,A,710173706221000.0,6.6198344,7.902415531631579,0.6122048211312632,218,1970-01-09 05:16:13.706221,-0.084155895,-0.99921805,0.05539375,12.54461169794237,1.0042845182756308,-89.5126724243164,-12.934402465820312,-80.14990997314453,28657803.0,40313.0,0.29597533293510003,-0.04482880051533617,0.025548766804665612,0.01069041685513829,-0.0009158595555038202,0.0013616556589761044,28.65780300006736
1643,A,710173746527000.0,2.6273365,4.405686531631581,-1.634323544868737,218,1970-01-09 05:16:13.746527,-0.2908172,-1.2836437,-0.87351686,14.555909080095908,1.5796668943387366,-89.77259826660156,-12.919039726257324,-80.0328369140625,28698109.0,40306.0,0.1863582351477,-0.14695361911905758,-0.02059875863948131,0.009720468397572669,-0.003864991102891937,9.975751455295926e-05,28.698109000106342
1643,A,710173786833000.0,-0.66342044,5.99118953163158,-0.4487889048687369,218,1970-01-09 05:16:13.786833,-1.7502295,-0.737163,-1.804558,12.622234948334244,2.619759944461181,-89.86854553222656,-13.00938606262207,-79.99531555175781,28738415.0,40306.0,0.039578800357180005,-0.18547055669705756,-0.04198096519955931,0.004553309076529847,-0.0066993444152221695,-0.0012611691745281857,28.73841500002891
1643,A,710173827131000.0,-5.48699,2.8010235316315804,1.4193264551312632,218,1970-01-09 05:16:13.827131,-2.9987195,0.20879184,-2.3744745,16.7085128648091,3.8306711974902106,-90.01600646972656,-13.128097534179688,-80.00614929199219,28778713.0,40298.0,-0.12392461995556,-0.21776609898831062,0.019555361100239643,-0.0016994839190877587,-0.008124815375404482,-0.00045185349699719193,28.778713000006974
1643,A,710173867444000.0,4.751719,9.31547653163158,-0.45836897486873684,218,1970-01-09 05:16:13.867444,-1.8482338,0.6380934,-1.5712651,10.439293277600175,2.5083870078327246,-90.1009750366211,-13.206694602966309,-80.03882598876953,28819026.0,40313.0,-0.014820489911500001,-0.15084116647483614,0.01936953945091161,-0.0027966158070353952,-0.007429832346307918,0.0007845897579592803,28.819026000099257
1643,A,710173907751000.0,6.816226,10.09625353163158,-0.7170310448687368,218,1970-01-09 05:16:13.907751,-1.200553,-0.013848438,-1.1408982,10.93694184646874,1.6562511849980002,-90.16120910644531,-13.263739585876465,-80.03797912597656,28859333.0,40307.0,0.23313457955750003,-0.0037942981700259254,-0.023688424297779176,0.004399793005680662,-0.0031164458367202276,-8.704064576134546e-05,28.859333000029437
1643,A,710173948061000.0,2.0046315,10.84110403163158,0.6265749451312631,218,1970-01-09 05:16:13.948061,-0.8948221,-0.36325517,-1.5776566,7.973456579296029,1.8497732987324957,-90.18861389160156,-13.375035285949707,-80.02404022216797,28899643.0,40310.0,0.1777843829125,0.02695444168756898,-0.0018231426902087825,0.00828207168858285,0.00046679269259608026,-0.0005141856326428973,28.899643000098877
1643,A,710173988360000.0,0.15328126,14.93898303163158,0.14038595513126312,218,1970-01-09 05:16:13.988360,-0.65194184,-1.2154667,-1.2420983,3.6430963119462922,1.8561238235673734,-90.23574829101562,-13.436912536621094,-79.9613265991211,28939942.0,40299.0,0.04348086315762,0.12452566428122101,0.015453878659839772,0.004458384075689883,0.0030522483952181343,0.0002746525144200796,28.939942000084557
1643,A,710174028666000.0,-0.9316626,14.53661953163158,0.16194111513126314,218,1970-01-09 05:16:14.028666,0.165116,-1.71188,-0.67324716,4.14419932728608,1.8469050236284663,-90.24801635742188,-13.470220565795898,-79.87317657470703,28980248.0,40306.0,-0.01568671914502,0.1990230184574424,0.006092797447000692,0.0005601353842859279,0.006520476603232284,0.0004342301635811559,28.980248000007123
1643,A,710174069004000.0,0.8095166,15.05633883163158,-0.012895304868736912,218,1970-01-09 05:16:14.069004,0.62317973,-1.6895094,-0.101200126,3.634766404304676,1.8036176019527113,-90.45123291015625,-13.463274955749512,-79.73641204833984,29020586.0,40338.0,-0.0024635626739999993,0.20154797722865467,0.003006104947184891,-0.00036607303400781443,0.008079116411992892,0.00018351576238832902,29.020586000056937
1643,A,710174109325000.0,-0.39757326,14.76893653163158,1.349870895131263,218,1970-01-09 05:16:14.109325,0.96406436,0.05752428,0.66365975,3.896781532340074,1.1718248148856512,-90.40229797363281,-13.430116653442383,-79.73963165283203,29060907.0,40321.0,0.008304983706070001,0.2061466639610669,0.02695409638748766,0.00011776596871704729,0.008219327813705381,0.000604012639007666,29.06090700009372
1643,A,710174149628000.0,4.054768,3.0932155316315804,-0.5661448448687368,218,1970-01-09 05:16:14.149628,1.9899141,0.84688526,1.7512947,16.02496574144697,2.7828054001730282,-90.38338470458984,-13.374168395996094,-79.7626953125,29101210.0,40303.0,0.07369795980311,-0.035020242697152454,0.015793255501865295,0.0016524823161252406,0.003448454078099772,0.000861423261598296,29.10121000010986
1643,A,710174189944000.0,8.760982,-2.3530594683684214,-15.855949844868737,218,1970-01-09 05:16:14.189944,2.3734093,-0.5795039,2.1315942,27.974023286566936,3.2423124940257284,-90.27141571044922,-13.267423629760742,-79.73353576660156,29141526.0,40316.0,0.2583398885,-0.3801767340767413,-0.331036584755728,0.006693218946094091,-0.00836954065780815,-0.006354675031099364,29.14152600010857
1643,A,710174230200000.0,4.102669,13.16666853163158,2.784487555131263,218,1970-01-09 05:16:14.230200,-0.4261058,0.29507825,-0.4878911,7.1397504050647,0.7118111068787227,-90.28926849365234,-13.291889190673828,-79.74857330322266,29181782.0,40256.0,0.25891956732800003,-0.1768524767746392,-0.2631023929678359,0.010411398326905985,-0.011211883956016586,-0.011958829343619895,29.181781999999657
1643,A,710174270520000.0,-2.8404932,2.3579445316315812,3.572449055131263,218,1970-01-09 05:16:14.270520,0.11504856,0.813862,-0.7392935,16.72594897230364,1.1055145432531965,-90.27393341064453,-13.329055786132812,-79.79020690917969,29222102.0,40320.0,0.025445464127999994,-0.08215980064461471,0.12815584206289252,0.00573279903415296,-0.005221687512772159,-0.0027205224662436582,29.222102000028826
1643,A,710177535531000.0,1.0466236,4.20689953163158,3.277861655131263,218,1970-01-09 05:16:17.535531,0.22690132,0.6103965,0.86392945,14.648955806148683,1.081869766102785,-90.25531768798828,-13.286001205444336,-79.82176971435547,32487113.0,3265011.0,-2.9285019882828,-21.279963760080545,11.183169911212481,-4.739255742493594,-34.87378420456341,18.46580150451369,32.48711300001014
1643,A,710177575893000.0,-0.009580079,17.813006431631578,2.983274155131263,218,1970-01-09 05:16:17.575893,0.71585774,-0.1107875,0.9353022,2.563133080642684,1.1830115719632661,-90.22078704833984,-13.239214897155762,-79.8162841796875,32527475.000000004,40362.000000003725,0.020928575297302934,0.048836122244618266,0.12635598178691973,-0.05867773904746574,-0.4284653868592064,0.228237542046642,32.52747500000987
1643,A,710177616208000.0,-0.25147706,16.05027203163158,5.924358455131263,218,1970-01-09 05:16:17.616208,-0.09161274,1.1792477,0.07669904,5.9533165002982145,1.1852851027590448,-90.21150207519531,-13.235604286193848,-79.87686920166016,32567790.000000004,40315.0,-0.0052622592793925,0.287512035623227,0.17955560434136686,0.00031579376513102953,0.006779937992221091,0.006166412797380937,32.56779000000097
1643,A,710177656652000.0,5.8031325,6.13728553163158,1.9031204551312633,218,1970-01-09 05:16:17.656652,0.24501082,-0.3888215,0.9960223,13.777891347621521,1.0969379576241367,-90.20377349853516,-13.185733795166016,-79.8570785522461,32608234.000000004,40444.0,0.11226557630768001,0.05232558904430757,0.1582872785233288,0.00216382107694603,0.006872196446026884,0.006831858777289875,32.60823400004301
1643,A,710177696971000.0,-1.695674,9.34182153163158,-2.388754844868737,218,1970-01-09 05:16:17.696971,2.2871227,-0.72437984,0.8021441,9.815002773785293,2.5296425744793525,-90.09785461425781,-13.145527839660645,-79.81998443603516,32648553.0,40318.999999996275,0.08280430963074235,-0.0830751411581387,-0.009790146479911693,0.003932511365575262,-0.0006198955958387214,0.0029936279334289904,32.64855300006457
1643,A,710177737213000.0,3.7482057,7.761109531631581,1.0169631351312631,218,1970-01-09 05:16:17.737213,1.1952267,1.1206582,0.1917476,11.439195472990654,1.6496086832112307,-89.9599838256836,-13.285555839538574,-79.89250183105469,32688795.0,40242.0,0.0412989903357,-0.050243524076081986,-0.027601820991627706,0.0024970824986247867,-0.0026825048631777546,-0.0007523637774948444,32.68879500008188
1643,A,710177777537000.0,0.44786867,11.08539653163158,3.074285155131263,218,1970-01-09 05:16:17.777537,-0.6870956,1.139833,-0.24714136,7.906181628903397,1.353661140481993,-89.98087310791016,-13.297881126403809,-79.95105743408203,32729118.999999996,40323.999999996275,0.08460125144793218,-0.015191944752486761,0.08248774802826543,0.0025384006748413574,-0.0013193099225214811,0.0011066100609125875,32.729119000025094
1643,A,710177817868000.0,2.9722195,9.95734253163158,-0.06798074486873684,218,1970-01-09 05:16:17.817868,0.4111921,0.716923,0.0777643,9.119290238372681,0.8301233747979273,-90.0489501953125,-13.437609672546387,-79.9654769897461,32769450.0,40331.000000003725,0.06896778799214137,0.029093554580235933,0.060623631585154575,0.003096796464829089,0.0002803329129815018,0.002885912525594688,32.76945000002161
1643,A,710177858303000.0,2.672842,10.77643853163158,0.7080056051312631,218,1970-01-09 05:16:17.858303,0.49960902,0.5454154,0.44208476,8.229579393711084,0.8616995221344724,-89.98448944091797,-13.55325698852539,-80.00125885009766,32809885.0,40435.0,0.11412903087625001,0.02292221864652292,0.012939702612357624,0.0037017599354717025,0.001051628895211997,0.0014872667091382027,32.80988499999512
1643,A,710177898631000.0,2.3255641,10.12259853163158,0.7247707551312631,218,1970-01-09 05:16:17.898631,0.34301516,0.8000136,0.5454154,8.752112742709693,1.0272093840750995,-89.9254150390625,-13.572432518005371,-80.04997253417969,32850212.999999996,40327.999999996275,0.1007878606003907,0.02619378334363591,0.02889050252833091,0.004333584199734584,0.0009903750641294712,0.0008434642564567657,32.850213000085205
1643,A,710177938857000.0,5.1397123,9.24362653163158,0.4996389001312631,218,1970-01-09 05:16:17.938857,0.4165184,0.34940675,0.8383631,10.638256955546627,0.9992123607750919,-89.900390625,-13.530485153198242,-80.06787109375,32890439.0,40226.000000003725,0.1501491042332139,-0.0047019153025885255,0.024626551396297467,0.0050470951736987565,0.00043226594190962607,0.0010763885055861502,32.8904390000971
1643,A,710177979178000.0,8.241262,10.680637831631579,1.440881585131263,218,1970-01-09 05:16:17.979178,0.29614353,-0.3685815,0.76485986,11.436664071697363,0.8992018226974023,-89.8900375366211,-13.492279052734375,-80.04885864257812,32930760.0,40321.0,0.26976713237515004,0.00653733169556689,0.039121863243135165,0.008465721288142922,3.700291219064032e-05,0.0012851999133382816,32.93076000001747
1643,A,710178019496000.0,7.3551054,4.89187553163158,1.383401155131263,218,1970-01-09 05:16:18.019496,-0.04261058,-1.3454291,-0.007456851,15.542960215819962,1.3461243364866349,-89.9083023071289,-13.492772102355957,-79.97966766357422,32971078.0,40318.0,0.31440717041660005,-0.08119010310997801,0.05693471576095226,0.01177636976997889,-0.001504925218943114,0.0019364045761433985,32.97107800003141
1643,A,710178059731000.0,2.794988,4.6811145316315805,-1.876220644868737,218,1970-01-09 05:16:18.059731,-0.20133498,-1.6383767,-1.0386329,14.3586064148099,1.9502749258083847,-90.18721771240234,-13.492717742919922,-79.83736419677734,33011313.0,40235.0,0.20419450397449998,-0.2017183724023034,-0.009914296084793633,0.010432969184562955,-0.0056914112561183205,0.0009459332928351212,33.011312999995425
1643,A,710178100070000.0,-3.0536501,4.575733531631579,-0.5709348448687369,218,1970-01-09 05:16:18.100070,-1.933455,-0.83729786,-2.0527647,14.354035432772452,2.941625206743998,-90.29408264160156,-13.595183372497559,-79.79386138916016,33051651.999999996,40338.999999996275,-0.005217085225949518,-0.20861620298799446,-0.04935790265025542,0.0040132750474485175,-0.008276243218333848,-0.0011954906123864614,33.051652000052854
1643,A,710178140303000.0,-5.855823,4.21648053163158,1.8360598551312632,218,1970-01-09 05:16:18.140303,-3.299124,0.38136467,-2.271144,15.545723785725851,4.02340070681957,-90.45459747314453,-13.708868980407715,-79.8127212524414,33091884.999999996,40233.0,-0.17922741561615,-0.21741482579636667,0.025449887268946106,-0.0037103778011900947,-0.0085702531905406,-0.0004809455914181088,33.09188500000164
1643,A,710178180619000.0,4.145779,10.46508553163158,-0.5086643448687368,218,1970-01-09 05:16:18.180619,-1.9707392,0.5581986,-1.2548815,9.152096730045375,2.4021087091347155,-90.54643249511719,-13.771854400634766,-79.84088134765625,33132201.000000004,40316.00000000745,-0.03447106695200637,-0.09914579129675957,0.026757638695876954,-0.004307734011609692,-0.006381228919364417,0.0010523993083990978,33.13220100000035
1643,A,710178220917000.0,6.6821046,8.90113853163158,-0.45836897486873684,218,1970-01-09 05:16:18.220917,-1.3560816,-0.0053263223,-1.2729911,11.784784591240028,1.8599709718828983,-90.61445617675781,-13.835500717163086,-79.83995056152344,33172499.000000004,40298.0,0.2181710266564,-0.0047103513493106375,-0.019484754359390358,0.003701370488083827,-0.002092597418175669,0.00014654134649586843,33.17249900009483
1643,A,710178261338000.0,2.926714,11.20275213163158,0.7127956551312631,218,1970-01-09 05:16:18.261338,-0.74035877,-0.12783173,-1.7502295,7.91810344144148,1.9046719828308907,-90.60466766357422,-14.118943214416504,-79.84405517578125,33212919.999999996,40420.99999999255,0.19419902831526417,0.010183882249878184,0.005142090421444838,0.008334204996003283,0.0001106227962659,-0.00028987240951779445,33.21292000007816
1643,A,710178301659000.0,-0.84065187,15.34374123163158,1.0912087551312633,218,1970-01-09 05:16:18.301659,-0.5699165,-1.1536814,-1.2367721,3.3691729099791465,1.7847663200028794,-90.64785766601562,-14.180142402648926,-79.78386688232422,33253241.000000004,40321.00000000745,0.04205605557187277,0.14004477945009278,0.036369630913104384,0.004763020618707504,0.003028684934202824,0.0008368970579653342,33.253240999998525
1643,A,710178341867000.0,-0.3305127,14.32106783163158,-0.762536444868737,218,1970-01-09 05:16:18.341867,0.19387813,-1.6117451,-0.5965481,4.442102870821402,1.7295030015238242,-90.65864562988281,-14.209053039550781,-79.70040130615234,33293449.000000004,40208.0,-0.02354509251528,0.20234292140784255,0.006607628125517829,0.0003721444012897411,0.006883362338047932,0.000864014815712461,33.29344900010619
1643,A,710178382180000.0,0.84544194,15.07310393163158,0.08530051513126313,218,1970-01-09 05:16:18.382180,0.7552725,-0.92784536,0.15126756,3.613409261425942,1.2059085521042352,-90.79834747314453,-14.186190605163574,-79.61198425292969,33333762.0,40312.999999996275,0.01037917122605904,0.19741622314619567,-0.01365070601775213,-0.00026537889246615776,0.008057745197202726,-0.00014196379953480758,33.33376200008206
1643,A,710178422490000.0,0.30895755,15.41559173163158,1.654038355131263,218,1970-01-09 05:16:18.422490,0.9502159,0.4857606,0.92784536,3.351270145564705,1.4141324652233607,-90.74456024169922,-14.140130996704102,-79.63766479492188,33374072.0,40310.0,0.023266921720949997,0.219461661093069,0.035056374930141215,0.0006781370033469671,0.00840217375684238,0.00043143125692920195,33.374072000035085
1643,A,710178462873000.0,4.5840673,4.74338453163158,-1.7756297448687368,218,1970-01-09 05:16:18.462873,1.8216022,0.13528858,1.9526298,14.736785138848754,2.673817628554965,-90.86461639404297,-14.145904541015625,-79.59386444091797,33414454.999999996,40382.999999996275,0.09879751125876589,0.01128656921967702,-0.002455112545883977,0.002464663998509706,0.0046591528923593814,0.0006582683894316693,33.414455000078306
1643,A,710178503185000.0,8.353828,-6.800609468368421,-8.060161844868736,218,1970-01-09 05:16:18.503185,2.3883228,-0.7637946,2.1518342,28.047147309481748,3.3042182755197396,-90.7544174194336,-14.037786483764648,-79.55607604980469,33454766.999999996,40312.0,0.26077621766680004,-0.4365230258248678,-0.19825021528274847,0.007247568080223707,-0.008571066019334226,-0.004045416587713916,33.45476700004656
1643,A,710178543392000.0,1.2286451,13.37742993163158,-2.7719578448687368,218,1970-01-09 05:16:18.543392,-0.112918034,0.35260254,-0.6135923,6.265336189257505,0.7166411544393517,-90.75574493408203,-14.068696022033691,-79.57382202148438,33494974.0,40207.000000003725,0.19264124796586785,-0.26181148981681335,-0.21776351818265746,0.009115278020347183,-0.014038967935203837,-0.008363332090722563,33.4949740000302
1643,A,710178583704000.0,-4.129014,4.367365531631579,4.925635155131263,218,1970-01-09 05:16:18.583704,-0.22903186,1.0812434,-0.36645097,15.41861287611765,1.1644007885399943,-90.75370025634766,-14.087735176086426,-79.62931060791016,33535286.0,40312.0,-0.058459835548399994,-0.03739350264246779,0.04340951986565148,0.0027045605486864816,-0.00603077582800927,-0.0035142791900775725,33.53528599999845
1643,A,710178624016000.0,2.2944288,10.09864853163158,0.9379274951312631,218,1970-01-09 05:16:18.624016,-0.017044231,0.03089267,1.5190672,8.774303064416204,1.5194768905731837,-90.66667938232422,-14.039196014404297,-79.65312957763672,33575598.0,40312.0,-0.036977899291199996,-0.10348062054086779,0.11818596877869149,-0.0019236429834269776,-0.0028394588268833123,0.003257118669115377,33.57559800008312
1643,A,710178664216000.0,0.23950197,15.55450303163158,3.804765955131263,218,1970-01-09 05:16:18.664216,0.406931,0.5113269,0.58483016,4.44932823612412,0.8769688440704354,-90.63985443115234,-14.01025104522705,-79.67982482910156,33615798.0,40200.0,0.050932008477,0.12166834642158948,0.09532813835027677,0.00028047759463458013,0.000365573290202506,0.004291633553292262,33.615798000013456
1643,A,710178704509000.0,0.9029224,13.23133353163158,6.2213406551312636,218,1970-01-09 05:16:18.704509,-0.096939065,0.7094661,0.29933932,7.846634557179276,0.776107826188054,-90.63581848144531,-13.995676040649414,-79.716552734375,33656091.0,40293.0,0.023015852570205005,0.18506245632178125,0.201990956823654,0.0014897905825875157,0.006179552117469319,0.005989939150921597,33.656091000069864
1643,A,710178744729000.0,4.9457154,3.6464655316315806,0.8924221151312631,218,1970-01-09 05:16:18.744729,0.9193232,0.2130529,1.0130665,15.714340630215235,1.384503671962953,-90.53752899169922,-14.05394458770752,-79.74015045166016,33696311.0,40220.0,0.11761610615800001,-0.054743460837777855,0.1430577693099794,0.002828108690024203,0.002620714999183308,0.006938929882547368,33.696311000036076
1643,A,710178785036000.0,-1.334026,11.46380953163158,-3.205456444868737,218,1970-01-09 05:16:18.785036,2.7579696,0.3153183,0.46978164,8.128010918506222,2.8154070281435577,-90.3956298828125,-14.030586242675781,-79.75658416748047,33736618.0,40307.0,0.07278818232290002,-0.09048367151252594,-0.04661573736436418,0.003837312827899819,-0.0029268350118218478,0.0019436444908159565,33.73661800008267
1643,A,710178825351000.0,2.694397,8.54907053163158,2.470739955131263,218,1970-01-09 05:16:18.825351,0.44421527,1.2452941,-0.03089267,10.54509647704314,1.3225123661636256,-90.35786437988281,-14.032539367675781,-79.82076263427734,33776933.0,40315.0,0.0274216784325,0.0083226298752271,-0.014810047641883128,0.0020199802681769756,-0.0016561611968038514,-0.00123819026126343,33.77693300007377
1643,A,710178865734000.0,1.6884888,10.83870953163158,2.156992455131263,218,1970-01-09 05:16:18.865734,-0.7254451,1.0088054,-0.09267801,8.067268821161491,1.2460128978950138,-90.38153076171875,-14.037501335144043,-79.87271118164062,33817316.0,40383.0,0.0884970386307,-0.004285038852621946,0.0934408589618158,0.0023405727755816032,8.152501913293199e-05,0.0015876740267664208,33.817316000000574
1643,A,710178906020000.0,4.1314087,10.63513283163158,0.2697170151312631,218,1970-01-09 05:16:18.906020,0.52624065,0.78083885,0.43036684,8.939029888571286,1.0353038917889426,-90.34542846679688,-14.016231536865234,-79.91309356689453,33857602.0,40286.0,0.1172301953425,0.037744806723209796,0.04888120885949807,0.004143963673922168,0.0006739801042172512,0.0028667934121247257,33.85760200000368
1643,A,710178946224000.0,2.792593,9.97171253163158,1.3450808551312632,218,1970-01-09 05:16:18.946224,0.37710363,0.72437984,0.49215218,9.065514713811837,0.9534920391048658,-90.17638397216797,-14.09146499633789,-79.98487854003906,33897806.0,40204.0,0.13918628217339998,0.020239605492316008,0.0324606667880173,0.00515448403102462,0.0011656026543564997,0.001635134384266354,33.89780600008089
1643,A,710178986523000.0,1.7483643,10.73093323163158,1.388191205131263,218,1970-01-09 05:16:18.986523,0.4293016,0.5539375,0.47404268,8.065524516178455,0.846086922325592,-89.9865951538086,-14.030587196350098,-80.05268859863281,33938105.0,40299.0,0.09149801911635001,0.02221776080687101,0.05507406537825977,0.0046481733288378175,0.0008554947022454689,0.0017637810857844,33.93810500006657
1643,A,710179026821000.0,7.783814,7.571902531631579,-0.41046854486873685,218,1970-01-09 05:16:19.026821,0.32810146,-0.007456851,0.6593987,13.496847982730053,0.7365546946715212,-89.97029113769531,-13.997612953186035,-80.05229187011719,33978403.0,40298.0,0.1920638605667,-0.02613656220601063,0.01970013388162964,0.005713488313733775,-7.895992939126421e-05,0.0015066253408875115,33.978403000044636
1643,A,710179067023000.0,6.706055,9.55497853163158,2.2216580551312632,218,1970-01-09 05:16:19.067023,0.0031957934,-0.47510794,0.21944448,11.352624908581504,0.5233484953154729,-89.97605895996094,-13.986655235290527,-80.0278091430664,34018605.0,40202.0,0.291260856769,-0.04971216374734727,0.03640672034578704,0.009715310143164907,-0.001524635240388447,0.0011278038768253028,34.01860500010662
1643,A,710179107314000.0,4.023633,4.056014531631581,-1.0379637448687369,218,1970-01-09 05:16:19.107314,-0.16831179,-1.0034791,-0.56459016,15.131226371786074,1.163641358649064,-90.15067291259766,-14.052587509155273,-79.93885803222656,34058896.0,40291.0,0.21615492960399998,-0.12065153924403203,0.023846113727393724,0.010222144724377272,-0.003432061978612832,0.0012138234688212632,34.05889600003138
1643,A,710179147672000.0,0.92926764,6.75999053163158,-1.3109958448687369,218,1970-01-09 05:16:19.147672,-1.0503508,-0.8681905,-1.3837786,11.97686606877359,1.9421212014621667,-90.2141342163086,-14.121637344360352,-79.89387512207031,34099254.0,40358.0,0.09994458201456,-0.1772522338284127,-0.04739965556131248,0.006378572044950921,-0.006011400236828862,-0.0004752869206666466,34.099254000000656
1643,A,710179187940000.0,-4.2200246,3.5578495316315806,1.388191205131263,218,1970-01-09 05:16:19.187940,-2.8176246,-0.42397526,-2.0325246,15.605896693951932,3.4999885224415217,-90.36050415039062,-14.223156929016113,-79.87149047851562,34139522.0,40268.0,-0.06625610063264001,-0.18688700816625956,0.0015542513835257016,0.000678283884143577,-0.007331579498320731,-0.000923051367715559,34.13952200009953
1643,A,710179228239000.0,-1.099314,7.22222953163158,-0.19970681486873687,218,1970-01-09 05:16:19.228239,-2.424542,0.5219796,-1.768339,11.412210823171474,3.0459628086208084,-90.47525787353516,-14.311760902404785,-79.89775085449219,34179821.0,40299.0,-0.1071820131207,-0.177716996914779,0.02394736622159477,-0.0034946912730729244,-0.007346588400380386,0.0005138448439343749,34.17982100008521
1643,A,710179268756000.0,7.194639,8.95622353163158,-0.0847459048687369,218,1970-01-09 05:16:19.268756,-1.743838,0.30466563,-0.97258645,12.013869932479684,2.0198308144671175,-90.55866241455078,-14.360523223876953,-79.91301727294922,34220338.0,40517.0,0.12348214151249999,-0.06931540861788331,-0.005762585422801612,0.0003302161510252801,-0.005004505987483439,0.0003683963818123512,34.22033800010104
1643,A,710179309083000.0,4.2343946,10.79080853163158,-0.03924050486873687,218,1970-01-09 05:16:19.309083,-1.1526161,0.16192019,-1.4104102,8.864652531798699,1.8286604261515822,-90.61441040039062,-14.431132316589355,-79.92063903808594,34260665.0,40327.0,0.23044931899360002,0.0029646810076066794,-0.0024999999727415524,0.007136497003914748,-0.001337862896169813,-0.0001666026406230346,34.26066500006709
1643,A,710179349307000.0,0.6514453,13.34150453163158,1.349870895131263,218,1970-01-09 05:16:19.349307,-0.9779128,-0.5795039,-1.4807175,5.32030441506684,1.8667250813457508,-90.6709976196289,-14.504833221435547,-79.88986206054688,34300889.0,40224.0,0.0982640120688,0.09115388032834865,0.026359398408959924,0.00661108251432699,0.0018929125055887335,0.0004798602213492239,34.30088900006376
1643,A,710179389611000.0,-0.26105714,14.88150243163158,0.08530051513126313,218,1970-01-09 05:16:19.389611,-0.33129725,-1.3454291,-0.74461985,3.7124364527323346,1.5730213132689574,-90.70510864257812,-14.541258811950684,-79.81991577148438,34341193.0,40304.0,0.00786710220032,0.17377083632367915,0.028921574259610425,0.0021387542147513062,0.005338762889971664,0.0011140221612170296,34.341193000087515
1643,A,710179429908000.0,0.63707525,14.22047713163158,-0.8319919448687368,218,1970-01-09 05:16:19.429908,0.5368933,-1.4168017,-0.39627838,4.5908457882808404,1.566083659056311,-90.69670104980469,-14.56020736694336,-79.7464828491211,34381490.0,40297.0,0.007576200889334999,0.19145063523040776,-0.015044712272065488,0.0003111593923019137,0.00735866481960752,0.00027959795375604915,34.381490000057966
1643,A,710179470224000.0,-0.46463382,15.91854593163158,0.8756569751312631,218,1970-01-09 05:16:19.470224,0.74035877,-0.46871635,0.34621096,2.70199823614182,0.9421720404986327,-90.66571044921875,-14.542624473571777,-79.72248077392578,34421806.0,40316.0,0.0034760743459399997,0.21244562690925875,0.0008801996800320034,0.0002227917641926734,0.008141740852211397,-0.00028552824483021096,34.42180600005668
1643,A,710179510545000.0,0.9987232,10.43874053163158,2.3940993551312633,218,1970-01-09 05:16:19.510545,1.3891048,0.7456851,1.514806,8.389844437822568,2.1863887191853717,-90.58638763427734,-14.467294692993164,-79.76184844970703,34462127.0,40321.0,0.010767508945490003,0.13623027374261695,0.06591992249625767,0.0002871577609468746,0.00702948049509214,0.001346723863135088,34.46212700009346
1643,A,710179550788000.0,14.724581,-7.6460514683684195,-23.438582844868737,218,1970-01-09 05:16:19.550788,2.5353293,-0.24074976,2.5331988,38.44461220378339,3.592067826016094,-90.4624252319336,-14.340529441833496,-79.75061798095703,34502370.0,40243.0,0.3163764654603,-0.33818830701355035,-0.42344657453875256,0.006582627481006104,-0.0040636985664610865,-0.007193972529073061,34.502370000001974
1643,A,710179591084000.0,6.830596,14.20850183163158,5.169927155131264,218,1970-01-09 05:16:19.591084,0.4857606,0.11611383,0.28016454,9.332506484206023,0.5726586692813097,-90.43661499023438,-14.326563835144043,-79.75670623779297,34542666.0,40296.0,0.434293706196,-0.26268055008097385,-0.36807687483683055,0.015124502618531132,-0.012106305732740474,-0.01594761445801925,34.542666000081226
1643,A,710179631343000.0,-5.4366946,2.6501365316315795,-2.407914844868737,218,1970-01-09 05:16:19.631343,0.16937704,0.6380934,-1.0407634,17.06602263640334,1.2324934983935134,-90.42008972167969,-14.37884521484375,-79.78923797607422,34582925.0,40259.0,0.028058538231299997,-0.05518223906669427,0.055597926799429535,0.009306919504199335,-0.006398419014147986,-0.006290044984518864,34.58292499999516
1643,A,710179671754000.0,3.6212697,6.3576275316315805,3.958047155131263,218,1970-01-09 05:16:19.671754,0.040480047,-0.92464954,1.2879047,13.179734690408873,1.585974124098317,-90.42977142333984,-14.31411361694336,-79.74202728271484,34623336.0,40411.0,-0.03668156781695,-0.21402142321973627,0.03132119839500947,-0.0001742326242928511,-0.005439394598328473,0.0017562443841162374,34.62333600001875
1643,A,710179712060000.0,-0.61073,15.69820403163158,2.626416155131263,218,1970-01-09 05:16:19.712060,0.80107886,0.36964676,0.95128113,3.5975442547835663,1.2974212328351475,-90.38491821289062,-14.266685485839844,-79.76143646240234,34663642.0,40306.0,0.0606714065741,0.04949237349444244,0.1326966890917207,0.000483467220472844,-0.003315753939113847,0.003305452486520073,34.663642000057735
1643,A,710179752300000.0,0.7711963,14.349808231631581,3.993972555131263,218,1970-01-09 05:16:19.752300,-0.165116,0.6359629,0.27483824,5.504195291059969,0.7122135647393326,-90.38507843017578,-14.253158569335938,-79.79434204101562,34703882.0,40240.0,0.0032285819559999987,0.21021400673685475,0.13320222085048203,0.001285667769225612,0.0052252923702536995,0.005349886068037118,34.70388200005982
1643,A,710179792602000.0,5.7719975,5.65828153163158,2.827597855131263,218,1970-01-09 05:16:19.792602,0.23116238,-0.76485986,0.8564726,14.31748634462991,1.1713206076549854,-90.38314819335938,-14.2100830078125,-79.75518798828125,34744184.0,40302.0,0.1318518982638,0.008223416819515932,0.13746146533720013,0.0027220067569091897,0.004401732522084425,0.005454143940367983,34.744184000068344
1643,A,710179832907000.0,-3.803291,11.57158523163158,-1.0427537448687367,218,1970-01-09 05:16:19.832907,2.3510387,-0.09267801,0.094808534,8.108576517028542,2.354774052972913,-90.26675415039062,-14.205316543579102,-79.75041961669922,34784489.0,40305.0,0.039674357741250006,-0.047764110053339186,0.03596907093206556,0.0034566828741417702,-0.0007968438203946231,0.003495058882166377,34.78448900009971
1643,A,710179873326000.0,2.059717,7.92397053163158,0.3894679951312632,218,1970-01-09 05:16:19.873326,0.9651296,1.0759171,0.05965481,10.83244913580082,1.4465930482429075,-90.21745300292969,-14.121512413024902,-79.80281829833984,34824908.0,40419.0,-0.035236758753,-0.0021107658023331835,-0.013202578359319471,8.968165675303844e-05,-0.0010079463036052106,0.00046009943164891214,34.82490800006781
1643,A,710179913636000.0,1.1543995,11.03270583163158,2.5186404551312633,218,1970-01-09 05:16:19.913636,-0.4250405,1.3028184,0.040480047,7.868427971347824,1.370997390305296,-90.22232818603516,-14.119742393493652,-79.87001037597656,34865218.0,40310.0,0.0647805180575,-0.012966187898431042,0.05861292581504122,0.0005954544687821974,-0.00030387600183890296,0.0009152455529700718,34.86521800002083
1643,A,710179953849000.0,3.8703518,10.08906853163158,0.41820823513126315,218,1970-01-09 05:16:19.953849,0.221575,0.82877576,0.5496765,9.311964415129049,1.018876339719805,-90.20079040527344,-14.092409133911133,-79.9128189086914,34905431.0,40213.0,0.10103016201345,0.030597556234950703,0.05904974819076349,0.003333872438846556,0.00035450510745823255,0.0023657845548977125,34.90543100005016
1643,A,710179994166000.0,4.0044727,10.21839953163158,0.8445217351312632,218,1970-01-09 05:16:19.994166,0.41758367,0.6380934,0.7073356,9.25639232545624,1.0401264152023009,-90.17188262939453,-14.057147026062012,-79.94583129882812,34945748.0,40317.0,0.15874464968325,0.014261494953290384,0.025454742105537137,0.005236670541587927,0.0009042911833781579,0.0017034837676379762,34.94574800005648
1643,A,710180034474000.0,1.9303858,10.69021803163158,0.8062014051312631,218,1970-01-09 05:16:20.034474,0.4282363,0.8490158,0.58056915,8.105677072820287,1.1141250805986969,-90.08535766601562,-14.021454811096191,-80.00288391113281,34986056.0,40308.0,0.11961113820899999,0.0263738783700057,0.03326867416885095,0.005609982549180406,0.0008189653139577093,0.0011835117315940175,34.98605600011069
1643,A,710180074781000.0,8.344249,7.296475531631581,-0.15180644486873685,218,1970-01-09 05:16:20.074781,0.40373522,0.16618125,0.8245147,14.03250270619683,0.9329752548894857,-90.06309509277344,-13.980244636535645,-80.01151275634766,35026363.0,40307.0,0.2070698524418,-0.03251377127277591,0.013188348831650825,0.006583765345080899,-0.00012374033161597945,0.0009362716130406127,35.026363000040874
1643,A,710180115096000.0,7.4509063,10.05314253163158,1.7187038551312632,218,1970-01-09 05:16:20.115096,0.06178534,-0.68816084,0.49002165,11.369140640116418,0.84705607099952,-90.06855010986328,-13.95570182800293,-79.97607421875,35066678.0,40315.0,0.31839084295974995,-0.04536207388977285,0.03158473454736687,0.010591973967556742,-0.0015697823488640763,0.0009025134282125492,35.06667800003197
1643,A,710180155374000.0,4.253555,3.816512531631579,0.5068239581312631,218,1970-01-09 05:16:20.155374,-0.13528858,-1.4871092,-0.51452273,15.342768855685286,1.5794082475059161,-90.094482421875,-14.034802436828613,-79.89925384521484,35106956.0,40278.0,0.23571614612070002,-0.11540341668094325,0.04481990463129402,0.011159160653091183,-0.0032376562146036515,0.0015387130284190518,35.10695600009058
1643,A,710180195678000.0,-0.27542725,6.070224531631579,-2.707292244868737,218,1970-01-09 05:16:20.195678,-0.97258645,-1.0748519,-1.5723304,12.903561993633408,2.138563512365572,-90.1566162109375,-14.113302230834961,-79.84367370605469,35147260.0,40304.0,0.08016723041800002,-0.19574167470112086,-0.04434383691433358,0.006365681804007883,-0.006270195881531357,9.593716632186769e-06,35.147259999997914
1643,A,710180235972000.0,-6.6461797,1.9340275316315783,2.267163455131263,218,1970-01-09 05:16:20.235972,-2.7494476,-0.068176925,-2.223207,17.987175327848078,3.5364897233128243,-90.29505157470703,-14.224446296691895,-79.8396987915039,35187554.0,40294.0,-0.13944961522165,-0.2336195336814372,-0.008867274726840893,-0.0011943622066391364,-0.008650340265283399,-0.0010720442662347422,35.18755400006194
1643,A,710180276382000.0,-0.62510014,8.93945853163158,-1.998366544868737,218,1970-01-09 05:16:20.276382,-2.0591562,0.72437984,-1.6245283,9.964983802727707,2.721018670663205,-90.38892364501953,-14.305887222290039,-79.87657165527344,35227964.0,40410.0,-0.1469162091672,-0.17631921409176793,0.005431041571854335,-0.005786021481776715,-0.00828281239875761,-6.942909089650341e-05,35.22796400007792
1643,A,710180316713000.0,8.01613,9.07357953163158,0.43736838513126314,218,1970-01-09 05:16:20.316713,-1.5563514,0.5070659,-0.9534117,12.418477925899506,1.8942912597912869,-90.4603500366211,-14.353742599487305,-79.9023666381836,35268295.0,40331.0,0.14904381264183,-0.03200188093526678,-0.03147830839018603,4.2904187867651416e-05,-0.0042008990417676684,-0.0005252561590250678,35.26829500007443
1643,A,710180356928000.0,3.8607717,10.41000053163158,1.3929812151312633,218,1970-01-09 05:16:20.356928,-1.0130665,0.44528055,-1.4817829,9.05740210139109,1.8493942425461811,-90.5054702758789,-14.42802619934082,-79.92472839355469,35308510.0,40215.0,0.23881480093275004,-0.00234091387793604,0.03680375458727875,0.007798867072450869,-0.0006905477467064757,0.00010708140940804176,35.30851000000257
1643,A,710180397228000.0,0.48618898,13.173853531631579,0.6074147851312631,218,1970-01-09 05:16:20.397228,-0.773382,-0.9896307,-1.4881744,5.4064547147327735,1.9473447781843485,-90.52299499511719,-14.271373748779297,-79.8814468383789,35348810.0,40300.0,0.08759125770199999,0.08027465937475263,0.040307979405289907,0.006577082081490214,0.0015703649717608544,0.0015538014399502586,35.348809999995865
1643,A,710180437631000.0,-0.3305127,14.733011231631579,-1.1912449448687368,218,1970-01-09 05:16:20.437631,-0.053263225,-1.6458336,-0.721184,4.207616622774678,1.7976961845324033,-90.54672241210938,-14.306669235229492,-79.79620361328125,35389213.0,40403.0,0.0031448943704200003,0.16781112851506066,-0.011794244971936575,0.0018330063760909924,0.0050117050440560635,0.0005760202061553874,35.38921300007496
1643,A,710180477929000.0,0.28500733,14.29711753163158,-0.1877317448687369,218,1970-01-09 05:16:20.477929,0.3121225,-1.2921658,-0.23222765,4.330286971332101,1.3494601109778728,-90.54762268066406,-14.31766414642334,-79.72940063476562,35429511.0,40298.0,-0.0009168877001299998,0.1900076644509894,-0.027785001321520356,4.489210639967322e-05,0.007209690859472943,-0.0007974822335668637,35.429511000053026
1643,A,710180518238000.0,-0.79993653,15.38206153163158,1.3187356551312632,218,1970-01-09 05:16:20.518238,0.34514567,-0.3153183,0.5123922,3.3684509809594516,0.6936115126318758,-90.5343246459961,-14.291895866394043,-79.71338653564453,35469820.0,40309.0,-0.010378140561399999,0.2031408144305373,0.022794818309386088,-0.00022764564709700633,0.00792371101761773,-0.0001005746435180601,35.469819999998435
1643,A,710180558442000.0,0.95561284,12.37870693163158,0.7726711451312631,218,1970-01-09 05:16:20.558442,1.212271,0.6263755,1.5861788,6.257284729914748,2.0923456765101434,-90.39495849609375,-14.075762748718262,-79.76363372802734,35510024.0,40204.0,0.0031294051836200007,0.16404776764851597,0.042041459498877304,-0.0001457140785641335,0.007381224876953128,0.0013033388565017107,35.510024000075646
1643,A,710180598747000.0,19.260748,-12.232515468368419,-18.27012884486874,218,1970-01-09 05:16:20.598747,2.0421119,-0.29614353,2.453304,40.89617875320434,3.2057171614006235,-90.29635620117188,-13.953010559082031,-79.74913787841797,35550329.0,40305.0,0.4074102118281,-0.3920428765365892,-0.35261751629395954,0.008273399631828687,-0.004594671431866895,-0.006258883984562895,35.55032900010701
1643,A,710180639058000.0,0.9867481,16.15565273163158,-1.5696580448687372,218,1970-01-09 05:16:20.639058,0.21944448,0.23329292,-0.59122175,3.3400711281039346,0.6724021296795982,-90.28251647949219,-13.982630729675293,-79.76100158691406,35590640.0,40311.0,0.40809840764355,-0.3159750068902994,-0.39988082465610375,0.01643698397976084,-0.014270454449410655,-0.015166980311019,35.59064000006765
1643,A,710180707193000.0,-4.7301636,-0.6430144683684205,4.647812855131264,218,1970-01-09 05:16:20.707193,0.046871636,0.350472,-1.3113406,20.19895890635076,1.3581758878192753,-90.27587890625,-14.048283576965332,-79.77873992919922,35658775.0,68135.0,-0.12752880754625,-0.13924619596628235,0.10486503899861863,0.009558304851314767,-0.015508248328316598,-0.010050450277886374,35.65877500001807
1643,A,710180748537000.0,2.7111623,12.25416553163158,0.9139773051312632,218,1970-01-09 05:16:20.748537,-0.20772657,-0.31318775,1.3432984,6.872683500785935,1.3948790220218337,-90.20121765136719,-14.210381507873535,-79.78460693359375,35700119.0,41344.0,-0.041736794873600006,-0.165145485220224,0.11497332619294695,-0.003499058533223139,-0.0062923848334874586,0.004544498685240044,35.70011900004465
1643,A,710180789913000.0,0.86939216,16.05266693163158,4.9687457551312635,218,1970-01-09 05:16:20.789913,-0.011717909,1.1217234,0.23435818,5.169856341582848,1.1460036876170185,-90.18759155273438,-14.198857307434082,-79.84249877929688,35741495.0,41376.0,0.07407451066848,0.1801269499999882,0.12170177467071117,0.0006690026643644774,0.0003099365433637623,0.00489633448666736,35.74149500008207
1643,A,710184065181000.0,2.562671,8.81252253163158,-0.5541697448687369,218,1970-01-09 05:16:24.065181,2.1891184,1.0045444,0.37284255,10.134887280212505,2.437285454738616,-90.21893310546875,-14.1935453414917,-79.85671997070312,39016763.0,3275268.0,5.62046332096344,8.6224532814815,7.229459769990262,9.325568767366708,14.415404674801954,12.038512085029328,39.01676300005056
1643,A,710184105466000.0,0.613125,11.12611153163158,4.827439155131263,218,1970-01-09 05:16:24.105466,-0.99708754,0.8724516,0.08841695,8.606282646785777,1.327845214553682,-90.25775146484375,-14.189306259155273,-79.9017333984375,39057048.0,40285.0,0.06396847093000001,0.006820936619278145,0.08607432909621293,0.11449866736821361,0.1738151559380949,0.14735314559084933,39.05704800004605
1643,A,710184145783000.0,2.694397,9.62682953163158,-1.4978074448687368,218,1970-01-09 05:16:24.145783,0.15659387,0.45912898,0.2695119,9.546631847843068,0.5549393882569765,-90.24410247802734,-14.175930976867676,-79.92546844482422,39097365.0,40317.0,0.066674682237,0.023241562423790378,0.06712038083132714,0.00263357000311697,0.0006060148869596969,0.0030881755600743166,39.09736500005238
1643,A,710184186231000.0,2.8883936,10.673452831631579,1.273230255131263,218,1970-01-09 05:16:24.186231,0.7233146,0.7222493,0.5581986,8.429584575904691,1.1646517672530319,-90.06265258789062,-14.295957565307617,-79.99635314941406,39137813.0,40448.0,0.1129063570944,0.014162510514634104,-0.004541849085250669,0.0036318469394382336,0.0007564599711066967,0.0012655882260326505,39.137813000008464
1643,A,710184226554000.0,2.323169,10.26390453163158,1.1271340551312632,218,1970-01-09 05:16:24.226554,0.18855181,0.8447547,0.4644553,8.633794976665708,0.9822835710345847,-89.93880462646484,-14.306449890136719,-80.06559753417969,39178136.0,40323.0,0.1050729193599,0.026963130479430143,0.048394945041357926,0.004394789182233369,0.0008291546109018262,0.0008841441941190565,39.178136000060476
1643,A,710184266778000.0,7.9155397,8.72151153163158,0.14038595513126312,218,1970-01-09 05:16:24.266778,0.38242993,0.40906155,0.6540724,12.631780330606265,0.861042802356519,-89.91448211669922,-14.273720741271973,-80.0866470336914,39218360.0,40224.0,0.20592090937440002,-0.012360512135651376,0.025492362446399932,0.006254707883504243,0.0002936878601300786,0.0014860215281937861,39.218360000057146
1643,A,710184307097000.0,8.710687,11.619485831631579,1.2229348251312633,218,1970-01-09 05:16:24.307097,0.05752428,-0.37284255,0.32810146,11.157784558433844,0.49997117710339317,-89.91635131835938,-14.257346153259277,-80.06739044189453,39258679.0,40319.0,0.33517641715865,0.014938136344703605,0.027483865269702402,0.010908251554243022,5.196361524238842e-05,0.001067974262642765,39.2586790000787
1643,A,710184347365000.0,8.143066,4.724224531631579,0.3990480651312631,218,1970-01-09 05:16:24.347365,-0.41545314,-1.417867,-0.7318367,16.052921155410676,1.6487974698827474,-89.95513153076172,-14.294015884399414,-79.99427795410156,39298947.0,40268.0,0.33933346290199995,-0.06556213554605961,0.032657003512545704,0.013580581925141125,-0.0010192635999201017,0.0012108762520617834,39.29894700006116
1643,A,710184387781000.0,0.4143384,4.32904653163158,-1.176874844868737,218,1970-01-09 05:16:24.387781,-0.91825795,-1.7832527,-1.8844528,14.336903567041126,2.7521537402956495,-90.02384185791016,-14.388258934020996,-79.90226745605469,39339363.0,40416.0,0.1729280281152,-0.21312829835357813,-0.015718323564934873,0.010351780210475578,-0.00563177628824388,0.0003422968443813197,39.339363000006415
1643,A,710184428036000.0,-9.201666,-1.8501054683684188,2.0013162551312633,218,1970-01-09 05:16:24.428036,-2.2583606,-0.7850999,-2.3712788,22.434752172751928,3.367422990944531,-90.14691162109375,-14.506760597229004,-79.8615493774414,39379618.0,40255.0,-0.176866936269,-0.34460411374917077,0.016593944485059,-7.928037386560933e-05,-0.011225759124598078,1.762406006979836e-05,39.3796180000063
1643,A,710184468230000.0,-0.19639161,9.04244453163158,-1.6271385448687368,218,1970-01-09 05:16:24.468230,-2.3073628,0.33662358,-1.2495552,9.759008220401737,2.64549177342945,-90.25798034667969,-14.56930160522461,-79.87871551513672,39419812.0,40194.0,-0.18887276378816997,-0.2493567618456003,0.007519849443145996,-0.007350270752048945,-0.011936831716828114,0.00048461491657513574,39.41981200000737
1643,A,710184508547000.0,6.016289,9.46157253163158,0.36551780513126314,218,1970-01-09 05:16:24.508547,-1.7672738,0.78296936,-0.8245147,10.907128118526954,2.101457159539861,-90.3362045288086,-14.610732078552246,-79.91895294189453,39460129.0,40317.0,0.117320401536315,-0.02209337203020963,-0.02543238168199786,-0.0014423882944540184,-0.005472027523735514,-0.0003610897811368953,39.460129000013694
1643,A,710184548866000.0,1.575923,10.82194423163158,-0.537404644868737,218,1970-01-09 05:16:24.548866,-1.0098706,0.87032104,-1.6373115,7.966736711842267,2.111418075475175,-90.56551361083984,-14.615890502929688,-79.91547393798828,39500448.0,40319.0,0.153055197814,0.013779356189003644,-0.0034651527456876037,0.005450636895102676,-0.00016760640235079208,-0.0005825598452949252,39.50044800003525
1643,A,710184589356000.0,2.6249416,13.250494031631579,1.5893727551312633,218,1970-01-09 05:16:24.589356,-0.87138635,-0.89588743,-1.1845741,6.014902885372695,1.7219594236186688,-90.62095642089844,-14.67465591430664,-79.8685531616211,39540938.0,40490.0,0.08504650382699999,0.09054451263976261,0.02129709439226484,0.004820368949722045,0.0021120367244383724,0.00036100765863495614,39.54093800007831
1643,A,710184629674000.0,-0.92926764,15.71496913163158,0.10206563513126315,218,1970-01-09 05:16:24.629674,-0.17789917,-2.0080235,-0.7052051,3.0214803982032254,2.1356780479053836,-90.65628051757812,-14.708792686462402,-79.76435852050781,39581256.0,40318.0,0.034183091359640004,0.188798371908222,0.03409770650930227,0.0024035494093674757,0.005631273209602822,0.0011167037913746914,39.58125600009225
1643,A,710184669904000.0,0.1580713,14.82402183163158,-0.7721165448687369,218,1970-01-09 05:16:24.669904,0.4527374,-1.7310548,-0.15765914,3.9577821752371203,1.7962122030504466,-90.65637969970703,-14.715681076049805,-79.67477416992188,39621486.0,40230.0,-0.015512614379099999,0.22003780322603844,-0.013478074049369286,0.00037555664446356225,0.00822373966282565,0.00041476390693155206,39.621486000018194
1643,A,710184710226000.0,-0.7424561,16.17481303163158,1.3594509551312632,218,1970-01-09 05:16:24.710226,0.5699165,-0.23222765,0.6860303,2.6299899977501244,0.9216138404531816,-90.6308364868164,-14.681258201599121,-79.66317749023438,39661808.0,40322.0,-0.011781781952799997,0.2298119096782485,0.011841249045302793,-0.0005502823244474357,0.009069420061863329,-3.300002890698457e-05,39.66180800006259
1643,A,710184750548000.0,0.86939216,8.61613053163158,0.9163723051312631,218,1970-01-09 05:16:24.750548,1.3379722,1.1781825,1.6010925,9.98711491891837,2.3962013281098358,-90.54832458496094,-14.60181713104248,-79.72490692138672,39702130.0,40322.0,0.00255915790566,0.10465461317894852,0.045882872750152785,-0.00018593732341438946,0.006743179567323948,0.0011637760195181799,39.70213000010699
1643,A,710184790722000.0,12.818145,-6.335975468368421,-17.99470184486874,218,1970-01-09 05:16:24.790722,2.3936493,0.14061491,2.13479,33.57381455389736,3.21039839714712,-90.42658233642578,-14.495137214660645,-79.73311614990234,39742304.0,40174.0,0.27494155893292,-0.34790372524423296,-0.3430524054647067,0.005574156899136557,-0.004886144914055369,-0.005969244403637245,39.74230400007218
1643,A,710184831026000.0,5.6857767,16.79033303163158,2.046821655131263,218,1970-01-09 05:16:24.831026,0.16937704,0.42717105,-0.35260254,6.14415165524252,0.5792169186511351,-90.4126205444336,-14.512923240661621,-79.75505065917969,39782608.0,40304.0,0.37289103009839997,-0.18430298638512085,-0.32138168158358965,0.01305512233415916,-0.010725029652754738,-0.013389675722197267,39.782608000095934
1643,A,710184871300000.0,-5.6666164,-1.1220184683684202,0.27211202513126315,218,1970-01-09 05:16:24.871300,0.32170987,0.72437984,-1.0215886,20.481088030122354,1.2930068293337829,-90.38723754882812,-14.564251899719238,-79.7920913696289,39822882.0,40274.0,0.00038583096110000485,-0.07917234963956979,0.04669636751944649,0.007516676151155151,-0.005305602841529195,-0.00553133816930965,39.82288200000767
1643,A,710184911615000.0,4.670288,4.65476853163158,2.547380755131263,218,1970-01-09 05:16:24.911615,0.6348976,-0.32490566,1.8109496,14.804532276435772,1.9463291356104073,-90.14856719970703,-14.57294750213623,-79.82901763916016,39863197.0,40315.0,-0.020083489722999986,-0.3238755905997729,0.056833925718141866,-0.0003970555564929988,-0.008124438855374548,0.002086911885936687,39.86319699999876
1643,A,710184951990000.0,-1.6525636,16.75919773163158,2.4204446551312633,218,1970-01-09 05:16:24.951990,1.1526161,0.63383234,0.87351686,3.0882030578883977,1.5790183703533487,-90.08268737792969,-14.52933120727539,-79.86184692382812,39903572.0,40375.0,0.06092031132500001,0.03661944393962503,0.10028797546967474,0.0008243933360903756,-0.005798983460701735,0.0031718983802290477,39.90357200009748
1643,A,710184992278000.0,-1.8154249,16.97474953163158,3.550893855131263,218,1970-01-09 05:16:24.992278,-0.25353295,0.9310411,0.023435818,3.863045626126114,0.9652283274905692,-90.08330535888672,-14.528227806091309,-79.90994262695312,39943860.0,40288.0,-0.06985916034399998,0.28471423367117304,0.12028664295072833,-0.00018006417463873546,0.006472945601791916,0.0044432551134605995,39.943859999999404
1643,A,710185032601000.0,2.7279274,4.89906053163158,4.7699591551312635,218,1970-01-09 05:16:25.032601,-0.3930826,-0.386691,0.9853696,14.559361691059973,1.1291576986886818,-90.10794067382812,-14.478927612304688,-79.89005279541016,39984183.0,40323.0,0.01839741915375,0.04584342159048018,0.16776087796640793,-0.001037545895007225,0.006664538166557821,0.005807470092970842,39.98418300005142
1643,A,710185072830000.0,-2.7111623,11.13090183163158,-1.6175584448687368,218,1970-01-09 05:16:25.072830,2.0357203,-0.6114618,0.660464,8.193009517077748,2.225815663523673,-90.01403045654297,-14.445868492126465,-79.85852813720703,40024412.0,40229.0,0.000337221603950004,-0.07180952204414322,0.06340896408657559,0.00037683793152075673,-0.0005222951275752052,0.004649865787974737,40.02441200008616
1643,A,710185113137000.0,2.9746144,6.8605815316315795,0.7367458451312632,218,1970-01-09 05:16:25.113137,0.95660746,2.1102889,0.16724652,12.071330539171928,2.3230128007488404,-89.91343688964844,-14.432990074157715,-79.9738540649414,40064719.0,40307.0,0.005309481897350006,-0.03241724003847596,-0.017751456728809175,0.00011380083901344977,-0.0021005340496320656,0.0009201585745347454,40.06471900001634
1643,A,710185153440000.0,2.9482691,10.999175531631579,1.891145255131263,218,1970-01-09 05:16:25.153440,-0.80533993,1.9451729,0.02130529,8.226577282980696,2.105403507437184,-89.92867279052734,-14.431787490844727,-80.07427978515625,40105022.0,40303.0,0.11935498685025,-0.03506850553965249,0.0529559475069403,0.0025121760419672613,-0.0013599390020176555,0.0007094232959155093,40.10502200003248
1643,A,710185193671000.0,4.974456,11.30094813163158,1.5797927551312632,218,1970-01-09 05:16:25.193671,0.058589544,0.9821738,0.4495416,8.860495841593195,1.0817512459910217,-89.91312408447266,-14.409246444702148,-80.12495422363281,40145253.0,40231.0,0.15936957674905,0.054314337548370055,0.06981965354543584,0.005606683959081719,0.0003871395337713582,0.0024696926029690726,40.14525300008245
1643,A,710185233976000.0,2.311194,9.70825953163158,-0.3458030448687368,218,1970-01-09 05:16:25.233976,0.48149952,0.83942837,0.47830373,9.18832901319929,1.0794703489457227,-90.02152252197266,-14.390987396240234,-80.13261413574219,40185558.0,40305.0,0.146824061625,0.0283990574339108,0.024867977636065564,0.006170567297333043,0.0016668816923804152,0.001908192487385207,40.1855579999974
