Subject-id_accel,Activity_accel,Timestamp_accel,accel_x,accel_y,accel_z,Segment_accel,DateTime,gyro_x,gyro_y,gyro_z,accel_magnitude,gyro_magnitude,Roll,Pitch,Yaw,Time_Difference,Difference_Microseconds,vx,vy,vz,dx,dy,dz,Time_diff
1639,A,184979276458293.0,3.0241792963903706,7.562984,-0.15801731,199,1970-01-03 03:22:59.276458293,-0.755301,1.3652091,2.653167,7.907280319692864,3.0779166033557193,-53.68650817871094,-68.39421844482422,81.7544174194336,15036295.0,49890.0,0.14651649782091558,-0.13418016028350002,0.04347860841105,0.007290340699783563,-0.006560166359222865,0.0033594973445502923,15.036295100027928
1639,A,184979326347893.0,3.1678312963903705,9.205406,-1.2234371,199,1970-01-03 03:22:59.326347893,0.8053114,1.1201982,1.7700628,9.533981829574024,2.244213174855954,-53.66465377807617,-68.2897720336914,81.77422332763672,15086184.0,49889.0,0.15445660823161922,-0.07063309564500003,-0.034459689530245,0.0075076236439274545,-0.0051089642625084695,0.0002249724220222403,15.086184700019658
1639,A,184979376237493.0,3.9291874963903703,10.764031,-2.6623523,199,1970-01-03 03:22:59.376237493,1.2196993,0.7207241,0.9135902,11.17610814377973,1.6857510683008152,-53.59879684448242,-68.2315902709961,81.76897430419922,15136074.0,49890.0,0.17703513378591557,0.009215605964999945,-0.09693101658299999,0.008269061504627405,-0.001532059280067602,-0.003277541163994896,15.136074300011387
1639,A,184979426127093.0,4.28592359639037,11.367371,-0.6344634,199,1970-01-03 03:22:59.426127093,1.2846804,0.17317818,0.33408636,11.43253187836145,1.3386590709027903,-53.54194641113281,-68.21299743652344,81.77693176269531,15185963.0,49889.0,0.20492183865386923,0.06314455718899996,-0.08223741922865,0.009527725699024213,0.0018049880897949505,-0.004469267047103704,15.185963900003117
1639,A,184979476016693.0,4.295500396390371,11.757626,-0.2705448,199,1970-01-03 03:22:59.476016693,0.76483136,-0.62577015,-0.51919043,11.80585615427362,1.1162947605691147,-53.528106689453125,-68.25250244140625,81.80320739746094,15235853.0,49890.0,0.2140636214999156,0.08793105016499997,-0.022575429548999996,0.01045159230353616,0.003768581025445528,-0.0026145565127584786,15.23585350002395
1639,A,184979525913643.0,3.160648696390371,11.949162,0.16759412,199,1970-01-03 03:22:59.525913643,0.3003761,-0.6300312,-1.4704716,12.145045712228585,1.6277136851520324,-53.4668083190918,-68.33031463623047,81.7533950805664,15285750.0,49897.0,0.1860197356412403,0.10245820041799994,-0.0025684650399799987,0.009981479635636127,0.004749926218169973,-0.0006273024541531673,15.285750450013438
1639,A,184979575810593.0,3.416828396390371,9.315539,0.7398083,199,1970-01-03 03:22:59.575810593,-1.4253523,-0.87078094,-1.6164128,9.538029857680252,2.324366357652428,-53.50504684448242,-68.42118072509766,81.71785736083984,15335647.0,49897.0,0.1640981872492403,0.04153179289849993,0.022638329275369996,0.008734916999233155,0.0035923343482566965,0.0005007130078766274,15.335647400002927
1639,A,184979625707543.0,2.9834778963903705,8.63798,1.4556746,199,1970-01-03 03:22:59.625707543,-1.1611667,-0.83243144,-0.9900373,9.067753693135925,1.7382243994607411,-53.67021179199219,-68.58365631103516,81.81903076171875,15385544.0,49897.0,0.15967804154544032,-0.04107723122850003,0.05477400513065,0.00807773124408409,1.1340631823992553e-05,0.0019313216249285897,15.385544350021519
1639,A,184979675604493.0,2.4471765963903707,5.094562,0.7134721,199,1970-01-03 03:22:59.675604493,-0.66155773,-0.6747723,-0.525582,5.89533623497207,1.0813014037233295,-53.732975006103516,-68.6247787475586,81.85090637207031,15435441.0,49897.0,0.1354866836131403,-0.14638427591300002,0.05411695644495,0.007363917145618848,-0.004676883410919714,0.0027166661548688564,15.435441300011007
1639,A,184979725501443.0,3.1845906963903707,5.798457,1.4867992,199,1970-01-03 03:22:59.725501443,-0.38885,-0.8931515,-0.46166617,6.357759571379166,1.077988672006677,-53.851680755615234,-68.59907531738281,81.95148468017578,15485338.0,49897.0,0.14050414630394034,-0.21722611547850004,0.05489346852805,0.006885557220186287,-0.00907153384963084,0.0027196465874388905,15.485338250000495
1639,A,184979775398393.0,3.031361896390371,8.063372,1.7381904,199,1970-01-03 03:22:59.775398393,-0.4847238,-1.040158,-0.86966246,8.561987828175978,1.4398606257494826,-53.89502716064453,-68.70867156982422,81.97525024414062,15535235.0,49897.0,0.15507869326099033,-0.14315875919350005,0.08045865303559999,0.0073743484728856735,-0.008991062045754394,0.003376832404830721,15.535235200019088
1639,A,184979825295343.0,2.3370433963903707,9.042601,2.1643584,199,1970-01-03 03:22:59.825295343,-0.4485048,-0.9964822,-1.3863157,9.766823756328646,1.7652208220521222,-53.92124557495117,-68.77127075195312,81.97858428955078,15585132.0,49897.0,0.1339336594469403,-0.062222232609500064,0.09736273873679999,0.007210424681533807,-0.005123947673997148,0.004436376992633721,15.585132150008576
1639,A,184979875192293.0,1.4727364963903709,12.583625,3.7086184,199,1970-01-03 03:22:59.875192293,0.08945372,-1.261733,-1.7431793,13.673117484216945,2.1537516577496416,-53.70466613769531,-68.83860778808594,81.78070068359375,15635029.0,49897.0,0.09504829365504032,0.05055129936099994,0.1465219616948,0.005712756256964763,-0.00029117227815020537,0.006084557448717772,15.635029100027168
1639,A,184979925089243.0,0.6395545963903704,15.121479,3.359065,199,1970-01-03 03:22:59.925089243,1.1035855,-0.83562726,-1.5663453,16.183675020537464,2.090361564968474,-53.63297653198242,-68.93366241455078,81.76069641113281,15684926.0,49897.0,0.05269849432824032,0.20221018714400002,0.17632809930489998,0.0036860607400008767,0.006306019946069991,0.008054624746851015,15.684926050016657
1639,A,184979974986193.0,0.4216820963903709,19.511847,4.618415,199,1970-01-03 03:22:59.974986193,1.1845455,-0.7014039,-1.149827,20.642206058812487,1.7936603921686123,-53.40099334716797,-69.05422973632812,81.59729766845703,15734823.0,49897.0,0.026476263629840322,0.37505893371099996,0.19902615978,0.001975291448917175,0.014401998661650968,0.009364525732779625,15.734823000006145
1639,A,184980024883143.0,2.3059187963903707,10.855011,2.1164744,199,1970-01-03 03:23:00.024883143,0.16934855,0.8400337,0.2286252,11.464535027953502,0.8869075659829678,-53.357810974121094,-69.07463836669922,81.55525970458984,15784719.0,49896.0,0.06804818707309394,0.2686115733839999,0.1680220207512,0.002358195996136804,0.016058291811006056,0.009157118007892378,15.784719950024737
1639,A,184980074780093.0,2.767999696390371,10.91726,2.2697031,199,1970-01-03 03:23:00.074780093,-0.4399827,1.0445645,1.7274523,11.440490605349106,2.0661053263894438,-53.301944732666016,-69.06381225585938,81.48596954345703,15834616.0,49897.0,0.12658665551714032,0.054194903043499956,0.10942854935875,0.004855847370362459,0.008053537377151478,0.006921975548388087,15.834616900014225
1639,A,184980124677043.0,2.535762096390371,9.432856,1.5897499,199,1970-01-03 03:23:00.124677043,-0.646644,1.5079545,2.5381184,9.964695160172587,3.022270710777711,-53.53178405761719,-68.97343444824219,81.6758804321289,15884513.0,49897.0,0.13232090108719033,0.01871426902599996,0.0962875631705,0.006459355175943142,0.0018189744793759184,0.005132308433435993,15.884513850003714
1639,A,184980174573993.0,3.495836996390371,8.104074,1.1204864,199,1970-01-03 03:23:00.174573993,-0.88419795,1.7295295,2.9035041,8.383519115626813,3.49333857003172,-53.70854568481445,-68.96099090576172,81.80560302734375,15934410.0,49897.0,0.15047934996624032,-0.051470501895000034,0.06761633033054999,0.007055442063406514,-0.0008172188757322483,0.004089156287010945,15.934410800022306
1639,A,184980224470943.0,3.842996196390371,7.517494,0.09816227,199,1970-01-03 03:23:00.224470943,-0.70416826,1.5324556,2.8331966,7.6631318446314864,3.2971618217209704,-53.80064010620117,-68.80145263671875,81.86658477783203,15984307.0,49897.0,0.18309287991009032,-0.099255910752,0.030403456343495002,0.008322126777069633,-0.00376039790592368,0.0024454466478374113,15.984307750011794
1639,A,184980274367893.0,3.356973296390371,8.738537,-0.25617957,199,1970-01-03 03:23:00.274367893,0.094780035,1.3066195,2.0193348,8.961433779646114,2.407062692849086,-53.81361389160156,-68.68138122558594,81.88558959960938,16034203.999999998,49896.99999999814,0.17962843889063362,-0.08342701059649689,-0.003942294609049854,0.009049352822099524,-0.0045576648632628045,0.0006601662935317802,16.034204700001283
1639,A,184980324264843.0,4.4367582563903705,8.779239,-0.8571242,199,1970-01-03 03:23:00.324264843,0.009558884,1.2831837,1.1916243,8.865755023662974,1.7511768193302197,-53.77078628540039,-68.59541320800781,81.84011840820312,16084101.0,49897.00000000186,0.1944419116445576,-0.051948365464001944,-0.027775259105846037,0.009332494140327567,-0.0033774125696454807,-0.0007913053888561096,16.084101650019875
1639,A,184980374161793.0,4.757581296390371,8.520664,-1.496376,199,1970-01-03 03:23:00.374161793,-0.6338608,1.0839792,0.50772446,8.669757715635843,1.3544646717768505,-53.72936248779297,-68.54288482666016,81.7615737915039,16133997.999999998,49896.99999999814,0.22938498033254176,-0.05738397000449788,-0.05871629973969781,0.010573845214490268,-0.002727677771435766,-0.0021578346558579703,16.133998600009363
1639,A,184980424058743.0,3.7184976963903704,8.927679,-1.2234371,199,1970-01-03 03:23:00.424058743,-0.9885939,0.7739873,-0.47444934,9.153491926868487,1.3421909014387394,-53.66373062133789,-68.53910827636719,81.63794708251953,16183895.0,49897.00000000186,0.21146545675139825,-0.05368061466450205,-0.06785525712535252,0.010998557129589089,-0.0027708947906146483,-0.0031577704864478263,16.183895550027955
1639,A,184980473955693.0,4.2212800963903705,13.218088,-1.8555063,199,1970-01-03 03:23:00.473955693,-0.8043031,0.11884969,-1.9647542,13.3933790909618,2.126332004156535,-53.543190002441406,-68.61463165283203,81.46524810791016,16233792.000000002,49897.00000000186,0.19808554626319771,0.06351306799950232,-0.07681501941490287,0.01021768319871003,0.0002453049620282634,-0.003609306394264696,16.233792500017444
1639,A,184980523852643.0,2.313101396390371,9.763255,-0.12449849,199,1970-01-03 03:23:00.523852643,-1.2304089,-0.19433805,-2.7317448,10.218519556061443,3.0023495784475283,-53.41652297973633,-68.73020935058594,81.26323699951172,16283688.999999998,49896.999999996275,0.16302301667262817,0.08435943583549364,-0.04939814950331131,0.00900911698240378,0.0036891971619271214,-0.0031488292447558316,16.283689450006932
1639,A,184980573749003.0,1.7001855963903707,9.4974985,1.8794483,199,1970-01-03 03:23:00.573749003,-0.5049638,-1.1967518,-2.5985866,10.338571961273539,2.9051429616824778,-53.61610412597656,-68.8268051147461,81.41508483886719,16333585.0,49896.00000000186,0.10012348389589769,-0.008463521682000355,0.04378248785988163,0.006564978896183828,0.001893451266301421,-0.00014009952668028885,16.33358581000357
1639,A,184980623645363.0,0.10804139639037036,8.606855,3.1435869,199,1970-01-03 03:23:00.623645363,1.9302306,-1.277712,-1.9093605,10.544856550197991,3.000665866617043,-53.50586700439453,-68.94158935546875,81.40037536621094,16383482.0,49897.0,0.04511255112939032,-0.03731413670525003,0.12531719368719998,0.0036234212198283976,-0.0011420839102743161,0.004218783405077365,16.383482170000207
1639,A,184980673541723.0,4.13987729639037,6.7034655,1.3790601,199,1970-01-03 03:23:00.673541723,1.8396832,-1.0944865,-1.0923027,6.945983966909793,2.4032187090383137,-53.209964752197266,-69.173095703125,81.2139892578125,16433378.000000002,49896.00000000186,0.10597707554749787,-0.10701892416600405,0.11283099735600421,0.0037693840063351474,-0.0036008212026161814,0.00594132107014608,16.433378530025948
1639,A,184980723438083.0,4.19494389639037,9.092878,2.1619642,199,1970-01-03 03:23:00.723438083,-0.5422481,-0.80153877,-0.9218604,9.414631444636072,1.3365343238596168,-52.793338775634766,-69.41240692138672,80.80054473876953,16483274.000000002,49896.0,0.20793711911749393,-0.09489362236200002,0.08834147423640001,0.007831531328502216,-0.005037314210780646,0.005018850821287301,16.483274890022585
1639,A,184980773334443.0,1.9731245963903707,9.681852,3.083732,199,1970-01-03 03:23:00.773334443,-1.4477229,-0.3690414,-1.0678016,10.700178250760136,1.836380518046554,-52.65635299682617,-69.35334777832031,80.59838104248047,16533171.0,49896.99999999814,0.15388405679213457,-0.02058924859499927,0.1308722516456951,0.00902689560718103,-0.0028811244060705896,0.0054690536401692455,16.533171250019222
1639,A,184980823230803.0,1.3865452963903708,10.696994,2.5091233,199,1970-01-03 03:23:00.823230803,-1.2964553,-0.6108565,-1.3064208,11.67243889880173,1.9392465844144164,-52.817989349365234,-69.35211944580078,80.68355560302734,16583067.0,49896.0,0.08381704448509394,0.01943065000799995,0.1395305540244,0.005930167074664297,-2.890471754845906e-05,0.006746009195857533,16.58306761001586
1639,A,184980873127163.0,-0.7945723036096295,13.9076185,3.9312792,199,1970-01-03 03:23:00.873127163,0.55071324,-0.7035344,-1.4406441,15.695419997167965,1.6951994418237246,-52.89571762084961,-69.2589340209961,80.77658081054688,16632963.0,49896.0,0.014768542223893935,0.12485507264999997,0.16067516157,0.00245951321721583,0.003599640208871782,0.007489532192649092,16.632963970012497
1639,A,184980923023523.0,-1.259047403609629,19.511847,4.10845,199,1970-01-03 03:23:00.923023523,2.113456,-0.8249746,-1.2552881,20.999118691735834,2.592880168573698,-52.911197662353516,-69.3120346069336,80.88810729980469,16682860.000000002,49897.00000000186,-0.051234731265561585,0.34477493502676276,0.2005791839462075,-0.0009097767173060794,0.011716564246524152,0.00901275403911144,16.682860330009134
1639,A,184980972919883.0,2.5932229963903706,8.348282,1.8195933,199,1970-01-03 03:23:00.972919883,0.8170293,0.87518746,0.3575222,8.970862402272978,1.2495247459304604,-52.89546585083008,-69.25269317626953,80.90309143066406,16732755.999999998,49895.999999996275,0.033285012688691454,0.20607369829198452,0.14789282424838898,-0.0004478095790557226,0.01374257170403508,0.008693679660438143,16.732756690005772
1639,A,184981022816243.0,2.308313096390371,9.65791,3.071761,199,1970-01-03 03:23:01.022816243,0.13952114,0.4714522,1.8808503,10.574559922985967,1.944050199043695,-52.749149322509766,-69.08716583251953,80.78630065917969,16782653.0,49897.00000000186,0.1222859732107449,-0.039763118888001554,0.12203195275355455,0.0038812627417122328,0.004149199490260424,0.006734218299033239,16.78265305000241
1639,A,184981072712603.0,1.4320350963903707,9.214983,1.5227122,199,1970-01-03 03:23:01.072712603,0.75950503,0.88370955,2.427331,10.119417646299704,2.6925315676733494,-53.26090621948242,-68.89678192138672,81.31318664550781,16832549.0,49896.0,0.09331420671349394,-0.01813986543600005,0.11462291739359999,0.005378793288749911,-0.0014445636529151922,0.005904065700431211,16.83254941002815
1639,A,184981122608963.0,3.780746996390371,8.456021,1.8842367,199,1970-01-03 03:23:01.122608963,1.2388741,1.340708,2.3943079,8.800253676121224,3.0108167159289554,-52.98076248168945,-68.89688873291016,81.1160659790039,16882445.0,49896.0,0.13004848765069396,-0.04812459220800004,0.0849965611572,0.00557245249899776,-0.0016531656893025142,0.004980106750885358,16.882445770024788
1639,A,184981172505323.0,4.238039496390371,6.9859815,1.42455,199,1970-01-03 03:23:01.172505323,0.2130244,1.4365817,2.2483666,7.212375461035512,2.676620769508787,-52.73051834106445,-68.94329833984375,80.89623260498047,16932342.0,49897.0,0.2000566948151403,-0.10373580062875003,0.08254926498495,0.008235629144748865,-0.0037886890106876587,0.004180017043507429,16.932342130021425
1639,A,184981222401683.0,3.866938196390371,7.488764,0.02873042,199,1970-01-03 03:23:01.222401683,-0.4879196,1.236312,1.726387,7.629756173955455,2.1787484873608425,-52.76280975341797,-68.83716583251953,80.9046859741211,16982238.0,49896.0,0.20220298347949398,-0.12786484926600003,0.03625643991816,0.010035574454094537,-0.005777973013574225,0.002963964725922788,16.982238490018062
1639,A,184981272298043.0,3.5844223963903707,9.849446,-0.16280572,199,1970-01-03 03:23:01.272298043,-0.3718058,1.1212635,0.95726603,10.003672326770964,1.520470204094066,-52.741031646728516,-68.76512145996094,80.86139678955078,17032134.0,49896.0,0.18589654406869394,-0.05642713692000004,-0.0033449105843999997,0.009682307013272192,-0.00459771647136833,0.0008210768338186446,17.0321348500147
1639,A,184981322194403.0,4.525343696390371,11.585243,-1.2449849,199,1970-01-03 03:23:01.322194403,-1.0983161,1.0711961,0.53861713,11.679466577066153,1.6259974639905983,-52.7282829284668,-68.71123504638672,80.78878784179688,17082031.0,49897.0,0.20232649936574032,0.045772738516499975,-0.03512226428307,0.009685582599123983,-0.00026581125856972126,-0.0009596983121810752,17.082031210011337
1639,A,184981372090763.0,3.5987875963903706,10.907683,-0.94810385,199,1970-01-03 03:23:01.372090763,-1.786477,0.79955363,0.18388408,11.08431182008897,1.9658584470028924,-52.75033187866211,-68.67975616455078,80.7165756225586,17131927.0,49896.0,0.20268082749229396,0.07217271784799999,-0.054713178135,0.01010412279045424,0.0029425032453815453,-0.0022412146174460106,17.131927570007974
1639,A,184981421987123.0,3.524567496390371,13.706506,-1.5011644,199,1970-01-03 03:23:01.421987123,-0.95450544,-0.093137935,-0.871793,13.905729531153362,1.2960626315015251,-52.73987579345703,-68.71724700927734,80.65412902832031,17181823.0,49896.0,0.17771346285469394,0.12509398717199996,-0.061104344301,0.009490076755576655,0.0049214097568389585,-0.002889415549733328,17.18182393000461
1639,A,184981471883483.0,2.399292596390371,9.365818,0.29927522,199,1970-01-03 03:23:01.471883483,-0.11720758,-0.41271725,-1.7548972,9.817206932900534,1.8065816692928276,-52.65114974975586,-68.7995376586914,80.55264282226562,17231720.0,49897.0,0.1477914235247403,0.08662927531399996,-0.029985332207229997,0.008120858657837316,0.005282177814131969,-0.002272550794365576,17.23172029000125
1639,A,184981521779843.0,2.2197273963903705,8.56376,2.0590134,199,1970-01-03 03:23:01.521779843,0.5688227,-1.1743814,-1.8038993,9.33972744914433,2.2263835296825523,-52.70734405517578,-68.85005950927734,80.62865447998047,17281616.0,49896.0,0.11523531077989393,-0.04167368805600001,0.05883458449176001,0.006561990967432016,0.0011215519909125828,0.0007197311459944548,17.28161665002699
1639,A,184981571676203.0,1.7145507963903706,7.302016,2.3918076,199,1970-01-03 03:23:01.571676203,1.6383482,-1.1189876,-1.2904419,8.490433692417547,2.3667611562370654,-52.77232360839844,-68.69960021972656,80.76759338378906,17331513.0,49897.0,0.09815433949259031,-0.09316328746400002,0.11104130771849997,0.005323751689823073,-0.00336398028376072,0.00423814869680767,17.331513010023627
1639,A,184981621582083.0,4.276346796390371,5.092168,1.2521675,199,1970-01-03 03:23:01.621582083,0.9192947,-0.8398883,-0.69815487,5.348012875087338,1.4275627217147753,-52.489585876464844,-68.85030364990234,80.55132293701172,17381418.0,49905.0,0.14948787218386145,-0.17980312374000001,0.09092628868275,0.006179292286856662,-0.00681119437556781,0.00503959644920219,17.381418890028726
1639,A,184981671487963.0,3.6299121963903707,6.5861497,1.6591818,199,1970-01-03 03:23:01.671487963,-0.3867195,-0.6470754,-0.5351694,7.000655811993198,0.9244808443995851,-52.37221145629883,-68.92776489257812,80.42717742919922,17431324.0,49906.0,0.19728488064685784,-0.19766973843190003,0.07264689908290001,0.008653020501384938,-0.00941908032977542,0.004081641754316264,17.43132477000472
1639,A,184981721393843.0,2.2316985963903706,10.069713,2.3415294,199,1970-01-03 03:23:01.721393843,-0.41654688,-0.6215091,-1.0209299,10.79169232282424,1.2657340658031426,-52.38900375366211,-68.98709106445312,80.42105865478516,17481230.0,49906.0,0.14626477411225783,-0.07346505804690003,0.09982974657360001,0.008572594535204214,-0.006765626576535498,0.004303809739066644,17.48123065000982
1639,A,184981771299723.0,2.1838143963903707,11.736077,2.6144683,199,1970-01-03 03:23:01.771299723,-0.100163355,-0.5682459,-1.5706065,12.427726378378773,1.673242623887497,-52.2779655456543,-69.11206817626953,80.3035659790039,17531136.0,49906.0,0.11018029570885782,0.05504107786999996,0.12366701060810001,0.006399073827246298,-0.0004597335773541873,0.0055769145819549604,17.53113653001492
1639,A,184981821205603.0,0.1750793963903705,14.010569,3.8043866,199,1970-01-03 03:23:01.821205603,0.49212366,-0.6598586,-1.7527666,15.404808103074581,1.9364374048239503,-52.218448638916016,-69.10985565185547,80.26114654541016,17581042.0,49906.0,0.058861476811257835,0.15337725763799998,0.1601696863197,0.004218099349694446,0.0052006627259311225,0.007082577098439393,17.581042410020018
1639,A,184981871111483.0,-0.33488550360962943,19.511847,3.4883518,199,1970-01-03 03:23:01.871111483,1.5382134,-0.85586727,-1.3500967,20.613922260241065,2.218416179878722,-52.26091384887695,-69.24361419677734,80.3699951171875,17630948.0,49906.0,-0.003987641793442168,0.34740604644799994,0.18197570129519997,0.0013692668051995544,0.012496045786857956,0.008537553857154599,17.630948290025117
1639,A,184981921017363.0,1.2428930963903708,10.534188,2.3535004,199,1970-01-03 03:23:01.921017363,1.9238391,0.6461556,0.012376509,11.540588229797654,2.029489374220815,-52.32143020629883,-69.14469909667969,80.50759887695312,17680854.0,49906.0,0.02265751346265784,0.26065991135499994,0.1457717379466,0.0004658693077619387,0.015173069845058255,0.008178281851400633,17.680854170001112
1639,A,184981970923243.0,3.2109268963903705,11.448773,1.958457,199,1970-01-03 03:23:01.970923243,0.6710881,0.91034114,1.355675,11.806195592981865,1.7654843343295656,-52.21418762207031,-69.23216247558594,80.44063568115234,17730760.0,49906.0,0.11113617027985784,0.05946202583299995,0.1075962730022,0.003338553790426994,0.00798800269865216,0.006322291977205407,17.73076005000621
1639,A,184982020829123.0,3.127129896390371,8.930073,1.8411411,199,1970-01-03 03:23:02.020829123,-0.10335915,1.5122156,2.105621,9.37944063592155,2.5944400032402144,-52.1856803894043,-69.17687225341797,80.41083526611328,17780665.0,49905.0,0.15815036212186145,0.019434154814999948,0.09480947159025,0.0067193721997539,0.0019686569476192175,0.005050529341943108,17.78066593001131
1639,A,184982070735003.0,3.2923298963903704,6.3227873,1.982399,199,1970-01-03 03:23:02.070735003,-0.9374612,1.695441,2.540249,6.931523347598314,3.1947173064275094,-52.0772590637207,-68.94381713867188,80.26964569091797,17830571.0,49906.0,0.16018478020925783,-0.10847417693410004,0.0954087961153,0.00794341680658842,-0.0022218156719379044,0.004746516434056589,17.83057181001641
1639,A,184982120640883.0,3.2971182963903707,5.6931124,0.7134721,199,1970-01-03 03:23:02.120640883,-1.0929898,1.4355165,2.661689,6.086015341824503,3.215575011937568,-52.642879486083984,-68.82732391357422,80.75533294677734,17880477.0,49906.0,0.16442650075445783,-0.18924605478590004,0.0672700715583,0.008100025293887597,-0.007429012942109161,0.004059325785059341,17.880477690021507
1639,A,184982170546763.0,3.5700572963903707,6.672341,-0.5291186,199,1970-01-03 03:23:02.170546763,-0.05648751,1.1308509,2.00016,6.919951569030277,2.29840262408848,-52.68608474731445,-68.7135009765625,80.79864501953125,17930383.0,49906.0,0.17135663256665784,-0.1805236413098,0.004600172885500001,0.008378796525761798,-0.009226863226676003,0.0017933782096061417,17.930383570026606
1639,A,184982220452643.0,3.6227295963903705,7.9747868,0.04070143,199,1970-01-03 03:23:02.220452643,0.7296776,1.0701308,0.7378216,8.154890336829217,1.4906341075116187,-52.597984313964844,-68.65171813964844,80.74324035644531,17980289.0,49906.0,0.17948161133555784,-0.12358902000660002,-0.01218747364301,0.008754466700091989,-0.007588523237828129,-0.00018932591580214702,17.9802894500026
1639,A,184982270358523.0,4.443940856390371,11.089643,-0.4261679,199,1970-01-03 03:23:02.270358523,-0.14277393,0.92845064,-0.17084898,11.132878416882367,0.9547745073948586,-52.49760818481445,-68.63026428222656,80.62779998779297,18030195.0,49906.0,0.20128762780823783,-0.013364083200600011,-0.00961854482591,0.009501334824355133,-0.0034173907843292623,-0.0005441255788549607,18.0301953300077
1639,A,184982320264403.0,4.151848296390371,11.836634,-1.3239936,199,1970-01-03 03:23:02.320264403,-1.7683674,0.73031145,-0.41692504,11.968250909005041,1.9581380350636326,-52.47957992553711,-68.62456512451172,80.51348876953125,18080101.0,49906.0,0.21449072672933786,0.08300058998099998,-0.043671779909500004,0.010374917280776127,0.0017376397536913203,-0.0013297534731226857,18.0801012100128
1639,A,184982370170283.0,3.510202096390371,16.830938,-2.4396915,199,1970-01-03 03:23:02.370170283,-1.9654413,-0.08674635,-1.2403744,17.103568715634093,2.325728506330731,-52.49003982543945,-68.6764144897461,80.41920471191406,18130007.0,49906.0,0.19119114345105784,0.22626312411599997,-0.0939152343003,0.010122979706611414,0.007717057457862439,-0.003433208765577139,18.130007090017898
1639,A,184982420076163.0,1.9707303963903708,6.7513494,-0.02633622,199,1970-01-03 03:23:02.420076163,-1.4477229,-0.39567304,-1.6611539,7.539471432782244,2.2387253134881155,-52.47285461425781,-68.75433349609375,80.32307434082031,18179912.0,49905.0,0.13676296802611146,0.09936802634849992,-0.061533556683299996,0.008183274966634067,0.008125311281965433,-0.0038788359570182786,18.179912970022997
1639,A,184982469982043.0,1.6810320963903709,8.515876,1.8219875,199,1970-01-03 03:23:02.469982043,0.79785454,-1.6430976,-1.8550321,9.440886344680422,2.603360459512816,-52.78041076660156,-68.78002166748047,80.65007019042969,18229818.0,49906.0,0.09112242948235785,-0.10811572459380003,0.044806886389840005,0.005686424324028835,-0.00021828131431497367,-0.00041738060383270716,18.229818850028096
1639,A,184982519887923.0,0.28521259639037044,7.804798,2.645593,199,1970-01-03 03:23:02.519887923,3.3225312,-1.648424,-1.4065557,9.660753410448548,3.96672587859962,-52.67367172241211,-68.88590240478516,80.71375274658203,18279724.0,49906.0,0.04906370381895784,-0.08182902167800002,0.1114795362165,0.00349806458426773,-0.004739691253720227,0.0038998151032960024,18.27972473000409
1639,A,184982569793803.0,5.72723296639037,5.9756284,1.3000516,199,1970-01-03 03:23:02.569793803,2.1262393,-1.2947562,-0.6001505,6.128518023943337,2.5607553184467235,-52.653682708740234,-68.94904327392578,80.80626678466797,18329630.0,49906.0,0.15002855412806781,-0.14521582004080005,0.09845566970379999,0.004967949112552131,-0.005665449935409218,0.005238513193329245,18.32963061000919
1639,A,184982619699683.0,4.74082189639037,6.6076975,1.5562311,199,1970-01-03 03:23:02.619699683,-1.146253,-0.9783727,-0.34129128,6.8137155563618075,1.545182454572381,-52.78532409667969,-68.99221801757812,80.88590240478516,18379536.0,49906.0,0.2612093729909678,-0.17508706881730005,0.0712728222131,0.010261619995401296,-0.007992517985676172,0.004235235058802405,18.37953649001429
1639,A,184982669612763.0,1.8222900963903705,9.751285,2.837129,199,1970-01-03 03:23:02.669612763,-1.6692978,-0.82390934,-0.6470222,10.74324998078491,1.9707915853577505,-52.8511848449707,-68.94808197021484,80.87421417236328,18429449.0,49913.0,0.16379230444783255,-0.08088445323875006,0.10964289133564999,0.010606554363001421,-0.006388153290191815,0.004515023005179379,18.429449570016004
1639,A,184982719525843.0,1.5756872963903708,10.550947,2.9161377,199,1970-01-03 03:23:02.719525843,-0.40909004,-0.74721026,-1.2052207,11.57134763607679,1.4758844023787767,-52.834083557128906,-68.93899536132812,80.83678436279297,18479362.0,49913.0,0.08480162280293257,0.017525252907999965,0.14358140039855,0.00620403434543372,-0.0015812238830543647,0.006319592036664562,18.47936265001772
1639,A,184982769438923.0,0.8239080963903707,14.716859,3.9743748,199,1970-01-03 03:23:02.769438923,0.8148988,-0.93895787,-1.48432,15.895166133506784,1.936209647294522,-52.661556243896484,-68.99934387207031,80.71110534667969,18529275.0,49913.0,0.059885502419932575,0.14144860043899996,0.17196307520624998,0.003610884240624434,0.003967430971054404,0.00787488570543119,18.529275730019435
1639,A,184982819352003.0,0.47435439639037025,17.048811,3.7828386,199,1970-01-03 03:23:02.819352003,1.7107862,-0.9623937,-1.2531576,18.125027643051823,2.3288183755604237,-52.56218338012695,-69.1072998046875,80.69824981689453,18579188.0,49913.0,0.03240008790108256,0.303612543355,0.1935928962171,0.002303125334846414,0.01110716843509496,0.009122997600826833,18.57918881002115
1639,A,184982869265083.0,0.32830809639037106,14.714464,3.6583402,199,1970-01-03 03:23:02.869265083,2.1219783,0.5918271,-0.3018765,15.965035438897624,2.22355135834942,-52.40439987182617,-69.05299377441406,80.63833618164062,18629101.0,49913.0,0.02003164650108257,0.30355277253749996,0.18570577872219998,0.001308512579607634,0.015152721206071173,0.00946596738112264,18.629101890022866
1639,A,184982919178163.0,3.5125962963903707,11.53257,1.7980455,199,1970-01-03 03:23:02.919178163,0.70517653,0.9572128,1.0765756,11.812025249659623,1.603915616689993,-52.247127532958984,-69.19406127929688,80.52249908447266,18679014.0,49913.0,0.09585553047843258,0.16588670402099995,0.13617228972205,0.0028921383322892697,0.011715566296732203,0.008032950015128925,18.679014970024582
1639,A,184982969091243.0,3.498231096390371,9.353847,1.8076223,199,1970-01-03 03:23:02.969091243,0.11608533,1.5697398,2.0512927,9.700777241486906,2.5856064249259862,-52.11444854736328,-69.20315551757812,80.40415954589844,18728928.0,49914.0,0.17496921924162898,0.03210510906899996,0.0899866512846,0.006758973278763576,0.004941281679287128,0.005644248690702965,18.728928050026298
1639,A,184983019004323.0,2.9140458963903706,7.1847,2.1906946,199,1970-01-03 03:23:03.019004323,-0.58272815,1.8222075,2.4965732,7.889216084121476,3.1452964904467926,-52.030616760253906,-68.96026611328125,80.30029296875,18778841.0,49913.0,0.16002799077033258,-0.07640315179450002,0.09978399571485,0.00836035787166352,-0.0011055241032789423,0.0047360111518417744,18.778841130028013
1639,A,184983068917403.0,3.2995124963903706,6.2988453,1.2808979,199,1970-01-03 03:23:03.068917403,-0.8405221,1.7103547,2.6126869,6.739840543790695,3.2338712772514784,-52.24555969238281,-68.81187438964844,80.46623992919922,18828754.0,49913.0,0.15506867002943256,-0.15264530172055002,0.08663879822625,0.007863709815249339,-0.005716247730148346,0.004652460456991062,18.828754210000625
1639,A,184983118830483.0,3.799900596390371,6.1336455,-0.11492168,199,1970-01-03 03:23:03.118830483,-0.2301256,1.4930408,2.1482317,6.32184999098053,2.6262193471080995,-52.274314880371094,-68.68122863769531,80.48474884033203,18878667.0,49913.0,0.17717650284998257,-0.17887594334980003,0.029098685534430003,0.008291676656965124,-0.00827360995259819,0.00288840251347341,18.87866729000234
1639,A,184983168743563.0,3.9243990963903705,8.269274,-0.6392518,199,1970-01-03 03:23:03.168743563,0.42501202,1.3470995,0.916786,8.411649756819124,1.6839860004883445,-52.18872833251953,-68.60374450683594,80.4156723022461,18928580.0,49913.0,0.19277148528288257,-0.12970093949825004,-0.018821530453620002,0.009232606965837848,-0.0077009989767973614,0.0002564818207742348,18.928580370004056
1639,A,184983218656643.0,4.264375796390371,9.995493,-0.5243302,199,1970-01-03 03:23:03.218656643,-0.5614228,1.4024934,-0.07390991,10.065447607224248,1.5124966023762194,-52.069847106933594,-68.56358337402344,80.25782012939453,18978493.0,49913.0,0.20436316061168258,-0.03332274236450006,-0.029038934182999996,0.009911090790267715,-0.004068500516407723,-0.001194429685703807,18.97849345000577
1639,A,184983268569723.0,4.2931061963903705,12.167034,-1.8650831,199,1970-01-03 03:23:03.268569723,-2.1135132,1.1074151,-0.40094608,12.352468195529234,2.4195173091651188,-52.03300857543945,-68.54537200927734,80.10469818115234,19028406.0,49913.0,0.21356479935283254,0.06395170507549994,-0.059631393021450006,0.010430019132854422,0.0007643917078970684,-0.0022129010208778565,19.028406530007487
1639,A,184983318482803.0,3.5030194963903707,13.191752,-2.3702598,199,1970-01-03 03:23:03.318482803,-2.4384189,0.36812156,-1.045431,13.526495919344706,2.6784932687193828,-52.03608703613281,-68.57524108886719,79.97702026367188,19078319.0,49913.0,0.19456401085188257,0.14371914280899992,-0.10569933508385,0.010185466651873974,0.00518273751522952,-0.004126076315959919,19.078319610009203
1639,A,184983368395883.0,1.5948408963903709,11.017817,-0.59855044,199,1970-01-03 03:23:03.368395883,-1.347588,-0.11124743,-1.8774025,11.648046032308683,2.3136571819160796,-51.967105865478516,-68.65264892578125,79.83057403564453,19128232.0,49913.0,0.1272247528924326,0.11503870874849996,-0.07409111275456,0.008030721282385002,0.006457690322394745,-0.004486940311479279,19.12823269001092
1639,A,184983418308963.0,1.3841510963903705,8.556578,0.5530606,199,1970-01-03 03:23:03.418308963,0.22367704,-1.112596,-2.124544,9.43738444259639,2.408648684506556,-51.90021896362305,-68.77057647705078,79.77079010009766,19178145.0,49913.0,0.07434521366783257,-0.0006390111825000136,-0.0011352671919600001,0.005030480870461257,0.0028550160523058777,-0.0018773871511353264,19.178145770012634
1639,A,184983468222043.0,0.6634965963903703,9.047389,1.6807296,199,1970-01-03 03:23:03.468222043,2.4266438,-1.5994219,-1.7698109,10.316255534307466,3.402790203353251,-51.80013656616211,-68.88957214355469,79.79358673095703,19228058.0,49913.0,0.05110211964488256,-0.049813997564500015,0.0557475851263,0.003130726373818775,-0.0012591305127945063,0.0013629323125283561,19.22805885001435
1639,A,184983518135123.0,3.0433328963903707,5.9349265,0.85473,199,1970-01-03 03:23:03.518135123,3.1467626,-1.4811774,-0.92079514,6.416187892279207,3.5977583355302145,-52.180259704589844,-68.96437072753906,80.30577087402344,19277971.0,49913.0,0.09250949023658256,-0.11524124322425,0.0632761975074,0.0035840431420067842,-0.004119201116744439,0.0029704170312979342,19.277971930016065
1639,A,184983568048203.0,4.88686819639037,5.985205,1.4939818,199,1970-01-03 03:23:03.568048203,0.85005254,-1.237232,-0.33703023,6.184502507803214,1.5384803276344825,-52.2381591796875,-69.01557159423828,80.413330078125,19327885.0,49914.0,0.19791402867252897,-0.19166647815450003,0.058616800392600005,0.007248099761414697,-0.007659496002449463,0.0030420835485903,19.32788501001778
1639,A,184983617961283.0,3.811871596390371,9.387365,1.9440918,199,1970-01-03 03:23:03.617961283,-0.9278738,-1.1637287,-0.5522136,9.70549728570332,1.5874993341589436,-52.10776901245117,-69.24005126953125,80.25858306884766,19377798.0,49913.0,0.2170900996385326,-0.10550185679500002,0.0858022837984,0.010357050528195008,-0.007416281551167197,0.003604194874612692,19.377798090019496
1639,A,184983667874363.0,1.7911653963903706,10.821492,2.171541,199,1970-01-03 03:23:03.667874363,-1.444527,-0.7109913,-1.1295869,11.589648514842729,1.9667570889808177,-52.322628021240234,-69.30387878417969,80.3896484375,19427711.0,49913.0,0.13983219271033256,0.015194939720499966,0.1027117899732,0.008907531189004454,-0.0022537445759697604,0.004704651482080936,19.42771117002121
1639,A,184983717793283.0,1.5493510963903705,13.854946,2.3295584,199,1970-01-03 03:23:03.717793283,-1.1153604,-0.9560021,-1.5865854,14.548346345929856,2.1622261834936998,-52.48072052001953,-69.47142791748047,80.481689453125,19477630.0,49919.0,0.08337762140156091,0.12670535426099994,0.11234519047429997,0.005571205355325805,0.0035417603876312462,0.0053677147034793754,19.47763009002665
1639,A,184983767712203.0,-1.2231344036096292,16.854881,4.074931,199,1970-01-03 03:23:03.767712203,1.2484614,-1.0998129,-1.7410487,18.536229187029335,2.4082140390895614,-52.56001281738281,-69.47511291503906,80.61111450195312,19527549.0,49919.0,0.008142205543460911,0.27729572700649996,0.1598528531793,0.002284289120634272,0.010083664987896163,0.006793927070572029,19.527549010002986
1639,A,184983817631123.0,-1.869569203609629,16.589125,5.104438,199,1970-01-03 03:23:03.817631123,4.0969787,0.09860966,-1.0709974,18.78935791751507,4.235799070317874,-52.32867431640625,-69.32853698730469,80.57362365722656,19577467.0,49918.0,-0.07719078933258545,0.3455325457539999,0.229107870871,-0.0017233836027927593,0.015545170859829316,0.009708070711571438,19.577467930008424
1639,A,184983867550043.0,5.068827516390371,10.021829,1.6472107,199,1970-01-03 03:23:03.867550043,2.0974772,0.716463,0.5609877,10.159568574754433,2.2863589032433493,-52.19426345825195,-69.28443145751953,80.54204559326172,19627386.0,49919.0,0.07985188785785093,0.17498990636299994,0.16851777572765,6.641968864136351e-05,0.012991980143614254,0.009924537326279004,19.627386850013863
1639,A,184983917468963.0,4.513372696390371,9.5693245,1.5131354,199,1970-01-03 03:23:03.917468963,0.7381998,1.6432431,1.7743238,9.7222926891787,2.5285196810909127,-52.12977981567383,-69.1639633178711,80.5125503540039,19677305.0,49919.0,0.23916692621090088,-0.0002208042167500161,0.07888065848294999,0.00796255008974901,0.0043621494050193246,0.00617494121867947,19.677305770019302
1639,A,184983967387883.0,3.7903237963903704,7.062596,2.0566192,199,1970-01-03 03:23:03.967387883,-0.590185,2.3303387,2.1152084,7.51466915513006,3.2020155162605395,-51.72586441040039,-69.04632568359375,80.09799194335938,19727224.0,49919.0,0.2072561126115609,-0.07408178028025002,0.08909928993869999,0.011142495837489235,-0.0018545553577528722,0.004192695522630172,19.72722469002474
1639,A,184984017306803.0,5.976229936390371,6.543054,2.5019407,199,1970-01-03 03:23:04.017306803,-1.286868,2.4091682,2.1311874,7.035141290997422,3.464401881888705,-51.71595764160156,-68.8880386352539,80.01844024658203,19777143.0,49919.0,0.2437682978933409,-0.14961597882500002,0.11377937582405001,0.011257343773997097,-0.005583384218387488,0.005063750058105358,19.777143610001076
1639,A,184984067225723.0,4.381691596390371,8.149563,-0.11971009,199,1970-01-03 03:23:04.067225723,-2.7729118,2.0363257,2.0076168,8.20503868565524,3.983238308550214,-51.80857467651367,-68.74620056152344,79.96908569335938,19827062.0,49919.0,0.2585285424974409,-0.12248582598850002,0.059459284910295,0.012537077987733718,-0.006791524997242554,0.004323950352598884,19.827062530006515
1639,A,184984117144643.0,2.4040809963903707,9.047389,-1.5729905,199,1970-01-03 03:23:04.117144643,-2.052793,1.9234077,1.2544749,9.636958779101926,3.08012395140168,-51.816829681396484,-68.63742065429688,79.86776733398438,19876981.0,49919.0,0.1693694910295109,-0.059978876555999996,-0.042248960376104996,0.010680120967815952,-0.004554227743159448,0.0004295610952111154,19.876981450011954
1639,A,184984167063563.0,4.156636696390371,10.333076,-2.5115175,199,1970-01-03 03:23:04.167063563,-1.1654278,1.7945106,0.7165163,10.69808946264945,2.256520741914616,-51.751792907714844,-68.55375671386719,79.73532104492188,19926900.0,49919.0,0.1637522332529609,-0.005479483832500012,-0.10194727742599999,0.008314551677228353,-0.0016338079461167658,-0.0035990659974216395,19.926900370017393
1639,A,184984216982483.0,4.156636696390371,11.69777,-2.4971523,199,1970-01-03 03:23:04.216982483,-1.7534537,1.2544216,0.33515164,12.018424645458499,2.1818570187766517,-51.74064636230469,-68.50179290771484,79.62914276123047,19976819.0,49919.0,0.2074951472471109,0.06067270073699997,-0.1250138938731,0.00926614899359154,0.0013775950973278666,-0.005664837355039886,19.97681929002283
1639,A,184984266901403.0,3.182196496390371,10.634745,-1.6927006,199,1970-01-03 03:23:04.266901403,-1.4551797,0.42884165,-0.38390186,10.980060593892409,1.5648749976206637,-51.74050521850586,-68.50359344482422,79.55078887939453,20026738.0,49919.0,0.1831736070752109,0.06820220814249998,-0.10457663345755,0.009750896773507992,0.003216653288177879,-0.005730464766909358,20.02673821002827
1639,A,184984316820323.0,2.586040396390371,12.930784,-1.1994951,199,1970-01-03 03:23:04.316820323,-0.39311108,-0.35306245,-1.5823244,13.27233669407845,1.6682145910086414,-51.67063903808594,-68.57659912109375,79.45459747314453,20076657.0,49919.0,0.1439723087253609,0.09897762107549996,-0.07218775857415001,0.008165398485424373,0.0041727249473666695,-0.004411950842915216,20.076657130004605
1639,A,184984366739243.0,1.9491825963903708,8.388984,0.5626374,199,1970-01-03 03:23:04.366739243,0.030864172,-1.2244488,-2.105369,9.060845455833855,2.435735225162145,-51.624839782714844,-68.6971206665039,79.4070816040039,20126576.0,49919.0,0.11319689828831093,0.04292454939599996,-0.015895649763150003,0.006418814822457743,0.003541807223883402,-0.0021985178303948394,20.126576050010044
1639,A,184984416658163.0,1.4248524963903706,8.420108,2.528277,199,1970-01-03 03:23:04.416658163,1.5616492,-1.688904,-1.814552,9.618443285820911,2.929802707654671,-51.7520751953125,-68.63400268554688,79.60193634033203,20176494.0,49918.0,0.08421254188071452,-0.069658272772,0.0771461325096,0.004927142217178706,-0.0006672470017415849,0.0015287507988686452,20.176494970015483
1639,A,184984466577083.0,2.6363184963903707,4.7474027,1.0845734,199,1970-01-03 03:23:04.466577083,2.3936207,-1.5046133,-1.0603448,5.563455052025855,3.019538430438073,-51.69954299926758,-68.72218322753906,79.67401885986328,20226413.0,49919.0,0.10136479739431092,-0.16055171668335,0.0901749395588,0.004631917599634998,-0.005745926231810808,0.00417625029829123,20.226413890020922
1639,A,184984516496003.0,4.805465296390371,6.2413845,1.4101849,199,1970-01-03 03:23:04.516496003,0.9342084,-1.3821079,-0.6491527,6.419901763414849,1.7900745263229294,-51.74066925048828,-68.79048919677734,79.76825714111328,20276332.0,49919.0,0.1857432025759109,-0.2149315658816,0.06226791978885,0.007166072125256752,-0.00937187499117987,0.0038048975478876704,20.27633281002636
1639,A,184984566414923.0,3.1678312963903705,11.463139,2.9879637,199,1970-01-03 03:23:04.566414923,-0.25356144,-1.3107352,-1.0177342,12.041262158511204,1.6787206647395372,-51.470645904541016,-68.9709701538086,79.51177978515625,20326251.0,49919.0,0.1990094963075109,-0.047310145701750045,0.10977558998169999,0.009603234987780766,-0.006545422000264626,0.004294119982118042,20.326251730002696
1639,A,184984616333843.0,2.1119883963903705,9.873388,3.6535518,199,1970-01-03 03:23:04.616333843,-0.54650915,-0.7280355,-1.2116123,11.007556517558896,1.51549078050817,-51.16432189941406,-68.91988372802734,79.19706726074219,20376170.0,49919.0,0.1317816596219609,0.04334284565649997,0.16576890612224998,0.008256381856421652,-9.902182547941923e-05,0.006877452850506539,20.376170650008135
1639,A,184984666252763.0,1.5349858963903706,12.6817875,3.4955344,199,1970-01-03 03:23:04.666252763,-0.012811669,-1.0678549,-1.1647407,13.69026059256344,1.5802212264594682,-51.07752227783203,-68.97362518310547,79.1172866821289,20426089.0,49919.0,0.0910266548606609,0.07375970289224998,0.17843761700889998,0.005561184125328998,0.0029228210605025244,0.008591222714091937,20.426089570013573
1639,A,184984716171683.0,-0.12419590360962918,14.221259,4.6806645,199,1970-01-03 03:23:04.716171683,2.1368918,-0.7397534,-1.170067,15.933128460143733,2.5460947433683216,-50.89600372314453,-68.89842987060547,79.04476928710938,20476008.0,49919.0,0.03521261282481092,0.18228038911674993,0.20407383644454996,0.003150869001795534,0.006390632676498633,0.009547294622471383,20.476008490019012
1639,A,184984766095583.0,1.6810320963903709,18.942625,4.8937483,199,1970-01-03 03:23:04.766095583,2.462863,-0.22842652,-0.97938466,19.901315704998474,2.660275764662684,-50.41361618041992,-69.03673553466797,78.70147705078125,20525932.0,49924.0,0.038861745044192875,0.33858167240799997,0.23899649231360004,0.0018490441211260727,0.013001758779780808,0.011059921546460941,20.525932390009984
1639,A,184984816019483.0,3.074457496390371,10.787973,2.8514943,199,1970-01-03 03:23:04.816019483,0.5603006,0.98277915,-0.02810354,11.383486557831077,1.1316277784658764,-50.015621185302734,-69.07424926757812,78.3420639038086,20575856.0,49924.0,0.11870653121499287,0.2528799872759999,0.19333674578120003,0.0039332193119817945,0.014764065949032006,0.0107919022893224,20.575856290000957
1639,A,184984865943383.0,2.6578662963903708,12.049718,1.2904748,199,1970-01-03 03:23:04.865943383,-0.24077825,1.5494999,1.0808368,12.409006893092345,1.9045031619840678,-50.19866943359375,-69.16987609863281,78.49305725097656,20625780.0,49924.0,0.1430902665153929,0.08081924274199996,0.1033918326742,0.0065349716649458905,0.008329800179709313,0.007406938775403695,20.625780190021032
1639,A,184984915867283.0,2.6530778963903705,9.049783,1.2306197,199,1970-01-03 03:23:04.915867283,-0.868219,2.1396563,1.9309177,9.51635442505018,3.0100459262715544,-50.51193618774414,-69.11157989501953,78.73796844482422,20675704.0,49924.0,0.1325717889401929,0.03743054396199997,0.06293156090900001,0.006881076228282332,0.0029517511757052466,0.0041517645506238396,20.675704090012005
1639,A,184984965791183.0,3.3066950963903707,7.098509,1.4891934,199,1970-01-03 03:23:04.965791183,-1.7577147,1.9841278,2.6755376,7.529060852951619,3.766274756618626,-50.69345474243164,-68.98129272460938,78.82840728759766,20725627.0,49923.0,0.1487648735592965,-0.08615980924200005,0.06789061469565001,0.007022585100981005,-0.0012163555552867221,0.003265517736355472,20.725627990002977
1639,A,184985015715083.0,2.9164400963903705,7.074567,0.016759412,199,1970-01-03 03:23:05.015715083,-1.6234915,1.562283,2.935462,7.473881576580444,3.700458076523128,-50.858333587646484,-68.81819915771484,78.91812896728516,20775551.0,49924.0,0.1553419006821929,-0.13546687688800005,0.037591594093144005,0.007591113298616058,-0.005532245339177062,0.0026330468957858765,20.775551890023053
1639,A,184985065638983.0,3.1510718963903708,8.022671,-0.89064306,199,1970-01-03 03:23:05.065638983,0.10543268,1.2448342,2.282455,8.360002906241158,2.601985599984485,-50.91404724121094,-68.69039916992188,78.98355865478516,20825475.0,49924.0,0.15145723436379285,-0.11239794504400002,-0.021813883621376002,0.007658320009017897,-0.006187201685066587,0.0003938432087962729,20.825475790014025
1639,A,184985115562883.0,3.914822296390371,10.773608,-0.6775591,199,1970-01-03 03:23:05.115562883,1.0183643,1.1819836,1.2246474,10.886826070048398,1.983409270047463,-50.84465789794922,-68.60559844970703,78.9637222290039,20875399.0,49924.0,0.1763788508401929,-0.020062483602000032,-0.03914546231792,0.008183444358861893,-0.0033064772198614536,-0.0015216671933367069,20.875399690004997
1639,A,184985165486783.0,5.265152040390371,11.027393,-1.0486604,199,1970-01-03 03:23:05.165486783,-0.03944328,1.0243244,0.48961496,11.077313184652056,1.13601014864671,-50.78487777709961,-68.55427551269531,78.89739227294922,20925323.0,49924.0,0.2291505193947209,0.054941386961999954,-0.043089891159000006,0.010122824139803917,0.0008706471856723181,-0.0020527588934908777,20.925323590025073
1639,A,184985215410683.0,4.812647896390371,9.200618,-0.90500826,199,1970-01-03 03:23:05.215410683,-1.327348,0.5556081,-0.25180906,9.259298724969364,1.4608082956321455,-50.77620315551758,-68.54646301269531,78.81676483154297,20975247.0,49924.0,0.2515620420219209,0.015676410581999974,-0.048767477090920004,0.011999546958082212,0.0017627614622933263,-0.0022929436262545035,20.975247490016045
1639,A,184985265334583.0,3.3665500963903705,12.885294,-1.472434,199,1970-01-03 03:23:05.265334583,-1.2826068,-0.19114226,-1.7037644,13.11643500046415,2.1411279031556023,-50.721778869628906,-68.61846923828125,78.68940734863281,21025171.0,49924.0,0.2041691402957929,0.06205333534399998,-0.059345713694120006,0.011375961773014772,0.001940289917804811,-0.002698721468376169,21.025171390007017
1639,A,184985315258483.0,2.7153270963903706,8.731355,-0.08619126,199,1970-01-03 03:23:05.315258483,-1.3795459,-0.8494757,-2.4846034,9.113891185854778,2.966143946336533,-50.673336029052734,-68.74150848388672,78.56336975097656,21075095.0,49924.0,0.15181581848619288,0.050339592337999985,-0.038906403740120006,0.00888609654111593,0.002805552260798083,-0.0024525693553934993,21.075095290027093
1639,A,184985365182383.0,1.9036927963903705,10.019435,1.6041151,199,1970-01-03 03:23:05.365182383,0.14804326,-1.616466,-2.6838078,10.70882440740575,3.136511349147053,-50.95286560058594,-68.92543029785156,78.82278442382812,21125019.0,49924.0,0.11529997456359288,-0.02119798002000003,0.03789041489408,0.006667744426108753,0.0007274329266819149,-2.536111357485059e-05,21.125019190018065
1639,A,184985415106283.0,-0.03321640360962963,6.5382657,2.2840683,199,1970-01-03 03:23:05.415106283,2.3360963,-1.4726554,-2.1138914,8.757516053076445,3.477728669838521,-50.8111686706543,-69.05387878417969,78.79611206054688,21174943.0,49924.0,0.04669083171659286,-0.07594187512660004,0.09705683403080001,0.004043614506365997,-0.0024248050641694314,0.0033685532276628554,21.174943090009037
1639,A,184985465030183.0,4.31704819639037,5.4129906,0.9672575,199,1970-01-03 03:23:05.465030183,2.2199826,-1.5088744,-1.1849808,5.59064901072305,2.934144542391659,-50.67411804199219,-69.30976104736328,78.77918243408203,21224866.0,49923.0,0.10693086729549646,-0.19092411586755004,0.08115796895670001,0.003834628039890268,-0.006661375434200477,0.0044485088047724825,21.22486699000001
1639,A,184985514954083.0,4.008196096390371,8.8366995,2.006341,199,1970-01-03 03:23:05.514954083,0.19917595,-1.3288447,-0.7514181,9.157018680904295,1.5395221520926883,-50.4174690246582,-69.53385925292969,78.55799102783203,21274790.0,49924.0,0.20781474803639288,-0.13355443572380005,0.07422696575700001,0.007856680049914622,-0.008099633604823282,0.00387871874032338,21.274790890020085
1639,A,184985564877983.0,2.382533096390371,12.892477,3.3063924,199,1970-01-03 03:23:05.564877983,-0.7094946,-0.8217788,-0.78870237,13.631435598377257,1.3419219098003492,-50.267642974853516,-69.63324737548828,78.3866195678711,21324714.0,49924.0,0.15952538211019288,0.05314850379299996,0.1326164511308,0.009169544328719073,-0.002007092872856632,0.005163225372353264,21.324714790011058
1639,A,184985614801883.0,2.270005796390371,13.158234,3.0190883,199,1970-01-03 03:23:05.614801883,-1.5862073,-0.78129876,-1.0124079,13.841860744804153,2.037511007806642,-50.2308349609375,-69.75574493408203,78.27693176269531,21374638.0,49924.0,0.11613667584159287,0.16102264798199997,0.15789664923340002,0.006881076290592477,0.0053461402906075485,0.007251788011291162,21.37463869000203
1639,A,184985664725783.0,-0.2917899036096294,14.300267,4.027047,199,1970-01-03 03:23:05.664725783,-0.4218732,-0.6651849,-1.1306522,15.883376390293941,1.3779776287846948,-50.35282897949219,-69.683349609375,78.36791229248047,21424562.0,49924.0,0.04938022511559287,0.196163901962,0.1758856293586,0.004131632881693271,0.00891609065970213,0.008331873238213506,21.424562590022106
1639,A,184985714649683.0,-1.4170649036096297,19.511847,5.6551046,199,1970-01-03 03:23:05.714649683,1.7406136,-0.18475068,-0.9538183,21.40490863918541,1.9933985722078544,-50.19321060180664,-69.62696075439453,78.2917709350586,21474486.0,49924.0,-0.042656433697807146,0.3547627896679999,0.2416858682392,0.0001678392813707672,0.01375223207646806,0.010423419723036283,21.474486490013078
1639,A,184985764573583.0,3.2420516963903707,11.120768,1.8555063,199,1970-01-03 03:23:05.764573583,0.7669619,0.7026146,0.44061282,11.465598437763537,1.1296182936430883,-50.08708953857422,-69.7445297241211,78.22372436523438,21524410.0,49924.0,0.04555532032139286,0.2753961356299999,0.18747986928580002,7.23620078979466e-05,0.015730027093288673,0.01071283514009905,21.52441039000405
1639,A,184985814501853.0,3.0672748963903707,10.708965,1.5658079,199,1970-01-03 03:23:05.814501853,0.59545434,1.2991626,1.8126734,11.056151030153424,2.3082838186261143,-50.17308807373047,-69.78085327148438,78.33521270751953,21574338.0,49928.0,0.15750602906217842,0.05566305461199995,0.0854096876888,0.005069223526011473,0.008264561625201285,0.006812414900313916,21.574338660022477
1639,A,184985864430123.0,2.866161896390371,7.649175,2.0039468,199,1970-01-03 03:23:05.864430123,0.005297826,1.8030328,2.5018995,8.28128600539389,3.0839027956367913,-50.220340728759766,-69.56929779052734,78.38353729248047,21624266.0,49928.0,0.14812231609497842,-0.031001793040000065,0.08911535633079999,0.007629706008503264,0.000615643733883405,0.004356843198905294,21.6242669300118
1639,A,184985914358393.0,3.440770396390371,6.3994017,1.9057846,199,1970-01-03 03:23:05.914358393,-0.5933808,1.747639,2.8619587,6.938365125713646,3.4054589189469504,-50.16364669799805,-69.34827423095703,78.31116485595703,21674195.0,49929.0,0.15744941122312484,-0.13858850697285005,0.0976044895353,0.0076284453866327885,-0.004233737044670797,0.004661367592124254,21.674195200001122
1639,A,184985964286663.0,3.768775996390371,6.1839237,0.22266077,199,1970-01-03 03:23:05.964286663,-0.31215099,1.4248639,2.6521018,6.381024306850985,3.0267671419592936,-50.25885772705078,-69.2008056640625,78.39627838134766,21724123.0,49928.0,0.17997911614937845,-0.17516426471440003,0.05313451021668,0.008423565757327172,-0.007832524192400511,0.003763048389808429,21.72412347001955
1639,A,184986014214933.0,3.579634096390371,7.536648,-0.62967503,199,1970-01-03 03:23:06.014214933,0.6508481,1.2565521,1.5879025,7.762063456689239,2.126960455390337,-50.232791900634766,-69.09957122802734,78.40320587158203,21774051.0,49928.0,0.18344570955617842,-0.14677404808120004,-0.01016070398664,0.009072537348913522,-0.00803686804062936,0.0010727980987267187,21.774051740008872
1639,A,184986064143203.0,4.599563996390371,10.752061,-0.91458505,199,1970-01-03 03:23:06.064143203,0.18106645,1.429125,0.5471392,10.815356680236825,1.5409557518362564,-50.12608337402344,-69.0328140258789,78.29863739013672,21823980.0,49929.0,0.20418959078722482,-0.03273572416950006,-0.03855168076716,0.009677121455422889,-0.004481371709352602,-0.0012160803291862401,21.8239800100273
1639,A,184986114071473.0,4.846166736390371,12.246042,-2.4133554,199,1970-01-03 03:23:06.114071473,-1.7428011,1.3673396,0.11570716,12.49082447617527,2.2181887662605804,-50.08618927001953,-68.98452758789062,78.16258239746094,21873908.0,49928.0,0.23580322201313844,0.08483024329199992,-0.0830787053938,0.010983980578748269,0.0013004875753740866,-0.0030363809601222057,21.87390828001662
1639,A,184986163999743.0,3.6634310963903705,9.806351,-1.6807296,199,1970-01-03 03:23:06.163999743,-2.5737073,0.9412338,-0.30400702,10.087402011657964,2.7572287900254144,-50.0955924987793,-68.96600341796875,78.03478240966797,21923836.0,49928.0,0.21243360029753844,0.06122153885199993,-0.10220473794,0.011189784032163736,0.0036460366894428124,-0.004625415879384982,21.923836550005944
1639,A,184986213928013.0,2.5836460963903707,13.474268,-1.4269443,199,1970-01-03 03:23:06.213928013,-1.5190955,0.12630653,-1.38312,13.824476683519542,2.058306442695278,-50.043365478515625,-69.01499938964844,77.8974838256836,21973764.0,49928.0,0.15595203504057845,0.09188297271599996,-0.0775799712396,0.00919637900058075,0.0038221010267835494,-0.004488145479959534,21.97376482002437
1639,A,184986263856283.0,2.1646607963903706,7.9580274,-0.110133275,199,1970-01-03 03:23:06.263856283,-0.7574315,-0.76105875,-2.0233438,8.563908263326521,2.2905966539620746,-49.98749542236328,-69.11693572998047,77.79711151123047,22023693.0,49929.0,0.11853910742482482,0.04574233851329999,-0.038372373121087495,0.00685253412607756,0.0034357470821838585,-0.002894692300792383,22.023693090013694
1639,A,184986313784553.0,1.9467883963903705,9.60045,1.9129672,199,1970-01-03 03:23:06.313784553,1.0641707,-1.6803819,-2.140523,10.356233345241018,2.921982430151677,-50.19855880737305,-69.23265838623047,78.04251861572266,22073621.0,49928.0,0.10263821764857842,-0.050964570186400035,0.045005946103700005,0.005521470743132438,-0.00013036779148726944,0.00016560051593793868,22.073621360003017
1639,A,184986363712823.0,1.2141630963903705,6.3874307,2.0446482,199,1970-01-03 03:23:06.363712823,2.8186612,-1.5855734,-1.6217391,7.867174283639948,3.6178628602590526,-50.08110427856445,-69.34568786621094,78.06761932373047,22123549.0,49928.0,0.07890999306577842,-0.09017294620520001,0.0987979108456,0.004532169532273204,-0.0035233569591999036,0.0035899194848823253,22.123549630021444
1639,A,184986413641093.0,4.86532035639037,5.3148284,1.1803415,199,1970-01-03 03:23:06.413641093,1.7107862,-1.5472239,-1.0507574,5.463829689427071,2.5347154342246014,-50.06365966796875,-69.4356460571289,78.14036560058594,22173477.0,49928.0,0.1517682249152184,-0.19715920382760005,0.0805086428708,0.005758651033677605,-0.007172959793418821,0.0044762088069762096,22.173477900010766
1639,A,184986463569363.0,3.740045496390371,8.214207,2.0614076,199,1970-01-03 03:23:06.463569363,0.002102033,-1.4034132,-1.0709974,8.616259142375217,1.7653918713089547,-49.84762191772461,-69.60596466064453,77.94491577148438,22223406.0,49929.0,0.21482865583174482,-0.15155859575670005,0.08092864540695,0.009151907829407564,-0.00870556550772226,0.00403020118320989,22.22340617000009
1639,A,184986513497633.0,1.6762435963903708,11.139921,3.2202013,199,1970-01-03 03:23:06.513497633,-0.10229388,-1.0220485,-1.5887159,12.157015497911193,1.891841797072502,-49.78364562988281,-69.61952209472656,77.87590026855469,22273334.0,49928.0,0.13521224091217846,-0.006137948608000052,0.1318500845796,0.0087384209463153,-0.003936736533520373,0.005311808215384234,22.273334440018516
1639,A,184986563425903.0,1.1399426963903707,14.554053,3.5290532,199,1970-01-03 03:23:06.563425903,0.045777876,-1.148815,-2.068085,15.550023125021628,2.366188303026847,-49.72162628173828,-69.72966766357422,77.81192779541016,22323262.0,49928.0,0.07030327461297843,0.15212996693599995,0.16848838933799998,0.0051304893295700165,0.0036445447455401895,0.0074976496628789665,22.32326271000784
1639,A,184986613354173.0,-1.6947922036096292,15.698482,4.96318,199,1970-01-03 03:23:06.613354173,1.3081162,-0.6651849,-1.5588886,17.89905547557234,2.1409746871694697,-49.761966705322266,-69.60283660888672,77.90242767333984,22373190.0,49928.0,-0.01385126309822157,0.26592988373999993,0.21200010960480004,0.0014092680154543901,0.010436446112275661,0.00949851488760806,22.373190980026266
1639,A,184986663282443.0,0.4456240963903708,17.123032,5.6670756,199,1970-01-03 03:23:06.663282443,2.1219783,-0.2348181,-0.10480258,18.685245912965136,2.137502052989226,-49.41371536254883,-69.5409164428711,77.6774673461914,22423119.0,49929.0,-0.031184857212675176,0.3300684862529999,0.26537901592620006,-0.001124304225501382,0.014878801307690244,0.011917531179318652,22.42311925001559
1639,A,184986713210713.0,3.2971182963903707,12.380117,2.7844565,199,1970-01-03 03:23:06.713210713,1.1749581,0.8698611,1.3226517,12.850661712086747,1.9714442395263707,-49.12784957885742,-69.59439086914062,77.46812438964844,22473047.0,49928.0,0.09343382109337843,0.2472222116359999,0.21098404734440004,0.001553983134317876,0.014411484982100991,0.01189192751148726,22.47304752000491
1639,A,184986763138983.0,3.1079762963903708,12.935573,0.93852705,199,1970-01-03 03:23:06.763138983,0.40370673,1.6922452,1.9415704,13.157978895133134,2.6069845720537916,-49.106529235839844,-69.46564483642578,77.4669189453125,22522975.0,49928.0,0.15989678141417843,0.14268648515999996,0.09294056134220001,0.006324145160998649,0.00973368070681534,0.007587173931252284,22.522975790023338
1639,A,184986813067253.0,3.1295240963903708,9.033024,2.0949266,199,1970-01-03 03:23:06.813067253,0.16402222,2.4294083,2.157819,9.529512888212311,3.2534767270603946,-48.98015213012695,-69.35394287109375,77.34884643554688,22572904.0,49929.0,0.15571607855557484,0.05913083980649994,0.07572865364542501,0.007879117242714907,0.005038268609126187,0.004210742617558565,22.57290406001266
1639,A,184986862999463.0,3.6466716963903707,7.175123,2.3343468,199,1970-01-03 03:23:06.862999463,-1.1441225,2.242987,2.4390488,7.730064847861576,3.5055621554832954,-48.681861877441406,-69.17135620117188,77.01473999023438,22622836.0,49932.0,0.169174504162564,-0.08468100199800005,0.11058123970439998,0.008111218288141054,-0.0006378853492729916,0.004651412797371731,22.622836270020343
1639,A,184986912931673.0,3.7424396963903703,6.782474,-0.12449849,199,1970-01-03 03:23:06.912931673,-1.6607758,1.7966411,2.644645,6.966145672567279,3.6028103858099234,-48.81637191772461,-69.01272583007812,77.06983947753906,22672768.0,49932.0,0.18447655503216398,-0.14086823329800002,0.05517107290746,0.008829252343855577,-0.005631062208399937,0.004138172236667696,22.672768480028026
1639,A,184986962863883.0,3.1965616963903707,9.143157,-1.5586253,199,1970-01-03 03:23:06.962863883,-0.44211322,1.4419081,2.1024253,9.516507874467559,2.5874225032306706,-48.87717056274414,-68.88612365722656,77.1113052368164,22722700.0,49932.0,0.17323910877216395,-0.09173429645400002,-0.04202086854114,0.008930729262538852,-0.005807154757788433,0.00032830800220954513,22.722700690006604
1639,A,184987012796093.0,4.199732296390371,11.211747,-1.3551182,199,1970-01-03 03:23:07.012796093,0.36429194,1.5186071,1.2225169,11.349430233163817,1.9832860894245652,-48.815181732177734,-68.79013061523438,77.0643539428711,22772632.0,49932.0,0.18465587582376397,0.018846933263999995,-0.07274452022099999,0.008935206185421936,-0.0018197059094015406,-0.0028652326958355867,22.772632900014287
1639,A,184987062728303.0,4.86532035639037,12.047323,-1.7836803,199,1970-01-03 03:23:07.062728303,-0.6551661,1.3183374,0.59827197,12.187384246668069,1.589083216485421,-48.77106475830078,-68.72421264648438,76.98188018798828,22822565.0,49933.0,0.22632263705565037,0.091354171155,-0.07836481275024999,0.010260695041803897,0.0027513358734769632,-0.0037726711616267125,22.82256511002197
1639,A,184987112660513.0,4.154242496390371,9.033024,-1.2976574,199,1970-01-03 03:23:07.112660513,-1.5968599,0.6525472,-0.16232686,9.20075996466287,1.7326654027634159,-48.77416229248047,-68.70878601074219,76.89952087402344,22872497.0,49932.0,0.22518240618252397,0.036958343201999956,-0.0769286770182,0.01127227490948426,0.0032034502334368606,-0.0038770572655591217,22.872497320000548
1639,A,184987162592723.0,3.1774080963903706,10.957962,-1.484405,199,1970-01-03 03:23:07.162592723,-1.2218868,-0.040939976,-1.4981685,11.264974188496572,1.9336991203497433,-48.71227264404297,-68.76646423339844,76.7675552368164,22922429.0,49932.0,0.18304198869936397,0.009761356475999952,-0.0694569698784,0.010191730242621214,0.0011664040221609456,-0.003654664060420515,22.92242953000823
1639,A,184987212524933.0,2.7440577963903707,8.697836,-0.18674773,199,1970-01-03 03:23:07.212524933,-0.90230745,-1.0209832,-2.5474539,9.075077095052043,2.8889594669418526,-48.639217376708984,-68.89584350585938,76.64083099365234,22972361.0,49932.0,0.14783531747916398,0.0013930528679999836,-0.04172199905718,0.008260682826053129,0.00027848098368230234,-0.00277569413844569,22.972361740015913
1639,A,184987262457143.0,1.6858203963903708,10.457574,1.8938135,199,1970-01-03 03:23:07.262457143,0.7744188,-1.8209969,-2.9575808,11.234012920040973,3.5585163166875726,-48.874961853027344,-69.072998046875,76.88643646240234,23022293.0,49932.0,0.11059633896096398,-0.011099633940000039,0.04261860401382,0.0064520047346842335,-0.00024233450304355337,2.2384639347474205e-05,23.022293950023595
1639,A,184987312389353.0,0.7688413963903704,6.40419,2.552219,199,1970-01-03 03:23:07.312389353,2.6673937,-1.7261883,-2.395121,8.264449096746732,3.9788591081486637,-48.704925537109375,-69.21994018554688,76.84719848632812,23072226.0,49933.0,0.061284313649460374,-0.06836416909400006,0.11100187041125001,0.004291258313398159,-0.001983933038448363,0.0038353655747335102,23.072226160002174
1639,A,184987362321563.0,4.5061900963903705,5.7074776,0.91937345,199,1970-01-03 03:23:07.362321563,1.8950769,-1.725123,-1.6419791,5.838981728815022,3.0435934660988186,-48.53306579589844,-69.5547103881836,76.77870178222656,23122158.0,49932.0,0.13169643624876398,-0.18695370669840003,0.0866717771067,0.004817957401959069,-0.0063742660870330595,0.00493512028393314,23.122158370009856
1639,A,184987412253773.0,3.716103496390371,9.610026,2.1883004,199,1970-01-03 03:23:07.412253773,0.097975835,-1.5088744,-1.3820547,9.986747637513242,2.0485058977243384,-48.3194580078125,-69.78086853027344,76.58674621582031,23172090.0,49932.0,0.20527778183736395,-0.10691680512240005,0.0775861853391,0.00841289832873827,-0.007336771198118095,0.004100864290421842,23.17209058001754
1639,A,184987462185983.0,2.1287477963903707,13.893253,3.2321723,199,1970-01-03 03:23:07.462185983,-0.48898488,-0.9762421,-1.4449053,14.618345152809342,1.811051124802697,-48.23025894165039,-69.92051696777344,76.47605895996094,23222022.0,49932.0,0.145922557375564,0.09744926351399993,0.1353275214282,0.008768067668789958,-0.00023636664379531733,0.005315603603152412,23.22202279002522
1639,A,184987512118193.0,1.1806440963903704,14.628273,4.220978,199,1970-01-03 03:23:07.512118193,-1.1473182,-0.8729115,-1.468341,15.7794935554692,2.0577509157243714,-48.14054489135742,-69.95684051513672,76.33229064941406,23271955.0,49933.0,0.08262393269111037,0.2227392788789999,0.18607907696495,0.005706005944249626,0.007993987243654832,0.008024397838782579,23.2719550000038
1639,A,184987562050403.0,-1.2063749036096292,12.669816,5.058948,199,1970-01-03 03:23:07.562050403,0.31635505,-0.653467,-0.9761889,15.126058547729611,1.2165707567719655,-48.10205841064453,-70.01500701904297,76.30817413330078,23321887.0,49932.0,-0.0006423953330360151,0.19219048997399998,0.231682632516,0.0020467510616816844,0.010359136609183996,0.010429838838901397,23.321887210011482
1639,A,184987611982613.0,-0.4258656036096298,17.101484,5.6766524,199,1970-01-03 03:23:07.611982613,2.398947,-0.15066221,-0.28163648,18.91498371309189,2.4201167156147396,-47.88752365112305,-69.89857482910156,76.21806335449219,23371819.0,49932.0,-0.040750516503236016,0.25393667579999996,0.26802499958639997,-0.0010334154369043675,0.011138010820713681,0.012475700743068517,23.371819420019165
1639,A,184987661914823.0,3.3761268963903706,12.978668,2.4349031,199,1970-01-03 03:23:07.661914823,1.4998639,0.9359075,0.68988466,13.348375504813312,1.8977500918674133,-47.62408447265625,-70.00975036621094,76.03701782226562,23421751.0,49932.0,0.07365622343556397,0.261647474832,0.202513094613,0.0008215238792724995,0.012872073904678512,0.011747454059782218,23.421751630026847
1639,A,184987711847033.0,3.3019066963903705,12.447155,1.4700398,199,1970-01-03 03:23:07.711847033,0.6401954,1.8509697,1.5729889,12.696152275076178,2.5120177268527506,-47.64196014404297,-70.10570526123047,76.07865142822266,23471683.0,49932.0,0.16672378667736398,0.145447497018,0.0974908044414,0.006001327332479359,0.0101635330672071,0.00748989734379215,23.471683840005426
1639,A,184987761779243.0,3.459923996390371,8.312369,2.0111294,199,1970-01-03 03:23:07.761779243,-0.7435831,2.4624314,2.3623497,8.753559126920441,3.4924461816041865,-47.53859329223633,-69.9775390625,75.94265747070312,23521616.0,49933.0,0.16881924599131037,0.028949255945999983,0.0869126108318,0.008377335125122457,0.0043540765328757055,0.004603907867418348,23.521616050013108
1639,A,184987811711453.0,3.3928862963903708,7.2254014,1.8100165,199,1970-01-03 03:23:07.811711453,-2.2253659,2.1524396,3.1719508,7.695585692991564,4.43243967789203,-47.70847702026367,-69.78514862060547,76.0071029663086,23571548.0,49932.0,0.171087261769564,-0.10141762419360002,0.0953987285394,0.00848610587275799,-0.0018092452816695825,0.004551584898741379,23.57154826002079
1639,A,184987861643663.0,3.0385444963903705,8.429685,-0.7062895,199,1970-01-03 03:23:07.861643663,-1.774759,1.5218029,3.2923257,8.763211455991987,4.037952710150269,-47.943538665771484,-69.61206817626953,76.16312408447266,23621480.0,49932.0,0.16056710117256398,-0.09848871293760005,0.027555648281999995,0.008280082825213166,-0.004990861612817541,0.003069678971723072,23.621480470028473
1639,A,184987911579483.0,3.0864284963903708,10.354623,-1.1085154,199,1970-01-03 03:23:07.911579483,0.15230432,1.3694701,2.4390488,10.652024695925714,2.801357529746268,-48.01837158203125,-69.47560119628906,76.25110626220703,23671416.0,49936.0,0.15292832568374953,-0.02036619785600005,-0.0453120487432,0.007827353817748435,-0.0029675694126946074,-0.0004433418067152418,23.671416290017078
1639,A,184987961515303.0,4.6330827963903705,11.00824,-1.2785037,199,1970-01-03 03:23:07.961515303,0.3238119,1.3833185,1.5953594,11.103916397810089,2.1362574363105726,-48.00740432739258,-69.37007141113281,76.2566909790039,23721352.0,49936.0,0.19274075795814954,0.04401516338399999,-0.0595990928888,0.008630665680370936,0.0005904673713031024,-0.002619421384267776,23.721352110005682
1639,A,184988011451123.0,4.958694226390371,10.232519,-1.2066777,199,1970-01-03 03:23:08.011451123,-0.5795323,1.114872,0.900807,10.309990780163188,1.5460435033906033,-48.00642776489258,-69.2992935180664,76.22467803955078,23771287.0,49935.0,0.23948269281627815,0.04096565033249998,-0.062048766604500004,0.010791539007210523,0.0021217584664667125,-0.003037242931898968,23.77128793002339
1639,A,184988061386943.0,4.197338096390371,8.317158,-0.7302315,199,1970-01-03 03:23:08.061386943,-1.0748804,0.50554067,-0.11758575,8.425182942214445,1.1936354769908908,-48.00007629394531,-69.2867660522461,76.16044616699219,23821223.0,49936.0,0.2286078150351896,-0.02622446466400006,-0.04836074890560001,0.011687283800035447,0.00036805792377110597,-0.002756704783256177,23.821223750011995
1639,A,184988111322763.0,3.708920896390371,10.6275625,-0.9600749,199,1970-01-03 03:23:08.111322763,-0.6732756,-0.06970212,-1.7463751,10.792770078896941,1.872961400827007,-47.8856201171875,-69.35394287109375,76.00212860107422,23871159.0,49936.0,0.19740347453174956,-0.016361018556000063,-0.0422035701952,0.010636649877907337,-0.001063274345036963,-0.0022612099193087746,23.8711595700006
1639,A,184988161258583.0,3.1151588963903705,9.095273,0.019153614,199,1970-01-03 03:23:08.161258583,-1.2517142,-0.8409536,-2.9011216,9.360291897269652,3.269632690964103,-47.77180862426758,-69.48965454101562,75.81370544433594,23921095.0,49936.0,0.17038362426614956,0.003066956763999975,-0.023492922668847997,0.009182908282785946,-0.0003319261348226582,-0.0016403100338295503,23.92109539001831
1639,A,184988211194403.0,2.040162396390371,10.7472725,2.1499932,199,1970-01-03 03:23:08.211194403,-0.17153607,-1.4907649,-3.3378801,11.442349324788548,3.659678697967769,-47.84898376464844,-69.67991638183594,75.85802459716797,23971031.0,49936.0,0.12871806203814953,0.006055876043999963,0.054159257651951995,0.007467970903645741,0.00022777888955014246,0.0007656770518581406,23.971031210006913
1639,A,184988261130223.0,0.6156120963903708,6.2509613,2.6001031,199,1970-01-03 03:23:08.261130223,1.5467354,-1.2862341,-2.797791,8.24796705912483,3.4459284724580357,-47.64570617675781,-69.82673645019531,75.72379302978516,24020967.0,49936.0,0.06630937753574956,-0.06496089848160005,0.1186004044184,0.004869445111281113,-0.0014707406002219992,0.004313463242572548,24.02096703002462
1639,A,184988311066043.0,4.197338096390371,5.7553616,0.80684596,199,1970-01-03 03:23:08.311066043,1.2047856,-1.4130006,-2.0851293,5.9203496450081285,2.792103729320637,-47.652313232421875,-70.11860656738281,75.78032684326172,24070902.0,49935.0,0.12016733393825316,-0.18959513299425004,0.08506300065555,0.004655857293727163,-0.006355627715873288,0.005084966066183846,24.070902850013226
1639,A,184988361001863.0,2.4471765963903707,11.511023,2.4181437,199,1970-01-03 03:23:08.361001863,0.021276793,-1.3299099,-1.9743416,12.10960174301496,2.3805750980653677,-47.656341552734375,-70.281494140625,75.77922058105469,24120838.0,49936.0,0.16590024284934954,-0.05826570930720005,0.08052154183087999,0.0071425352572328646,-0.006188589510582606,0.004134314856801185,24.12083867000183
1639,A,184988410937683.0,1.0058670963903706,13.00261,2.8275523,199,1970-01-03 03:23:08.410937683,-0.13531707,-0.8047346,-2.0254743,13.990429245706913,2.183679149012289,-47.80510711669922,-70.3411865234375,75.8999252319336,24170774.0,49936.0,0.08621559492134954,0.12268358874399998,0.130974537728,0.0062948282374588145,0.001608385613778021,0.005280634114426116,24.17077449001954
1639,A,184988460873503.0,-1.2111634036096293,16.668133,5.3678,199,1970-01-03 03:23:08.460873503,-0.065009624,-0.8697157,-1.7250698,18.691789083267587,1.9330021895774332,-47.83069610595703,-70.2542953491211,75.91231536865234,24220710.0,49936.0,-0.005125838198650449,0.251446311224,0.2046215562264,0.002024649045852351,0.009341275342401024,0.00837916327385346,24.220710310008144
1639,A,184988510809323.0,-0.6820449036096292,12.133515,3.9097314,199,1970-01-03 03:23:08.510809323,0.5112984,-0.520309,-0.4637967,14.092999593080776,0.8644390598847613,-47.81547164916992,-70.2889404296875,75.92330169677734,24270646.0,49936.0,-0.04726962501465045,0.22974674726399996,0.23164140399520003,-0.001308209925509697,0.012014428284328384,0.01089261359081291,24.270646130025852
1639,A,184988560745143.0,0.40731679639037033,13.926772,4.55856,199,1970-01-03 03:23:08.560745143,1.7917463,0.2349635,0.7356911,15.45753270241023,1.951103289043189,-47.750244140625,-70.10401916503906,75.95166015625,24320581.0,49935.0,-0.006859274016996846,0.16129721567249994,0.2114320655295,-0.0013514632865726539,0.009763390144617062,0.011062436850357949,24.320581950014457
1639,A,184988610680963.0,1.8151073963903706,12.918813,2.3630772,199,1970-01-03 03:23:08.610680963,1.3262258,0.91992855,1.5218562,13.594514201887367,2.218375464877211,-47.920265197753906,-70.06493377685547,76.17969512939453,24370517.0,49936.0,0.055489487245349536,0.18090776627999997,0.1728194376096,0.00121419916388551,0.008544173989390018,0.00959399153037705,24.37051777000306
1639,A,184988660616783.0,3.1702254963903704,12.86614,1.2880806,199,1970-01-03 03:23:08.660616783,1.512647,1.7689443,1.9074819,13.109038489749661,3.0092776678032056,-47.99716567993164,-70.1611099243164,76.32252502441406,24420453.0,49936.0,0.12447379166694955,0.15442590650399995,0.0911621079504,0.004493323147882283,0.008372611142070911,0.006591091229542079,24.42045359002077
1639,A,184988710552603.0,4.238039496390371,8.396166,2.2697031,199,1970-01-03 03:23:08.710552603,0.23859073,2.306903,2.3527625,8.765399890011325,3.303667412022158,-47.50581741333008,-70.1036605834961,75.8692626953125,24470389.0,49936.0,0.18496956033974957,0.04150445620799994,0.0888307434216,0.007726181612903264,0.004891989296193213,0.004494061513056096,24.470389410009375
1639,A,184988760488423.0,3.8382077963903707,7.620445,1.7238252,199,1970-01-03 03:23:08.760488423,-1.666102,2.0075636,2.9322662,7.953503927783787,3.924842996874066,-47.517845153808594,-70.01177215576172,75.8107681274414,24520325.0,49936.0,0.20164774240614958,-0.08947005655200006,0.09971041459440001,0.00965306081495961,-0.001197605109388995,0.004707495633343489,24.520325230027083
1639,A,184988810424243.0,3.1774080963903706,8.1280155,-0.641646,199,1970-01-03 03:23:08.810424243,-1.4615713,1.4930408,2.910961,8.431820659121092,3.5831627703705182,-47.70860290527344,-69.85396575927734,75.93605041503906,24570261.0,49936.0,0.17516589761094956,-0.09616523823600004,0.027019850265600005,0.009408282963946931,-0.004634942040266787,0.003164201253024481,24.570261050015688
1639,A,184988860360063.0,3.1295240963903708,8.807969,-1.1827357,199,1970-01-03 03:23:08.860360063,0.46549207,1.3598827,2.0960338,9.154592152775376,2.541519528891056,-47.74015426635742,-69.73064422607422,75.99446105957031,24620196.0,49935.0,0.15746832952325315,-0.06651380699625004,-0.04555025009475,0.008305045065973207,-0.004061689061836204,-0.0004626577577343025,24.620196870004293
1639,A,184988910295883.0,4.49900749639037,11.487081,-1.2641385,199,1970-01-03 03:23:08.910295883,0.71263343,1.4120806,1.1394262,11.586029228641822,1.9493871066815756,-47.66705322265625,-69.64103698730469,75.95451354980469,24670132.0,49936.0,0.19046917680854955,0.01735400839999996,-0.0610935550256,0.00868730365809245,-0.0012274218513511719,-0.0026626825262448988,24.670132690022
1639,A,184988960229393.0,5.040097096390371,10.51264,-1.4580688,199,1970-01-03 03:23:08.960229393,-0.97154963,1.272531,0.59507614,10.617140798551626,1.708027939441108,-47.643009185791016,-69.5761489868164,75.87703704833984,24720066.0,49934.0,0.23816282436795677,0.059913834206999944,-0.0679653496591,0.010701655173373834,0.0019291462263689664,-0.003222213673262905,24.72006620001048
1639,A,184989010162903.0,3.8813033963903707,8.242937,-0.89303726,199,1970-01-03 03:23:09.010162903,-1.6831462,0.51406276,-0.13143419,8.416208272672877,1.7647993081634563,-47.664268493652344,-69.56368255615234,75.8099136352539,24769999.0,49933.0,0.22273614540301037,-0.021082286829500065,-0.058698889446990005,0.01150703412878685,0.0009694878276003507,-0.0031623627256421962,24.76999971002806
1639,A,184989060096413.0,3.2899356963903705,11.618762,-1.3239936,199,1970-01-03 03:23:09.060096413,-0.92680854,-0.13681377,-1.500299,11.869996092372892,1.7687818313402999,-47.588314056396484,-69.62373352050781,75.67943572998047,24819933.0,49934.0,0.17904432642945675,0.006533838932999959,-0.05535260948162001,0.010031253040241207,-0.00036323109863191816,-0.0028475237737506064,24.819933220016537
1639,A,184989110029923.0,3.0385444963903705,9.248502,-0.36870706,199,1970-01-03 03:23:09.110029923,-0.8628927,-0.86865044,-2.5059085,9.53447298519912,2.789034745032362,-47.489498138427734,-69.7454605102539,75.5280532836914,24869866.0,49933.0,0.15800000073306036,0.031639146655999976,-0.04226081102789,0.008414817194102982,0.000953045844707767,-0.0024370654631506814,24.869866730005015
1639,A,184989159963433.0,2.0186145963903708,9.4974985,1.2761095,199,1970-01-03 03:23:09.159963433,0.096910566,-1.616466,-2.9021869,10.13775379119925,3.323408309174491,-47.912498474121094,-69.93359375,75.9163589477539,24919800.0,49934.0,0.12626209106945677,-0.021321805516500012,0.02265511671948,0.007097171646033446,0.0002575930562298956,-0.0004894953697980724,24.919800240022596
1639,A,184989209896943.0,0.728140096390371,6.080973,1.5442601,199,1970-01-03 03:23:09.209896943,1.9131864,-1.7826474,-2.5091045,7.778771991410341,3.624047370798562,-47.766971588134766,-70.08638763427734,75.86329650878906,24969733.0,49933.0,0.06857685103731039,-0.10040349129525,0.0704147576184,0.004864446448108602,-0.0030390546228505565,0.002323629017656681,24.969733750011073
1639,A,184989259830453.0,3.1414950963903707,6.662764,0.79966336,199,1970-01-03 03:23:09.259830453,2.7462232,-2.0532246,-1.8656846,7.05739336398266,3.903620389963727,-48.193321228027344,-70.27310180664062,76.39803314208984,25019667.0,49934.0,0.09661318185815677,-0.17118031832100003,0.05852073702582,0.0041242995513011286,-0.0067806329746889155,0.0032191324947822408,25.019667260028655
1639,A,184989309763963.0,3.227686496390371,11.350611,2.7700913,199,1970-01-03 03:23:09.309763963,1.8290305,-1.9690686,-1.7303962,11.870780794521153,3.196381505767209,-47.905330657958984,-70.4779052734375,76.2181625366211,25069600.0,49933.0,0.15901617223616038,-0.039612473062500035,0.08912427971889,0.006382170268995769,-0.0052627582260761545,0.0036861793105568024,25.069600770017132
1639,A,184989359697473.0,3.3521848963903706,12.842198,3.7924154,199,1970-01-03 03:23:09.359697473,0.2812013,-1.2968867,-1.6611539,13.53524985769278,2.1261283035705514,-47.39397048950195,-70.63675689697266,75.7466812133789,25119534.0,49934.0,0.16427964906355677,0.11466866230299998,0.1638461047789,0.008071726770390038,0.0018739278767675623,0.006315911589756322,25.11953428000561
1639,A,184989409630983.0,1.9467883963903705,15.080777,4.7620673,199,1970-01-03 03:23:09.409630983,-1.786477,-1.0433538,-1.4395789,16.17190790487518,2.5204115998837673,-47.12795639038086,-70.69042205810547,75.40797424316406,25169467.0,49933.0,0.13229681671421037,0.20779555533749988,0.21357549232954998,0.007404476332840623,0.00805080288972154,0.009422896304208115,25.16946779002319
1639,A,184989459564493.0,-0.6078249036096297,13.9555025,4.675876,199,1970-01-03 03:23:09.459564493,-0.94491804,-0.520309,-0.80361605,15.869401234053106,1.34513579746286,-47.316871643066406,-70.5125503540039,75.53884887695312,25219401.0,49934.0,0.033429901524256754,0.23559559027649993,0.2356371303711,0.004137698974259809,0.011070146732544734,0.011215491550967129,25.21940130001167
1639,A,184989509498003.0,-1.0818767036096295,14.764743,5.884948,199,1970-01-03 03:23:09.509498003,1.3368784,0.3766437,0.03474706,17.137663289265575,1.3893565745750418,-47.21428298950195,-70.49848937988281,75.50093078613281,25269334.0,49933.0,-0.042185935176639634,0.22770060927574998,0.263666812396,-0.00021860751418221718,0.011566884566121247,0.012465871887094802,25.269334810000146
1639,A,184989559431513.0,2.8517966963903705,12.384906,2.516306,199,1970-01-03 03:23:09.559431513,1.0886718,1.0019538,1.1117294,12.877989234158141,1.8506917529059341,-47.10740280151367,-70.51388549804688,75.45181274414062,25319268.0,49934.0,0.04418959245975676,0.18849208658299996,0.20975410861799998,5.002531138758528e-05,0.01039108303750541,0.011819900134956537,25.319268320017727
1639,A,184989609365023.0,3.052909696390371,11.841422,1.6950948,199,1970-01-03 03:23:09.609365023,0.8649662,1.8285991,1.7317133,12.17631021336573,2.662850380524625,-47.1492805480957,-70.54020690917969,75.52938079833984,25369201.0,49933.0,0.14741985215536038,0.11550321801199998,0.1051439380732,0.004783817198983322,0.007589698772171065,0.007861902082715843,25.369201830006205
1639,A,184989659298533.0,3.5748455963903707,8.393772,2.3295584,199,1970-01-03 03:23:09.659298533,-0.20455927,2.3889282,2.189777,8.885442039879097,3.247144245244916,-46.874542236328125,-70.39324188232422,75.25643920898438,25419135.0,49934.0,0.16547516639485677,0.015858888597999964,0.10048351644439998,0.007812049928143272,0.0032797177157318684,0.005133900656940919,25.419135340023786
1639,A,184989709232043.0,3.7472280963903706,7.0314713,1.7142484,199,1970-01-03 03:23:09.709232043,-1.8855466,2.1769407,2.8054998,7.407754015236416,4.020595219602203,-46.91622543334961,-70.24927520751953,75.21240234375,25469068.0,49933.0,0.18280655285081035,-0.10422906315055003,0.10095970247219999,0.008695375543546947,-0.002206293962966241,0.005029332125081293,25.469068850012263
1639,A,184989759165553.0,3.105582096390371,7.493552,-0.5291186,199,1970-01-03 03:23:09.759165553,-1.7779548,1.6634831,2.922679,7.833673752244917,3.803991565693811,-47.112667083740234,-70.08563232421875,75.32672119140625,25519002.0,49934.0,0.17109411208315678,-0.12670694326890003,0.029589135716599997,0.008835837901406357,-0.005765779272274409,0.003259412843059769,25.51900236000074
1639,A,184989809099063.0,2.9834778963903705,9.8686,-1.3575124,199,1970-01-03 03:23:09.809099063,-0.016007463,1.3502954,2.0843158,10.233404902281977,2.4835310065031395,-47.172332763671875,-69.96332550048828,75.38935852050781,25568935.0,49933.0,0.15202251630976038,-0.05587123209200001,-0.0471025728615,0.008067091302771766,-0.004558338015147911,-0.00043724922847814587,25.568935870018322
1639,A,184989859032573.0,4.4247872563903705,12.042535,-1.472434,199,1970-01-03 03:23:09.859032573,0.2993108,1.5335208,1.2257127,12.165692462985406,1.9858611789273113,-47.11764144897461,-69.86625671386719,75.34705352783203,25618869.0,49934.0,0.18496215606947675,0.057702107545000006,-0.0706552717688,0.008413496315292413,4.571146743505086e-05,-0.0029400601068847003,25.6188693800068
1639,A,184989908966083.0,4.9179927963903705,10.31871,-1.673547,199,1970-01-03 03:23:09.908966083,-1.1643625,1.3194027,0.79854167,10.46152660303959,1.9324161857374123,-47.11822509765625,-69.7921142578125,75.28565979003906,25668802.0,49933.0,0.23325651818775037,0.06893862329249997,-0.0785441346365,0.01044145653084306,0.0031617758064544435,-0.0037249869800179223,25.66880289002438
1639,A,184989958899593.0,4.570833536390371,12.418425,-2.2385786,199,1970-01-03 03:23:09.958899593,-1.7033863,0.3915574,-0.28802806,12.641193647606286,1.771384274478526,-47.137821197509766,-69.78935241699219,75.2157974243164,25718736.0,49934.0,0.23690752705053675,0.07832484954499992,-0.09767403985519998,0.011738585717464315,0.0036767271263338603,-0.004399639162534273,25.718736400012858
1639,A,184990008838293.0,2.8901038963903707,8.652346,-1.4053963,199,1970-01-03 03:23:10.008838293,-1.5425314,-0.23268758,-1.6643497,9.098076833473673,2.281141502354097,-47.083984375,-69.85823059082031,75.07626342773438,25768675.0,49939.0,0.1862958772278187,0.036724416484499936,-0.09098823126554999,0.010567177403128396,0.0028727226481235968,-0.004710802578749566,25.76867510000011
1639,A,184990058776993.0,2.4064750963903707,8.999505,0.20829555,199,1970-01-03 03:23:10.058776993,-0.5049638,-1.4108701,-2.5453234,9.46371580473858,2.9536780611590037,-47.0131950378418,-69.99943542480469,74.97401428222656,25818613.0,49938.0,0.13225028087074234,-0.04864333238100007,-0.029890408626750006,0.007953779021562971,-0.0002976034110197118,-0.0030182187594708387,25.818613800016465
1639,A,184990108715693.0,0.6180060963903706,9.124003,2.954445,199,1970-01-03 03:23:10.108715693,1.7107862,-1.9680033,-2.7104394,10.68398486392802,3.7611578206708756,-46.870731353759766,-70.16565704345703,74.91346740722656,25868552.0,49939.0,0.07551978314313872,-0.03686726699400005,0.078972050163225,0.0051879146133946025,-0.0021351569110940652,0.0012255440483450123,25.868552500003716
1639,A,184990158654393.0,2.5908287963903707,5.523124,1.5801731,199,1970-01-03 03:23:10.158654393,3.018931,-1.8987612,-2.0318658,6.362906595716308,4.104597069944391,-46.71879577636719,-70.30467987060547,74.91241455078125,25918491.0,49939.0,0.08012300285528871,-0.12367076237350003,0.11322714664795,0.0038863225449877335,-0.004008554324291793,0.004799117844776634,25.91849120002007
1639,A,184990208593093.0,4.870108756390371,6.993164,1.2497733,199,1970-01-03 03:23:10.208593093,0.9906674,-1.6771861,-1.5652801,7.118617054363504,2.4988951364376977,-46.68992233276367,-70.41917419433594,74.93436431884766,25968429.0,49938.0,0.18629214975538236,-0.17687320492800004,0.07066093166160001,0.006652119945535846,-0.007504282319551156,0.004591501427311155,25.968429900007322
1639,A,184990258531793.0,3.2779646963903706,12.413636,3.2154129,199,1970-01-03 03:23:10.258531793,-0.52200806,-1.4257838,-1.6409138,12.98592942450701,2.235609527193388,-46.393306732177734,-70.60226440429688,74.62867736816406,26018368.0,49939.0,0.2034533200792087,-0.004824107400000023,0.11149346682089999,0.009731749509034819,-0.004536891040173997,0.004548304252908783,26.018368600023678
1639,A,184990308470493.0,0.9771366963903709,12.207735,4.3502645,199,1970-01-03 03:23:10.308470493,-0.85756636,-0.86865044,-1.7144171,13.670109288665332,2.1045663784942144,-46.31072998046875,-70.51127624511719,74.50116729736328,26068307.0,49939.0,0.10624775422703871,0.12538112318449995,0.1889111818393,0.007733080974889843,0.003010248405631071,0.007500953874720864,26.06830730001093
1639,A,184990358409193.0,-0.16489730360962973,14.194922,5.1762643,199,1970-01-03 03:23:10.358409193,0.31848556,-0.94534945,-1.4491663,16.076275952013223,1.7593185043077066,-46.26365280151367,-70.38439178466797,74.46651458740234,26118246.0,49939.0,0.020281211518038716,0.1698589439615,0.23787266087159997,0.003159365010171711,0.007371996856602045,0.010656579160569815,26.118246000027284
1639,A,184990408347893.0,-0.06194690360962962,15.284285,4.781221,199,1970-01-03 03:23:10.408347893,2.1784372,-0.7599935,-0.7151991,16.896936177072636,2.4155099890141005,-46.2307014465332,-70.29666137695312,74.53900909423828,26168184.0,49938.0,-0.005664073010057687,0.24667391958299995,0.2486284504557,0.0003649753314057784,0.010400409069842619,0.012147446248731354,26.168184700014535
1639,A,184990458286593.0,1.8438377963903707,13.297097,3.655946,199,1970-01-03 03:23:10.458286593,2.2711153,0.7654652,0.21264622,14.223527417495252,2.4060590377597593,-45.9920768737793,-70.23564910888672,74.41445922851562,26218123.0,49939.0,0.04449292464728871,0.22426061784899998,0.2106718414065,0.00096953701095584,0.011758999932408322,0.011468498637653202,26.218123400001787
1639,A,184990508225293.0,3.409645796390371,13.538911,2.018312,199,1970-01-03 03:23:10.508225293,0.8596399,1.433386,1.0169208,13.822105895395184,1.956451915110783,-45.86662673950195,-70.35248565673828,74.33132934570312,26268062.0,49939.0,0.13117685856993871,0.18067950175600003,0.14168338513099998,0.00438638665204256,0.010111152316477046,0.008798133829028104,26.268062100018142
1639,A,184990558163993.0,3.1079762963903708,11.09922,1.7860745,199,1970-01-03 03:23:10.558163993,-0.11827285,2.311164,1.6614058,11.45885131550316,2.8488132150453045,-45.90001678466797,-70.34500885009766,74.3487548828125,26318000.0,49938.0,0.16273850603464235,0.12579709293900002,0.09499172651849999,0.007338772738811785,0.007652414092939457,0.0059095408627763656,26.318000800005393
1639,A,184990608102693.0,3.7304686963903704,7.6539636,1.5945383,199,1970-01-03 03:23:10.608102693,-1.7726285,2.537,2.4198742,7.979568648686169,3.928660324186591,-45.9510498046875,-70.2506332397461,74.3110122680664,26367939.0,49939.0,0.1707525522472387,-0.02114458209980004,0.08441221130959999,0.008327104979769429,0.0026131208693994036,0.0044796266255987425,26.36793950002175
1639,A,184990658041393.0,3.3737326963903707,7.280468,0.22744916,199,1970-01-03 03:23:10.658041393,-2.6898212,2.1236773,3.0579674,7.541276119341133,4.5930717370804794,-46.16766357421875,-70.06684875488281,74.39833068847656,26417878.0,49939.0,0.1773883566770387,-0.11649691016380002,0.045494115882469995,0.008692904425384744,-0.0034368392410759614,0.0032436960368223914,26.417878200009
1639,A,184990707980093.0,3.1510718963903708,7.9604216,-1.5921441,199,1970-01-03 03:23:10.707980093,-1.6362747,1.6368515,3.0100305,8.404545701149159,3.796967386986961,-46.37270736694336,-69.90150451660156,74.52947998046875,26467816.0,49938.0,0.16291784587714234,-0.10884262757760005,-0.03407506795686001,0.008497105571575347,-0.0056265029178650195,0.0002851222076545558,26.467816900025355
1639,A,184990757918793.0,3.673007896390371,8.901342,-2.15957,199,1970-01-03 03:23:10.757918793,-0.059683304,1.3353816,2.0843158,9.307640648056145,2.4761216586679575,-46.43974685668945,-69.78001403808594,74.59771728515625,26517755.0,49939.0,0.17039386038583873,-0.06837239378980003,-0.09367842521995,0.008322626649533505,-0.004424970476033296,-0.0031899408478783574,26.517755600012606
1639,A,184990807857493.0,4.465488646390371,9.126397,-1.4915876,199,1970-01-03 03:23:10.807857493,-0.0010937602,1.1383077,0.98070186,9.28749481722744,1.5025051595246268,-46.419612884521484,-69.70523071289062,74.5761947631836,26567694.0,49939.0,0.20321418942496375,-0.03925857103950002,-0.0911675796932,0.009328806199750832,-0.0026874913763052077,-0.004615512319678899,26.56769430002896
1639,A,184990857796193.0,4.582804536390371,8.511087,-1.1803415,199,1970-01-03 03:23:10.857796193,-0.6743409,0.59076184,-0.049408827,8.624680785884502,0.8978732834863233,-46.390926361083984,-69.6866683959961,74.50965881347656,26617633.0,49939.0,0.22593135662744374,-0.049003043262000015,-0.06671673366245,0.01071554971215559,-0.0022038483783013052,-0.0039422923623339025,26.617633000016212
1639,A,184990907734893.0,4.709697196390371,12.31308,-2.2361844,199,1970-01-03 03:23:10.907734893,-0.7904547,-0.30192977,-1.7857898,12.529688517267624,1.9761137185264372,-46.29315948486328,-69.76168823242188,74.36329650878906,26667571.0,49938.0,0.23202447576580237,0.03056622582299995,-0.0853072351971,0.011434699179026963,-0.0004603488946343927,-0.003795886478454104,26.667571700003464
1639,A,184990957673593.0,2.8350372963903707,9.842264,-0.5482722,199,1970-01-03 03:23:10.957673593,-1.0812719,-0.7940819,-3.1706336,10.16754209953411,3.4427652274133043,-46.126548767089844,-69.90359497070312,74.12821197509766,26717510.0,49939.0,0.1883882479174887,0.06380566200799995,-0.0695264890737,0.010497495504009935,0.0023564188531961516,-0.0038661206781797405,26.71751040001982
1639,A,184991007612293.0,1.228528096390371,11.240478,1.0462662,199,1970-01-03 03:23:11.007612293,-0.3078899,-1.7304491,-3.6808953,12.00989788238732,4.078999937211927,-45.96211624145508,-70.09615325927734,73.93684387207031,26767449.0,49939.0,0.10146519607503873,0.03702332636899995,0.012434661183,0.007237495569771413,0.002517649425279499,-0.0014255543965168336,26.76744910000707
1639,A,184991057549603.0,-2.87992190360963,10.960356,3.6343982,199,1970-01-03 03:23:11.057549603,3.3725986,-1.7698638,-2.9969954,14.166373112180981,4.846526654718155,-45.67981719970703,-70.26528930664062,73.8160171508789,26817386.0,49937.0,-0.04123282627555407,0.06493892372899998,0.11686916907140002,0.0015039119253384328,0.002545844441571911,0.0032285226857069866,26.817386410024483
1639,A,184991107486913.0,4.005801896390371,5.8176107,0.33279404,199,1970-01-03 03:23:11.107486913,4.316423,-1.6143353,-1.2563534,5.974947198290161,4.776610706499604,-45.5023078918457,-70.36664581298828,73.85670471191406,26867323.0,49937.0,0.028111534599745924,-0.07046193845105,0.09905483944444,-0.00032761897120741577,-0.00013790139308750602,0.0053912986066277525,26.86732372001279
1639,A,184991157424223.0,6.1486124963903706,8.594885,1.4700398,199,1970-01-03 03:23:11.157424223,0.09158424,-1.2244484,-0.2028069,8.758349298358532,1.2445047994951839,-45.60049057006836,-70.4167709350586,73.96580505371094,26917261.0,49938.0,0.25354557297334235,-0.12952679486670005,0.04501495815096,0.007032696318992442,-0.004993518682210901,0.003597278776159543,26.9172610300011
1639,A,184991207361533.0,2.985872096390371,12.0688715,3.3135753,199,1970-01-03 03:23:11.207361533,-2.16145,-0.7482753,0.013441773,12.732505497436213,2.2873484011736105,-45.5397834777832,-70.47453308105469,73.8158950805664,26967198.0,49937.0,0.22807437855484594,0.026560404170249963,0.11943969362435002,0.01202532775973157,-0.002570916326104314,0.004106185972851829,26.967198340018513
1639,A,184991257298843.0,0.8765800963903709,10.835857,2.822764,199,1970-01-03 03:23:11.257298843,-2.2796943,-0.49154657,-0.5383652,12.049354473558905,2.393420401956642,-46.0396728515625,-70.36356353759766,74.17899322509766,27017135.0,49937.0,0.09643963757544595,0.08251411355225,0.15321518781204999,0.008102628211749193,0.0027234270957542405,0.006807783407144753,27.01713565000682
1639,A,184991307236153.0,0.2900010963903705,13.12232,3.8187518,199,1970-01-03 03:23:11.307236153,-0.60509866,-0.5746372,-1.1306522,14.565232949098592,1.4052496921623843,-46.23588562011719,-70.27645111083984,74.32901763916016,27067072.0,49937.0,0.029127782511945945,0.1088171424245,0.1658286872523,0.0031352301284520443,0.004777254464855482,0.007966046994544222,27.067072960024234
1639,A,184991357173463.0,-0.8089375036096289,16.074371,4.8937483,199,1970-01-03 03:23:11.357173463,1.8492706,-0.7663848,-1.3383788,17.887974940730498,2.4079877960622724,-46.2596435546875,-70.19651794433594,74.43212890625,27117010.0,49938.0,-0.012957323151857663,0.2396197775789999,0.2175424149969,0.0004037601997620444,0.00870012145556739,0.009572393052060276,27.117010270012543
1639,A,184991407110773.0,0.682650096390371,12.789526,2.9472623,199,1970-01-03 03:23:11.407110773,2.7068083,0.6866359,-0.4936241,13.922108110257092,2.8358322912715606,-46.3359260559082,-70.11434936523438,74.6170425415039,27166947.0,49937.0,-0.003153207127154041,0.23130561224449991,0.19577827316610003,-0.00040225577527150375,0.011758300595808057,0.010319997602397867,27.16694758000085
1639,A,184991457048083.0,3.5461152963903704,12.468703,1.4389153,199,1970-01-03 03:23:11.457048083,1.2207645,1.2043544,0.8326301,12.677119018137045,1.9063075220660544,-46.296417236328125,-70.27944946289062,74.6322250366211,27216884.0,49937.0,0.10558592870964595,0.14127749078649998,0.10951627540560001,0.0025575914088324493,0.009302841208029522,0.007622746936012492,27.216884890018264
1639,A,184991506985393.0,3.3282428963903707,10.81431,1.3479356,199,1970-01-03 03:23:11.506985393,0.35470456,1.9851933,1.7753892,11.0797055234023,2.686785174651357,-46.405548095703125,-70.32926177978516,74.74815368652344,27266822.0,49938.0,0.17164584971554234,0.09196115159699998,0.06958488012210001,0.0069222002754985275,0.005823735661673611,0.004471976752371142,27.266822200006573
1639,A,184991556922703.0,3.2205038963903707,7.428909,2.2002714,199,1970-01-03 03:23:11.556922703,-1.1888636,2.326078,2.5114868,8.029056458675552,3.623755161164065,-46.397132873535156,-70.09308624267578,74.6850357055664,27316759.0,49937.0,0.16351238429554596,-0.03387678639850004,0.08859340647950001,0.008368398365905859,0.001450279472458746,0.00394947454901205,27.316759510023985
1639,A,184991606860013.0,3.105582096390371,6.9261265,0.89782566,199,1970-01-03 03:23:11.606860013,-2.0932732,1.9468437,2.959963,7.328743111666398,4.115018109733776,-47.09122085571289,-69.96918487548828,75.24974060058594,27366696.0,49937.0,0.15795287811074596,-0.13095889611825004,0.07735483644261001,0.008026505404391501,-0.004115699738919475,0.004143478703400704,27.366696820012294
1639,A,184991656797323.0,3.139100896390371,7.306804,-1.0414777,199,1970-01-03 03:23:11.656797323,-1.0024424,1.5164769,2.7128217,7.698015661307667,3.2655772123075364,-47.24137496948242,-69.81818389892578,75.35626983642578,27416634.0,49938.0,0.15592348964674235,-0.13401035834550007,-0.00358684778676,0.007837179026536726,-0.006616017314705376,0.0018419129087479192,27.416634130000602
1639,A,184991706734633.0,3.5532978963903705,9.751285,-1.4197617,199,1970-01-03 03:23:11.706734633,0.55923533,1.3215334,1.6795154,10.012395872186582,2.2090646573771737,-47.236473083496094,-69.71166229248047,75.38084411621094,27466571.0,49937.0,0.16709915925754595,-0.06346770480350006,-0.061453455958900005,0.008065391009166723,-0.00493073101973581,-0.0016239588240735117,27.466571440018015
1639,A,184991756671943.0,4.582804536390371,11.001058,-1.4437037,199,1970-01-03 03:23:11.756671943,0.077735804,1.3779925,0.80493325,11.12029083131245,1.5977558393682492,-47.1699333190918,-69.63531494140625,75.31403350830078,27516508.0,49937.0,0.20314627359288598,0.02877227619549996,-0.07149643583990001,0.00924447309012601,-0.0008662928091988505,-0.0033195593733783384,27.516508750006324
1639,A,184991806609253.0,4.642659596390371,9.562142,-1.4389153,199,1970-01-03 03:23:11.806609253,-1.2836721,0.8837098,0.25738734,9.693961211846288,1.5795585819230402,-47.17046356201172,-69.59584045410156,75.24612426757812,27566446.0,49938.0,0.23035061393140235,0.02405014079999997,-0.07197611381100001,0.010823983784593956,0.0013189229299606377,-0.0035823660922333226,27.566446060023736
1639,A,184991856546563.0,3.8334193963903704,12.583625,-1.6998832,199,1970-01-03 03:23:11.856546563,-1.1132299,0.015519305,-1.0283868,12.785420130644239,1.5156190383786863,-47.13050079345703,-69.63301849365234,75.14411926269531,27616383.0,49937.0,0.21163497833124598,0.06356398333949995,-0.07837109034725001,0.011035717260409935,0.0021875932585771036,-0.0037539441670252664,27.616383370012045
1639,A,184991906483873.0,2.887709696390371,8.661922,-0.58418524,199,1970-01-03 03:23:11.906483873,-0.997116,-0.3647801,-1.9935164,9.017683185670332,2.2586306638937166,-47.033180236816406,-69.71842193603516,74.98716735839844,27666320.0,49937.0,0.16781651175309592,0.04108684026949997,-0.05702976284414,0.00947433453017089,0.0026129740892813142,-0.0033807562029092215,27.666320680000354
1639,A,184991956421183.0,2.6075880963903706,8.793604,0.035913024,199,1970-01-03 03:23:11.956421183,-0.43678692,-1.262798,-2.37062,9.204459545694894,2.7212645565411475,-46.96089172363281,-69.84817504882812,74.8868637084961,27716257.0,49937.0,0.13720934293904594,-0.05354429906900002,-0.013689534825196003,0.0076160380528807435,-0.00031104406003531695,-0.001765754783856816,27.716257990017766
1639,A,184992006358493.0,0.2205690963903706,10.280403,2.6408045,199,1970-01-03 03:23:12.006358493,1.3326173,-1.6164658,-2.3887296,11.77848156872036,3.1772408867986526,-46.83243179321289,-69.99060821533203,74.82102966308594,27766195.0,49938.0,0.07061625694654233,-0.013133519217000037,0.06683495985675601,0.005189197403543254,-0.0016648784447831355,0.0013269881176130218,27.766195300006075
1639,A,184992056295803.0,2.8901038963903707,6.114492,1.553837,199,1970-01-03 03:23:12.056295803,2.382968,-1.4343055,-1.6057602,6.76300183680691,3.2115782064677,-47.03620529174805,-69.97594451904297,75.12354278564453,27816132.0,49937.0,0.07766883862024594,-0.08002666419250004,0.10473390629275002,0.0037024564086593527,-0.0023260700394601027,0.004283817234453941,27.816132610023487
1639,A,184992106240133.0,4.721668296390371,7.254132,1.2258313,199,1970-01-03 03:23:12.106240133,0.22367704,-1.3107349,-1.004951,7.381808725354155,1.6667285047967983,-47.062801361083984,-70.0573959350586,75.16374969482422,27866076.0,49944.0,0.1900811751981207,-0.15560992147200003,0.0694138767876,0.0066862533450722525,-0.005884316817213896,0.0043488184390825,27.86607694000122
1639,A,184992156184463.0,2.5597040963903708,10.488698,2.8491,199,1970-01-03 03:23:12.156184463,-0.888459,-1.1062042,-1.0038857,11.215443072558703,1.7380545519180721,-47.049232482910156,-70.11250305175781,75.11138153076172,27916021.0,49945.0,0.1818340720787171,-0.04637817782500005,0.10176122188925002,0.009287653512620833,-0.005044147809694335,0.004274670151707637,27.91602127000806
1639,A,184992206128793.0,1.6858203963903708,10.969933,2.5809495,199,1970-01-03 03:23:12.206128793,-0.6349261,-0.9560019,-1.3575536,11.842989195951693,1.777645229548849,-47.26051712036133,-70.14290618896484,75.27640533447266,27965965.0,49944.0,0.10601923763372069,0.04641373333199993,0.135599196114,0.007188272850138996,8.878921208011566e-07,0.00592736435837716,27.965965600014897
1639,A,184992256073123.0,0.012273396390370728,13.869311,4.429273,199,1970-01-03 03:23:12.256073123,0.5922585,-1.025244,-1.7186782,15.498996048745289,2.0870433980905836,-47.26980209350586,-70.07563018798828,75.30596923828125,28015909.0,49944.0,0.04240479819332068,0.13083440116799994,0.17505927627,0.003706445022672877,0.004426240414733997,0.0077577633723732485,28.015909930021735
1639,A,184992306017453.0,-0.29897250360962957,16.493357,4.122815,199,1970-01-03 03:23:12.306017453,2.1486099,-1.0603977,-1.5024295,17.90743119615567,2.828119903224322,-47.31443405151367,-70.09522247314453,75.44482421875,28065854.0,49945.0,-0.007159593455032942,0.26877072662999996,0.21356701758000005,0.0008801608753268906,0.009979139053935554,0.009704970123169126,28.065854260028573
1639,A,184992355961783.0,0.6682850963903704,13.749601,4.187459,199,1970-01-03 03:23:12.355961783,2.724918,0.5193894,-0.34129128,15.109160564349894,2.794892340209261,-47.1165771484375,-69.9755859375,75.37652587890625,28115798.0,49944.0,0.00922247406692066,0.26577594717599995,0.207524162328,5.15142546400601e-05,0.013348699538283429,0.010515488944662577,28.115798590006307
1639,A,184992405906113.0,4.015378796390371,12.392089,1.8243817,199,1970-01-03 03:23:12.405906113,0.5517785,1.0967627,1.0787061,12.594112857246294,1.6343055966834201,-47.079551696777344,-69.89875030517578,75.36648559570312,28165742.0,49944.0,0.11696045473052068,0.16335908268,0.1501276859604,0.003151040097929705,0.010716359965564031,0.008931281955457926,28.165742920013145
1639,A,184992455850443.0,2.8781328963903707,10.752061,1.7286136,199,1970-01-03 03:23:12.455850443,-0.203494,1.9127553,1.8808503,11.161996770096021,2.6902863224430558,-47.22315979003906,-69.88096618652344,75.48971557617188,28215687.0,49945.0,0.17214822074796707,0.08850628587499997,0.08872717512925,0.007219766398386535,0.006289707916239737,0.005964803018561285,28.215687250019982
1639,A,184992505794773.0,2.7871532963903705,7.199065,2.1164744,199,1970-01-03 03:23:12.505794773,-1.1558404,2.2568357,2.4092214,7.921809136446068,3.4976595262095778,-47.36664962768555,-69.60308837890625,75.56970977783203,28265631.0,49944.0,0.14147352680612066,-0.04117568152800007,0.09601953753600001,0.00783176227992068,0.0011819398517532813,0.004613494908676624,28.26563158002682
1639,A,184992555739103.0,3.0433328963903707,6.2437787,1.2497733,199,1970-01-03 03:23:12.555739103,-1.4690281,1.8978416,2.7809987,6.764632797993888,3.67339081322446,-47.881893157958984,-69.3952407836914,75.99197387695312,28315575.0,49944.0,0.14559890120612068,-0.15375650712360003,0.0840619375644,0.00716877267232169,-0.004867846615007759,0.004496994596207189,28.315575910004554
1639,A,184992605683433.0,3.388097896390371,7.050625,-1.2090719,199,1970-01-03 03:23:12.605683433,-0.24503931,1.4067546,2.4422448,7.411556112817446,2.8290568094673314,-47.97263717651367,-69.2574691772461,76.07586669921875,28365520.0,49945.0,0.16060890547271708,-0.15746650360175005,0.0010164157114999973,0.007646774452287276,-0.0077720166353388055,0.0021246191771824127,28.365520240011392
1639,A,184992655627763.0,2.9786894963903707,9.799169,-0.81642276,199,1970-01-03 03:23:12.655627763,1.3667058,1.3652093,1.0478135,10.109559450368348,2.197633797369885,-47.86333084106445,-69.17283630371094,76.03204345703125,28415464.0,49944.0,0.15899141477252068,-0.06867814423200005,-0.050580652649520004,0.007981059197164077,-0.0056472841457044076,-0.0012377181248162358,28.41546457001823
1639,A,184992705572093.0,4.5181610963903704,11.807903,-0.91219085,199,1970-01-03 03:23:12.705572093,0.54432166,1.3769273,0.07629237,11.87064971761431,1.4825772778343336,-47.708988189697266,-69.1237564086914,75.89599609375,28465408.0,49944.0,0.1872113530029207,0.05012060198399994,-0.04316693906892,0.008645375516888322,-0.0004634189450170589,-0.002341064860392884,28.465408900025068
1639,A,184992755516423.0,5.0640390963903705,12.080843,-1.6256629,199,1970-01-03 03:23:12.755516423,-1.8354791,1.2778577,0.014507038,12.192559762743892,2.236540695390458,-47.67829132080078,-69.0802001953125,75.76490783691406,28515353.0,49945.0,0.23929149431421706,0.10710070948499996,-0.06337655277187501,0.010650842354627222,0.0039262092006596,-0.0026606573499942535,28.515353230002802
1639,A,184992805460753.0,3.7137092963903706,12.878112,-2.2122424,199,1970-01-03 03:23:12.805460753,-2.6834295,0.5012799,-0.41479453,13.165917090079985,2.761182703432024,-47.72746658325195,-69.07868957519531,75.67391204833984,28565297.0,49944.0,0.21919793286452066,0.13382382425999995,-0.09584017115160001,0.01144939797550744,0.006016367456680137,-0.003975960029817018,28.56529756000964
1639,A,184992855405083.0,2.4830897963903706,8.599673,-1.3024458,199,1970-01-03 03:23:12.855405083,-1.754519,0.11032784,-1.1679364,9.150770077429195,2.1105886828288036,-47.70163345336914,-69.11821746826172,75.55235290527344,28615241.0,49944.0,0.1547464669449207,0.046892047019999945,-0.0877687937304,0.009338139552041371,0.0045128367376041575,-0.0045850830710333045,28.615241890016478
1639,A,184992905349413.0,2.3322550963903708,8.214207,-0.10534488,199,1970-01-03 03:23:12.905349413,-0.24184352,-0.97517663,-1.7836593,8.743609870356478,2.0471683483144805,-47.650630950927734,-69.21695709228516,75.48484802246094,28665186.0,49945.0,0.12025120033496707,-0.06957638170000006,-0.03515605275630001,0.0068673792461469985,-0.000566484547796303,-0.0030697407288891162,28.665186220023315
1639,A,184992955293743.0,1.3889394963903707,8.214207,1.9440918,199,1970-01-03 03:23:12.955293743,1.3762932,-1.6185963,-1.963689,9.314412378744093,2.8931144884813893,-48.091400146484375,-69.18492126464844,75.95897674560547,28715130.0,49944.0,0.09292567137092068,-0.07920084559200004,0.04591718808624,0.0053234528402394295,-0.0037152649199358265,0.00026872707145926143,28.71513055000105
1639,A,184993005238073.0,2.8996806963903707,5.463269,1.6759412,199,1970-01-03 03:23:13.005238073,2.2093298,-1.7208617,-1.5524969,6.20856522093311,3.2019915334373605,-48.254966735839844,-69.11695861816406,76.21942138671875,28765074.0,49944.0,0.10709542345412068,-0.14789726932800004,0.09039946407600001,0.0049949267799709336,-0.005671094125782243,0.0034040994377954577,28.765074880007887
1639,A,184993055182403.0,4.228462696390371,6.6555815,1.1731589,199,1970-01-03 03:23:13.055182403,1.1334128,-1.7187312,-1.3181387,6.8468305852009825,2.4446167686357243,-48.166038513183594,-69.40689086914062,76.19642639160156,28815019.0,49945.0,0.17800756087621705,-0.18682300588875003,0.07114915224725,0.00711973427618936,-0.008358802072850292,0.004034272821132361,28.815019210014725
1639,A,184993105126733.0,3.218109696390371,11.178228,2.9759927,199,1970-01-03 03:23:13.105126733,0.3802709,-1.6388364,-1.7240045,11.758200076547467,2.4088549602190708,-47.87305450439453,-69.5989761352539,75.9410400390625,28864963.0,49944.0,0.18595580579252066,-0.044105309166000015,0.10361261375519999,0.00908889319245172,-0.005766741883547218,0.004364150820613181,28.864963540021563
1639,A,184993155068883.0,2.2963420963903705,11.587637,3.799598,199,1970-01-03 03:23:13.155068883,0.015950471,-1.0721157,-2.032931,12.565550563429126,2.29836788666928,-47.53807067871094,-69.65803527832031,75.61784362792969,28914905.0,49942.0,0.1377013757175279,0.07905481491500001,0.16919327536970002,0.008082043479487423,0.0008727241080582789,0.006812235857337878,28.91490569000598
1639,A,184993205011033.0,0.864609096390371,14.498986,4.912902,199,1970-01-03 03:23:13.205011033,-0.1736666,-1.020983,-1.9647542,15.945752968980047,2.220996497219705,-47.31127166748047,-69.66095733642578,75.38709259033203,28964847.0,49942.0,0.0789321122349279,0.16197746293299994,0.21755983750000002,0.005409554827660774,0.006018817010142407,0.009657611981469279,28.9648478400195
1639,A,184993254953183.0,-0.5096625036096292,15.791855,5.449203,199,1970-01-03 03:23:13.254953183,1.053518,-0.76105845,-1.3415745,17.695736137811203,1.8678683785777446,-47.20045852661133,-69.57429504394531,75.3265151977539,29014789.0,49942.0,0.008863371368327903,0.266960990611,0.25875212395499997,0.0021923410210569006,0.010711022123447224,0.011893985989492805,29.01478999000392
1639,A,184993304895333.0,0.3211255963903703,13.742418,4.3287168,199,1970-01-03 03:23:13.304895333,1.3581836,0.6482864,0.024094418,15.252775064708144,1.5051639408093322,-47.13164520263672,-69.41973114013672,75.31768798828125,29064732.0,49943.0,-0.0047080493786257225,0.24807369821950004,0.24416932428569998,0.000103764623065848,0.01286118873213083,0.01255870294474264,29.06473214001744
1639,A,184993354837483.0,2.8087010963903705,13.201329,1.42455,199,1970-01-03 03:23:13.354837483,0.4761447,1.2704008,1.5729889,13.514603669477141,2.077240007197517,-47.32913589477539,-69.53129577636719,75.52735900878906,29114674.0,49942.0,0.07815490234542788,0.18338070633699993,0.1436648252628,0.0018340413654340168,0.01077384793618036,0.009684606548375593,29.114674290001858
1639,A,184993404779633.0,2.9954488963903705,10.582072,1.6328455,199,1970-01-03 03:23:13.404779633,-0.24503931,1.9990417,2.5775332,10.958145156099727,3.271068537784925,-47.520179748535156,-69.50700378417969,75.69971466064453,29164616.0,49942.0,0.14493542946972787,0.10446370637099996,0.07634622303050001,0.005570788675756254,0.007187762829731465,0.005493895886931994,29.16461644001538
1639,A,184993454721783.0,2.8087010963903705,7.1655464,2.3989902,199,1970-01-03 03:23:13.454721783,-1.2442573,2.0725448,3.2656941,7.964941397433694,4.063050102002822,-47.63618850708008,-69.18193054199219,75.76182556152344,29214558.0,49942.0,0.14493542946972787,-0.04625582093360003,0.1006789692647,0.0072383652185771495,0.0014535091072573137,0.00442049607680344,29.2145585900289
1639,A,184993504663933.0,2.930805296390371,7.402572,0.9672575,199,1970-01-03 03:23:13.504663933,-1.2485183,1.4813231,3.4840732,7.840519496006313,3.986462358405851,-48.322486877441406,-69.06909942626953,76.36701202392578,29264500.0,49942.0,0.1433212141341279,-0.12565111543360002,0.0840585713167,0.007198056647431883,-0.004292688108025353,0.00461308112585814,29.264500740013318
1639,A,184993554606083.0,3.5078078963903705,9.739313,-0.94570965,199,1970-01-03 03:23:13.554606083,0.1736096,1.0605437,2.9280052,9.952727380755244,3.118991453025944,-48.46372985839844,-68.92440032958984,76.52760314941406,29314442.0,49942.0,0.1607786100369279,-0.06138158966500005,0.0005380713623500009,0.007593676709375434,-0.004670393679017142,0.0021124627643385576,29.31444289002684
1639,A,184993604548233.0,4.8988391763903705,11.297938,-1.0869676,199,1970-01-03 03:23:13.604548233,0.666827,1.3598831,2.056619,11.358165625022357,2.5541382117566798,-48.475101470947266,-68.80236053466797,76.5755386352539,29364385.0,49943.0,0.20992658737794428,0.035890313346499954,-0.050758999948374996,0.00925706483724548,-0.0006365554065874251,-0.0012540919181859233,29.364385040011257
1639,A,184993654490383.0,5.681743146390371,10.495881,-1.5801731,199,1970-01-03 03:23:13.654490383,-0.6764714,1.174527,1.2608664,10.620101408919485,1.8511918613141967,-48.50326156616211,-68.7162094116211,76.5694580078125,29414327.0,49942.0,0.2642077211821579,0.054781854248999985,-0.0666011704197,0.011839607819054312,0.0022641746970272288,-0.002930600814261201,29.41432719002478
1639,A,184993704432533.0,4.810253696390371,8.690653,-1.3958195,199,1970-01-03 03:23:13.704432533,-1.4541144,0.67811376,0.3031937,8.817166777560102,1.632854365676372,-48.53658676147461,-68.68240356445312,76.52719116210938,29464269.0,49942.0,0.2619956531610779,-0.010324659486000035,-0.0743135112146,0.013139824460724942,0.0011101406104268717,-0.003518780515090105,29.464269340009196
1639,A,184993754374683.0,3.1869848963903706,12.933178,-1.4820108,199,1970-01-03 03:23:13.754374683,-0.73825675,-0.06863658,-1.5951076,13.192483814547277,1.759006044507073,-48.444400787353516,-68.744384765625,76.38864135742188,29514211.0,49942.0,0.1996990449003279,0.050537083900999945,-0.07186230042130001,0.011528978305291366,0.0010041444500669626,-0.003650156192360059,29.514211490022717
1639,A,184993804316833.0,2.9164400963903705,8.661922,0.45729253,199,1970-01-03 03:23:13.804316833,-1.1153604,-0.9293702,-2.6582415,9.002618280114225,3.028862106940237,-48.362205505371094,-68.8746337890625,76.24067687988281,29564153.0,49942.0,0.1524086254947279,0.04981964209999998,-0.025588239920170005,0.008792480637434937,0.0025060078049709694,-0.002433437442866848,29.564153640007135
1639,A,184993854258983.0,2.688990896390371,11.448773,2.5905263,199,1970-01-03 03:23:13.854258983,0.4559047,-1.6793164,-2.7839427,12.030897372923997,3.2830305547884167,-48.20014953613281,-69.1156005859375,76.09994506835938,29614095.0,49942.0,0.1399732173207279,0.012752564844999958,0.07610708400393,0.007301066996944746,0.0015624905796235932,0.0012615060556155709,29.614095790020656
1639,A,184993904201133.0,1.1997976963903705,6.969222,2.0925324,199,1970-01-03 03:23:13.904201133,2.1059992,-1.3437581,-2.2076344,8.365385981701198,3.3338518422058905,-48.03260040283203,-69.24263000488281,76.03334045410156,29664037.0,49942.0,0.09710693995032789,-0.02951584685500005,0.1169406587977,0.005920128607215534,-0.0004185959150717122,0.004820595185499503,29.664037940005073
1639,A,184993954143283.0,5.047279696390371,5.518336,1.5107412,199,1970-01-03 03:23:13.954143283,0.79146296,-1.2393622,-1.6334571,5.728212694977466,2.1978658688330395,-47.970272064208984,-69.34477233886719,76.00901794433594,29713980.0,49943.0,0.15599889311382428,-0.17760834540300005,0.08997914670240001,0.006320432310361476,-0.00517220176697065,0.005167097923045748,29.713980090018595
1639,A,184994004085433.0,4.185367096390371,8.23336,1.7190368,199,1970-01-03 03:23:14.004085433,-1.0514445,-1.0156567,-1.4065557,8.487981982965694,2.0286677909499202,-47.74967575073242,-69.60533905029297,75.74993133544922,29763922.0,49942.0,0.2305484230625279,-0.14603799918400007,0.080650786438,0.00965247303223969,-0.00808177287068198,0.004260800060448928,29.763922240003012
1639,A,184994054027583.0,1.6355422963903705,13.51018,2.681506,199,1970-01-03 03:23:14.054027583,-1.5052471,-0.67157626,-1.8497057,14.25972429601332,2.477538028298756,-47.86824417114258,-69.74229431152344,75.7775650024414,29813864.0,49942.0,0.1453539284471279,0.05352633733999995,0.1098859542588,0.009386657619547614,-0.0023101087079065268,0.004757892951939792,29.813864390016533
1639,A,184994103969733.0,0.4528065963903707,13.538911,3.2872388,199,1970-01-03 03:23:14.103969733,-1.347588,-0.5192434,-2.2811377,14.760163606806962,2.6998511685922337,-48.01373291015625,-69.76937103271484,75.83102416992188,29863806.0,49942.0,0.05214816020162789,0.18601125136099997,0.1490455264008,0.0049318246556480805,0.005981493127452669,0.006465778003550871,29.86380654000095
1639,A,184994153911883.0,-2.197574503609629,15.222035,4.525041,199,1970-01-03 03:23:14.153911883,0.4942542,-0.5884856,-1.9455795,17.572715970205284,2.0918609194794118,-47.87116622924805,-69.86129760742188,75.70545959472656,29913748.0,49942.0,-0.0435685994111721,0.22875798256599997,0.19508043888579998,0.00021424021249847138,0.010357202540391115,0.008593169479171688,29.913748690014472
1639,A,184994203861343.0,-1.9174532036096297,17.702429,5.66947,199,1970-01-03 03:23:14.203861343,1.8790979,-0.15918407,-0.6736538,19.949836056134412,2.0025378718467763,-47.86793518066406,-69.7107162475586,75.78489685058594,29963698.0,49950.0,-0.10277281698780098,0.3327784883999999,0.25460791222499995,-0.003654876874564353,0.014024373362375848,0.01123096656899223,29.963698150007986
1639,A,184994253810803.0,3.148677696390371,12.126332,2.420538,199,1970-01-03 03:23:14.253810803,0.81915987,0.58650106,1.0222472,12.555895381320806,1.4352685197925095,-47.75065994262695,-69.78620147705078,75.71762084960938,30013647.0,49949.0,0.03074921609495262,0.2554581915944999,0.20204390479599998,-0.0017987534204984413,0.014690916964522635,0.011404650804190963,30.0136476100015
1639,A,184994303760263.0,2.4543590963903705,12.825439,0.82360536,199,1970-01-03 03:23:14.303760263,0.26735288,1.5090201,2.0449011,13.168913552536432,2.5554333748758773,-47.77213668823242,-69.65979766845703,75.75477600097656,30063597.0,49950.0,0.13993584389969904,0.13366048072499995,0.08102248041599999,0.004262859373366425,0.009718238841179509,0.0070695829706697005,30.063597070024116
1639,A,184994353709723.0,2.6051938963903707,8.726566,1.8243817,199,1970-01-03 03:23:14.353709723,-0.2333214,2.2088988,2.5999038,9.321355208172013,3.41952811855581,-48.008399963378906,-69.48827362060547,75.96719360351562,30113546.0,49949.0,0.1263598062182026,0.04875034887249995,0.06613215282997001,0.006650600713869536,0.004555619263782762,0.003675113388001478,30.11354653001763
1639,A,184994403659183.0,3.4216167963903708,7.5821376,2.3870192,199,1970-01-03 03:23:14.403659183,-1.3188258,1.9351258,3.1378624,8.174095335315101,3.915379137951399,-47.91399002075195,-69.27792358398438,75.8286361694336,30163495.0,49949.0,0.15051658364685264,-0.08219848194180003,0.10517763177705,0.006914849398684823,-0.0008353503993392348,0.004278376215668021,30.163495990011143
1639,A,184994453608643.0,3.2899356963903705,7.929297,-0.22744916,199,1970-01-03 03:23:14.453608643,-1.5446619,1.3875799,3.233736,8.18985358856045,3.84296849868583,-48.14006423950195,-69.11134338378906,75.98786926269531,30213445.0,49950.0,0.16762102350719904,-0.10211192086500002,0.053935261749000006,0.00794548673867244,-0.004603152310099831,0.0039738445158130995,30.213445450004656
1639,A,184994503558103.0,3.1031878963903705,9.6172085,-1.4556746,199,1970-01-03 03:23:14.503558103,0.030864172,1.0626743,2.5615542,9.97764929074822,2.773407504232181,-48.258026123046875,-68.98046875,76.11583709716797,30263394.0,49949.0,0.15966506516790263,-0.051284998390250025,-0.04203517434412,0.008173806421616327,-0.0038310113599402426,0.00029719873289317576,30.263394910027273
1639,A,184994553507563.0,4.8294073363903705,11.475109,-1.340753,199,1970-01-03 03:23:14.553507563,0.66363126,1.1723964,1.7072122,11.563866071289825,2.1747398151988175,-48.258819580078125,-68.87773132324219,76.15223693847656,30313344.0,49950.0,0.19811656593869903,0.03727062956249997,-0.06984077931000002,0.008935596236887377,-0.0003500088614730576,-0.002794101942511647,30.313344370020786
1639,A,184994603457023.0,5.528514226390371,10.622774,-1.271321,199,1970-01-03 03:23:14.603457023,-0.33452153,1.0062152,0.92424285,10.70048281415011,1.4066266485889933,-48.258060455322266,-68.80977630615234,76.13349914550781,30363293.0,49949.0,0.2586839120696676,0.06238337898349995,-0.065235242113,0.011408363538019953,0.002488809036432075,-0.003373456097028714,30.3632938300143
1639,A,184994653406483.0,4.508584296390371,8.104074,-0.80445176,199,1970-01-03 03:23:14.653406483,-1.0610318,0.344686,-0.058996208,8.184888184524976,1.1171738771407158,-48.272865295410156,-68.80046844482422,76.09247589111328,30413243.0,49950.0,0.25067653560644904,-0.021806971200000025,-0.051842424681000004,0.012721277180711013,0.0010133957843929107,-0.0029240147281801502,30.413243290007813
1639,A,184994703355943.0,3.7663817963903705,11.53257,-0.9792285,199,1970-01-03 03:23:14.703355943,-0.42719954,-0.3796938,-1.5535622,11.678763024812,1.6553616940123665,-48.19717788696289,-68.87107849121094,75.9884033203125,30463192.0,49949.0,0.2066631406841526,0.0009151655779999753,-0.044546522653369995,0.01142182974551963,-0.0005217623995066402,-0.0024072657652022236,30.463192750001326
1639,A,184994753305403.0,3.0217850963903707,9.504682,0.35673606,199,1970-01-03 03:23:14.753305403,-0.47833222,-1.08916,-2.486734,9.78665709193146,2.756613357916944,-48.11101150512695,-68.99998474121094,75.87043762207031,30513142.0,49950.0,0.16953446814719902,0.03589536869999998,-0.015546748688999999,0.009395535280563007,0.0009193430935930489,-0.0015008294517756908,30.513142210023943
1639,A,184994803254863.0,2.3873215963903704,11.115979,2.3654714,199,1970-01-03 03:23:14.803254863,0.57521427,-1.6367059,-2.7519846,11.738829317250984,3.2531672102957763,-48.06998062133789,-69.2139892578125,75.8478775024414,30563091.0,49949.0,0.1350897350988526,0.025490498144499968,0.06798577020977,0.007607837163968518,0.0015330813315079638,0.0013096383429704703,30.563091670017457
