Subject-id_accel,Activity_accel,Timestamp_accel,accel_x,accel_y,accel_z,Segment_accel,DateTime,gyro_x,gyro_y,gyro_z,accel_magnitude,gyro_magnitude,Roll,Pitch,Yaw,Time_Difference,Difference_Microseconds,vx,vy,vz,dx,dy,dz,Time_diff
1623,A,2535426053989.0,-0.9562073,5.508193036883407,3.1906997690022476,114,1970-01-01 00:42:15.426053989,-2.2543335,-0.1386261,-0.66922,14.038837525649662,2.355651106005187,-96.5888442993164,1.0204620361328125,-89.57984161376953,15005495.0,50354.0,0.0429045461559,-0.15709606902477294,0.15169065705125917,0.004920646883378456,-0.005605177328855129,0.0077458642743858525,15.005495151000105
1623,A,2535476407993.0,-3.9635925,4.130141036883407,3.6263381990022476,114,1970-01-01 00:42:15.476407993,-3.054245,1.5643616,-1.0549774,15.878924260176579,3.5900720118251557,-96.58733367919922,1.2920295000076294,-89.64872741699219,15055849.0,50354.0,-0.1238657995646,-0.250804863024773,0.17163256492044918,-0.00203836147707084,-0.010269721766211418,0.008140308759581702,15.055849155000033
1623,A,2535526761997.0,1.683075,5.746993036883406,1.9159042290022474,114,1970-01-01 00:42:15.526761997,-2.9294739,0.25752258,-1.1408081,13.971922127938715,3.1542952193820852,-96.75028991699219,1.029313564300537,-89.65496826171875,15106203.0,50354.0,-0.0574165890975,-0.244792595424773,0.13953703760986919,-0.004564146699345692,-0.01247765721138422,0.007834317082905825,15.10620315899996
1623,A,2535577116001.0,2.494629,9.496230036883407,2.9043685990022476,114,1970-01-01 00:42:15.577116001,-2.6363983,-2.0623627,-1.1392517,10.344350908124518,3.5357927454175067,-96.82227325439453,0.614607572555542,-89.5445556640625,15156557.0,50354.0,0.10518205360800001,-0.10969057267177298,0.12136000899066919,0.001202591099980859,-0.008924822723166739,0.006568604942261754,15.156557163000343
1623,A,2535627470005.0,-0.3565979,13.918562736883407,4.254893499002248,114,1970-01-01 00:42:15.627470005,-1.997818,-2.546341,-0.9490204,5.6301128393299384,3.372798388433729,-96.6029281616211,0.6581236124038696,-89.40900421142578,15206911.0,50354.0,0.05382920900470001,0.09604503766512705,0.1802487418414592,0.004003426558799948,-0.0003435536348623247,0.007593603519700497,15.206911167000271
1623,A,2535677824009.0,-1.1499786,15.935332036883407,4.293849189002247,114,1970-01-01 00:42:15.677824009,-0.86820984,-1.9958954,-0.559021,3.803891176974376,2.2471963092829665,-96.25508880615234,1.0594841241836548,-89.30095672607422,15257265.0,50354.0,-0.0379310765405,0.25816230871912704,0.21523169465588918,0.0004002672810511636,0.008917878359916366,0.00995701094969374,15.2572651710002
1623,A,2535728178013.0,-2.096405,16.63191103688341,3.7234756510022473,114,1970-01-01 00:42:15.728178013,0.59207153,-0.7991333,-0.20835876,3.558205373109317,1.0161575176487987,-96.07511138916016,1.8759647607803345,-89.25605010986328,15307619.0,50354.0,-0.0817341998972,0.32647627886822705,0.20185218749679318,-0.003012812664871973,0.014719445719686815,0.010500920900958083,15.307619175000127
1623,A,2535778532017.0,-0.5159912,13.321562536883407,-1.0952039709977521,114,1970-01-01 00:42:15.778532017,1.916565,0.50027466,0.31323242,7.821946158626489,2.005395393333238,-96.72763061523438,1.9431513547897339,-89.30743408203125,15357973.0,50354.0,-0.0657722991274,0.2606694041667271,0.06617199608747318,-0.0037137711259423545,0.014782566861771042,0.006748044870101075,15.357973179000055
1623,A,2535828886021.0,4.501419,3.9765160368834067,-11.767170970997752,114,1970-01-01 00:42:15.828886021,0.52163696,-0.20736694,0.3742218,22.351909600111643,0.6746466641422347,-97.56721496582031,1.6370638608932495,-89.32644653320312,15408327.0,50354.0,0.1003411157206,-0.057955475748272964,-0.32383601391462086,0.0008703390953669966,0.005103728575791421,-0.006487206976834097,15.408327182999983
1623,A,2535879240024.0,-0.1329956,11.237715536883407,-5.455066970997752,114,1970-01-01 00:42:15.879240024,-0.59913635,-0.5421295,-0.19102478,12.311534688950301,0.8302765968251911,-98.52192687988281,1.6154102087020874,-89.32456970214844,15458681.0,50354.0,0.10998379594180001,-0.11042049166727298,-0.4336042846656208,0.0052953503009242455,-0.004239201731621201,-0.019070074397354746,15.458681185999922
1623,A,2535929594028.0,-2.3114624,7.064101036883407,3.3402206490022475,114,1970-01-01 00:42:15.929594028,0.96076965,0.9104614,0.12539673,12.65934128951897,1.3295648239727822,-98.30297088623047,1.8369762897491455,-89.36526489257812,15509035.0,50354.0,-0.061544119066000005,-0.032684364122272956,-0.05324548584888082,0.0012195657447020168,-0.003602950954213398,-0.012257416672243608,15.509035190000304
1623,A,2535979948032.0,-1.8933105,13.668639036883407,11.238933029002247,114,1970-01-01 00:42:15.979948032,0.3718109,1.1712036,-0.3721161,9.747826497844493,1.2839126177006672,-97.06044006347656,2.066265821456909,-89.37876892089844,15559389.0,50354.0,-0.1058635673033,0.028518996837227056,0.3670593521511192,-0.004214823319719866,-0.00010487145213560063,0.007900891711891456,15.559389194000232
1623,A,2536030302036.0,0.3950348,11.935423636883407,8.886180029002247,114,1970-01-01 00:42:16.030302036,1.0648499,0.9870758,0.40731812,9.204916662868088,1.5080225447107827,-96.05743408203125,1.980575442314148,-89.396728515625,15609743.0,50354.0,-0.037722087298899996,0.15116428593742703,0.5066899714613792,-0.0036150560259195896,0.004523886010417466,0.021998386720591873,15.60974319800016
1623,A,2536080656040.0,1.8908386,9.636306036883408,1.0938217290022476,114,1970-01-01 00:42:16.080656040,1.5250854,0.899353,0.05001831,10.373393701387055,1.7712208013789292,-96.1920166015625,1.6691842079162598,-89.4486083984375,15660097.0,50354.0,0.057551434591799996,0.04964223799642705,0.25126650426127917,0.0004992434767933433,0.005055705853082645,0.01908307018926937,15.660097202000088
1623,A,2536131010044.0,-2.1337585,11.766966636883406,4.6566116290022475,114,1970-01-01 00:42:16.131010044,1.5947266,0.95822144,0.45996094,8.089105361940057,1.9164825392235947,-95.79139709472656,2.025559186935425,-89.48810577392578,15710451.0,50354.0,-0.0061159943223,0.045400996107427045,0.14477866065447917,0.0012949900796652015,0.002392903505032735,0.009971229117084049,15.710451206000016
1623,A,2536181364048.0,1.7654114,10.037459036883407,4.798136929002247,114,1970-01-01 00:42:16.181364048,1.6179352,1.2014465,0.643219,9.698446564798672,2.115400360622615,-95.40489959716797,1.7425166368484497,-89.54122924804688,15760805.0,50354.0,-0.009273874936699997,0.05550082518842702,0.23804220444487917,-0.0003874707383338429,0.002540405154765718,0.009638280920606545,15.760805209999944
1623,A,2536231718052.0,0.609848,10.839507036883408,2.4021560290022475,114,1970-01-01 00:42:16.231718052,1.5682068,0.5791168,0.23277283,8.779674496126152,1.6878483421192465,-95.3994140625,1.6085312366485596,-89.5733642578125,15811159.0,50354.0,0.0598019059138,0.03215017483922705,0.18128177580367916,0.001272144235910447,0.002206789227696247,0.010557319850717953,15.811159214000327
1623,A,2536282072056.0,0.15556335,10.512053036883406,2.8073379290022475,114,1970-01-01 00:42:16.282072056,1.2811279,0.40014648,0.20166016,9.036513242643938,1.357229796956295,-95.33720397949219,1.5518481731414795,-89.59429931640625,15861513.0,50354.0,0.019270761558949998,0.04409902797722705,0.13115942938067918,0.001990812548961427,0.001919726179309865,0.00786633222292659,15.861513218000255
1623,A,2536332426060.0,-0.23950195,9.359130036883407,1.9000961290022476,114,1970-01-01 00:42:16.332426060,1.0905304,0.5750427,0.41526794,10.302464169573144,1.3009143408154489,-95.39671325683594,1.5644561052322388,-89.62794494628906,15911867.0,50354.0,-0.0021133221322,0.006827576248227025,0.11851906727837917,0.0004319728524472848,0.0012821791145842573,0.006286155510385112,15.911867222000183
1623,A,2536382780064.0,3.4586487,9.315520036883408,2.901484689002247,114,1970-01-01 00:42:16.382780064,0.4841156,0.6955719,0.31355286,10.788864385598043,0.9036058755049956,-95.37348937988281,1.5768013000488281,-89.66404724121094,15962221.0,50354.0,0.08104845772475,-0.023297535092772947,0.12088940025489917,0.0019873499088136314,-0.0004146641538291327,0.006027586987085349,15.96222122600011
1623,A,2536433134067.0,3.183426,9.415938036883407,3.5373794590022474,114,1970-01-01 00:42:16.433134067,0.15296936,0.10343933,0.21307373,10.581473665291686,0.2819569727915438,-95.36602783203125,1.5869240760803223,-89.67021179199219,16012574.999999998,50353.99999999814,0.16722751472189382,-0.02186728007677213,0.16211128265430316,0.00625084415828892,-0.0011371145515235942,0.007125108193604723,16.01257522900005
1623,A,2536483488071.0,3.2936401,6.768553536883408,1.4558670290022473,114,1970-01-01 00:42:16.483488071,-0.27012634,-0.020935059,-0.16444397,13.341021645800641,0.31693585396179147,-95.37947845458984,1.5788373947143555,-89.66838836669922,16062929.0,50354.00000000186,0.16307309319970603,-0.08599225564727611,0.1257149668284938,0.008315978405642428,-0.002715579530924463,0.007246601483228648,16.062929232999977
1623,A,2536533842075.0,-0.08015442,7.815139036883407,0.9278060290022476,114,1970-01-01 00:42:16.533842075,-1.9181519,-0.14984131,-0.35679626,12.007774448560964,1.9567990956677475,-95.66958618164062,1.5322434902191162,-89.66448211669922,16113283.0,50354.0,0.08090592896536002,-0.12629557207027295,0.06001373658137917,0.006142659841049869,-0.005344770638444733,0.004676091565750372,16.113283236999905
1623,A,2536584196079.0,-3.0079193,4.385604036883407,3.9381973290022474,114,1970-01-01 00:42:16.584196079,-2.9751587,0.7544708,-0.7528076,15.419458412237375,3.1603029539675607,-95.81925201416016,1.491017460823059,-89.69827270507812,16163637.000000002,50354.00000000186,-0.07774843204844288,-0.18629109163177984,0.12251136654448369,7.949629987722566e-05,-0.007869994432026874,0.004595434521400019,16.163637241000288
1623,A,2536634550083.0,2.7898407,5.477355036883408,3.1239730890022477,114,1970-01-01 00:42:16.634550083,-2.6657562,1.3305359,-1.1534424,14.313977853556212,3.1948413527349073,-95.95407104492188,1.4268287420272827,-89.7585678100586,16213991.0,50353.99999999814,-0.0054905649121998,-0.24514947939976386,0.1778042646140926,-0.0020957082264780233,-0.010862379256860774,0.007561046645679195,16.213991245000216
1623,A,2536684904087.0,3.5415497,8.555571036883407,3.8464004590022474,114,1970-01-01 00:42:16.684904087,-2.58638,-2.9259186,-1.4153442,11.510666251168592,4.153740526645785,-96.07965087890625,1.3717917203903198,-89.60559844970703,16264344.999999998,50353.99999999814,0.1594054161007941,-0.14016222024076774,0.17549309481810269,0.003875114208375095,-0.009700992661849305,0.008894967618424052,16.264345249000144
1623,A,2536735258091.0,0.29107666,13.342406036883407,3.8118240390022473,114,1970-01-01 00:42:16.735258091,-2.13768,-2.8772888,-0.9910431,6.172573507667566,3.718955908190234,-95.99786376953125,1.2361501455307007,-89.45291900634766,16314699.000000002,50354.000000003725,0.09649403386572714,0.057856168786231316,0.19281111818627342,0.006442780451807582,-0.002072219457471017,0.009272795170811863,16.31469925300007
1623,A,2536785612095.0,-1.202774,14.875105636883408,3.9790603690022475,114,1970-01-01 00:42:16.785612095,-1.1143341,-2.3388062,-0.61325073,4.795168019289108,2.6622981398458707,-96.051025390625,1.217929720878601,-89.33338165283203,16365053.0,50353.99999999814,-0.022953803929179152,0.21696309141041903,0.19615109674032188,0.0018515223691124001,0.00691912451397081,0.009792901685206528,16.365053257
1623,A,2536835966099.0,-2.2294922,16.10717663688341,3.9825088590022473,114,1970-01-01 00:42:16.835966099,0.17686462,-1.0300598,-0.33981323,4.0774586860312745,1.0989892250003261,-96.04106140136719,1.206457495689392,-89.28036499023438,16415406.999999998,50353.99999999814,-0.0864141661173968,0.2865717208066165,0.20044842845346172,-0.0027535573818625405,0.012677495967187835,0.00998518624580352,16.415407260999928
1623,A,2536886320103.0,-1.8457489,15.686705436883408,2.1506912290022475,114,1970-01-01 00:42:16.886320103,1.5684509,0.51893616,0.07258606,4.504602197882518,1.653663115623215,-95.96318054199219,1.2073559761047363,-89.30655670166016,16465761.0,50354.00000000186,-0.1026023451747038,0.3070053689712385,0.15441557861569488,-0.004758868704801393,0.014944490389337607,0.008934411105980486,16.46576126500031
1623,A,2536936674107.0,2.3144684,5.5221700368834075,-10.524555970997753,114,1970-01-01 00:42:16.936674107,1.8257751,0.69888306,0.8624573,20.056758888770727,2.136755681321162,-95.87273406982422,1.246641993522644,-89.34576416015625,16516115.0,50354.0,0.0118009508515,0.04050665780302707,-0.21082879260922083,-0.002286106704875302,0.008749310298095685,-0.0014203154887150028,16.516115269000238
1623,A,2536987028110.0,2.1318512,5.288634036883407,-4.827671970997752,114,1970-01-01 00:42:16.987028110,-1.1896515,-2.1390839,-0.3324585,16.698012506196374,2.47011725974977,-95.92987060546875,1.2411065101623535,-89.2376480102539,16566469.000000002,50354.00000000186,0.11194498856920414,-0.22128558583478114,-0.3865230428956351,0.0031155515167951833,-0.004551471071055641,-0.015039527162506314,16.566469272000177
1623,A,2537037382114.0,-3.6596375,11.655486036883406,5.284312429002247,114,1970-01-01 00:42:17.037382114,-0.27226257,1.8238068,0.2195282,8.811916175462782,1.8570381744445872,-95.94547271728516,1.242592453956604,-89.32950592041016,16616823.0,50353.99999999814,-0.03846507567509858,-0.06686708890277052,0.011496836811178744,0.0018500037669348269,-0.007254819891867071,-0.009442034790588008,16.616823276000105
1623,A,2537087736118.0,7.8669586,2.1583090368834057,-11.252872970997753,114,1970-01-01 00:42:17.087736118,0.7246094,-0.2089386,-0.2599945,24.19511288900424,0.7976912066511513,-95.90898895263672,1.2307393550872803,-89.3177719116211,16667176.999999998,50353.99999999814,0.10592772333469608,-0.14567928142776762,-0.1502704487658153,0.0016985070801256235,-0.005351279965811761,-0.003493903228181755,16.667177280000033
1623,A,2537138090122.0,-9.5043335,17.459471536883406,0.7615463290022473,114,1970-01-01 00:42:17.138090122,1.3092651,1.2276459,0.5255585,10.146691342443672,1.8701607670965268,-95.84490966796875,1.2505958080291748,-89.38153839111328,16717531.000000002,50354.000000003725,-0.04122418785730303,0.0004476615057270133,-0.2641401308655404,0.0016290409127144453,-0.0036564964947774867,-0.010433615163379413,16.71753128399996
1623,A,2537188444126.0,8.305679,4.379241036883407,4.906764229002247,114,1970-01-01 00:42:17.188444126,1.7281189,1.868988,0.40020752,17.301883992591772,2.5767570967682927,-95.76058959960938,1.2610520124435425,-89.4765625,16767885.0,50353.99999999814,-0.030178524346498883,0.05636406646972492,0.14271105491887387,-0.0017977060851550543,0.0014303488752379005,-0.0030572198451091098,16.767885288000343
1623,A,2537238798130.0,-2.7065582,12.810286336883408,2.1483413290022475,114,1970-01-01 00:42:17.238798130,1.7849426,0.77207947,0.09338379,7.380038873820694,1.9470098421746627,-95.67220306396484,1.261847972869873,-89.51544189453125,16818239.0,50354.0,0.1409690643816,-0.06068846931067294,0.1776263926338792,0.002789373426463741,-0.00010887549032654825,0.008065135917035664,16.81823929200027
1623,A,2537289152134.0,1.3722992,10.862777036883408,3.1200363290022475,114,1970-01-01 00:42:17.289152134,1.6788483,1.7153473,0.9221344,8.768842464032726,2.571240911640436,-95.59027099609375,1.2993173599243164,-89.60533905029297,16868593.0,50354.0,-0.033592638843,0.10254751656132709,0.13264194429557916,0.0027034162657853327,0.0010538852326297196,0.0078116259188729725,16.8685932960002
1623,A,2537339506138.0,2.1617737,10.837111036883407,1.8619949290022475,114,1970-01-01 00:42:17.339506138,1.4255066,0.35191345,0.144104,9.114944115150971,1.4753569418111887,-95.51940155029297,1.3047864437103271,-89.62354278564453,16918947.0,50354.0,0.0889773534033,0.05286888203322706,0.1254326009827792,0.0013944209584846733,0.00391291866741509,0.0064975428264732295,16.918947300000127
1623,A,2537389860142.0,0.52253723,10.170653036883406,2.334864829002248,114,1970-01-01 00:42:17.389860142,1.070221,0.18269348,0.19880676,9.444547576570852,1.1037545126961918,-95.53082275390625,1.2020357847213745,-89.63506317138672,16969301.0,50354.0,0.06758289628460999,0.035443276085227016,0.10566433812727918,0.00394171740639251,0.0022234352049483185,0.00581832763597394,16.969301304000055
1623,A,2537440214146.0,-0.09689331,10.191649036883407,3.2085372990022476,114,1970-01-01 00:42:17.440214146,1.120758,0.45614624,0.37071228,9.32643531552797,1.2655415763114761,-95.40726470947266,1.2031784057617188,-89.65812683105469,17019655.0,50354.0,0.01071643697384,0.01919247931122701,0.13956623537676918,0.0019713423134479955,0.001375564413616523,0.006174170149111426,17.019655307999983
1623,A,2537490568149.0,1.2766113,8.708586036883407,2.2226364290022476,114,1970-01-01 00:42:17.490568149,0.9433441,0.32824707,0.6615906,10.968317643023076,1.1980594108710783,-95.41521453857422,1.0380353927612305,-89.67874145507812,17070009.0,50354.0,0.02970175983423,-0.017617981547772974,0.13674066094996917,0.0010176089410367784,3.96411301904823e-05,0.006956578728818291,17.07000931099992
1623,A,2537540922153.0,2.4351654,8.681777036883407,2.262614429002247,114,1970-01-01 00:42:17.540922153,0.27687073,0.45481873,0.17791748,11.18347845318236,0.5614019130525797,-95.40179443359375,1.0447454452514648,-89.70221710205078,17120363.0,50354.0,0.0934514019759,-0.05563202889177297,0.11292516085197916,0.0031006271548936434,-0.0018442155128364484,0.006285836395507654,17.120363315000304
1623,A,2537591276157.0,4.133026,5.410781036883407,2.9043380790022475,114,1970-01-01 00:42:17.591276157,-0.19767761,-0.53874207,0.13848877,14.708744197781536,0.5903376956448825,-95.41119384765625,1.0541795492172241,-89.67604064941406,17170717.0,50354.0,0.1653673548778,-0.13866086537677297,0.13008836329402917,0.006516279841305605,-0.004891712198999181,0.006118351497424053,17.170717319000232
1623,A,2537641630161.0,0.16079712,6.372451036883406,1.7181656290022476,114,1970-01-01 00:42:17.641630161,-1.5108185,-0.5246887,-0.49713135,13.278483616420893,1.6748165126373582,-95.56178283691406,0.9882867932319641,-89.64889526367188,17221071.0,50354.0,0.10810558469224,-0.196802766078773,0.11638077585642918,0.006885228199554897,-0.008445967849156282,0.006205353516391091,17.22107132300016
1623,A,2537691984165.0,-2.830017,7.924056036883407,2.7797958290022473,114,1970-01-01 00:42:17.691984165,-3.0218964,0.7619629,-0.58621216,11.955906289871582,3.1711338681678574,-95.71346282958984,0.9553759694099426,-89.68391418457031,17271425.0,50354.0,-0.06720294891876,-0.133526041403773,0.11324517562817918,0.0010298056608689062,-0.008316688385988062,0.0057812925805279846,17.271425327000088
1623,A,2537742338169.0,2.15773,6.030699536883407,2.8119613690022476,114,1970-01-01 00:42:17.742338169,-2.6349335,1.2158508,-1.0916901,13.673999998223016,3.100476574935037,-95.84609985351562,0.8949447870254517,-89.73890686035156,17321779.0,50354.0,-0.016926169798999996,-0.14213031891927297,0.14078367097415917,-0.0021181188219570437,-0.006940200183853329,0.006395684270907073,17.321779331000016
1623,A,2537792692173.0,2.210266,8.218749036883407,2.9356948890022476,114,1970-01-01 00:42:17.792692173,-2.6927948,-2.5327606,-1.327774,11.525124410007255,3.92797707311224,-95.97872924804688,0.8419552445411682,-89.60609436035156,17372133.0,50354.0,0.109973035292,-0.13471083325827296,0.1447087416077792,0.0023426409325172613,-0.006970029688374074,0.0071878424715754625,17.372133334999944
1623,A,2537843046177.0,0.63772583,12.697630736883408,4.176371769002247,114,1970-01-01 00:42:17.843046177,-2.2175903,-2.8559113,-1.1531372,6.8575995451714205,3.7952156057522766,-96.08747100830078,0.7996258735656738,-89.4580078125,17422487.0,50354.0,0.07170389030391,0.033142493564127073,0.17906050224857917,0.004574079955728227,-0.002557186088479511,0.008151538252571535,17.422487339000327
1623,A,2537893400181.0,-0.9136658,14.528380036883407,3.8602096590022477,114,1970-01-01 00:42:17.893400181,-1.3679047,-2.1782074,-0.7629547,5.064892532880189,2.68288102977917,-96.15434265136719,0.7733049988746643,-89.34564208984375,17472841.0,50354.0,-0.006947340624689998,0.19200007325112703,0.2023370106128692,0.001630375651273722,0.005668414404707653,0.009602445181312686,17.472841343000255
1623,A,2537943754185.0,-1.7094727,15.493727536883407,3.9392807090022472,114,1970-01-01 00:42:17.943754185,-0.19445801,-1.4474792,-0.3750763,4.370193128083601,1.5078767134310054,-96.16307067871094,0.762423574924469,-89.27167510986328,17523195.0,50354.0,-0.0660427580145,0.26239740238472703,0.1963677689952492,-0.0018376717134388869,0.011440365244083898,0.010038190236193598,17.523195347000183
1623,A,2537994108189.0,-1.598053,15.402174736883406,1.3748276290022474,114,1970-01-01 00:42:17.994108189,1.2287292,-0.06524658,0.13130188,4.964433910004488,1.2374460581479383,-96.10160827636719,0.7692987322807312,-89.26913452148438,17573549.0,50354.0,-0.08327357454890001,0.284396931546627,0.13379330562593916,-0.0037593373049487223,0.0137666409453897,0.00831246537573766,17.57354935100011
1623,A,2538044462192.0,1.265091,9.114196036883406,-6.712452970997752,114,1970-01-01 00:42:18.044462192,1.7485657,0.37963867,0.5148468,14.741118626858784,1.8619008444184395,-96.01447296142578,0.7928941249847412,-89.29072570800781,17623903.0,50354.0,-0.008382984274,0.12377946697112702,-0.13438539323542084,-0.0023076371814841536,0.010276657185481493,-1.490698974392022e-05,17.62390335400005
1623,A,2538094816196.0,1.7191162,3.029143036883408,-10.842121970997752,114,1970-01-01 00:42:18.094816196,0.0041656494,0.07723999,0.5718384,22.02105355053337,0.5770463797691515,-96.01435089111328,0.8209228515625,-89.29754638671875,17674257.0,50354.0,0.0751333846744,-0.18773635213977297,-0.44197153331462086,0.001680574830880871,-0.001610242497890999,-0.0145109383397504,17.674257357999977
1623,A,2538145170200.0,0.4685669,10.561904036883407,-1.3111922709977524,114,1970-01-01 00:42:18.145170200,-0.442276,0.4374237,-0.2578888,10.246511438847989,0.6733900702142332,-96.0367660522461,0.8058010339736938,-89.31795501708984,17724611.0,50354.0,0.055079297408700004,-0.15128740782377295,-0.30598399267072085,0.003278364696806209,-0.008535601204602197,-0.01883127627773295,17.724611361999905
1623,A,2538195524204.0,-0.9935303,8.520674536883407,-0.053211970997752545,114,1970-01-01 00:42:18.195524204,1.1023102,1.0049286,0.015304565,11.640526768064424,1.4917116000862363,-95.98234558105469,0.801299512386322,-89.36800384521484,17774965.0,50354.0,-0.0132170035218,-0.013027119248272975,-0.03435160560072083,0.0010539669731904815,-0.0041369468480929004,-0.008568629357680086,17.774965366000288
1623,A,2538245878208.0,-3.0139313,13.808745036883408,6.651927229002247,114,1970-01-01 00:42:18.245878208,1.4059296,1.5237274,0.045516968,7.103894195609921,2.073753848469686,-95.91311645507812,0.7956691384315491,-89.44403076171875,17825319.0,50354.0,-0.1008958607032,0.06871859660872708,0.16613585405077916,-0.002873019582592825,0.001402144325504153,0.0033179320232271186,17.825319370000216
1623,A,2538296232212.0,4.2410583,7.887419536883407,4.740092429002248,114,1970-01-01 00:42:18.296232212,1.6593323,1.106842,0.585907,12.415370153538094,2.0788866990378025,-95.83096313476562,0.8191485404968262,-89.50208282470703,17875673.0,50354.0,0.030895376478999998,0.052775135473727065,0.2868168789295792,-0.0017624021913126837,0.0030588476926399484,0.011403990958246481,17.875673374000144
1623,A,2538346586216.0,0.99687195,12.246886036883406,1.3563034290022475,114,1970-01-01 00:42:18.346586216,1.5641022,0.9741211,0.14183044,7.68287236010172,1.848091849238193,-95.75347137451172,0.8212882876396179,-89.55125427246094,17926027.0,50354.0,0.13187536990425,0.013452211430727017,0.1534889585169792,0.0040980790816910855,0.0016674059130134407,0.011085580069392,17.92602737800007
1623,A,2538396940220.0,4.9834747,11.466109036883408,0.3087417290022474,114,1970-01-01 00:42:18.396940220,1.3871002,1.214325,0.4676056,10.03738068407579,1.9019167089061497,-95.68501281738281,0.838503897190094,-89.61400604248047,17976381.0,50354.0,0.15056718760705,0.10355287697222705,0.04192084194307917,0.007111056270462,0.0029458371107211746,0.0049198325461828896,17.976381382
1623,A,2538447294224.0,2.0625916,11.093688036883407,2.7673751890022475,114,1970-01-01 00:42:18.447294224,1.2646484,0.321167,0.26922607,8.708290119550934,1.3322786849151362,-95.6220474243164,0.8503146171569824,-89.63131713867188,18026735.0,50354.0,0.1773988112351,0.07451881092622706,0.07744739564459917,0.008257199952848812,0.00448331088621938,0.0030053341177449775,18.026735385999928
1623,A,2538497648228.0,0.19467163,10.591964036883407,3.0735580290022475,114,1970-01-01 00:42:18.497648228,1.3149872,0.13623047,0.2618103,8.936167886655657,1.3476997849322196,-95.51087188720703,0.8102410435676575,-89.63874816894531,18077089.0,50354.0,0.056831116341710015,0.05251046226122705,0.1470571756296992,0.0058972068866013465,0.003198216011040532,0.00565235159097301,18.07708939000031
1623,A,2538548002232.0,0.011703491,10.353621036883407,2.5028030290022474,114,1970-01-01 00:42:18.548002232,1.2597809,0.20326233,0.5306854,9.22632278036394,1.382024053544293,-95.49127960205078,0.8136172294616699,-89.65201568603516,18127443.0,50354.0,0.005195906421417001,0.03387779540222705,0.14039604235737918,0.001561654352107249,0.0021749971631927836,0.007237209669260672,18.127443394000238
1623,A,2538598356235.0,0.7074127,9.008971036883407,1.3485672290022475,114,1970-01-01 00:42:18.598356235,0.8944092,0.38850403,0.5104675,10.773315141821943,1.1006726429448181,-95.61994934082031,0.7229434251785278,-89.67615509033203,18177797.0,50354.0,0.018105188340807002,-0.005977219358772954,0.09696594898577918,0.0005866516628285137,0.0007024528030460438,0.005976062856046699,18.177797397000177
1623,A,2538648710239.0,3.0965424,8.093688036883407,1.7736160290022474,114,1970-01-01 00:42:18.648710239,0.2228241,0.18634033,0.16104126,11.97570097738762,0.3321258579931808,-95.60894012451172,0.7300440073013306,-89.68622589111328,18228151.0,50354.0,0.09577217755270001,-0.06287555249977296,0.07860720788677918,0.002867090441100826,-0.0017335062370826104,0.004420405370580402,18.228151401000105
1623,A,2538699064243.0,4.342575,6.354598036883408,2.9488021890022473,114,1970-01-01 00:42:18.699064243,-0.6868744,-0.57788086,-0.16159058,13.868704292752316,0.9120604394854741,-95.64289855957031,0.7248355150222778,-89.65666961669922,18278505.0,50354.0,0.18729465877980003,-0.12970470152077296,0.11889632347469917,0.007126773738343355,-0.004848593055475284,0.004972546409087941,18.278505405000033
1623,A,2538749418247.0,-1.2280273,6.173110036883408,3.0057327290022475,114,1970-01-01 00:42:18.749418247,-2.155838,-0.36306763,-0.6748657,13.405946552807912,2.2879902314551757,-95.68047332763672,0.8062313795089722,-89.6344223022461,18328859.0,50354.0,0.07841496744290001,-0.17805909382677293,0.14991732563059917,0.006689771259408919,-0.007748569075465163,0.006767921243524097,18.32885940899996
1623,A,2538799772251.0,-1.8633423,6.026915036883407,2.4101059290022473,114,1970-01-01 00:42:18.799772251,-2.9615784,1.6183319,-0.8657837,13.665432671310619,3.4841822818402974,-95.82080841064453,0.9303792119026184,-89.71070861816406,18379213.0,50354.0,-0.07783141241920001,-0.18630916871777295,0.13635456989257916,1.4692164831694896e-05,-0.009173699746084034,0.007207467513587061,18.379213413000343
1623,A,2538850126255.0,4.325882,7.1459950368834075,2.3479568290022472,114,1970-01-01 00:42:18.850126255,-2.6228638,0.32489014,-1.2772827,13.161622942572144,2.9353737772452337,-95.95209503173828,0.8651838302612305,-89.7203140258789,18429567.0,50354.0,0.0619993620269,-0.16181484307277294,0.11979374605827917,-0.0003986035327269374,-0.008764718244850573,0.00644904615069476,18.42956741700027
1623,A,2538900480259.0,2.0668488,10.211989036883407,3.958628849002247,114,1970-01-01 00:42:18.900480259,-2.2750702,-3.154663,-1.4193115,9.52593378548128,4.140324648204448,-96.06344604492188,0.8111188411712646,-89.55599212646484,18479921.0,50354.0,0.1609497833516,-0.05644723497477294,0.15878090761511918,0.005613190633194496,-0.005495184339003063,0.00701367405553515,18.4799214210002
1623,A,2538950834263.0,-1.1224213,13.643675636883408,4.170130929002248,114,1970-01-01 00:42:18.950834263,-1.6438904,-2.7548676,-1.134079,5.990468368582381,3.4026175687230733,-96.14368438720703,0.7693824172019958,-89.41299438476562,18530275.0,50354.0,0.023777851167499996,0.10714486949142708,0.20465778493081918,0.0046508876542873815,0.0012764143442258013,0.00915029596222909,18.530275425000127
1623,A,2539001188267.0,-1.5512238,14.676726036883407,3.7134658850022473,114,1970-01-01 00:42:19.001188267,-0.7846985,-1.7990723,-0.792984,5.072880950590916,2.1168931245543643,-96.18167877197266,0.7396138906478882,-89.31929779052734,18580629.0,50354.0,-0.0673143626827,0.21955355294042703,0.19848531698619118,-0.0010961187504181906,0.008225286181566791,0.01014993387696457,18.580629429000055
1623,A,2539051542271.0,-1.8457184,15.346404036883406,3.0287582290022472,114,1970-01-01 00:42:19.051542271,0.39453125,-0.56877136,-0.27893066,4.595382496214608,0.7462962416298555,-96.16156768798828,0.7288058996200562,-89.28951263427734,18630983.0,50354.0,-0.0855248137694,0.262423145867227,0.16974897651829118,-0.003848031945534522,0.012134727345880307,0.009271034807562353,18.630983432999983
1623,A,2539101896274.0,-1.0467834,13.965712336883406,-0.22220297099775266,114,1970-01-01 00:42:19.101896274,1.5356293,0.33906555,0.39640808,6.849032843213897,1.621808299431403,-96.08503723144531,0.7467076182365417,-89.30850219726562,18681337.0,50354.0,-0.0728245178186,0.244521953942327,0.07066064173077917,-0.003986761121391076,0.01276335677790514,0.006052792958656845,18.68133743599992
1623,A,2539152250278.0,2.4720917,5.9451890368834075,-8.534397970997752,114,1970-01-01 00:42:19.152250278,1.2407227,0.02029419,0.7938385,18.408028024442185,1.473086635783957,-96.02307891845703,0.7860735058784485,-89.31369018554688,18731691.0,50354.0,0.035884987069100004,0.00782756388732704,-0.22046494191662083,-0.0009300265656801614,0.0063534038103972,-0.003771622865778936,18.731691440000304
1623,A,2539202604282.0,2.6871643,5.412398036883408,-8.511326970997752,114,1970-01-01 00:42:19.202604282,-0.38624573,0.32035828,0.14759827,18.818531750799806,0.5230682945990744,-96.04261016845703,0.7917294502258301,-89.33039855957031,18782045.0,50354.0,0.12989458831200001,-0.20751923024377295,-0.4291602168646208,0.004173832369369955,-0.005027637083856239,-0.01635561262263532,18.782045444000232
1623,A,2539252958286.0,2.614563,9.384581036883407,-1.9067733709977528,114,1970-01-01 00:42:19.252958286,0.03553772,0.61639404,-0.29612732,11.846406555793827,0.684759762063092,-96.04122924804688,0.7737592458724976,-89.3594970703125,18832399.0,50354.0,0.1334815882321,-0.12092565785977294,-0.26229651231042084,0.006631021996850806,-0.008269256947782975,-0.017408806070440024,18.83239944800016
1623,A,2539303312290.0,-3.420105,12.600905036883407,1.4697525290022475,114,1970-01-01 00:42:19.303312290,1.0391388,0.45057678,0.09552002,8.012748324752204,1.1366410843187962,-95.98957061767578,0.7761483192443848,-89.38238525390625,18882753.0,50354.0,-0.020281130934,0.06005938287922706,-0.011002873738920838,0.0028500479133942635,-0.0015324302051852037,-0.006880858642564275,18.882753452000088
1623,A,2539353666294.0,-0.14701843,9.444976036883407,4.143061829002248,114,1970-01-01 00:42:19.353666294,1.5098572,1.4561157,0.50146484,10.073799356803129,2.1567124708533947,-95.69828796386719,0.795394241809845,-89.4544448852539,18933107.0,50354.0,-0.08980946659711,0.061579947794227055,0.1413138270914792,-0.002771750974040757,0.0030625134283655546,0.0032808388725573618,18.933107456000016
1623,A,2539404020298.0,2.130722,9.522399036883407,3.8527938890022475,114,1970-01-01 00:42:19.404020298,1.8376617,1.3156433,0.28919983,10.210526808293112,2.2784982681919703,-95.60734558105469,0.8033060431480408,-89.5213394165039,18983461.0,50354.0,0.04994370478189,-0.01592759776777297,0.2013116594121992,-0.001003700285221794,0.0011493892166160346,0.008626281873703111,18.983461459999944
1623,A,2539454374302.0,-0.018325806,11.491591036883406,2.6578323290022476,114,1970-01-01 00:42:19.454374302,1.5838623,1.1134033,0.44448853,8.077908221735008,1.9864180695698832,-95.56793212890625,0.8031796813011169,-89.5794677734375,19033815.0,50354.0,0.053183798976338,0.035600028087227016,0.16391803629069918,0.0025964411621209067,0.0004952927781528946,0.009195388048711874,19.033815464000327
1623,A,2539504728306.0,1.6127014,10.584990036883408,2.2329208290022473,114,1970-01-01 00:42:19.504728306,1.355423,0.6844635,0.42469788,9.178471760106188,1.5767149650579664,-95.50067901611328,0.821016788482666,-89.6155776977539,19084169.0,50354.0,0.040141594330138,0.06235288169422704,0.12313449225907917,0.0023496534272771465,0.002466160409567669,0.00722712151129777,19.084169468000255
1623,A,2539555082310.0,0.81114197,10.475157536883406,2.7259017990022474,114,1970-01-01 00:42:19.555082310,1.3118134,0.26794434,0.17182922,9.116128191145863,1.3498791970407589,-95.44620513916016,0.6804103851318359,-89.62995910644531,19134523.0,50354.0,0.06102510452649001,0.03676213546472705,0.12484827730526916,0.002547073977113324,0.0024954187870109873,0.006243462189321598,19.134523472000183
1623,A,2539605436314.0,-0.17704773,10.310149036883407,3.2553359990022477,114,1970-01-01 00:42:19.605436314,1.2799225,0.2922058,0.41323853,9.20707450996777,1.3763545757676148,-95.31015014648438,0.7101614475250244,-89.64557647705078,19184877.0,50354.0,0.015964590680480003,0.02984246360772704,0.15058962404035917,0.001938369556225884,0.0016769039908471766,0.006934700042178886,19.18487747600011
1623,A,2539655790317.0,1.8318481,9.744643036883406,2.3530380290022475,114,1970-01-01 00:42:19.655790317,1.0,0.48937988,0.5995331,10.018471659800692,1.2644890687326737,-95.26048278808594,0.7377592921257019,-89.67269134521484,19235231.0,50354.0,0.04166290891549,0.01145030004122704,0.14120203290306918,0.001450887557327737,0.001039627910389717,0.007346438546864696,19.23523147900005
1623,A,2539706144321.0,2.9997406,9.864089036883406,1.7072708290022474,114,1970-01-01 00:42:19.706144321,0.49551392,0.42271423,0.3482666,10.286251599529743,0.7385871579128758,-95.23600006103516,0.7531660795211792,-89.69532775878906,19285585.0,50354.0,0.12164490869990001,0.0002198474212270134,0.10222639611797918,0.004111600924102675,0.0002938193026622057,0.006128797557462935,19.285585482999977
1623,A,2539756498325.0,2.8669891,7.339720536883407,2.0401260290022476,114,1970-01-01 00:42:19.756498325,-0.06225586,0.06011963,0.050094604,12.605122810121886,0.09999815681097986,-95.23916625976562,0.7553843855857849,-89.69857788085938,19335939.0,50354.0,0.14770665365690003,-0.06032888636127298,0.09434821069397918,0.0067814642854571545,-0.0015133652733935374,0.004949158875704677,19.335939486999905
1623,A,2539806852329.0,1.697876,7.312453036883406,2.2409469290022477,114,1970-01-01 00:42:19.806852329,-1.2676392,-0.34910583,-0.3888092,12.39370909902888,1.3711150994432484,-95.33760070800781,0.5227250456809998,-89.67967224121094,19386293.0,50354.0,0.11492960862270002,-0.12457142593327299,0.10778457386367918,0.00661239317541349,-0.004655235162639783,0.0050890971168081655,19.386293491000288
1623,A,2539857206333.0,-3.019638,5.0495440368834075,3.2580368090022476,114,1970-01-01 00:42:19.857206333,-2.6572723,0.4835205,-0.80155945,14.774447241275542,2.8173366327352225,-95.47065734863281,0.4805504083633423,-89.6999740600586,19436647.0,50354.0,-0.033278001874000006,-0.182231199673773,0.1384479135717392,0.00205574250311202,-0.007724369704908597,0.006199395336161528,19.436647495000216
1623,A,2539907560337.0,0.20739746,6.463256036883408,1.6179916290022476,114,1970-01-01 00:42:19.907560337,-2.7171478,2.0834808,-1.0405731,13.204486562801614,3.5786277799538033,-95.69346618652344,0.38414466381073,-89.79924774169922,19487001.0,50354.0,-0.07080378007558,-0.20361143254277295,0.12276376798363917,-0.002620467024144576,-0.009714359951315976,0.00657652650651976,19.487001499000144
1623,A,2539957914341.0,2.739914,8.010390036883408,2.9558975290022476,114,1970-01-01 00:42:19.957914341,-2.5060577,-1.1446228,-1.3708954,11.839275124381782,3.0773106355631845,-95.81837463378906,0.3216882050037384,-89.73542022705078,19537355.0,50354.0,0.07420446062842001,-0.12906621280077293,0.11515680733107918,8.561893427885302e-05,-0.008375825076814456,0.005990126324698664,19.53735550300007
1623,A,2540008268345.0,-0.07949829,11.444533036883406,3.6972152750022476,114,1970-01-01 00:42:20.008268345,-2.1103516,-2.4382782,-1.2564697,8.062298190116952,3.460852577506862,-95.77242279052734,0.27762266993522644,-89.60693359375,19587709.0,50354.0,0.06698128633067,-0.003652601771772961,0.1675054210664212,0.00355463355118901,-0.0033414615944929883,0.007116586924363868,19.587709507
1623,A,2540058622349.0,-0.8008728,14.053847036883408,3.4541275090022476,114,1970-01-01 00:42:20.058622349,-1.463211,-2.2220764,-0.8673248,5.515086132658901,2.79836778616625,-95.7570571899414,0.44678083062171936,-89.49158477783203,19638063.0,50354.0,-0.022165102932930003,0.14850351511722704,0.18004935727288118,0.0011283370494049002,0.0036469114452984974,0.008750386654248616,19.638063510999928
1623,A,2540108976353.0,-1.530716,15.070860636883406,3.4599105890022477,114,1970-01-01 00:42:20.108976353,-0.40763855,-1.4360352,-0.4875641,4.696720116358427,1.570377354234947,-95.77687072753906,0.4297390282154083,-89.41769409179688,19688417.0,50354.0,-0.0587024112176,0.23980356510242704,0.17407473719345917,-0.002036001403767894,0.009776407358690231,0.008915782326379051,19.68841751500031
1623,A,2540159330357.0,-1.4974213,15.856291636883407,2.2167465290022474,114,1970-01-01 00:42:20.159330357,0.8027344,-0.41633606,-0.12654114,4.202902662144235,0.9130886550123066,-95.736572265625,0.425529807806015,-89.3963394165039,19738771.0,50354.0,-0.0762394128021,0.28518371279662696,0.1429211962599992,-0.0033974303033439874,0.013217604695664483,0.00798100661655772,19.738771519000238
1623,A,2540209684360.0,0.7290802,12.325194036883406,-3.0548904709977522,114,1970-01-01 00:42:20.209684360,1.9031982,0.45040894,0.45082092,9.862307358885813,2.007055331480627,-95.6416015625,0.44572725892066956,-89.42098999023438,19789125.0,50354.0,-0.019344523874700002,0.21605606480842698,-0.021101950027620827,-0.002406516773711794,0.012619713880762443,0.00306704316239259,19.789125522000177
1623,A,2540260038364.0,6.204834,2.439879036883408,-11.751133970997753,114,1970-01-01 00:42:20.260038364,0.24407959,-0.72772217,0.4248352,23.820980133217525,0.8772909153314634,-95.62913513183594,0.4704379439353943,-89.38687133789062,19839479.0,50354.0,0.17457515781340002,-0.12172895522177296,-0.3727712773761208,0.00390824167067465,0.0023748736380631887,-0.009916546246344004,19.839479526000105
1623,A,2540310392368.0,-3.2240448,9.976149036883408,-0.11667327099775271,114,1970-01-01 00:42:20.310392368,-0.73036194,0.2855072,-0.40437317,10.748247900110917,0.8823041342237111,-95.6657485961914,0.4489102065563202,-89.39908599853516,19889833.0,50354.0,0.0750473296884,-0.18087086118677292,-0.2987957829317209,0.006284745367832819,-0.00761855557771796,-0.01690804387737053,19.889833530000033
1623,A,2540360746372.0,2.5294495,2.346816036883407,-10.367924970997752,114,1970-01-01 00:42:20.360746372,1.400528,0.6910858,0.22039795,22.311134714714537,1.57722969732054,-95.59600830078125,0.4564834535121918,-89.4345474243164,19940187.0,50354.0,-0.0174878258681,-0.18321390833777296,-0.26397072993872084,0.0014491756276836932,-0.009166562242319492,-0.014168772494539114,19.94018753399996
1623,A,2540411100376.0,-4.9116974,14.683821536883407,4.063746649002248,114,1970-01-01 00:42:20.411100376,0.92237854,1.1592865,-0.2758026,6.89495344471515,1.5069155365519136,-95.55032348632812,0.43712949752807617,-89.49090576171875,19990541.0,50354.0,-0.05997785537830001,-0.06468883780527296,-0.1587202976128808,-0.0019503534567406134,-0.006241447439643467,-0.010642092000666676,19.990541538000343
1623,A,2540461454380.0,4.4655457,7.1538990368834074,5.878245529002248,114,1970-01-01 00:42:20.461454380,1.4387817,1.3123779,0.24475098,13.319943153776173,1.9627357374018186,-95.47889709472656,0.4430001974105835,-89.5573959350586,20040895.0,50354.0,-0.011232761350900016,0.056339090885727056,0.2503095370656192,-0.001792869697391069,-0.0002102215781934072,0.0023059422817015944,20.04089554200027
1623,A,2540511808384.0,-0.6826782,11.128005036883406,2.4318802290022474,114,1970-01-01 00:42:20.511808384,1.5726776,1.1076813,0.26382446,8.496180227763537,1.9416168627218249,-95.47293090820312,0.5549103021621704,-89.61434173583984,20091249.0,50354.0,0.0952412550475,-0.03318570113477296,0.2092240362092792,0.002115081845799298,0.0005829328937597713,0.011569676774342117,20.0912495460002
1623,A,2540562162388.0,0.48416138,10.746886036883406,3.3729354890022476,114,1970-01-01 00:42:20.562162388,1.5302734,1.5015411,0.73976135,8.777739519225833,2.2679526469242237,-95.30831909179688,0.4918530583381653,-89.69183349609375,20141603.0,50354.0,-0.004998057977140001,0.05727493256422702,0.14614784533219916,0.0022720529726404535,0.0006064945796993649,0.008947197861569802,20.141603550000127
1623,A,2540612516392.0,2.4304962,11.120818036883406,3.0532028290022475,114,1970-01-01 00:42:20.612516392,1.4824066,0.5316162,0.28718567,8.752134934851867,1.6008187657818573,-95.23443603515625,0.5037073493003845,-89.7196273803711,20191957.0,50354.0,0.07338233389166,0.057093985465227017,0.1617908844323992,0.0017217109146998703,0.0028794662492275646,0.007752973399283293,20.191957554000055
1623,A,2540662870396.0,0.26101685,10.865905036883406,3.0599319290022473,114,1970-01-01 00:42:20.662870396,1.2904358,0.38572693,0.27703857,8.66560124441029,1.375049158290899,-95.13947296142578,0.46003013849258423,-89.73985290527344,20242311.0,50354.0,0.06776422405985,0.06009052682822701,0.1539103938022792,0.0035536468895451673,0.002950354466012292,0.007948411082114498,20.242311557999983
1623,A,2540713224399.0,-0.10470581,9.821059036883407,3.0130569290022473,114,1970-01-01 00:42:20.713224399,1.3111877,0.45845032,0.48265076,9.707835992312035,1.4704902708511778,-95.0419921875,0.4859873950481415,-89.76457214355469,20292665.0,50354.0,0.00393544305408,0.027366494485227013,0.15289964047797916,0.0018051825189274156,0.002201905425608832,0.007724556233074064,20.29266556099992
1623,A,2540763578403.0,2.3914337,10.099013036883408,1.7558700290022475,114,1970-01-01 00:42:20.763578403,0.7658539,0.7718506,0.58369446,9.892637890887126,1.2340926899954727,-95.00406646728516,0.5116783976554871,-89.80557250976562,20343019.0,50354.0,0.05757294808653,0.008058454601227047,0.12006727402167917,0.001548596763747138,0.000891893943149654,0.006872488006357898,20.343019565000304
1623,A,2540813932407.0,2.5516205,10.829741036883407,2.0414840290022473,114,1970-01-01 00:42:20.813932407,0.40634155,0.22973633,0.20269775,9.188706701567542,0.508899414848685,-94.98384857177734,0.520776629447937,-89.8178939819336,20393373.0,50354.0,0.1244512755934,0.03345404131522706,0.09560598311837917,0.004582823879589597,0.001045160109688565,0.00543000559501525,20.393373569000232
1623,A,2540864286411.0,3.6060333,4.477340036883406,1.8667557290022474,114,1970-01-01 00:42:20.864286411,-0.21905518,-0.100631714,-0.053207397,15.559917964786035,0.246866240792308,-94.99476623535156,0.5185635685920715,-89.81266021728516,20443727.0,50354.0,0.15503124972260002,-0.10808281980577299,0.09839775238727917,0.007036531539880934,-0.001878928756056475,0.004884432048825961,20.44372757300016
1623,A,2540914640415.0,0.6285095,7.334716036883407,1.4785720290022475,114,1970-01-01 00:42:20.914640415,-1.8972931,-0.28718567,-0.57525635,12.382535119096866,2.0032764623426993,-95.21891784667969,0.4055953621864319,-89.79679107666016,20494081.0,50354.0,0.1066130840756,-0.19607706423077298,0.08422531696327917,0.006587419392037282,-0.007657833400388119,0.004597901017039007,20.494081577000088
1623,A,2540964994419.0,-5.3458557,4.728972036883407,3.3603469890022475,114,1970-01-01 00:42:20.964994419,-3.1285706,1.6318054,-0.8439789,15.717602020351062,3.6280908541957344,-95.3758773803711,0.3560463786125183,-89.87415313720703,20544435.0,50354.0,-0.11876862527740002,-0.18974172536677297,0.12182946411629916,-0.0003060400608377193,-0.009713759665697414,0.005187841223240544,20.544435581000016
1623,A,2541015348423.0,5.958069,5.900634036883407,0.8494980290022474,114,1970-01-01 00:42:21.015348423,-2.8361511,1.9885559,-1.1414032,15.117701878010758,3.6470411149898294,-95.51820373535156,0.2897907793521881,-89.96770477294922,20594789.0,50354.0,0.015413694254099991,-0.225847607880773,0.10599126801829918,-0.002602167098373625,-0.010463292643173467,0.005735842572952783,20.594789584999944
1623,A,2541065702427.0,2.8553925,8.286895036883408,3.7124130290022475,114,1970-01-01 00:42:21.065702427,-2.5625153,-2.673706,-1.3835602,11.577229372479637,3.9534070450934,-95.64568328857422,0.2339482605457306,-89.82791137695312,20645143.0,50354.0,0.2218965201855,-0.13626978050977295,0.11485523470737917,0.005974759268945809,-0.009117029487508777,0.0055602523991244044,20.645143589000327
1623,A,2541116056431.0,-0.83206177,12.494200536883408,3.8773147590022474,114,1970-01-01 00:42:21.116056431,-2.0895386,-2.4039917,-1.1067963,7.064544956302371,3.371994321503603,-95.56690979003906,0.35356011986732483,-89.7020263671875,20695497.0,50354.0,0.050941397789209995,0.02973644326072709,0.19108657651858918,0.006869240260849273,-0.0026821898319192277,0.007702696981236206,20.695497593000255
1623,A,2541166410435.0,-1.0748596,15.429091036883406,4.004771429002248,114,1970-01-01 00:42:21.166410435,-1.2523651,-2.0362244,-0.6606293,4.230208456469223,2.4801329042758695,-95.62890625,0.33061712980270386,-89.59748077392578,20745851.0,50354.0,-0.04801055933249,0.20955551195272706,0.1984472839553892,7.378971982483927e-05,0.006024653556409135,0.009807294005153355,20.745851597000183
1623,A,2541216764439.0,-2.3179016,15.701918436883407,3.8387863190022475,114,1970-01-01 00:42:21.216764439,0.061462402,-1.0774384,-0.24221802,4.458316726791003,1.1060382913203728,-95.62553405761719,0.32384830713272095,-89.54269409179688,20796205.0,50354.0,-0.0854195487324,0.29031622552102704,0.19747725342150918,-0.0033593698307497356,0.012585270734376708,0.009968192077538171,20.79620560100011
1623,A,2541267118442.0,-1.9362183,15.966841536883408,1.5226700290022475,114,1970-01-01 00:42:21.267118442,1.3662415,0.17749023,0.22407532,4.568274961781431,1.3958253354559824,-95.55728149414062,0.3341347277164459,-89.55261993408203,20846559.0,50354.0,-0.1071059767223,0.30385516985952704,0.13498538647370917,-0.0048472151543729825,0.014959453221496211,0.008370411884641913,20.84655960400005
1623,A,2541317472446.0,3.3389282,8.538848036883406,-8.212467970997752,114,1970-01-01 00:42:21.317472446,2.135788,0.5157623,0.92744446,16.508245225542062,2.3849013307535345,-95.45067596435547,0.3778163492679596,-89.58273315429688,20896913.0,50354.0,0.0353160271523,0.12351054639872705,-0.16842904278562082,-0.0018074555603238903,0.010759786638234063,-0.0008420109349649997,20.896913607999977
1623,A,2541367826450.0,4.829254,0.9565870368834055,-11.097248970997752,114,1970-01-01 00:42:21.367826450,-0.94973755,-1.6858215,-0.2718048,24.194137373504038,1.9539379194450608,-95.49760437011719,0.37232986092567444,-89.49752807617188,20947267.0,50354.0,0.20565032324940002,-0.254402631147773,-0.4861607434486208,0.006066809804063602,-0.0032954700177267302,-0.016480607048019503,20.947267611999905
1623,A,2541418180454.0,-5.7703094,11.323272036883408,5.162425229002247,114,1970-01-01 00:42:21.418180454,-0.42573547,2.0179443,-0.07687378,10.124245616453464,2.0637973414000945,-95.51952362060547,0.35882118344306946,-89.59757995605469,20997621.0,50354.0,-0.023692951805800017,-0.184299188099773,-0.14942105735222083,0.004581140740835517,-0.011045195703195468,-0.01600204299876279,20.997621616000288
1623,A,2541468534458.0,8.550995,8.295272036883407,-3.5963332709977527,114,1970-01-01 00:42:21.468534458,0.060653687,-0.6787262,0.07420349,15.860112407824028,0.6854591762033053,-95.51628875732422,0.3657778799533844,-89.56416320800781,21047975.0,50354.0,0.0700093213512,0.000466884145227062,0.03942949722667916,0.0011661072360445355,-0.004628345916663603,-0.0027692575092807628,21.047975620000216
1623,A,2541518888462.0,-5.196045,13.738738036883408,0.8953506290022473,114,1970-01-01 00:42:21.518888462,1.620697,0.9785919,0.47055054,8.242480300702256,1.950825128823417,-95.43559265136719,0.38453227281570435,-89.61511993408203,21098329.0,50354.0,0.08446757615000001,0.061281071627227075,-0.06800263997752085,0.0038892648483877133,0.001554628282483078,-0.0007193860150379411,21.098329624000144
1623,A,2541569242466.0,2.7370605,7.631087036883407,2.5264236290022475,114,1970-01-01 00:42:21.569242466,1.6962128,1.2458191,0.1650238,12.239754669969804,2.1110272256356835,-95.35120391845703,0.3868938684463501,-89.67790985107422,21148683.0,50354.0,-0.061909852756499996,0.044558885882227076,0.08615001049377917,0.00056793580187815,0.0026647326102155274,0.00045689634748783585,21.14868362800007
1623,A,2541619596470.0,-2.273468,11.675475036883407,3.2681838990022474,114,1970-01-01 00:42:21.619596470,1.6730194,1.6575012,0.3247528,8.163918984486315,2.3773448470690237,-95.26813507080078,0.3953891098499298,-89.7619400024414,21199037.0,50354.0,0.011671868372500008,-0.007387886668772949,0.14589083373256917,-0.0012648417328359677,0.0009358542471971346,0.005842092335086773,21.199037632
1623,A,2541669950474.0,2.7549286,10.172408036883407,2.8743545290022476,114,1970-01-01 00:42:21.669950474,1.4569397,1.6123047,0.6071625,9.764147695253856,2.25629032628437,-95.19588470458984,0.4182690978050232,-89.84498596191406,21249391.0,50354.0,0.012121733526200005,0.05659495214822705,0.15465069000186918,0.0005990515150035704,0.0012388862875762161,0.007566733943061954,21.249391635999928
1623,A,2541720304478.0,1.8470917,11.134276036883406,2.4651596290022475,114,1970-01-01 00:42:21.720304478,1.3928223,0.3905182,0.15457153,8.657062504429344,1.4547682914454352,-95.12638854980469,0.424206405878067,-89.86511993408203,21299745.0,50354.0,0.11586506509309999,0.042969184925227034,0.13443294795607919,0.0032223236288381157,0.0025067262790983537,0.007278258752867266,21.29974564000031
1623,A,2541770658482.0,0.28912354,10.491164036883408,2.8572341990022476,114,1970-01-01 00:42:21.770658482,1.2028198,0.24928284,0.25785828,9.055993205515549,1.2551526991386603,-95.06626892089844,0.3796127140522003,-89.87870788574219,21350099.0,50354.0,0.05378349109748,0.050994504737227046,0.13400190940766918,0.004271241699210233,0.0023657238146316067,0.006758384403847094,21.350099644000238
1623,A,2541821012485.0,0.021743774,9.669127036883408,2.5106003290022474,114,1970-01-01 00:42:21.821012485,1.102829,0.3203125,0.4855957,9.904839294258592,1.2468500650662613,-95.05199432373047,0.3897540867328644,-89.8970718383789,21400453.0,50354.0,0.007826706364578,0.014106448364227085,0.13514596991156919,0.0015511599415022343,0.0016390466962353106,0.006776336157620464,21.400453647000177
1623,A,2541871366489.0,2.9994354,9.495314036883407,2.3035385290022474,114,1970-01-01 00:42:21.871366489,0.6738434,0.49276733,0.5077667,10.539119400914975,0.9770934401927888,-95.01849365234375,0.41288337111473083,-89.9238510131836,21450807.0,50354.0,0.076064228063798,-0.010966067085772937,0.12120557402797917,0.002112122056103223,7.906537944764009e-05,0.006454162821766009,21.450807651000105
1623,A,2541921720493.0,2.3809204,8.565291036883407,2.3682968290022473,114,1970-01-01 00:42:21.921720493,0.20628357,0.264328,0.21269226,11.272044159845613,0.3970644787686913,-95.0082778930664,0.42232292890548706,-89.93794250488281,21501161.0,50354.0,0.13546121797660002,-0.038757346057772965,0.11762279880847919,0.005325576154959101,-0.0012518863727150552,0.006012981942903513,21.501161655000033
1623,A,2541972074497.0,3.4830627,5.4751575368834065,2.4033767290022476,114,1970-01-01 00:42:21.972074497,-0.4194641,-0.2771759,-0.074417114,14.51206041802918,0.5082465126153931,-95.02914428710938,0.4198281466960907,-89.92382049560547,21551515.0,50354.0,0.14763750250870003,-0.13997282625827298,0.12013642516987917,0.0071275764856584,-0.004499889548401088,0.005986063982103129,21.55151565899996
1623,A,2542022428501.0,-0.30589294,6.6164540368834075,1.4275161290022473,114,1970-01-01 00:42:22.022428501,-1.9017944,-0.048355103,-0.538147,13.086345076512021,1.977059015170387,-95.2445297241211,0.4162678122520447,-89.91991424560547,21601869.0,50354.0,0.07999160304752001,-0.18903869540727297,0.09645038948597917,0.005731017990588953,-0.00828352308097345,0.005453006232590546,21.601869663000343
1623,A,2542072782505.0,-0.98457336,7.3959950368834075,2.8924057290022476,114,1970-01-01 00:42:22.072782505,-3.0010986,1.2232666,-0.68167114,12.174911516740028,3.3117441816520827,-95.35538482666016,0.4821453094482422,-89.97748565673828,21652223.0,50354.0,-0.032490070035099995,-0.14067776966977294,0.10876267261897918,0.0011959460966536987,-0.008301271441244784,0.005166649264616537,21.65222366700027
1623,A,2542123136509.0,4.502716,6.9645370368834065,2.387599229002247,114,1970-01-01 00:42:22.123136509,-2.598526,0.3447876,-1.0471344,13.386759486104225,2.822712580737387,-95.48542022705078,0.4283934533596039,-89.98970794677734,21702577.0,50354.0,0.08857627724728002,-0.13191408397877297,0.13293468482767917,0.0014120824389810566,-0.00686304509930944,0.0060852143684345175,21.7025776710002
1623,A,2542173490513.0,2.3920593,9.264922036883407,2.3841659290022474,114,1970-01-01 00:42:22.173490513,-2.3921204,-2.641861,-1.3103485,10.594869639141384,3.7971940617868625,-95.60404205322266,0.3759448230266571,-89.85189056396484,21752931.0,50354.0,0.17358975772810004,-0.08486010889977298,0.12013873138307918,0.006600554262575144,-0.005457723854103151,0.006371629399938263,21.752931675000127
1623,A,2542223844517.0,0.17437744,12.902083036883408,3.6838180590022476,114,1970-01-01 00:42:22.223844517,-1.8433533,-2.5446014,-1.1401215,6.606620988789485,3.342577554562512,-95.55168151855469,0.2844204902648926,-89.71880340576172,21803285.0,50354.0,0.06461517780298001,0.06462948674222706,0.1527736328659892,0.005997285661866003,-0.0005093463740605338,0.006871114594698796,21.803285679000055
1623,A,2542274198521.0,-1.1957703,14.471770036883406,3.4978439390022475,114,1970-01-01 00:42:22.274198521,-0.9470215,-1.9284515,-0.8462219,5.177379217580263,2.3090834574250687,-95.59856414794922,0.25167617201805115,-89.61872100830078,21853639.0,50354.0,-0.02571560803622,0.19572229883822703,0.1808127041237592,0.000979374468017717,0.006554876905559092,0.008398703206390896,21.853639682999983
1623,A,2542324552524.0,-1.8136597,15.702849236883408,3.1524765290022474,114,1970-01-01 00:42:22.324552524,0.12397766,-0.9389801,-0.38511658,4.244928425257507,1.0224328186076492,-95.59215545654297,0.23709188401699066,-89.57012176513672,21903993.0,50354.0,-0.07576841911,0.266237189455627,0.16743511842294917,-0.002555063351460381,0.011630754036774363,0.008767835428258477,21.90399368599992
1623,A,2542374906528.0,-0.80444336,14.460173436883407,0.1433670290022473,114,1970-01-01 00:42:22.374906528,1.2711487,0.11885071,0.20336914,6.206205639949586,1.2927890453912168,-95.52863311767578,0.24663889408111572,-89.5770263671875,21954347.0,50354.0,-0.06591598074162001,0.2659452218574271,0.08297945325987917,-0.0035671881350642374,0.013398756569628764,0.006304687671258569,21.954347690000304
1623,A,2542425260532.0,2.6956024,7.525710036883407,-7.683231970997753,114,1970-01-01 00:42:22.425260532,1.4360962,0.13693237,0.64585876,16.72116128074467,1.5805873299115727,-95.45687103271484,0.2781246602535248,-89.58692932128906,22004701.0,50354.0,0.04761371115008,0.060069388219027034,-0.18983117964462085,-0.00046079624150620297,0.008208069837894886,-0.0026902059151886412,22.004701694000232
1623,A,2542475614536.0,4.114929,5.653105536883407,-9.755405970997753,114,1970-01-01 00:42:22.475614536,-0.04559326,-0.2294159,0.20918274,19.722259246315804,0.31379582413433293,-95.45909881591797,0.2896268367767334,-89.57650756835938,22055055.0,50354.0,0.17146874905780002,-0.16166616029927297,-0.43905258746562087,0.005515839100653796,-0.002557901930664352,-0.015833406604534556,22.05505569800016
1623,A,2542525968540.0,-1.3015747,10.723143036883407,-0.44812467099775244,114,1970-01-01 00:42:22.525968540,0.48043823,0.7740631,-0.2539215,9.785781369303495,0.945764613309989,-95.43525695800781,0.2733178734779358,-89.61382293701172,22105409.0,50354.0,0.07083182121110002,-0.08116438965827297,-0.2568942909735209,0.0061004014576600965,-0.006113744756281134,-0.017521854558462276,22.105409702000088
1623,A,2542576322544.0,-6.1628265,7.998473036883407,6.638850429002248,114,1970-01-01 00:42:22.576322544,1.6906586,1.706955,0.22192383,13.388535079324848,2.41273124489671,-95.35115051269531,0.2763453722000122,-89.6998519897461,22155763.0,50354.0,-0.1879312290124,-0.02211507211077296,0.1558639024092792,-0.00294821179021333,-0.0026002670089592694,-0.0025436420928819136,22.155763706000016
1623,A,2542626676548.0,0.10891724,12.762328036883407,9.881129429002247,114,1970-01-01 00:42:22.626676548,1.0381012,1.5860596,0.307312,9.172111879568641,1.920333257936653,-95.29963684082031,0.2842855751514435,-89.78023529052734,22206117.0,50354.0,-0.15241927343902,0.029225488634227036,0.41592353288497913,-0.008569004600219402,0.00017901895681100328,0.014395892258403544,22.206117709999944
1623,A,2542677030552.0,3.4539337,8.531783036883407,3.8055374190022473,114,1970-01-01 00:42:22.677030552,1.5977631,1.1287994,0.61976624,11.50612755439605,2.05210750239984,-95.22006225585938,0.3099691569805145,-89.83928680419922,22256471.0,50354.0,0.08970189811637999,0.042652634504227044,0.34458921123220915,-0.0015790353584981078,0.0018096755062568587,0.01914742935863845,22.256471714000327
1623,A,2542727384556.0,-0.5396881,11.723402836883407,2.3258163290022473,114,1970-01-01 00:42:22.727384556,1.5410309,1.2996063,0.21113586,7.91585781053438,2.0269018528612675,-95.2567138671875,0.404500812292099,-89.90560150146484,22306825.0,50354.0,0.07337196147120001,0.016495614743827054,0.15436909331350918,0.004105710562836502,0.0014891754713182582,0.012562273233547552,22.306825718000255
1623,A,2542777738560.0,0.92855835,10.502761036883408,2.5019027290022473,114,1970-01-01 00:42:22.777738560,1.3484802,0.8989868,0.3620758,9.125862632990746,1.6606248827811536,-95.24195098876953,0.26262167096138,-89.95240783691406,22357179.0,50354.0,0.00979058628425,0.06611892784982706,0.12154748272337917,0.002093783464838965,0.0020799863388804296,0.006946751634880738,22.357179722000183
1623,A,2542828092564.0,0.84521484,10.585479036883408,1.8594772290022474,114,1970-01-01 00:42:22.828092564,1.1633148,0.38615417,0.13897705,9.141042876250875,1.2335846089077682,-95.33796691894531,0.12881405651569366,-89.97285461425781,22407533.0,50354.0,0.044658287604630004,0.03746942033722708,0.10980646320267917,0.0013708592979003319,0.0026080438423054624,0.005824798296580371,22.40753372600011
1623,A,2542878446567.0,0.14056396,10.264006036883407,3.0686447290022474,114,1970-01-01 00:42:22.878446567,1.0839386,0.40888977,0.307724,9.262691916504444,1.1986691756930319,-95.24275970458984,0.11729662120342255,-89.99456024169922,22457887.0,50354.0,0.024818952847600002,0.03145828570222706,0.12407532653667916,0.0017492284828657947,0.0017353928549553369,0.005888441820267825,22.45788772900005
1623,A,2542928800571.0,1.135086,9.669005036883407,2.2744705290022473,114,1970-01-01 00:42:22.928800571,0.96481323,0.43551636,0.5384369,9.999868843306709,1.187625093997383,-95.26420593261719,-0.02338998205959797,-90.01883697509766,22508241.0,50354.0,0.03211703904292,0.00838421980422703,0.13452361285077918,0.0014334774678276222,0.0010031147611359946,0.00651074549695804,22.508241732999977
1623,A,2542979154575.0,3.0986938,9.607680036883407,1.2410690290022472,114,1970-01-01 00:42:22.979154575,0.47421265,0.43537903,0.42692566,10.651955477560374,0.7724623332889435,-95.24048614501953,-0.0041237263940274715,-90.0424575805664,22558595.0,50354.0,0.1065938740246,-0.00814009989777297,0.08851073945187916,0.003492324658300951,6.146206884793878e-06,0.005615335887924029,22.558595736999905
1623,A,2543029508579.0,3.6758728,8.036177036883407,1.6819259290022475,114,1970-01-01 00:42:23.029508579,-0.0541687,0.08946228,0.13684082,12.207057214785479,0.17222995564291596,-95.24319458007812,0.002281283028423786,-90.04753875732422,22608949.0,50354.0,0.1705632632882,-0.04924981045377297,0.07359224405767917,0.0069779852461243665,-0.0014449057729208723,0.00408126681582015,22.608949741000288
1623,A,2543079862583.0,2.6070862,7.462142036883407,1.6910507290022474,114,1970-01-01 00:42:23.079862583,-1.1009674,-0.40930176,-0.22917175,12.480348364020804,1.1967359097143866,-95.2982406616211,-0.007248538080602884,-90.0261001586914,22659303.0,50354.0,0.158186058743,-0.10326802067977298,0.08492143331857917,0.008276921680779523,-0.0038399414344492864,0.003990898855302056,22.659303745000216
1623,A,2543130216587.0,-1.6563263,5.758956036883408,3.0173904290022473,114,1970-01-01 00:42:23.130216587,-2.5068665,0.046798706,-0.69625854,13.862001885539419,2.6021809549353896,-95.3591079711914,0.12920507788658142,-90.02530670166016,22709657.0,50354.0,0.0239372820023,-0.16060161379677296,0.11854442303507916,0.004585319349944419,-0.006643445787215998,0.0051226598654160556,22.709657749000144
1623,A,2543180570591.0,0.46296692,5.230452036883406,1.7124283290022475,114,1970-01-01 00:42:23.180570591,-2.83786,1.3569946,-1.033371,14.416345253734505,3.3110027707131504,-95.56181335449219,0.02208712324500084,-90.08798217773438,22760011.0,50354.0,-0.030045209110260002,-0.21678887292677296,0.11908264687027917,-0.00015377928079710895,-0.009501560284238717,0.005982736739007207,22.76001175300007
1623,A,2543230924595.0,4.4126434,7.815795036883408,1.9101669290022474,114,1970-01-01 00:42:23.230924595,-2.5660858,-0.8413086,-1.2660065,12.618338122470911,2.9825105115385346,-95.69012451171875,-0.036787401884794235,-90.0399169921875,22810365.0,50354.0,0.12275324102664002,-0.16500383742377298,0.09120608081077916,0.0023341101195587,-0.009612395068495696,0.005294439296826006,22.810365757
1623,A,2543281278599.0,1.6097565,10.968550036883407,3.9353897090022474,114,1970-01-01 00:42:23.281278599,-2.1382294,-2.9780731,-1.2874146,8.6924464795833,3.8856634836615913,-95.79719543457031,-0.08593234419822693,-89.88530731201172,22860719.0,50354.0,0.15162596228230002,-0.020535744077772936,0.14717357947503917,0.006908045201709184,-0.004671330043464422,0.006001684707016048,22.860719760999928
1623,A,2543331632603.0,-0.9344177,14.709120536883407,4.141383369002248,114,1970-01-01 00:42:23.331632603,-1.3881683,-2.576416,-0.97688293,4.91052290010598,3.0853250871028606,-95.86685943603516,-0.12143231183290482,-89.752197265625,22911073.0,50354.0,0.017003004967600002,0.15301751203572705,0.20334891578491918,0.004245571508450733,0.0033354934718774114,0.008825104863159973,22.91107376500031
1623,A,2543381986607.0,-2.2243652,15.960585436883408,4.547251899002248,114,1970-01-01 00:42:23.381986607,-0.3050995,-1.6677551,-0.6299591,4.277599556077214,1.8086849493897688,-95.88230895996094,-0.14423324167728424,-89.66602325439453,22961427.0,50354.0,-0.0795286770733,0.27870198730152707,0.2187537701425492,-0.0015742088466052088,0.010869401834814047,0.010627279323595872,22.961427769000238
1623,A,2543432340610.0,-2.1014862,15.402205236883407,2.6539718290022476,114,1970-01-01 00:42:23.432340610,1.1212158,-0.25450134,-0.23234558,4.720565282854175,1.1729792286212797,-95.82627868652344,-0.15449222922325134,-89.65216827392578,23011781.0,50354.0,-0.10891196069779999,0.296151780793427,0.1813052097999692,-0.004744369937162984,0.014473093319326662,0.010072284938012786,23.011781772000177
1623,A,2543482694614.0,0.69758606,8.987975036883407,-5.191868970997753,114,1970-01-01 00:42:23.482694614,1.6604614,0.855484,0.5595093,13.768698765982185,1.9498809173722507,-95.74314880371094,-0.13097240030765533,-89.69754028320312,23062135.0,50354.0,-0.03534599382478001,0.12060236875262706,-0.06389663634402083,-0.003631982521014997,0.010492619223121004,0.002955995653900412,23.062135776000105
1623,A,2543533048618.0,4.597748,4.754332036883406,-5.622486970997752,114,1970-01-01 00:42:23.533048618,0.08352661,-1.4153748,0.29382324,18.0285752835368,1.4479622285878972,-95.73912811279297,-0.10927796363830566,-89.62860870361328,23112489.0,50354.0,0.13332062562862002,-0.14747913480377298,-0.27227303955162085,0.0024667073049252797,-0.0006766763388697008,-0.00846374393002457,23.112489780000033
1623,A,2543583402622.0,-0.5769043,5.686476536883408,3.0027572690022475,114,1970-01-01 00:42:23.583402622,-0.1544342,0.42967224,-0.066970825,13.847806567723456,0.46146857678225306,-95.67207336425781,-0.052346572279930115,-89.64974212646484,23162843.0,50354.0,0.10123278183490002,-0.23060096253827297,-0.06595693470714081,0.005905351139709044,-0.00951892261078069,-0.008515616061912843,23.16284378399996
1623,A,2543633756626.0,-1.4569092,14.065108036883407,6.520991529002247,114,1970-01-01 00:42:23.633756626,0.3607788,0.8534546,-0.55815125,6.315346976854706,1.0817018603419162,-95.65398406982422,-0.08432383835315704,-89.689453125,23213197.0,50354.0,-0.0512053224895,0.0038164448137270597,0.23977942348735914,0.0012595413439391364,-0.005709753802750893,0.004376328800019557,23.213197788000343
1623,A,2543684110630.0,0.7635956,9.135955036883407,6.687144429002247,114,1970-01-01 00:42:23.684110630,1.0209656,0.49243164,0.46922302,10.828611911733853,1.226796608633383,-95.6029052734375,-0.06339099258184433,-89.71625518798828,23263551.0,50354.0,-0.017455556507199998,0.09066396500822706,0.33254123901467914,-0.001728674950499916,0.002378733278087339,0.01440931731981382,23.26355179200027
1623,A,2543734464634.0,-0.2745819,9.828444036883408,0.8612320290022475,114,1970-01-01 00:42:23.734464634,1.5206146,0.98342896,0.20654297,10.079777503195823,1.8226522651225228,-95.5268325805664,-0.0578773207962513,-89.7662124633789,23313905.0,50354.0,0.012311897924900003,-0.016002524519772934,0.19004547408317915,-0.00012950189212656698,0.0018797510871778095,0.01315716567566478,23.3139057960002
1623,A,2543784818638.0,-0.17518616,11.093428036883408,2.0658066290022474,114,1970-01-01 00:42:23.784818638,1.5704193,1.5960388,0.40911865,8.565485486497685,2.2761666676005414,-95.57903289794922,-0.014500490389764309,-89.84749603271484,23364259.0,50354.0,-0.011323810446620002,0.033280773201227076,0.07369405229257918,2.4877078440655588e-05,0.00043501446705297096,0.006640170055562468,23.364259800000127
1623,A,2543835172642.0,1.4802551,10.419860036883406,2.9193374690022473,114,1970-01-01 00:42:23.835172642,1.4629974,1.0720062,0.50971985,9.236490763710497,1.8839779751178678,-95.48393249511719,-0.22349800169467926,-89.90350341796875,23414613.0,50354.0,0.03285772070238,0.04817085383322705,0.12551097295545918,0.0005421592585092695,0.0020507076138464517,0.005015384920669862,23.414613804000055
1623,A,2543885526646.0,0.46351624,10.871566036883408,2.5672714290022474,114,1970-01-01 00:42:23.885526646,1.4885101,0.43536377,0.3227539,8.716707970050408,1.5841003787626062,-95.45346069335938,-0.28010034561157227,-89.92655944824219,23464967.0,50354.0,0.04893833102718,0.04258503425922705,0.13813635222505916,0.0020593791943951324,0.002284960994503717,0.006637848706069911,23.464967807999983
1623,A,2543935880649.0,0.49829102,10.711928036883407,2.7260849290022473,114,1970-01-01 00:42:23.935880649,1.4089966,0.37547302,0.4704895,8.858509992166473,1.5321918212709955,-95.39897155761719,-0.3320361375808716,-89.94742584228516,23515321.0,50354.0,0.024215421385020003,0.049938430295227064,0.13327083302547918,0.0018417920244819597,0.0023294632670874914,0.006833218703052804,23.51532181099992
1623,A,2543986234653.0,0.07946777,9.279082036883407,1.4063064290022473,114,1970-01-01 00:42:23.986234653,1.2308502,0.4343567,0.62483215,10.474158943129149,1.44709128024066,-95.5132827758789,-0.305626779794693,-89.97099304199219,23565675.0,50354.0,0.01454623305583,0.009844460627227046,0.10404121722047917,0.0009759021738572805,0.0015051538447546273,0.005974805489042494,23.565675815000304
1623,A,2544036588657.0,3.0911865,9.269683036883407,2.1598007290022476,114,1970-01-01 00:42:24.036588657,0.5295868,0.6251221,0.33506775,10.798730612624317,0.8851611241648113,-95.48664093017578,-0.2919474244117737,-90.00371551513672,23616029.0,50354.0,0.07982756255579,-0.02646694173777295,0.08978387991707917,0.0023760490521137568,-0.00041850420692021435,0.004879934470632307,23.616029819000232
1623,A,2544086942661.0,4.0377197,7.9819930368834076,3.0131485290022475,114,1970-01-01 00:42:24.086942661,0.08015442,-0.06565857,0.23313904,12.228663827865018,0.25512661725524227,-95.48265075683594,-0.280026912689209,-90.0015640258789,23666383.0,50354.0,0.1794844713974,-0.059123751490772945,0.1302393434687792,0.006528699078839466,-0.0021549168834151004,0.005539524695185757,23.66638382300016
1623,A,2544137296665.0,2.724472,7.036315036883407,2.9757949890022477,114,1970-01-01 00:42:24.137296665,-0.8529663,-0.49168396,-0.21458435,12.782837690585625,1.0076463013984094,-95.52542114257812,-0.28835129737854004,-89.97605895996094,23716737.0,50354.0,0.17025170043090002,-0.11535325762677297,0.15078363095279917,0.00880530759812111,-0.004392807658552453,0.007075315427012079,23.716737827000088
1623,A,2544187650669.0,-2.5389404,6.513289036883407,2.8980667290022475,114,1970-01-01 00:42:24.187650669,-2.6020203,-0.023223877,-0.5422821,13.26105449528128,2.6580291319049554,-95.6555404663086,-0.3152250647544861,-89.97225952148438,23767091.0,50354.0,0.004671129093200001,-0.15233081823477299,0.14788621647419917,0.004404032078928266,-0.006739481977966143,0.007519610748669537,23.767091831000016
1623,A,2544238004673.0,-1.8301239,5.094619036883406,3.2237655690022473,114,1970-01-01 00:42:24.238004673,-2.8565826,2.0956268,-0.9875641,14.534210850484099,3.677906835023123,-95.7012939453125,-0.18657036125659943,-90.0722427368164,23817445.0,50354.0,-0.10999993188110001,-0.20121689842677298,0.15412937176685917,-0.0026518632677909586,-0.008901270862387742,0.0076038464651451265,23.817445834999944
1623,A,2544288358677.0,3.6845245,6.832625036883407,0.9578200290022476,114,1970-01-01 00:42:24.288358677,-2.616211,-0.78260803,-1.0909576,13.473360654125171,2.940616229659906,-95.832275390625,-0.2369091808795929,-90.02783203125,23867799.0,50354.0,0.04668824390620001,-0.19317697595477298,0.10527978060095917,-0.0015939983681440575,-0.009929654575304182,0.006531144229164563,23.867799839000327
1623,A,2544338712681.0,1.2756195,10.530486036883406,3.4866744990022474,114,1970-01-01 00:42:24.338712681,-2.2446442,-2.440857,-1.1707764,9.067845196904573,3.516664308380827,-95.8293228149414,-0.47840049862861633,-89.90095520019531,23918153.0,50354.0,0.124881545488,-0.05631815249577299,0.11189903873156917,0.004319612587577774,-0.0062815388489993965,0.005467911134335067,23.918153843000255
1623,A,2544389066685.0,-0.71157837,14.580199036883407,3.8102371290022474,114,1970-01-01 00:42:24.389066685,-1.6926422,-2.3369904,-0.9605713,4.979408729344947,3.041259438011938,-95.91500854492188,-0.5142227411270142,-89.77980041503906,23968507.0,50354.0,0.014200863530009999,0.13874251810222704,0.18371434405826917,0.003501677811846438,0.0020751982528736937,0.007442658138499761,23.968507847000183
1623,A,2544439420689.0,-1.4461212,14.964583036883408,3.7750961340022475,114,1970-01-01 00:42:24.439420689,-0.5991211,-1.7637787,-0.6643219,4.767720864511327,1.9776716061718917,-95.94580841064453,-0.5381516218185425,-89.68865203857422,24018861.0,50354.0,-0.054324402073890006,0.2503797782712271,0.19097593556266418,-0.001010190329919267,0.009796932055794455,0.009433577170016241,24.01886185100011
1623,A,2544489774692.0,-2.363739,15.852568436883407,3.3212539690022473,114,1970-01-01 00:42:24.489774692,0.6898346,-0.41487122,-0.20201111,4.365330555585114,0.8299387887699191,-95.9115219116211,-0.5460545420646667,-89.66696166992188,24069215.0,50354.0,-0.09592085025540001,0.28241422265502714,0.17866480654334418,-0.003782724717894535,0.013414154561320302,0.009306444964002973,24.06921585400005
1623,A,2544540128696.0,-0.27601624,12.630568336883407,-1.7954299709977528,114,1970-01-01 00:42:24.540128696,2.0295868,0.8688507,0.4104309,8.78493606924737,2.2455684450266795,-95.80961608886719,-0.5300745964050293,-89.7122802734375,24119569.0,50354.0,-0.06646111767748,0.223650734553127,0.03841567079775916,-0.00408829080664612,0.012741197427629698,0.00546543517801696,24.119569857999977
1623,A,2544590482700.0,6.7861176,1.5310970368834056,-14.603031970997753,114,1970-01-01 00:42:24.590482700,0.7655029,-0.23635864,0.6769409,26.51231285656402,1.0488608481127843,-95.77141571044922,-0.4952102601528168,-89.70394134521484,24169923.0,50354.0,0.16390482194072,-0.13692095088467302,-0.4128640763136209,0.0024533401422355936,0.002183595763420666,-0.00942748750567285,24.169923861999905
1623,A,2544640824039.0,-1.3834991,8.173888036883406,-3.0952804709977526,114,1970-01-01 00:42:24.640824039,-0.7724762,-0.56825256,-0.36938477,13.268309744830503,1.0276553701610995,-95.81029510498047,-0.5107153654098511,-89.67379760742188,24220265.0,50342.0,0.1359893102635,-0.2490674207082156,-0.4454842224774688,0.007548635201712422,-0.009715713301364599,-0.021605485028870518,24.220265201000075
1623,A,2544691178043.0,-3.052246,5.843138036883406,2.0757858290022475,114,1970-01-01 00:42:24.691178043,1.333313,1.5495911,0.26449585,14.089982884057804,2.0612894478542874,-95.7429428100586,-0.5053585767745972,-89.75222778320312,24270619.0,50354.0,-0.11167875438270002,-0.140562534540773,-0.025667816601520833,0.0006120668654109013,-0.009809713383303786,-0.011862194887891723,24.270619205000003
1623,A,2544741532047.0,-3.3419342,16.643080536883406,12.688899029002247,114,1970-01-01 00:42:24.741532047,0.8205261,1.3851166,-0.2650299,10.039324418523535,1.6315795795090045,-95.7013168334961,-0.5254486799240112,-89.81982421875,24320973.0,50354.0,-0.1609862748954,0.07266632503172701,0.37173047066997916,-0.006864887442134724,-0.0017094228668092508,0.008712819441481575,24.32097320899993
1623,A,2544791886051.0,5.68277,5.856429036883407,4.952800029002248,114,1970-01-01 00:42:24.791886051,1.5740509,1.1074219,0.7926941,14.841563217270883,2.0814378291376445,-95.6220932006836,-0.49146541953086853,-89.87884521484375,24371327.0,50354.0,0.0589352229366,0.07300095253872703,0.4441650571833792,-0.0025693393351667072,0.003667465047391322,0.020541801704764006,24.371327213000313
1623,A,2544842240055.0,-1.5657196,12.617491536883406,2.1201889290022473,114,1970-01-01 00:42:24.842240055,1.5196228,1.101181,0.023910522,7.231619814315823,1.8768123939550145,-95.54563903808594,-0.49563372135162354,-89.93376159667969,24421681.0,50354.0,0.10365497792080001,-0.02835130171427298,0.17807664299567919,0.00409353348698676,0.0011241442588072795,0.015666179285408154,24.42168121700024
1623,A,2544892594059.0,1.5893555,10.294326036883406,3.0025131290022475,114,1970-01-01 00:42:24.892594059,1.3731079,1.8530121,0.59542847,9.371634678646052,2.381934971966145,-95.4407730102539,-0.705574631690979,-90.02935028076172,24472035.0,50354.0,0.0005950810542999983,0.08338163105472701,0.12897426971437917,0.002624703734816093,0.0013854986018046111,0.00773062082930114,24.47203522100017
1623,A,2544942948063.0,2.143097,10.639434036883408,3.0662490890022474,114,1970-01-01 00:42:24.942948063,1.3269043,0.54759216,0.26600647,9.141919390930129,1.4598943924591998,-95.37407684326172,-0.6949118971824646,-90.05786895751953,24522389.0,50354.0,0.0939719565925,0.03358007737722705,0.15279322636269918,0.0023809143068334836,0.0029447449331913072,0.007094060248732602,24.522389225000097
1623,A,2544993302067.0,0.43099976,10.320708036883406,2.5538894290022474,114,1970-01-01 00:42:24.993302067,1.2516785,0.40649414,0.21264648,9.262723054294726,1.3330998007174781,-95.3493423461914,-0.7355222702026367,-90.07864379882812,24572743.0,50354.0,0.06480803412652,0.03424429699122705,0.1414982274677992,0.003997603826332767,0.0017076142734745688,0.007409375933090458,24.572743229000025
1623,A,2545043656070.0,0.72727966,10.664626036883407,2.8587753290022473,114,1970-01-01 00:42:25.043656070,1.1905975,0.25852966,0.4459381,8.908218817696499,1.2973899880674182,-95.2862319946289,-0.8131288290023804,-90.09368133544922,24623097.0,50354.0,0.02916200095734,0.034878555975227016,0.13627466061227916,0.0023658835733063434,0.001740306069136414,0.006993488003192134,24.623097231999964
1623,A,2545094010074.0,0.18057251,9.494582036883408,1.2051498290022473,114,1970-01-01 00:42:25.094010074,0.97612,0.436203,0.59135437,10.31126353305413,1.2217951147909771,-95.44931030273438,-0.7907082438468933,-90.11515808105469,24673451.0,50354.0,0.02285699408409,0.014079181673227052,0.10231744370307916,0.001309682238158083,0.0012326089607751281,0.006007033410347777,24.673451236000346
1623,A,2545144364078.0,3.3249664,9.447570036883407,1.9229385290022474,114,1970-01-01 00:42:25.144364078,0.47407532,0.4181366,0.22213745,10.736463702811005,0.6700228891501879,-95.42529296875,-0.7816300392150879,-90.13700103759766,24723805.0,50354.0,0.08825895313707001,-0.016562637238772937,0.07875588058947916,0.002797566203187146,-6.252596077374876e-05,0.004558883085713741,24.723805240000274
1623,A,2545194718082.0,3.1633453,7.382567036883406,2.6788589290022475,114,1970-01-01 00:42:25.194718082,-0.064956665,-0.19534302,0.3046112,12.568494661235643,0.3676496252630793,-95.42865753173828,-0.7655452489852905,-90.12873077392578,24774159.0,50354.0,0.16335622367090002,-0.06973683889377297,0.11585945460017918,0.006334915306494261,-0.0021727619105891085,0.004899830294070029,24.774159244000202
1623,A,2545245072086.0,2.712265,6.672332036883407,3.0065567290022477,114,1970-01-01 00:42:25.245072086,-1.1997528,-0.373703,-0.35098267,13.134053024333337,1.3047028581087607,-95.48892211914062,-0.7812373042106628,-90.10845947265625,24824513.0,50354.0,0.1479302405231,-0.13960900601977297,0.1431417100215792,0.00783725930901234,-0.005270700337388346,0.006520872321682011,24.82451324800013
1623,A,2545295426090.0,-3.003601,6.424773036883407,3.0259658890022476,114,1970-01-01 00:42:25.295426090,-2.9935913,0.31861877,-0.54299927,13.43722570705282,3.0590774751961636,-95.63842010498047,-0.8098055720329285,-90.12167358398438,24874867.0,50354.0,-0.007334966472000007,-0.16372338555777297,0.1518808219534992,0.003539767214784545,-0.007636999622747874,0.007427782287536549,24.874867252000058
1623,A,2545345780094.0,0.06854248,5.522383036883408,3.2768966690022476,114,1970-01-01 00:42:25.345780094,-2.7662354,1.8816376,-1.0098572,13.989561407360245,3.4946287228171693,-95.67435455322266,-0.8561481833457947,-90.2117691040039,24925221.0,50354.0,-0.07389596835804,-0.19267565153077296,0.15868717062287918,-0.0020451512462159177,-0.00897305855677832,0.007819170349095479,24.925221255999986
1623,A,2545396134098.0,4.2677917,7.991820036883407,2.1004593290022475,114,1970-01-01 00:42:25.396134098,-2.649887,-2.188507,-1.2511139,12.379359443768955,3.657423955817976,-95.80863189697266,-0.9074421525001526,-90.09663391113281,24975575.0,50354.0,0.10917588564986,-0.15322210921177296,0.13538569196175917,0.000888242477656152,-0.008708667922215078,0.007403872461293441,24.975575259999914
1623,A,2545446488102.0,0.8824463,11.257338036883407,3.8377029490022476,114,1970-01-01 00:42:25.446488102,-2.0927124,-2.8444214,-1.220047,8.297891096874151,3.736133425361134,-95.74212646484375,-1.0837441682815552,-89.9518051147461,25025929.0,50354.0,0.129667542126,-0.00883314717677295,0.14950511167331917,0.006013360981112828,-0.00408006519009442,0.007172695763120368,25.025929264000297
1623,A,2545496842106.0,-0.8714142,14.888487636883408,4.146922309002248,114,1970-01-01 00:42:25.496842106,-1.4555969,-2.2526093,-0.84402466,4.7239809529278505,2.811652293656564,-95.81713104248047,-1.1143847703933716,-89.83546447753906,25076283.0,50354.0,0.00027775518169999975,0.16480425298842707,0.2010289101207792,0.0032716327503159635,0.003926884531020016,0.008825395066710016,25.076283268000225
1623,A,2545547196109.0,-0.7883148,15.168440636883407,3.8126327590022475,114,1970-01-01 00:42:25.547196109,-0.29125977,-1.5700531,-0.5769501,4.411436194023186,1.697872318029266,-95.83329010009766,-1.1351150274276733,-89.75443267822266,25126637.0,50354.0,-0.041786997033000005,0.26327408314862705,0.2003977179471492,-0.0010450781820901802,0.010777728268922614,0.010106718214866233,25.126637271000163
1623,A,2545597550113.0,-2.1325378,15.921202436883407,2.7623245290022473,114,1970-01-01 00:42:25.597550113,1.0487518,-0.0068206787,-0.2587433,4.268136479483318,1.080219864173983,-95.78089141845703,-1.1479514837265015,-89.7527847290039,25176991.0,50354.0,-0.0735383059102,0.28927474366822703,0.16553769964008916,-0.0029035451522009467,0.013911521812767938,0.0092131560085939,25.17699127500009
1623,A,2545647904117.0,0.9502411,10.244368036883406,-4.309712170997752,114,1970-01-01 00:42:25.647904117,1.9865723,0.68800354,0.4913025,12.259379454801547,2.1589804354569937,-95.68083953857422,-1.1269445419311523,-89.78946685791016,25227345.0,50354.0,-0.029766684015900005,0.16530136781802704,-0.03895857866252083,-0.00260090973136942,0.01144486275888942,0.003186882528852238,25.22734527900002
1623,A,2545698258121.0,4.8493195,2.3057700368834055,-13.370746970997752,114,1970-01-01 00:42:25.698258121,0.34284973,-0.43826294,0.5656891,24.69031768492974,0.7934888151683843,-95.6640625,-1.0966349840164185,-89.77044677734375,25277699.0,50354.0,0.1460155372262,-0.177494373716773,-0.4451409198180209,0.0029267973772757233,-0.0003069833095127274,-0.0121881730732446,25.277699282999947
1623,A,2545748612125.0,-0.788147,10.809905036883407,0.5844986290022476,114,1970-01-01 00:42:25.748612125,-0.31144714,0.14637756,-0.014633179,9.259730272785777,0.3444413462599681,-95.67949676513672,-1.0980883836746216,-89.77766418457031,25328053.0,50354.0,0.10224814003249999,-0.163255848667773,-0.32191937450642083,0.00625053460234229,-0.008579068348975715,-0.019312277030206472,25.32805328700033
1623,A,2545798966129.0,-1.70578,6.308379036883407,6.7997390290022475,114,1970-01-01 00:42:25.798966129,1.3356171,1.343811,0.16517639,13.671870849477953,1.9018370806530305,-95.61141967773438,-1.096481204032898,-89.84535217285156,25378407.0,50354.0,-0.06278960007900002,-0.062482161874772964,0.18591295151557918,0.0009934476604092689,-0.00568340589142968,-0.0034242337116404203,25.378407291000258
1623,A,2545849320133.0,-2.2749634,14.291060036883408,8.707957429002247,114,1970-01-01 00:42:25.849320133,0.8367462,0.95858765,-0.24822998,7.602695790791903,1.2963998645933912,-95.56869506835938,-1.1135019063949585,-89.89185333251953,25428761.0,50354.0,-0.1002231765818,0.02516287756022707,0.3904372737231792,-0.0041041726779889615,-0.0009395876211873221,0.014510769620836222,25.428761295000186
1623,A,2545899674137.0,1.7341156,6.978621036883407,5.392863429002247,114,1970-01-01 00:42:25.899674137,1.8888702,1.7241516,0.79045105,12.76461830009752,2.67681568933625,-95.4725341796875,-1.082456350326538,-89.98148345947266,25479115.0,50354.0,-0.013616925060599997,0.04203756039422707,0.3550163667419792,-0.002866152239050705,0.001691905426379292,0.018768286305991293,25.479115299000114
1623,A,2545950028141.0,-0.18153381,11.908354536883408,2.1231338290022475,114,1970-01-01 00:42:25.950028141,1.6610718,1.1026764,0.1076355,7.755121607741364,1.9966572486865266,-95.53823852539062,-1.0219614505767822,-90.03409576416016,25529469.0,50354.0,0.03908935172683001,-0.017951815979272936,0.18923026296477918,0.0006413192861756729,0.0006064067871353003,0.013702497396127054,25.52946930300004
1623,A,2546000382145.0,0.6321411,10.557982036883407,3.2124282890022475,114,1970-01-01 00:42:26.000382145,1.5401611,1.1508789,0.6029053,8.982131366374968,2.0149722720639383,-95.39431762695312,-1.0727694034576416,-90.09552001953125,25579823.0,50354.0,0.01134493974033,0.07216575591772709,0.13433344744499917,0.0012697841562686876,0.0013649443658304602,0.008146363536986992,25.57982330699997
1623,A,2546050736149.0,1.540329,10.551741036883406,2.7246353290022474,114,1970-01-01 00:42:26.050736149,1.3352203,0.5513153,0.16098022,9.134736844135375,1.4535048815801852,-95.34185791015625,-1.282392978668213,-90.12354278564453,25630177.0,50354.0,0.0546962797077,0.038010297828227034,0.14947745071049917,0.0016627197820430514,0.002773902505161887,0.007145506982860981,25.630177311000352
1623,A,2546101090152.0,0.5259094,10.446624036883406,2.5693466290022475,114,1970-01-01 00:42:26.101090152,1.0649414,0.48962402,0.20036316,9.140970446481672,1.1891077589016505,-95.326904296875,-1.3250927925109863,-90.14798736572266,25680531.0,50354.0,0.052021684196800005,0.03520663746222701,0.13328658375667918,0.002686838177223597,0.0018433827798077617,0.00711915009578015,25.68053131400029
1623,A,2546151444156.0,0.5920563,9.894103036883408,3.0059005790022475,114,1970-01-01 00:42:26.151444156,1.1302795,0.37353516,0.43048096,9.653054629436642,1.2658491698456802,-95.23493957519531,-1.3601549863815308,-90.16943359375,25730885.0,50354.0,0.028147022428900003,0.018649285536227047,0.14036799895592916,0.0020184075267152494,0.0013559305733320778,0.006889801428955341,25.73088531800022
1623,A,2546201798160.0,1.3452454,8.999800036883407,0.8924210290022474,114,1970-01-01 00:42:26.201798160,0.864624,0.3219452,0.5029602,10.949338945289764,1.0508055652512884,-95.19129180908203,-1.3365757465362549,-90.18775177001953,25781239.0,50354.0,0.0487754449009,-0.017777402311772942,0.09814804312472918,0.0019366769599623748,2.1951403942081004e-05,0.006005118391464736,25.781239322000147
1623,A,2546252152164.0,3.7662811,8.077452036883408,1.7203933290022475,114,1970-01-01 00:42:26.252152164,0.24363708,0.13087463,0.17422485,12.189700073577704,0.3268661712170377,-95.17891693115234,-1.3284916877746582,-90.19503784179688,25831593.0,50354.0,0.12869290269050002,-0.06351522453877295,0.06578282709147916,0.004468120587308678,-0.002046704466216194,0.0041272875194334775,25.831593326000075
1623,A,2546302506168.0,3.1707764,6.340575036883408,2.8632766790022472,114,1970-01-01 00:42:26.302506168,-0.5442505,-0.47860718,-0.015625,13.565979085775737,0.7249259135406889,-95.2066879272461,-1.3271048069000244,-90.17113494873047,25881947.0,50354.0,0.17465429667750001,-0.13046653236377292,0.11540305979152916,0.007637372438488137,-0.004883878693535398,0.004561717074053501,25.881947330000003
1623,A,2546352860172.0,-0.5748749,6.5610190368834065,2.5292312290022476,114,1970-01-01 00:42:26.352860172,-1.9746704,-0.14567566,-0.5805969,13.007842559107957,2.0634043100764825,-95.3009033203125,-1.2589187622070312,-90.16142272949219,25932301.0,50354.0,0.0653570120655,-0.16864576600477296,0.13576717159982918,0.006042764720222512,-0.007530750336024881,0.00632371291574023,25.93230133399993
1623,A,2546403214176.0,-1.8265839,5.937178036883408,2.580958529002247,114,1970-01-01 00:42:26.403214176,-3.011078,1.205246,-0.7327881,13.734477890956045,3.3250845165351226,-95.43216705322266,-1.079392433166504,-90.2186508178711,25982655.0,50354.0,-0.0604615282076,-0.17880209227377297,0.12865924753727917,0.0001232535970903483,-0.008747694727878952,0.006657463954614977,25.982655338000313
1623,A,2546453568180.0,3.648117,7.149962036883407,0.5555984290022473,114,1970-01-01 00:42:26.453568180,-2.7611847,0.54818726,-1.0457458,13.253734327108047,3.003037545179553,-95.56980895996094,-1.1340681314468384,-90.24093627929688,26033009.0,50354.0,0.045860738858700005,-0.16397427436277295,0.07896909453167916,-0.0003676040734372552,-0.008630080582808317,0.005227458768270164,26.03300934200024
1623,A,2546503922184.0,3.4278412,10.115371036883406,1.2775833290022476,114,1970-01-01 00:42:26.503922184,-2.573288,-2.2929688,-1.2282562,10.278298333562105,3.6589794125624535,-95.70089721679688,-1.1839232444763184,-90.12078094482422,26083363.0,50354.0,0.17815139960140003,-0.058779909201772985,0.04615401712127917,0.005639953610009939,-0.005608282079604573,0.0031502245820865323,26.08336334600017
1623,A,2546554276188.0,-0.43511963,13.605162436883408,4.446116629002248,114,1970-01-01 00:42:26.554276188,-1.9697723,-2.338684,-0.95932007,5.968497784069494,3.2046436248681527,-95.80193328857422,-1.219929814338684,-89.9996109008789,26133717.0,50354.0,0.07534775096789001,0.10374267126902705,0.14410559384267918,0.006382348113883016,0.0011320274605672556,0.00479016622523958,26.133717350000097
1623,A,2546604630192.0,-1.4176025,15.779829836883406,4.140773029002247,114,1970-01-01 00:42:26.604630192,-0.96173096,-1.7243805,-0.5609436,4.015295653754414,2.0525769828641582,-95.85191345214844,-1.2390774488449097,-89.91094970703125,26184071.0,50354.0,-0.04664598506701,0.2463567504766271,0.21619212091957918,0.0007226243600864559,0.008814453141290335,0.00907121556456938,26.184071354000025
1623,A,2546654984195.0,-1.7645721,16.291045036883407,3.4322616590022474,114,1970-01-01 00:42:26.654984195,0.38101196,-0.6822815,-0.21339417,3.6751180159449013,0.8100711269359503,-95.83362579345703,-1.2462201118469238,-89.87593078613281,26234425.0,50354.0,-0.08011760990420001,0.3139792166968271,0.19066629433988916,-0.0031915270305901545,0.014107578645526059,0.010243474320987635,26.234425356999964
1623,A,2546705338199.0,-0.41505432,13.126463736883407,-1.6712386709977523,114,1970-01-01 00:42:26.705338199,1.5493622,0.5579376,0.3191681,8.328069965468016,1.6774045034934806,-95.7555160522461,-1.2331594228744507,-89.90528869628906,26284779.0,50354.0,-0.05487645437634,0.2471754183971271,0.04433727576898918,-0.0033987455563911557,0.014128190247760486,0.00591668488463123,26.284779361000346
1623,A,2546755692203.0,2.9567719,5.750685036883407,-9.017704970997752,114,1970-01-01 00:42:26.755692203,0.9315796,-0.333313,0.6249237,18.942708767875374,1.1702425978944921,-95.70922088623047,-1.2004081010818481,-89.89183044433594,26335133.0,50354.0,0.06399282351166001,-0.018199225322872957,-0.2691155340745208,0.00022952282571995193,0.005764933613030496,-0.00565924220935837,26.335133365000274
1623,A,2546806046207.0,1.4376678,4.918975036883406,-4.963169970997752,114,1970-01-01 00:42:26.806046207,-0.38237,-0.41697693,0.18615723,17.009226542145438,0.5955930585000953,-95.72876739501953,-1.1890692710876465,-89.87200927734375,26385487.0,50354.0,0.11063880832690001,-0.22483916832277298,-0.35199648841462083,0.004396700594799426,-0.006118977636816428,-0.01563773739020912,26.385487369000202
1623,A,2546856400211.0,1.179657,8.040938036883407,-1.6848649709977526,114,1970-01-01 00:42:26.856400211,0.2581482,0.8584442,-0.26286316,12.707269351154046,0.9341648562015515,-95.71499633789062,-1.2064268589019775,-89.91342163085938,26435841.0,50354.0,0.0658963864896,-0.16717746854177298,-0.16737757573462084,0.004444626599895021,-0.009869802866338675,-0.01307628081308546,26.43584137300013
1623,A,2546906754215.0,-1.682785,12.139311636883406,-1.8802383709977528,114,1970-01-01 00:42:26.906754215,1.1126404,0.6569214,-0.024169922,9.373422738941157,1.2923229358870043,-95.65867614746094,-1.2108829021453857,-89.94599151611328,26486195.0,50354.0,-0.012667253656,0.014608946036427014,-0.08975860684142084,0.0013401498773515472,-0.003841217691117096,-0.006473917668717001,26.486195377000058
1623,A,2546957108219.0,-0.40544128,10.455046036883408,3.7454635690022475,114,1970-01-01 00:42:26.957108219,1.4748993,1.4108276,0.31982422,9.060759548461338,2.0659259410155193,-95.42977905273438,-1.1076319217681885,-90.02081298828125,26536549.0,50354.0,-0.05257527305156,0.07538894315242703,0.046960774810159166,-0.0016426110949162383,0.0022658768561077784,-0.0010775210170510753,26.536549380999986
1623,A,2547007462223.0,2.6591034,8.801757036883407,3.9523269690022476,114,1970-01-01 00:42:27.007462223,1.6637115,1.164093,0.26434326,11.033674280691717,2.0476635043357776,-95.345458984375,-1.0999345779418945,-90.08002471923828,26586903.0,50354.0,0.056740451195239995,-0.008640669011772946,0.1938072723753392,0.0001048666901234313,0.001680521298039248,0.006061817123989293,26.586903384999914
1623,A,2547057816227.0,-0.4303894,11.145980036883406,3.3667556790022477,114,1970-01-01 00:42:27.057816227,1.4493713,1.0514526,0.48623657,8.376797951837736,1.8554394997724433,-95.18966674804688,-0.9795531034469604,-90.13604736328125,26637257.0,50354.0,0.05611233237799999,0.008754976306227019,0.1842725438288092,0.0028412945320234633,2.8779147524702017e-06,0.009518915532571845,26.637257389000297
1623,A,2547108170231.0,1.3265228,10.570937036883407,2.7950851290022474,114,1970-01-01 00:42:27.108170231,1.3435211,0.81585693,0.4436798,9.07521013440671,1.6332554121454106,-95.1309585571289,-1.1462452411651611,-90.17862701416016,26687611.0,50354.0,0.022561950611800004,0.053297621166227035,0.15513666602312917,0.0019807824228341947,0.0015622982465639758,0.008545305676442252,26.687611393000225
1623,A,2547158524234.0,0.7541809,10.918486036883406,2.6490127290022474,114,1970-01-01 00:42:27.158524234,1.2839355,0.25671387,0.24179077,8.680667275235582,1.3314860703994689,-95.1068115234375,-1.231239676475525,-90.19171142578125,26737965.0,50354.0,0.0523858770549,0.04757000472822703,0.1370660517709792,0.0018869614571645058,0.00253954421714467,0.007356787825902266,26.737965396000163
1623,A,2547208878238.0,-0.03831482,9.969893036883407,2.9560348290022476,114,1970-01-01 00:42:27.208878238,1.266922,0.2686615,0.40068054,9.562917436561808,1.3556604481952483,-95.02184295654297,-1.1759508848190308,-90.20729064941406,26788319.0,50354.0,0.01802336029616,0.03243751994022703,0.14111828236787918,0.0017726933687876377,0.002014349448577668,0.007003846980614037,26.78831940000009
1623,A,2547259232242.0,1.104538,9.455580536883406,2.2781936290022475,114,1970-01-01 00:42:27.259232242,0.98735046,0.38194275,0.54963684,10.206039337670006,1.1928293469834483,-95.04253387451172,-1.2760512828826904,-90.22726440429688,26838673.0,50354.0,0.02684430100286,-0.004394051833272964,0.13178216988717917,0.0011296331085254268,0.0007060503965287826,0.006870814686425604,26.83867340400002
1623,A,2547309586246.0,2.1307068,9.626342036883408,1.3415786290022473,114,1970-01-01 00:42:27.309586246,0.49391174,0.47966003,0.34977722,10.370910777826584,0.772247793729679,-95.01726531982422,-1.2607308626174927,-90.252685546875,26889027.0,50354.0,0.08145375832960002,-0.013043635360272957,0.09113500613977918,0.002726620239813346,-0.0004390286504719057,0.00561238574083073,26.889027407999947
1623,A,2547359940250.0,3.6444092,7.554595036883407,1.8749496290022474,114,1970-01-01 00:42:27.359940250,0.062469482,-0.048843384,0.12635803,12.622718336823617,0.14917930180625152,-95.0141830444336,-1.2542202472686768,-90.25081634521484,26939381.0,50354.0,0.14540009553200003,-0.06090474729377294,0.08098253195177917,0.0057114994786735054,-0.0018617984300809136,0.004333403256531164,26.93938141200033
1623,A,2547410294254.0,2.2777252,6.256148036883408,2.3761093290022473,114,1970-01-01 00:42:27.410294254,-0.97494507,-0.7444,-0.30567932,13.506266212819133,1.264155487348359,-95.07725524902344,-1.4767768383026123,-90.21196746826172,26989735.0,50354.0,0.1491015777888,-0.14575612163177293,0.10702891138567917,0.0074146686291977825,-0.005203100696938468,0.004733564108907189,26.989735416000258
1623,A,2547460648258.0,-2.9740906,6.089186036883406,2.8279220590022476,114,1970-01-01 00:42:27.460648258,-2.4660645,0.0914917,-0.66282654,13.768363364637368,2.5552267749570703,-95.20050811767578,-1.5101946592330933,-90.21354675292969,27040089.0,50354.0,-0.017532391675799997,-0.18265072402477298,0.13102189825578917,0.0033125173987670013,-0.008268299153094856,0.005993405234343249,27.040089420000186
1623,A,2547511002262.0,0.15351868,6.483489036883407,1.2910720290022475,114,1970-01-01 00:42:27.511002262,-2.7231445,1.871872,-0.940567,13.238476824423909,3.435707646723343,-95.46247863769531,-1.5447198152542114,-90.29907989501953,27090443.0,50354.0,-0.07101353922984,-0.176926959667773,0.10370391415368918,-0.002229320902411298,-0.00905308734232723,0.005909691779033437,27.090443424000114
1623,A,2547561356266.0,3.5470734,7.810424036883408,1.9065658290022474,114,1970-01-01 00:42:27.561356266,-2.471817,-0.833786,-1.2963867,12.34791599759123,2.913021944857589,-95.58740234375,-1.6052241325378418,-90.2513198852539,27140797.0,50354.0,0.09316980679816,-0.13359135054177296,0.08050692835097917,0.0005578283485675929,-0.007817919496145739,0.004637876381740035,27.14079742800004
1623,A,2547611710270.0,0.9967804,10.545806036883407,3.7975570690022473,114,1970-01-01 00:42:27.611710270,-2.1565857,-2.8099518,-1.2716675,9.016808351006896,3.7634863132903753,-95.53998565673828,-1.7735419273376465,-90.1097640991211,27191151.0,50354.0,0.1144006071226,-0.03131439543277294,0.14361270220305916,0.005226000311282975,-0.004151831966401142,0.0056426599384590236,27.19115143199997
1623,A,2547662064274.0,-0.76431274,13.633360636883406,4.106654359002247,114,1970-01-01 00:42:27.662064274,-1.5452423,-2.4307404,-1.0253143,5.9389459684179595,3.057375029610522,-95.62120056152344,-1.8127493858337402,-89.9837646484375,27241505.0,50354.0,0.00585283827582,0.11528967934542703,0.19900433112286917,0.0030276209947960207,0.002114245723068892,0.008626069048046898,27.241505436000352
1623,A,2547712418277.0,-1.3812561,14.975096536883406,4.113078309002248,114,1970-01-01 00:42:27.712418277,-0.5947876,-1.6553192,-0.6865692,4.758220642812809,1.8881819852416346,-95.65367126464844,-1.8387821912765503,-89.8979721069336,27291859.0,50354.0,-0.054018986684680005,0.226805926263927,0.20694820938234917,-0.0012126791184898685,0.008612941062426707,0.010220667112299882,27.29185943900029
1623,A,2547762772281.0,-2.0149536,15.970671436883407,3.2191268990022475,114,1970-01-01 00:42:27.762772281,0.6619873,-0.44921875,-0.20521545,4.093963238356226,0.8259164919237023,-95.62133026123047,-1.8467878103256226,-89.87461853027344,27342213.0,50354.0,-0.0855063716169,0.285652400275527,0.1846029305219292,-0.0035128299459588797,0.012902163287283833,0.009858083049370017,27.34221344300022
1623,A,2547813126285.0,-0.09269714,12.075911336883408,-2.9856612709977526,114,1970-01-01 00:42:27.813126285,1.8809814,0.513443,0.4786682,9.972906567644218,2.007694694689957,-95.5263900756836,-1.8254616260528564,-89.90249633789062,27392567.0,50354.0,-0.053064322680980006,0.21265961449512708,0.005877964116269168,-0.003488794370337725,0.012546001595880759,0.0047957374843059205,27.392567447000147
1623,A,2547863480289.0,4.4340515,2.8976270368834065,-12.634968970997752,114,1970-01-01 00:42:27.863480289,0.64512634,-0.5085907,0.71513367,23.690038364768455,1.0891596121119964,-95.49481964111328,-1.787431001663208,-89.88059997558594,27442921.0,50354.0,0.10930227872171999,-0.11648042436367295,-0.3932806076027208,0.0014159030192377106,0.0024215034699396204,-0.009753636355058394,27.442921451000075
1623,A,2547913834293.0,1.333664,10.024901036883406,-4.363239970997753,114,1970-01-01 00:42:27.913834293,-0.4677887,0.17637634,-0.07131958,12.495532120592385,0.5049963996414846,-95.51795196533203,-1.791826605796814,-89.8890380859375,27493275.0,50354.0,0.1452137731435,-0.168118710686773,-0.4279639065326209,0.006407950637810644,-0.007165352423165079,-0.0206764731323855,27.493275455000003
1623,A,2547964188297.0,-0.699234,3.457183036883407,-3.1949659709977523,114,1970-01-01 00:42:27.964188297,1.5626678,1.1426697,0.14196777,17.468029979663076,1.9410769032095825,-95.43802642822266,-1.7902122735977173,-89.94662475585938,27543629.0,50354.0,0.01597304411,-0.154030769274773,-0.19029295100162086,0.00405820049799137,-0.008110757456991843,-0.015565852902139606,27.54362945899993
1623,A,2548014542301.0,-5.1755676,13.173567636883407,7.749949629002248,114,1970-01-01 00:42:28.014542301,1.1190796,1.5222931,-0.23019409,9.14184844531524,1.9033404195032213,-95.37972259521484,-1.8088490962982178,-90.02134704589844,27593983.0,50354.0,-0.1479098798832,-0.07475679028657296,0.11468082355757919,-0.0033217737142618568,-0.005760184387076007,-0.0019036865326586372,27.593983463000313
1623,A,2548064896305.0,4.2938843,7.939742036883407,7.740718029002247,114,1970-01-01 00:42:28.064896305,1.436676,1.3424072,0.49069214,12.993520679069684,2.026542325204588,-95.30571746826172,-1.7906684875488281,-90.09049224853516,27644337.0,50354.0,-0.022198140444099995,0.038100597656427045,0.3900085396255792,-0.004282809627780432,-0.0009228929618491839,0.01270656409686238,27.64433746700024
1623,A,2548115250309.0,-0.17219543,10.885817036883408,2.8531448290022476,114,1970-01-01 00:42:28.115250309,1.54599,1.2620697,0.123550415,8.660467001906948,1.999542375846224,-95.22843170166016,-1.7170897722244263,-90.15382385253906,27694691.0,50354.0,0.10377176067999,-0.019498099199772936,0.2667216851759792,0.0020537790366790027,0.0004683551036431805,0.016534496869828837,27.69469147100017
1623,A,2548165604313.0,-0.64797974,10.838011536883407,3.2099411090022474,114,1970-01-01 00:42:28.165604313,1.4742584,1.3965149,0.5553436,8.704481991396973,2.1052549037951507,-95.0973129272461,-1.5463682413101196,-90.22737121582031,27745045.0,50354.0,-0.020649550255090004,0.05347163200172706,0.15265031466113918,0.002092767891867707,0.0008553516353547991,0.01055852883989913,27.745045475000097
1623,A,2548215958317.0,1.4391022,10.710906036883408,2.6558182290022474,114,1970-01-01 00:42:28.215958317,1.397995,0.6310425,0.33132935,8.969440301847037,1.569198456219822,-95.06230163574219,-1.7242546081542969,-90.25938415527344,27795399.0,50354.0,0.01991809017542,0.049067897754727065,0.14768222285293917,-1.8415970425851665e-05,0.0025816377406782456,0.007561472296991951,27.795399479000025
1623,A,2548266312320.0,0.70018005,10.310500036883408,2.400752229002247,114,1970-01-01 00:42:28.266312320,1.1260986,0.42687988,0.2243042,9.308817810088918,1.225004842034681,-95.07434844970703,-1.7797330617904663,-90.27955627441406,27845753.0,50354.0,0.05386070920825,0.035786740719227085,0.12730927442117917,0.0018575288320826597,0.0021363852328587438,0.006923460926870477,27.845753481999964
1623,A,2548316666324.0,0.019638062,9.352721036883407,2.7083084290022477,114,1970-01-01 00:42:28.316666324,1.140091,0.46990967,0.4275055,10.19869620720861,1.30513736394709,-95.02436828613281,-1.7187793254852295,-90.30459594726562,27896107.0,50354.0,0.018122860605824,0.001591716974227064,0.12863082018657918,0.0018123303372089411,0.0009410774293480953,0.006443803761939532,27.896107486000346
1623,A,2548367020328.0,3.5603333,9.394179036883408,1.4615127290022474,114,1970-01-01 00:42:28.367020328,0.6122589,0.5182495,0.5445099,10.944873188910549,0.9695022104551748,-94.99290466308594,-1.6939218044281006,-90.33279418945312,27946461.0,50354.0,0.090132938981074,-0.021478496842772934,0.10498358729507919,0.002725556266199331,-0.0005006894567503794,0.005881709937165713,27.946461490000274
1623,A,2548417374332.0,2.4620361,10.312102036883408,1.4157364290022474,114,1970-01-01 00:42:28.417374332,0.23757935,0.2160492,0.24975586,9.78048678608027,0.4068159214821884,-94.98067474365234,-1.6824198961257935,-90.34465026855469,27996815.0,50354.0,0.1516251943838,0.002675838594227078,0.07244050205107917,0.006086744523727433,-0.00047339452672363907,0.00446700629746823,27.996815494000202
1623,A,2548467728336.0,4.6341095,6.000624036883407,1.9035904290022474,114,1970-01-01 00:42:28.467728336,-0.24833679,-0.42900085,-0.1347351,14.386966125634167,0.5136793141058307,-94.99373626708984,-1.6872646808624268,-90.32269287109375,28047169.0,50354.0,0.1786596577712,-0.08276369564077295,0.08357069230397916,0.008315581722706437,-0.0020163719768608855,0.003927893840277304,28.04716949800013
1623,A,2548518082340.0,-2.4230194,6.1371750368834075,1.4484054290022477,114,1970-01-01 00:42:28.518082340,-1.8155823,-0.63160706,-0.60354614,13.766708469912592,2.0148286551029675,-95.08554077148438,-1.714547872543335,-90.28856658935547,28097523.0,50354.0,0.055668615447700014,-0.18787583271977296,0.08439319971697917,0.005899682934832246,-0.006813891405533464,0.004228826909411669,28.097523502000058
1623,A,2548568436344.0,-4.788559,4.973632036883407,3.1123001290022474,114,1970-01-01 00:42:28.568436344,-2.8083801,1.647232,-0.90527344,15.311337195212651,3.3793330775567894,-95.22357940673828,-1.7670263051986694,-90.36656951904297,28147877.0,50354.0,-0.18156590937680003,-0.21373241030377296,0.11482488383387916,-0.003169716169252951,-0.010111290734603815,0.005015713689559961,28.147877505999986
1623,A,2548618790348.0,4.1338654,6.021163036883408,0.08962552900224763,114,1970-01-01 00:42:28.618790348,-2.7035675,1.052002,-0.99038696,14.55084155568912,3.0654284799352753,-95.35726165771484,-1.8211838006973267,-90.41439056396484,28198231.0,50354.0,-0.016483220767199998,-0.21665324442777295,0.08061488229157918,-0.004986282949635489,-0.010835819629176131,0.004920586991740665,28.198231509999914
1623,A,2548669144352.0,1.6169434,8.569747036883408,3.4695541390022475,114,1970-01-01 00:42:28.669144352,-2.5261536,-2.4971924,-1.318634,11.057250625758787,3.788959952198851,-95.38091278076172,-2.0396006107330322,-90.2872085571289,28248585.0,50354.0,0.1447881131576,-0.12611385707277292,0.08960946650134918,0.0032303322757131015,-0.008629847314479244,0.004285738429559558,28.248585514000297
1623,A,2548719498356.0,-0.7720337,13.440032036883407,3.2987930290022476,114,1970-01-01 00:42:28.719498356,-1.9713287,-2.2857056,-1.1196289,6.126261469116845,3.219340896368426,-95.43585205078125,-1.8536217212677002,-90.16989135742188,28298939.0,50354.0,0.0212722915169,0.060671007740227066,0.17040667664884918,0.004180902808489887,-0.001647654617645507,0.006546426436092545,28.298939518000225
1623,A,2548769852359.0,-0.043395996,15.901137136883406,4.4026290890022475,114,1970-01-01 00:42:28.769852359,-0.9840851,-1.7112579,-0.7601166,3.6800735291231295,2.1153260575972634,-95.48795318603516,-1.8833078145980835,-90.0810546875,28349293.0,50354.0,-0.020530073456192004,0.245253416287927,0.19389870466499917,1.868682411444524e-05,0.0077022592237568355,0.009172116585338761,28.349293521000163
1623,A,2548820206363.0,-3.0136108,16.478880736883408,3.7927963290022473,114,1970-01-01 00:42:28.820206363,0.27920532,-0.87950134,-0.33068848,4.27361422864877,0.9802209386576113,-95.4754867553711,-1.8955661058425903,-90.0356674194336,28399647.0,50354.0,-0.07696626010289201,0.3217625100078271,0.20633622574909918,-0.0024546651900170585,0.014275759976348201,0.010076714843035755,28.39964752500009
1623,A,2548870560367.0,-1.4736176,15.699812736883407,1.6482956290022472,114,1970-01-01 00:42:28.870560367,1.7294617,0.3400421,0.34631348,4.553103062903586,1.7962737619775586,-95.3884048461914,-1.8799386024475098,-90.05424499511719,28450001.0,50354.0,-0.11297494942680002,0.3166937655890271,0.13699037222667917,-0.004782149832329056,0.016074413650702,0.008643933757236173,28.45000152900002
1623,A,2548920914371.0,2.4176636,3.9054860368834063,-12.103855970997753,114,1970-01-01 00:42:28.920914371,1.512619,0.80436707,1.1302948,22.313822720544366,2.0524592462137767,-95.31130981445312,-1.8274227380752563,-90.09957885742188,28500355.0,50354.0,0.023768246142,0.00013340722712703085,-0.2632396427304209,-0.00224595716860141,0.007976757729992312,-0.0031785778834727053,28.500355532999947
1623,A,2548971268375.0,3.792862,8.892119036883408,-1.1475419709977528,114,1970-01-01 00:42:28.971268375,-1.1308289,-3.0104523,-0.19836426,12.256182689891988,3.2219474594250985,-95.37266540527344,-1.8232885599136353,-89.94872283935547,28550709.0,50354.0,0.15636240303120003,-0.17126389705777298,-0.33363044598562086,0.004535149354233657,-0.004308552342466173,-0.015027398223603784,28.55070953700033
1623,A,2549021622379.0,-4.664734,6.9835040368834065,10.096705629002248,114,1970-01-01 00:42:29.021622379,0.7641449,2.0174866,-0.042556763,14.830441940959641,2.1577721583736795,-95.33125305175781,-1.8348100185394287,-90.04901123046875,28601063.0,50354.0,-0.021951121344000006,-0.09376863787177296,0.22531309341757916,0.003384072839038635,-0.0066727241319211785,-0.002727105985605586,28.601063541000258
1623,A,2549071976383.0,3.058899,12.415297336883407,4.396556099002248,114,1970-01-01 00:42:29.071976383,-0.10018921,-0.2556305,-0.8529968,7.7572328714960985,0.8960961840901422,-95.33679962158203,-1.8760861158370972,-90.03230285644531,28651417.0,50354.0,-0.04043010779500001,-0.005065577812672968,0.36489685052596915,-0.0015705722060326034,-0.0024883490482872955,0.014859715758666717,28.651417545000186
1623,A,2549122330387.0,-5.182892,13.135741036883406,3.8835556090022476,114,1970-01-01 00:42:29.122330387,1.2248077,0.5807953,1.2508545,8.215528235807424,1.8444820580996795,-95.2744369506836,-1.8165011405944824,-90.06702423095703,28701771.0,50354.0,-0.053475771761000004,0.14982929313632704,0.2084683724724292,-0.0023642683295814126,0.0036447160607036384,0.014435616219430675,28.701771549000114
1623,A,2549172684391.0,5.583603,8.237777036883408,1.4417373290022475,114,1970-01-01 00:42:29.172684391,1.7734528,1.7698517,-0.08648682,12.771188588965769,2.50698820177807,-95.18297576904297,-1.8288716077804565,-90.15479278564453,28752125.0,50354.0,0.010088700847000007,0.04465186454322704,0.13407490030013916,-0.001092356284401778,0.004896452106898133,0.008624211978594955,28.75212555300004
1623,A,2549223038395.0,-1.6165466,12.153243036883406,3.4669143690022475,114,1970-01-01 00:42:29.223038395,1.552124,0.9199066,0.44828796,7.531351398669388,1.859107086528509,-95.1038589477539,-1.810670256614685,-90.20263671875,28802479.0,50354.0,0.0998785789828,0.019915512397227046,0.12358512380065918,0.002768646204274875,0.0016256128492298126,0.006487106426785801,28.80247955699997
1623,A,2549273392399.0,2.21727,9.601668036883407,2.8045303290022474,114,1970-01-01 00:42:29.273392399,1.3236389,1.1051483,0.43693542,10.186308501466089,1.7788437997296662,-95.035888671875,-1.7937930822372437,-90.2596435546875,28852833.0,50354.0,0.015124413041800004,0.05425419610422702,0.15789616316165916,0.0028954303302033547,0.0018673707509411093,0.007086854361850289,28.852833561000352
1623,A,2549323746402.0,0.19142151,10.974746036883406,2.4559738290022475,114,1970-01-01 00:42:29.323746402,1.254242,0.4129181,0.13565063,8.619072761531449,1.327413065059632,-95.04832458496094,-1.7758874893188477,-90.27842712402344,28903187.0,50354.0,0.06064362614727001,0.024583177135227015,0.13244371318607917,0.001907611922663216,0.0019848885460497343,0.007309887066807009,28.90318756400029
1623,A,2549374100406.0,0.5711365,10.021575036883407,3.2274734490022476,114,1970-01-01 00:42:29.374100406,1.2456665,0.23271179,0.4015808,9.512074771420103,1.329325748398749,-94.92562866210938,-1.798585057258606,-90.2936782836914,28953541.0,50354.0,0.01919892301777,0.03515517567422702,0.1430921521183192,0.0020101958603282125,0.0015040325086836243,0.006937166480768837,28.95354156800022
1623,A,2549424454410.0,0.114730835,8.457549036883407,2.365550229002247,114,1970-01-01 00:42:29.424454410,1.0964661,0.39201355,0.53608704,11.125633987249115,1.2819133536588088,-94.91476440429688,-1.7433947324752808,-90.31411743164062,29003895.0,50354.0,0.017268081893295,-0.02822029319477297,0.14081555714111918,0.0009181297826458835,0.0001745995361852146,0.00714794439602488,29.003895572000147
1623,A,2549474808414.0,5.477112,9.122298036883407,4.399043279002248,114,1970-01-01 00:42:29.474808414,0.29211426,0.42486572,0.49142456,11.762902808854733,0.7122778384153614,-94.89945983886719,-1.7207303047180176,-90.33740234375,29054249.0,50354.0,0.140785827056795,-0.050861390223772965,0.17031217075102917,0.003979323265636416,-0.0019910395434287313,0.00783326280514062,29.054249576000075
1623,A,2549525162418.0,3.070755,8.904067036883408,3.6740982100022475,114,1970-01-01 00:42:29.525162418,-0.049865723,-0.1197052,0.23399353,11.038051770254738,0.2675236388045244,-94.90209197998047,-1.7085620164871216,-90.3324203491211,29104603.0,50354.0,0.215209647459,-0.03961940653777293,0.2032574832686662,0.008962898061884172,-0.0022780350200654414,0.00940536317925387,29.104603580000003
1623,A,2549575516422.0,2.4427185,6.426268036883407,1.8629867290022475,114,1970-01-01 00:42:29.575516422,-0.8158264,-0.25205994,-0.23735046,13.427781511152725,0.8862517526933164,-95.01570892333984,-1.9378139972686768,-90.31645965576172,29154957.0,50354.0,0.1388127223095,-0.10749735384777295,0.13940718750931616,0.008913221203661524,-0.003703958676226889,0.008627268416177261,29.15495758399993
1623,A,2549625870426.0,-1.778244,7.036223036883406,2.050029029002247,114,1970-01-01 00:42:29.625870426,-2.3912354,0.052627563,-0.5673065,12.699478801759268,2.4581727082413733,-95.13528442382812,-1.966303825378418,-90.31657409667969,29205311.0,50354.0,0.016729474486499998,-0.154524062235773,0.09851799773927916,0.0039160858887328925,-0.006596913192735437,0.0059902423890038844,29.205311588000313
1623,A,2549676224430.0,-1.0164185,4.904952036883406,3.6598922770022475,114,1970-01-01 00:42:29.676224430,-2.6101074,1.2319641,-1.1245117,14.636760245091224,3.09756723036974,-95.13646697998047,-1.8795713186264038,-90.3772964477539,29255665.0,50354.0,-0.0703612177625,-0.192826235167773,0.14375868872127515,-0.001350286400459852,-0.008745238437729078,0.0060998001350173765,29.25566559200024
1623,A,2549726578434.0,3.8013916,7.321166036883406,0.6269485290022474,114,1970-01-01 00:42:29.726578434,-2.3058472,-0.8536682,-1.3340302,13.121088802404389,2.7973768569771074,-95.25337982177734,-1.9421296119689941,-90.32872772216797,29306019.0,50354.0,0.07011726773870001,-0.185652225256773,0.10792979097277518,-6.14192974921216e-06,-0.009528952198108795,0.006336760853257106,29.30601959600017
1623,A,2549776932438.0,0.727005,10.619139036883407,2.8273727290022475,114,1970-01-01 00:42:29.776932438,-2.1373138,-2.6334686,-1.3075256,8.956230044432372,3.634953966904087,-95.36839294433594,-2.0628552436828613,-90.19129943847656,29356373.0,50354.0,0.1140114411982,-0.041786139157772975,0.08696944631277917,0.004635808504904333,-0.005726215700865024,0.0049069780971384026,29.356373600000097
1623,A,2549827286442.0,-0.36676025,13.367827036883407,3.8034622290022475,114,1970-01-01 00:42:29.827286442,-1.693924,-2.371292,-0.91104126,6.1510431853812975,3.0532606250469985,-95.29156494140625,-1.9607186317443848,-90.07481384277344,29406727.0,50354.0,0.009069882070750001,0.11045064483922704,0.1669445317376792,0.0030988184759423547,0.001728766259541969,0.00639279222537639,29.406727604000025
1623,A,2549877640445.0,-1.5802612,15.224211536883407,3.7197372490022476,114,1970-01-01 00:42:29.877640445,-0.6667175,-1.6904602,-0.52890015,4.564767725204021,1.892591683713186,-95.327880859375,-1.9792256355285645,-89.98815155029297,29457081.0,50354.0,-0.049020159046650004,0.22639255517172704,0.18941159325771917,-0.0010058281234222345,0.008480701246675791,0.008971978159009145,29.457081606999964
1623,A,2549927994449.0,-1.9700012,15.220427336883407,3.0051071290022473,114,1970-01-01 00:42:29.927994449,0.6130066,-0.47102356,-0.11859131,4.763028294331909,0.782115199012364,-95.29806518554688,-1.9829521179199219,-89.96414947509766,29507435.0,50354.0,-0.08938495644480002,0.2730354729248271,0.16931140690501917,-0.003484625592728237,0.012574099463386945,0.009031568975097264,29.507435611000346
1623,A,2549978348453.0,0.52537537,12.444273736883407,-1.9576614709977527,114,1970-01-01 00:42:29.978348453,1.5978088,0.29527283,0.429245,9.042659725770609,1.6806041400397205,-95.21759796142578,-1.962932825088501,-89.98081970214844,29557789.0,50354.0,-0.03637134452191001,0.20304497893422704,0.026371539331579163,-0.0031661663894388585,0.011986277536455406,0.004926709537398836,29.557789615000274
1623,A,2550028702457.0,4.057495,5.938353036883408,-8.372150970997753,114,1970-01-01 00:42:30.028702457,1.0490417,-0.47795105,0.58522034,18.586567660553197,1.2928296642963868,-95.1658706665039,-1.9316290616989136,-89.95965576171875,29608143.0,50354.0,0.11538292730549002,-0.030649805716872952,-0.26007368785212087,0.001989274619742194,0.004340393276093324,-0.005883918993301679,29.608143619000202
1623,A,2550079056461.0,-0.120407104,5.502684036883407,-0.2076919709977525,114,1970-01-01 00:42:30.079056461,-0.47821045,-0.71603394,-0.31246948,14.529963046816144,0.9159841776213149,-95.1910400390625,-1.9439594745635986,-89.92257690429688,29658497.0,50354.0,0.09912406195759202,-0.20541820959377297,-0.21601470575062084,0.005400642468676616,-0.005943484421476132,-0.011986477485736228,29.65849762300013
1623,A,2550129410465.0,-4.4498596,10.422438036883406,9.050944529002248,114,1970-01-01 00:42:30.129410465,0.4347992,1.6558075,-0.07040405,11.459572478311546,1.7133900757367813,-95.16649627685547,-1.9549351930618286,-90.00475311279297,29708851.0,50354.0,-0.115065604806608,-0.09252240154877299,0.2226465696528792,-0.0004013602243096755,-0.00750125076673588,0.00016697043746715892,29.708851627000058
1623,A,2550179764469.0,1.7426453,12.375197036883407,7.1749984290022475,114,1970-01-01 00:42:30.179764469,0.4144287,0.1923523,0.105163574,8.136759375401256,0.46883891902809594,-95.14543914794922,-1.9505680799484253,-90.01480865478516,29759205.0,50354.0,-0.0681595344311,0.08050685825222702,0.4085205658536792,-0.004613059330587774,-0.00030251533357713797,0.015890894970648623,29.759205630999986
1623,A,2550230118473.0,0.7642517,8.617491536883406,3.4799758990022474,114,1970-01-01 00:42:30.230118473,1.5232849,0.77207947,0.6674957,10.917249717632792,1.833590495198418,-94.96391296386719,-1.972423791885376,-90.05986022949219,29809559.0,50354.0,0.063116145769,0.03506372022172702,0.2682602886561692,-0.0001269773963456916,0.002909720454238741,0.017039311573994454,29.809559634999914
1623,A,2550280472477.0,-0.08454895,11.045424036883407,1.2333175290022473,114,1970-01-01 00:42:30.280472477,1.6323242,1.2147522,0.15142822,8.804008788828835,2.040351858656454,-94.88020324707031,-1.9700900316238403,-90.12106323242188,29859913.0,50354.0,0.017112876136750003,0.0015840254007270288,0.11866658863686916,0.0020199260845210677,0.0009226802915365257,0.009741657989606826,29.859913639000297
1623,A,2550330826481.0,0.5381317,10.569289036883408,3.2239791890022476,114,1970-01-01 00:42:30.330826481,1.500824,1.4816437,0.55770874,8.964156505520808,2.1814627595716773,-94.75131225585938,-1.985333800315857,-90.19906616210938,29910267.0,50354.0,0.01141985289675,0.05072443105822707,0.11222135946919916,0.0007183685188764296,0.0013169700082670875,0.005813065869466482,29.910267643000225
1623,A,2550381180484.0,1.8283844,10.670821036883407,2.9073288290022474,114,1970-01-01 00:42:30.381180484,1.3426971,0.72052,0.3045044,9.054552475648038,1.5539329143717144,-94.68656158447266,-2.2135932445526123,-90.23624420166016,29960621.0,50354.0,0.05958177584970001,0.041293051327227055,0.15436794196929918,0.001787608006949372,0.0023167241540185787,0.006711918842317074,29.960621646000163
1623,A,2550431534488.0,0.61849976,10.757506036883408,2.4408371290022473,114,1970-01-01 00:42:30.431534488,1.2806549,0.20735168,0.2569275,8.8557991182175,1.3225291801503218,-94.70397186279297,-2.2465057373046875,-90.24447631835938,30010975.0,50354.0,0.06160520249632,0.046031790736227055,0.13465077432467917,0.0030511245538177457,0.0021985775486315843,0.007276624220133494,30.01097565000009
1623,A,2550481888492.0,0.3023224,9.593322036883407,2.4276535290022476,114,1970-01-01 00:42:30.481888492,1.1685638,0.25050354,0.5054779,9.994619367535064,1.2976136888964225,-94.70530700683594,-2.209562301635742,-90.25667572021484,30061329.0,50354.0,0.02318353952232,0.01890359841322706,0.12257398929657917,0.002134726157803299,0.0016348782926158064,0.006476147873692422,30.06132965400002
1623,A,2550532242496.0,1.9360657,8.385955036883407,2.6585800290022474,114,1970-01-01 00:42:30.532242496,0.8427887,0.40544128,0.52745056,11.332524002470256,1.073722272107663,-94.67383575439453,-2.3750550746917725,-90.27867126464844,30111683.0,50354.0,0.0563558971937,-0.04080494111377295,0.12805610228987918,0.002002564398199236,-0.0005514101051716438,0.006310113815872261,30.111683657999947
1623,A,2550582596500.0,4.5191956,8.850066036883407,3.8870956490022475,114,1970-01-01 00:42:30.582596500,0.23330688,0.17349243,0.35031128,11.5770972518486,0.45524687414399423,-94.66175842285156,-2.3583052158355713,-90.28874969482422,30162037.0,50354.0,0.1625241137501,-0.059517897425772966,0.16480047654511917,0.005510742035532053,-0.0025258281059101473,0.007373250085328755,30.16203766200033
1623,A,2550632950504.0,3.4328766,7.829451036883407,3.6234848060022475,114,1970-01-01 00:42:30.632950504,-0.4892273,-0.39349365,0.022979736,12.171154876751352,0.6282584435741729,-94.68701934814453,-2.355555534362793,-90.26921081542969,30212391.0,50354.0,0.2002093217794,-0.07352899863377298,0.1890938841156482,0.009132539706326222,-0.0033497217020911885,0.00890999831835614,30.212391666000258
1623,A,2550683304508.0,-0.022994995,6.400985036883407,3.0790817290022474,114,1970-01-01 00:42:30.683304508,-1.828659,-0.26605225,-0.52778625,13.11852732722956,1.9218053657173833,-94.7259292602539,-2.319427967071533,-90.2559814453125,30262745.0,50354.0,0.08585058916908501,-0.13518951097077297,0.16875051765180818,0.007202130377950008,-0.005254905916313654,0.00900944850329925,30.262745670000186
