Subject-id_accel,Activity_accel,Timestamp_accel,accel_x,accel_y,accel_z,Segment_accel,DateTime,gyro_x,gyro_y,gyro_z,accel_magnitude,gyro_magnitude,Roll,Pitch,Yaw,Time_Difference,Difference_Microseconds,vx,vy,vz,dx,dy,dz,Time_diff
1612,A,3967244903572.0,3.9565197005185575,14.70617034585202,2.3904595404999442,60,1970-01-01 01:06:07.244903572,-0.6060486,-1.4789124,0.21739197,5.583797566339808,1.612989789507733,-98.34175109863281,18.526376724243164,168.1263885498047,15005502.0,50354.0,0.18106031999511146,0.24630692564523246,0.1389899455036042,0.011479387076657542,0.00980172612302582,0.0047115677523353145,15.005502119000084
1612,A,3967295257576.0,6.400184215018558,14.902413545852017,0.6371789104999439,60,1970-01-01 01:06:07.295257576,-0.25778198,0.12736511,-0.1725769,5.27648239966498,0.33534490732921907,-98.3563232421875,18.51691246032715,168.12107849121094,15055856.0,50354.0,0.260750734481478,0.2519861166414325,0.0762268532808242,0.011123476918557093,0.012545523925651364,0.0054185133429955545,15.055856123000012
1612,A,3967345611580.0,5.423270760518557,11.617424945852019,0.9421258104999441,60,1970-01-01 01:06:07.345611580,-0.35594177,0.8589325,-1.7583008,8.363586152922913,1.9889900166837498,-98.38404846191406,18.423683166503906,168.0897674560547,15106210.0,50354.0,0.29767912591909795,0.1742207737056325,0.039762154960614186,0.014059588595305301,0.010730610878268055,0.002920255260494694,15.106210127000395
1612,A,3967395965583.0,-4.632225099481442,7.295113945852018,2.019579410499944,60,1970-01-01 01:06:07.395965583,-1.1495056,0.27841187,-3.0292664,16.624899236226884,3.2519734340792543,-98.4387435913086,18.27181053161621,168.09860229492188,15156564.0,50354.0,0.019916156607931453,-0.01730820832356751,0.07456685234911418,0.00799609642818302,0.003950587658624251,0.0028784614170370313,15.156564130000334
1612,A,3967446319587.0,-2.2410660994814418,10.310387945852018,1.919725910499944,60,1970-01-01 01:06:07.446319587,-0.23382568,-2.5603027,-1.9423523,12.796429011295183,3.222197514363457,-98.4040298461914,18.194490432739258,168.2469024658203,15206918.0,50354.0,-0.17304885251628854,-0.05021547887256754,0.09917989006681419,-0.0038554218848847067,-0.0017000438725370923,0.0043744217338058285,15.206918134000261
1612,A,3967496673591.0,-3.573860599481442,3.4760369458520195,3.434160710499944,60,1970-01-01 01:06:07.496673591,0.4333191,-1.3034363,-0.1506195,19.06257705084389,1.3818096339086474,-98.36083221435547,18.196542739868164,168.31593322753906,15257272.0,50354.0,-0.14640240949978853,-0.1463683805015675,0.1347948034569142,-0.008042824423778773,-0.004949391827462598,0.005890780858846909,15.25727213800019
1612,A,3967547027595.0,4.003989800518557,10.307030945852018,1.464998710499944,60,1970-01-01 01:06:07.547027595,1.0415955,2.2747498,1.0091095,9.79678676415186,2.6977230808981374,-98.34162902832031,18.1280574798584,168.1917724609375,15307626.0,50354.0,0.010829362894511443,-0.1464528996905675,0.1233461367425142,-0.003413322594381061,-0.007372361371397383,0.006499214451401009,15.307626142000117
1612,A,3967597381599.0,8.358024200518557,15.297753545852018,1.281130310499944,60,1970-01-01 01:06:07.597381599,1.4315948,2.6936188,0.62435913,5.067106683019513,3.1136586573217744,-98.31517028808594,18.139436721801758,168.0467987060547,15357980.0,50354.0,0.31123842650411143,0.15118245914763248,0.06913929036171418,0.008108700733689128,0.00011907611845052529,0.004846205598203158,15.357980146000045
1612,A,3967647735603.0,8.548621700518558,7.883400945852017,-3.5401740895000557,60,1970-01-01 01:06:07.647735603,0.9192505,4.2812347,-0.21902466,13.595783932785414,4.384286012559223,-98.3379898071289,18.09760284423828,167.8256072998047,15408334.0,50354.0,0.4256586238504115,0.09016272663763246,-0.05687594522388582,0.018552857036775824,0.006076347742515615,0.0003087542405351047,15.408334150000428
1612,A,3967698089607.0,9.492286300518558,10.875786945852019,-0.33320378950005614,60,1970-01-01 01:06:07.698089607,-0.25149536,1.295227,-0.86628723,9.876564931861342,1.578390465788362,-98.36942291259766,18.045339584350586,167.76483154296875,15458688.0,50354.0,0.4542159407421115,-0.021169126450567528,-0.09752003485958582,0.022152601912745953,0.001737051871909734,-0.0038872275905615654,15.458688154000356
1612,A,3967748443611.0,5.268821300518558,11.149407945852017,-0.19878908950005592,60,1970-01-01 01:06:07.748443611,1.1151428,-2.662201,-1.8315735,9.144543623389653,3.418408857157828,-98.26654815673828,17.973981857299805,167.91725158691406,15509042.0,50354.0,0.37164040607131144,0.06105913178843248,-0.013393984714585822,0.020792585243721552,0.001004310664391426,-0.0027924822708189196,15.509042158000284
1612,A,3967798797615.0,2.7315593005185574,9.062264945852018,1.168840910499944,60,1970-01-01 01:06:07.798797615,-0.68315125,-3.39859,-2.1723938,11.380882113101594,4.091015086840307,-98.2528305053711,17.910810470581055,168.10682678222656,15559396.0,50354.0,0.20142558239231145,0.015400088394432458,0.024422994697314182,0.014428082391548634,0.0019250137865439907,0.0002776773843351519,15.559396162000212
1612,A,3967849151619.0,1.3748699005185578,9.801766945852018,3.504137510499944,60,1970-01-01 01:06:07.849151619,-1.650589,-1.0563049,-2.0401459,11.131351530469162,2.828854782764895,-98.31378173828125,17.81747817993164,168.17718505859375,15609750.0,50354.0,0.10338756799451146,-0.01852946906256753,0.11765157770551418,0.00767428068728904,-7.878841708163673e-05,0.00357701150938601,15.60975016600014
1612,A,3967899505622.0,-0.013023799481442389,10.798836945852019,2.672655590499944,60,1970-01-01 01:06:07.899505622,-0.6689453,1.5030365,-2.0235138,10.978294609544191,2.607913847026926,-98.3663330078125,17.70646858215332,168.11451721191406,15660104.0,50354.0,0.034287199285811455,0.02519220418143249,0.15551311990387418,0.0034662376158166902,0.0001677476820876631,0.00687746759171157,15.660104169000078
1612,A,3967949859626.0,-1.2769245994814424,9.433769945852019,0.5769982104999438,60,1970-01-01 01:06:07.949859626,-0.11439514,1.026413,-0.8917999,13.017765222287899,1.3645207789786968,-98.38618469238281,17.654882431030273,168.0680389404297,15710458.0,50354.0,-0.03247703084068855,0.015927143712432514,0.08181653374777417,4.557461094285937e-05,0.0010352618219238393,0.0059752486899875504,15.710458173000006
1612,A,3968000213630.0,1.474906500518558,9.369438945852018,2.106356150499944,60,1970-01-01 01:06:08.000213630,-0.13441467,0.6767731,0.7257385,11.474724741746613,1.0013917828587715,-98.29814910888672,17.87966537475586,168.0600128173828,15760812.0,50354.0,0.004984590322411458,-0.020060809733567508,0.06755881274689418,-0.0006921771749286624,-0.00010407330941411575,0.0037608230986962655,15.760812177000389
1612,A,3968050567634.0,1.8924329005185578,8.964653945852017,1.0786614104999441,60,1970-01-01 01:06:08.050567634,0.515625,0.6731415,1.1437988,11.779915393427887,1.4238203238220368,-98.3059310913086,18.045923233032227,168.0101318359375,15811166.0,50354.0,0.08477950409991147,-0.03187174326556755,0.08018918713329419,0.0022599906052708247,-0.0013075058868592235,0.003719851392983503,15.811166181000317
1612,A,3968100921638.0,1.2679973005185579,10.124321945852017,0.9538598104999441,60,1970-01-01 01:06:08.100921638,0.58766174,-1.1339722,2.1239471,11.029058845364222,2.478384666396861,-98.32423400878906,18.399648666381836,168.0340576171875,15861520.0,50354.0,0.07957015117151146,-0.012866053974567556,0.051172786781114185,0.004137831270768615,-0.0011263635211148815,0.00330730041724306,15.861520185000245
1612,A,3968151275642.0,2.0523599005185575,5.059487945852018,5.520006710499944,60,1970-01-01 01:06:08.151275642,1.6144562,-1.6850433,3.8029327,15.522234829771337,4.461853523517173,-98.22477722167969,18.59994125366211,168.09312438964844,15911874.0,50354.0,0.08359663325051146,-0.11118641835656755,0.16299253739921418,0.0041080501313932715,-0.0031232690958809886,0.005392040366888127,15.911874189000173
1612,A,3968201629646.0,6.491797984518557,3.5036709458520185,3.582598210499944,60,1970-01-01 01:06:08.201629646,2.2776337,4.246414,4.0654907,16.22818946472362,6.304590530919369,-98.19178009033203,18.77081871032715,167.8406524658203,15962228.0,50354.0,0.21511626307157947,-0.2778745485835675,0.22917628409601418,0.0075206945907012835,-0.009795387964651781,0.009873634418785365,15.9622281930001
1612,A,3968251983650.0,6.782538950518558,9.850533945852018,-7.4046000895000565,60,1970-01-01 01:06:08.251983650,-0.65930176,3.1833496,1.9908295,14.20061331500903,3.8120592315216597,-98.28324890136719,18.846527099609375,167.65916442871094,16012581.999999998,50353.99999999814,0.3342079810134171,-0.1572503834415617,-0.09622654130758226,0.013830336493327447,-0.010955140413596274,0.0033472756741842265,16.01258219700003
1612,A,3968302337654.0,6.195960580518557,14.973885945852018,6.150103110499944,60,1970-01-01 01:06:08.302337654,-2.1840973,-3.531723,0.5348053,5.803982189598602,4.186808459137387,-98.33405303955078,18.898508071899414,167.83975219726562,16062936.0,50354.00000000186,0.32675968269293354,0.13153521961343734,-0.031584470440287005,0.016641182869135407,-0.0006474306797007109,-0.0032178978427762238,16.06293620100041
1612,A,3968352691658.0,5.094245500518557,13.297005945852018,2.375780590499944,60,1970-01-01 01:06:08.352691658,-0.340271,-1.4522552,0.3207245,6.560234222786069,1.5256781194827072,-98.2109146118164,18.739845275878906,167.9507598876953,16113290.0,50354.0,0.28425351850227143,0.2183070451574325,0.2146561739400742,0.015383479366491676,0.00880797870013619,0.004609196279014142,16.11329020500034
1612,A,3968403045662.0,6.590446060518557,14.137566945852019,0.642488910499944,60,1970-01-01 01:06:08.403045662,-0.14945984,0.23286438,-0.44551086,5.983359824087459,0.5244463648682767,-98.22120666503906,18.716135025024414,167.94195556640625,16163644.000000002,50354.00000000186,0.2941854794322423,0.19725104169443977,0.07599097122667699,0.01456335865099779,0.010462505952669975,0.007317623173863565,16.163644209000267
1612,A,3968453399665.0,0.17732960051855784,9.983483945852019,10.934465910499945,60,1970-01-01 01:06:08.453399665,-0.26306152,1.4846802,-2.245987,14.120525158091262,2.7051680657115833,-98.25373077392578,18.594356536865234,167.8813934326172,16213998.0,50353.99999999814,0.17039228781792515,0.11382649830042829,0.2914729915283034,0.011696674446057034,0.007831999224450504,0.0092516401902818,16.213998212000206
1612,A,3968503753669.0,-8.747994099481442,7.220894945852018,3.194948680499944,60,1970-01-01 01:06:08.503753669,-1.0866394,-2.2207184,-2.4521484,19.633379471931352,3.4821555354914118,-98.26531219482422,18.48897361755371,168.015869140625,16264351.999999998,50353.99999999814,-0.21578362009038055,-0.060314552643565264,0.35573627115759104,-0.0011428175726235672,0.0013472702558027906,0.01629478760664216,16.264352216000134
1612,A,3968554107673.0,2.2426372005185575,14.315896245852018,2.470003610499944,60,1970-01-01 01:06:08.554107673,-0.34695435,-1.7198944,-0.50123596,6.816926021337056,1.8247332834505992,-98.25299072265625,18.476520538330078,168.10940551757812,16314706.000000002,50354.000000003725,-0.16378537064520066,0.0487625918335361,0.14262650383051473,-0.009556408479750434,-0.0002908437173141257,0.012547279585876467,16.314706220000062
1612,A,3968604461677.0,0.6563335005185573,4.983773445852018,3.9918237104999443,60,1970-01-01 01:06:08.604461677,1.0332489,-0.19371033,-1.0116425,15.85156158772742,1.458954258743628,-98.19573211669922,18.427846908569336,168.12713623046875,16365060.0,50353.99999999814,0.07298738534000875,-0.007561416171967241,0.16268942646080817,-0.0022860208760287323,0.0010373219996312809,0.007686939176944351,16.365060224000445
1612,A,3968654815681.0,3.4489666005185575,6.332466945852017,0.6186089104999439,60,1970-01-01 01:06:08.654815681,0.7484741,0.8390045,1.2771454,13.874020685081419,1.7015411843773338,-98.20305633544922,18.331085205078125,168.06495666503906,16415413.999999998,50353.99999999814,0.1033591406438076,-0.20856021565805982,0.1160768620989099,0.00443987648469438,-0.00544129432458439,0.007018498847067762,16.415414228000373
1612,A,3968705169685.0,6.576591070518558,16.432702245852017,0.8871484104999441,60,1970-01-01 01:06:08.705169685,0.83680725,1.425766,0.2919922,3.8042309424019503,1.6787836386114212,-98.18529510498047,18.33537483215332,167.98843383789062,16465768.0,50354.00000000186,0.2524134654837108,0.07968946473953538,0.03791045207081558,0.008957286904472861,-0.0032445788958758103,0.0038769386088513217,16.4657682320003
1612,A,3968755523689.0,8.150001100518558,11.724297945852019,1.791674110499944,60,1970-01-01 01:06:08.755523689,1.205246,2.830536,-0.47201538,8.241994870323937,3.112450881021023,-98.1702880859375,18.291887283325195,167.8444061279297,16516122.0,50354.0,0.37077141109020145,0.2154395938265325,0.06744471461121418,0.015689925637501392,0.007430464307517891,0.0026525270315534634,16.51612223600023
1612,A,3968805877693.0,9.245200700518557,7.690819945852018,-4.419660089500056,60,1970-01-01 01:06:08.805877693,-0.15904236,4.8716583,-0.28588867,14.3129675497115,4.8826305815479865,-98.25714874267578,18.242938995361328,167.59268188476562,16566476.000000002,50354.00000000186,0.4379589957447277,-0.004654776840567663,-0.06616480299328827,0.020361405452883764,0.005306929337255833,3.222433480452192e-05,16.566476240000156
1612,A,3968856231697.0,6.227881970518558,12.409661545852018,0.7019982104999438,60,1970-01-01 01:06:08.856231697,0.5463104,-0.7932129,-1.614685,7.601873513612908,1.8801195193656093,-98.21311950683594,18.168716430664062,167.64617919921875,16616830.0,50353.99999999814,0.38956580240868705,0.012600622516632012,-0.09359957312758235,0.020834591843107753,0.00020005255658626475,-0.004022387697595011,16.616830244000084
1612,A,3968906585701.0,3.5687329005185577,10.484612945852017,-0.6475958895000558,60,1970-01-01 01:06:08.906585701,0.53460693,-3.6572418,-1.5085602,10.250026188391299,3.992114230617068,-98.12356567382812,18.12003517150879,167.84793090820312,16667183.999999998,50353.99999999814,0.24664937260809233,0.08293994887762939,0.001369687235814131,0.01601798946139686,0.00240542496599323,-0.0023220718370969627,16.667184248000012
1612,A,3968956939705.0,1.870582200518558,9.403694945852019,2.1717095404999442,60,1970-01-01 01:06:08.956939705,-1.4402924,-1.7836151,-2.6621552,11.275590220640401,3.5132314656641697,-98.04959106445312,18.140098571777344,167.9951171875,16717538.000000002,50354.000000003725,0.13694563629882156,0.0072587277894330185,0.03837260939122703,0.009657771539250085,0.0022709320824467983,0.0010005918021790893,16.717538252000395
1612,A,3969007293708.0,-0.44527479948144233,9.617134945852017,2.202349210499944,60,1970-01-01 01:06:09.007293708,-1.1702423,1.6187897,-1.8115692,12.208937236639379,2.696614562729353,-98.13011169433594,18.03902816772461,167.9242401123047,16767892.0,50353.99999999814,0.03588496443591013,-0.014581765816566984,0.1101256771739201,0.004351356034698179,-0.00018437212840914503,0.003738741360850571,16.767892255000334
1612,A,3969057647712.0,-1.841179099481442,9.152581445852018,0.7386041104999439,60,1970-01-01 01:06:09.057647712,-0.9817505,2.3794556,-2.035492,13.550003138464238,3.2815957518691437,-98.21273040771484,17.9213809967041,167.8156280517578,16818246.0,50354.0,-0.057566049814188544,-0.02090405040606754,0.07404438176281418,-0.0005458646865689156,-0.0008934263950372695,0.004636849573850159,16.81824625900026
1612,A,3969108001716.0,0.3793409005185575,10.200951945852019,3.285295970499944,60,1970-01-01 01:06:09.108001716,-0.85365295,0.46714783,0.54330444,11.26406265361792,1.1145089360974747,-98.26416778564453,17.94491958618164,167.78724670410156,16868600.0,50354.0,-0.03680470033528855,-0.0062052897970675,0.10130973233933419,-0.002375972376513385,-0.0006825318582943309,0.004414890530749789,16.86860026300019
1612,A,3969158355720.0,0.06014190051855728,10.539757945852019,3.507524970499944,60,1970-01-01 01:06:09.158355720,1.3674927,0.16926575,1.0031891,11.169270607399188,1.7044282176246561,-98.20084381103516,17.99334716796875,167.77088928222656,16918954.0,50354.0,0.01106485848171144,0.028719652943432518,0.17102285283155422,-0.000648051998347511,0.0005668441209360322,0.0068565174968474585,16.918954267000117
1612,A,3969208709724.0,0.05368760051855759,11.445763945852018,-0.7982000895000558,60,1970-01-01 01:06:09.208709724,1.8529663,-0.9564514,2.5420532,11.023804457678187,3.28790478285608,-98.09861755371094,18.125944137573242,167.80172729492188,16969308.0,50354.0,0.0028658853476114412,0.06006028466743251,0.06821267252893419,0.0003507343373908622,0.002235212489228749,0.0060232328220010175,16.969308271000045
1612,A,3969259063728.0,1.5513989005185573,4.046913945852017,1.775866010499944,60,1970-01-01 01:06:09.259063728,2.2484589,-3.74086,5.147888,16.429548135574958,6.749100075205079,-97.82782745361328,18.383289337158203,167.99310302734375,17019662.0,50354.0,0.04041126283661144,-0.10341004872056754,0.024614694893014186,0.0010895887598341796,-0.0010914170095657808,0.0023371146295823944,17.019662275000428
1612,A,3969309417732.0,3.9350353005185577,1.3798759458520173,-0.454022889500056,60,1970-01-01 01:06:09.309417732,1.619461,2.3043518,3.2051544,18.782106220782197,4.266814488177755,-97.79222869873047,18.526405334472656,167.8498077392578,17070016.0,50354.0,0.13813195387951147,-0.3568389108965676,0.03328004425741418,0.004495182567261827,-0.011587688056280613,0.001457615847590335,17.070016279000356
1612,A,3969359771736.0,5.852668350518558,10.621269945852019,-2.880094089500056,60,1970-01-01 01:06:09.359771736,-1.9601746,3.6075287,1.8139648,10.736526186065984,4.4885427567806335,-97.95438385009766,18.591537475585938,167.64822387695312,17120370.0,50354.0,0.2464250148221615,-0.19131634988456753,-0.08394306318028583,0.009681990801002021,-0.013800905000686639,-0.0012755428274211394,17.120370283000284
1612,A,3969410125740.0,8.144523200518558,16.87532924585202,4.6498895104999445,60,1970-01-01 01:06:09.410125740,-4.6513367,-1.2818298,0.84228516,3.8106245466439934,4.897699972812867,-98.16755676269531,18.642221450805664,167.70895385742188,17170724.0,50354.0,0.3524072916804615,0.19881267784953258,0.044558139314514196,0.01507680098081654,0.00018873504917392507,-0.0009915942281685324,17.170724287000212
1612,A,3969460479744.0,7.034858300518557,13.791695945852018,4.292254010499944,60,1970-01-01 01:06:09.460479744,0.25906372,-3.5907288,-0.20748901,6.138706141778426,3.6060364689559723,-98.09412384033203,18.657344818115234,167.89808654785156,17221078.0,50354.0,0.3821712880516115,0.27863449325153256,0.2251363474282142,0.018494484901914403,0.012020687426811519,0.006790098092721673,17.22107829100014
1612,A,3969510833747.0,6.992789800518557,14.139916645852018,0.20810171049994386,60,1970-01-01 01:06:09.510833747,0.14678955,0.05105591,-0.30949402,6.177562480028894,0.3463241636832333,-98.08689880371094,18.641666412353516,167.89772033691406,17271432.0,50354.0,0.3531740962398115,0.20976501022133245,0.11330545598761418,0.01851379074030516,0.012296434298936322,0.008520949284600312,17.27143229400008
1612,A,3969561187751.0,1.897376600518558,8.417977945852018,7.095506910499944,60,1970-01-01 01:06:09.561187751,-0.3420868,1.5874176,-2.2528229,12.891806489882482,2.7770720254052486,-98.12508392333984,18.518959045410156,167.83157348632812,17321786.0,50354.0,0.22382771947891147,0.07447091213533248,0.1838829542509142,0.01452717471435029,0.0071562078171737535,0.007482312604575429,17.321786298000006
1612,A,3969611541755.0,-9.422737099481443,5.544014945852018,4.400484610499944,60,1970-01-01 01:06:09.611541755,-0.40097046,-2.3287506,-2.069046,21.294565448985264,3.140829192571441,-98.10173797607422,18.43297576904297,167.968505859375,17372140.0,50354.0,-0.18946600128238858,-0.14194810496556753,0.2894345785242142,0.000865124979033857,-0.001698873283886828,0.01191671552267941,17.37214030200039
1612,A,3969661895759.0,-0.49109709948144253,6.223168945852018,2.299288280499944,60,1970-01-01 01:06:09.661895759,0.06585693,-0.80215454,-0.12272644,15.153484435095436,0.8141565085084748,-98.08491516113281,18.432544708251953,168.0112762451172,17422494.0,50354.0,-0.24960060362728856,-0.19720681115856753,0.1686801820767042,-0.011054379911810942,-0.008538903323257348,0.011533955327649325,17.422494306000317
1612,A,3969712249763.0,0.6686319005185579,7.628731945852017,1.455019510499944,60,1970-01-01 01:06:09.712249763,0.5296173,0.25926208,0.39511108,13.439700592225542,0.7098056608142701,-98.0228500366211,18.61956024169922,168.0078125,17472848.0,50354.0,0.004469793685711454,-0.14471989124956755,0.09452220725400418,-0.006171658401899087,-0.008608688586529616,0.006626646556179246,17.472848310000245
1612,A,3969762603767.0,6.015082900518557,14.384804945852018,1.348665710499944,60,1970-01-01 01:06:09.762603767,0.4375763,1.1595001,0.39039612,5.536564500001227,1.2993546978145554,-98.02124786376953,18.630802154541016,167.94435119628906,17523202.0,50354.0,0.16827588754571146,0.06076561832243246,0.07058838280911418,0.004349218016363535,-0.00211371672948648,0.004156989326019131,17.523202314000173
1612,A,3969812957771.0,7.3955455005185575,12.00647854585202,-1.0619787895000559,60,1970-01-01 01:06:09.812957771,1.3393097,0.44651794,-0.8552704,8.68033117128084,1.6506411482730259,-97.959716796875,18.585346221923828,167.9272918701172,17573556.0,50354.0,0.3376393912529115,0.1709841444706325,0.007217916610014184,0.012737428974312931,0.005834763777840997,0.001958929200475395,17.5735563180001
1612,A,3969863311775.0,5.219474400518558,7.241875945852017,1.246355510499944,60,1970-01-01 01:06:09.863311775,0.39385986,2.3007355,-1.1061554,12.622818617046947,2.5830387529475107,-97.97569274902344,18.514629364013672,167.81521606445312,17623910.0,50354.0,0.3176083560484115,-0.008853378962367507,0.004642052704614184,0.01649717253380541,0.004081966283201588,0.0002985984474343984,17.62391032200003
1612,A,3969913665779.0,6.745338020518558,12.440331645852018,-0.06255868950005583,60,1970-01-01 01:06:09.913665779,0.10229492,3.5219574,-0.9181366,7.825487821655063,3.6411018928796985,-98.02671813964844,18.44465446472168,167.63809204101562,17674264.0,50354.0,0.3012380823244515,0.0020697405363324563,0.029804452562314187,0.01558069677891357,-0.0001707916646522845,0.0008672596631054556,17.67426432600041
1612,A,3969964019783.0,3.7009502005185575,11.052819945852018,-1.5102820895000564,60,1970-01-01 01:06:09.964019783,0.39157104,-0.17504883,-1.9591675,10.043442065701475,2.0055690627119525,-97.99972534179688,18.348875045776367,167.66162109375,17724618.0,50354.0,0.26300619854105145,0.09801787762433249,-0.03959941229288583,0.014205978259350768,0.0025199059624310613,-0.0002466077011366022,17.72461833000034
1612,A,3970014373787.0,2.1440502005185573,9.484413945852017,0.29625181049994387,60,1970-01-01 01:06:10.014373787,-0.62857056,-2.6493073,-1.4997253,11.356739151640145,3.1085536981355317,-98.1251449584961,18.385852813720703,167.76638793945312,17774972.0,50354.0,0.14715957509691147,0.02359673769143247,-0.030565640334385833,0.010326743682882993,0.003061891169805015,-0.0017665455299968186,17.774972334000267
1612,A,3970064727790.0,1.9449689005185578,10.953942945852019,2.341448310499944,60,1970-01-01 01:06:10.064727790,-1.0178833,-1.7889404,-1.6581268,9.834879977715598,2.6430623624972016,-98.02294158935547,18.5297908782959,167.90994262695312,17825326.0,50354.0,0.10294923390681145,0.02110731146243247,0.06640937594641419,0.006296989484286732,0.0011255138455468579,0.0009024377315040381,17.825326337000206
1612,A,3970115081794.0,1.2989879005185578,11.187889945852017,2.874056340499944,60,1970-01-01 01:06:10.115081794,-0.74954224,1.5436096,-0.89530945,9.931552625233035,1.935490423126831,-98.08389282226562,18.47465705871582,167.83596801757812,17875680.0,50354.0,0.08167310037971147,0.06399572671443247,0.1313107605982242,0.004648236510331788,0.002142639192178929,0.004977999877784361,17.875680341000134
1612,A,3970165435798.0,2.0582959005185577,10.158318945852018,1.197557910499944,60,1970-01-01 01:06:10.165435798,0.7126007,2.528244,-0.24407959,10.6145897936803,2.638066020294234,-98.12493896484375,18.585439682006836,167.69456481933594,17926034.0,50354.0,0.08452633425871146,0.04396430126643248,0.10251103199742419,0.0041844031658915745,0.0027181096244742373,0.00588693127218064,17.926034345000062
1612,A,3970215789802.0,0.5197519005185578,8.820183945852017,-0.8635077895000558,60,1970-01-01 01:06:10.215789802,0.6297302,0.6702423,-0.38949585,12.907854354680893,0.9987451540150533,-98.10368347167969,18.561429977416992,167.66246032714844,17976388.0,50354.0,0.06490750948671146,-0.01564743269556753,0.008410379896414188,0.0037622958839785134,0.0007129338000086669,0.002792668387251169,17.976388349000445
1612,A,3970266143806.0,-0.6888660994814426,8.875435945852018,0.18226861049994403,60,1970-01-01 01:06:10.266143806,-0.35580444,-0.74568176,0.26646423,13.209528268798719,0.8681251479999321,-98.10970306396484,18.579879760742188,167.69943237304688,18026742.0,50354.0,-0.004257788187288551,-0.04794657798656753,-0.017151558809685816,0.0015269780331555708,-0.0016011064069441146,-0.00022007666149943976,18.026742353000373
1612,A,3970316497810.0,0.39127290051855734,8.631859945852018,2.1673913104999443,60,1970-01-01 01:06:10.316497810,-0.38464355,-1.5028687,2.397873,12.618412665552968,2.8559341578764195,-98.10954284667969,18.709171295166016,167.76007080078125,18077096.0,50354.0,-0.007492503970288563,-0.052688011334567526,0.059157387831014194,-0.000295837105651319,-0.0025336770553382178,0.0010575807572699846,18.0770963570003
1612,A,3970366851814.0,3.0634838005185574,4.738961445852018,4.945253910499944,60,1970-01-01 01:06:10.366851814,0.59373474,-0.05570984,3.9876556,15.488355054019548,4.031999716265745,-98.08849334716797,18.906957626342773,167.7333221435547,18127450.0,50354.0,0.08698040946201144,-0.15683202982106753,0.1790750687291142,0.0020012669965651067,-0.005275086076175424,0.005997978558814353,18.12745036100023
1612,A,3970417205818.0,6.011039320518558,3.171334945852017,1.940462610499944,60,1970-01-01 01:06:10.417205818,1.446701,4.333145,4.143265,16.568596659857917,6.167311751050939,-98.10001373291016,19.08155059814453,167.47561645507812,18177804.0,50354.0,0.22846926861835148,-0.29431166774606754,0.1733616848492142,0.007942076545029299,-0.01135844487364776,0.008873300144841573,18.177804365000156
1612,A,3970467559822.0,8.606208400518558,10.214516945852019,-3.767636789500056,60,1970-01-01 01:06:10.467559822,-0.43611145,2.5671997,2.3164063,11.760839678732609,3.4851751237464215,-98.17160034179688,19.17803955078125,167.3237762451172,18228158.0,50354.0,0.36801844587255145,-0.15645360692256755,-0.04600276430468582,0.015017771187737462,-0.011348917320332226,0.0032065155425495904,18.228158369000084
1612,A,3970517913826.0,5.499839370518558,13.859887345852018,2.149706370499944,60,1970-01-01 01:06:10.517913826,-0.9545593,-3.1300354,0.512619,5.957052200029234,3.312262565321573,-98.16663360595703,19.22564697265625,167.4839630126953,18278512.0,50354.0,0.3551479647314015,0.1126520768522325,-0.04073463415916582,0.018207160719775725,-0.0011027911225808256,-0.002183787481124393,18.278512373000012
1612,A,3970568267830.0,4.035880600518558,15.115380545852018,2.698488716499944,60,1970-01-01 01:06:10.568267830,-0.09701538,-1.2609863,0.47010803,5.167930048043956,1.3492590531898294,-98.15087890625,19.25786590576172,167.54653930664062,18328866.0,50354.0,0.24008082171080147,0.23604111970943248,0.1220630077053962,0.014986075156255345,0.00877904860983304,0.002047604460773442,18.328866377000395
1612,A,3970618621833.0,4.063499000518558,14.216424245852018,0.5498986104999442,60,1970-01-01 01:06:10.618621833,-0.15278625,0.5020447,-0.11860657,6.381769745998628,0.5380149044722807,-98.16688537597656,19.248428344726562,167.52110290527344,18379220.0,50354.0,0.2039180802153115,0.24501764924073244,0.08178464773187619,0.011178560353793747,0.012111616625858303,0.005132272420944208,18.379220380000334
1612,A,3970668975837.0,0.9438089005185573,13.028008645852019,-0.533795789500056,60,1970-01-01 01:06:10.668975837,0.013305664,0.8230133,-1.1638947,9.248601286059875,1.4255450906090137,-98.17755126953125,19.18497657775879,167.4867401123047,18429574.0,50354.0,0.12606899102441146,0.1924638869144325,0.0004054207243141836,0.008308084492602504,0.011014472635778589,0.002069299353521505,18.42957438400026
1612,A,3970719329841.0,-4.916939099481443,10.732735945852019,-1.4586460895000561,60,1970-01-01 01:06:10.719329841,-0.24769592,-0.45767212,-1.3085175,15.05826631246499,1.4082027858288702,-98.17882537841797,19.123470306396484,167.5205535888672,18479928.0,50354.0,-0.10003149901928858,0.10475506658533253,-0.05016370918758583,0.0006555459362129789,0.0074830815922635845,-0.0012527644286397903,18.47992838800019
1612,A,3970769683845.0,-2.4899520994814424,10.090782945852018,3.4252038104999443,60,1970-01-01 01:06:10.769683845,-0.123428345,-0.35043335,-0.368515,13.110567668696799,0.5232985709579776,-98.17809295654297,19.107725143432617,167.54168701171875,18530282.0,50354.0,-0.18648329971628858,0.0308045351364325,0.04951202374161419,-0.007213583087765627,0.0034129840925488787,-1.6407484473228e-05,18.530282392000117
1612,A,3970820037849.0,3.3342052005185576,7.4110199458520185,1.352755110499944,60,1970-01-01 01:06:10.820037849,0.76312256,-0.037384033,-0.042114258,12.759550990667176,0.7651975027606854,-98.10213470458984,18.97535514831543,167.55601501464844,18580636.0,50354.0,0.02125576032481145,-0.052826308595567514,0.12029467175401418,-0.00415993375925922,-0.0005544421903806423,0.004275223172493436,18.580636396000045
1612,A,3970870391853.0,4.266944500518557,7.535774945852017,0.8012414104999439,60,1970-01-01 01:06:10.870391853,0.60191345,1.3248291,0.030593872,12.522831422572535,1.4554751562639827,-98.12683868408203,18.73865509033203,167.47601318359375,18630990.0,50354.0,0.19137414602301142,-0.11715374501156754,0.05423117040921418,0.0053533831521191365,-0.004279587809666839,0.004394037128143601,18.630990400000428
1612,A,3970920745857.0,6.355598033518557,12.887047945852018,0.3591789104999439,60,1970-01-01 01:06:10.920745857,1.4748993,1.4139099,-0.72410583,7.250996073738945,2.167671193585062,-98.07508850097656,18.692853927612305,167.40750122070312,18681344.0,50354.0,0.2674437533794524,0.020716211944432458,0.029215902421814176,0.011551658253255834,-0.00242800777003126,0.002100946952666801,18.681344404000356
1612,A,3970971099861.0,5.573508800518558,11.301216945852017,-0.48611208950005613,60,1970-01-01 01:06:10.971099861,1.4512177,1.3194122,-1.4937897,9.069834276700629,2.4654186326318337,-98.02104187011719,18.609663009643555,167.34959411621094,18731698.0,50354.0,0.3003391227605524,0.11551874517843247,-0.0031957966476858263,0.014295069472576902,0.0034299875154823706,0.0006551082030752295,18.731698408000284
1612,A,3971021453865.0,4.026588000518558,10.066414945852017,-1.042981589500056,60,1970-01-01 01:06:11.021453865,0.9173279,1.2290955,-1.8105469,10.652043615259302,2.3728140047922572,-97.99137878417969,18.511457443237305,167.2987060546875,18782052.0,50354.0,0.24170163715971144,0.044503668137432444,-0.03849799155618583,0.013646960212512485,0.0040288843000535314,-0.0010497245056088767,18.782052412000212
1612,A,3971071807869.0,2.7253489005185574,10.586449945852017,-2.129865089500056,60,1970-01-01 01:06:11.071807869,0.26867676,-0.38996887,-2.0437164,11.00467742210343,2.097865497252418,-97.96675872802734,18.4129638671875,167.33401489257812,18832406.0,50354.0,0.16999351535741147,0.026507979378432436,-0.07988276083718582,0.010365248854923605,0.0017878602495069301,-0.0029804722030079183,18.83240641600014
1612,A,3971122161872.0,1.8465189005185572,10.495384945852019,0.904345010499944,60,1970-01-01 01:06:11.122161872,-1.0437317,-1.3948975,-1.8195953,10.452360717074129,2.5191351597072416,-98.07911682128906,18.517271041870117,167.39242553710938,18882760.0,50354.0,0.11510591562671145,0.03730815706843247,-0.03085491902898582,0.007177948373887264,0.0016066988673227177,-0.0027880425659906035,18.88276041900008
1612,A,3971172515876.0,1.4552684005185572,11.052635945852018,3.208498480499944,60,1970-01-01 01:06:11.172515876,-1.489212,-0.03617859,-1.2467957,9.977480365332998,1.9425655172623852,-98.1500473022461,18.455812454223633,167.40357971191406,18933114.0,50354.0,0.08312909887821143,0.04904532199043248,0.10354906057290418,0.0049909629601904435,0.002174121542265043,0.0018302204016512327,18.933114423000006
1612,A,3971222869880.0,1.3041607005185574,10.478020945852018,3.481234080499944,60,1970-01-01 01:06:11.222869880,-0.40596008,1.2840576,-0.8258209,10.566107184755776,1.5797429112194732,-98.18955993652344,18.405811309814453,167.3427734375,18983468.0,50354.0,0.06947414647681144,0.04860814856243247,0.16842739668829418,0.003842091908303411,0.0024586214281094813,0.006847551264465191,18.98346842700039
1612,A,3971273223884.0,1.7585674005185572,10.069893945852018,1.562609210499944,60,1970-01-01 01:06:11.273223884,0.86943054,1.4907684,-0.40467834,10.771037879875363,1.7725869358619362,-98.14961242675781,18.551836013793945,167.27444458007812,19033822.0,50354.0,0.07711030539981144,0.023865653228432468,0.1269888425375042,0.003690556744897735,0.0018246729076886066,0.007437694654987927,19.033822431000317
1612,A,3971323577888.0,0.5638499005185578,8.670418945852019,-0.3435950895000559,60,1970-01-01 01:06:11.323577888,1.1199188,0.36016846,-0.2368927,12.87778195694542,1.2000239953790515,-98.09903717041016,18.537565231323242,167.25741577148438,19084176.0,50354.0,0.058471500388211445,-0.021644342325567518,0.030691118524414186,0.0034135431243250518,5.592594460143085e-05,0.00396990837965592,19.084176435000245
1612,A,3971373931892.0,-0.5765920994814424,9.186135945852017,-0.5252966895000561,60,1970-01-01 01:06:11.373931892,0.43762207,-1.0421448,0.31063843,13.057120656920658,1.172209492586965,-98.06059265136719,18.56026840209961,167.3095245361328,19134530.0,50354.0,-0.00032081034328854666,-0.04389471749156752,-0.02187608831988582,0.0014640599232610238,-0.0016500769090160088,0.00022193601545941063,19.134530439000173
1612,A,3971424285896.0,0.3720165005185576,10.228081945852018,1.233828110499944,60,1970-01-01 01:06:11.424285896,-0.36305237,-1.9476318,1.8926239,11.344181047614509,2.7399091004237834,-98.05072021484375,18.66761016845703,167.39727783203125,19184884.0,50354.0,-0.005150599855088551,-0.004677436140567527,0.01783869558651418,-0.0001377536945645402,-0.0012229011119962642,-0.00010164943684809783,19.1848844430001
1612,A,3971474639900.0,1.7415539005185572,6.304238945852019,4.281832210499944,60,1970-01-01 01:06:11.474639900,0.45118713,-1.5293732,3.2694092,14.269363159829785,3.63752508282768,-98.01020812988281,18.840158462524414,167.453125,19235238.0,50354.0,0.05321336198691144,-0.0772349569095675,0.1388677799018142,0.0012100761621929052,-0.0020623083198232496,0.003945398933369644,19.23523844700003
1612,A,3971524993904.0,4.073371500518558,3.118569945852016,3.796846870499944,60,1970-01-01 01:06:11.524993904,1.5434113,2.0023193,3.4492645,16.785097687483784,4.27654376933996,-97.97522735595703,18.997024536132812,167.3229522705078,19285592.0,50354.0,0.14640237682191146,-0.25623114053356755,0.20339690322233422,0.005025725455989734,-0.008395675935325812,0.008617197927016686,19.28559245100041
1612,A,3971575347908.0,6.596396980518557,7.5377289458520185,-2.5826544895000563,60,1970-01-01 01:06:11.575347908,-0.36434937,2.6457977,2.6535034,13.31560129306305,3.7648474373546996,-98.04508209228516,19.109973907470703,167.16481018066406,19335946.0,50354.0,0.26863276104707146,-0.22517556280356757,0.030569721576434176,0.010449339666127384,-0.012120376569919052,0.005890577712558592,19.33594645500034
1612,A,3971625701912.0,7.200950200518557,13.039376445852017,-1.222409689500056,60,1970-01-01 01:06:11.625701912,-2.0535278,-2.0394135,1.1766052,7.836423497528059,3.124193279235798,-98.11557006835938,19.18255043029785,167.262939453125,19386300.0,50354.0,0.34737580997697143,0.024600582446932476,-0.09580010083468583,0.015509247792672327,-0.005049876280439002,-0.001642305258585002,19.386300459000267
1612,A,3971676055915.0,6.312247810518557,14.363213945852017,4.163591910499944,60,1970-01-01 01:06:11.676055915,-1.5534668,-2.7248993,0.42144775,5.520090815369755,3.164799124719102,-98.14730072021484,19.222681045532227,167.40260314941406,19436654.0,50354.0,0.34022178632388145,0.19644581829193244,0.07405014477811418,0.017311644682066574,0.005565285231402402,-0.0005475986436363045,19.436654462000206
1612,A,3971726409919.0,5.3956066005185574,14.107262945852018,2.541994580499944,60,1970-01-01 01:06:11.726409919,-0.71980286,-0.60879517,0.104003906,5.699883758955273,0.9484537567761359,-98.17304229736328,19.23215103149414,167.43373107910156,19487008.0,50354.0,0.29476865050668144,0.22333199670243245,0.16882655108390418,0.015987154228083084,0.010568746048113125,0.006114906571718037,19.487008466000134
1612,A,3971776763923.0,1.9374157005185575,12.350197945852017,0.7021509104999439,60,1970-01-01 01:06:11.776763923,-0.15196228,0.2561798,-0.6023407,8.859442472963096,0.6719634985230436,-98.1835708618164,19.200517654418945,167.42483520507812,19537362.0,50354.0,0.18462350247321146,0.17265029287043246,0.08167785102690418,0.012069656235574764,0.00996964610457602,0.006306949331943823,19.537362470000062
1612,A,3971827117927.0,-3.570076099481442,10.380913945852019,1.9691643704999442,60,1970-01-01 01:06:11.827117927,-0.30903625,0.77638245,-1.1872101,13.676969634322587,1.4518060938100772,-98.20943450927734,19.136228561401367,167.3931121826172,19587716.0,50354.0,-0.041105490864688544,0.07883200409743246,0.06725570482973418,0.003613352978267782,0.006331569790759936,0.0037497001358025844,19.587716474000445
1612,A,3971877471931.0,-0.23243009948144255,12.358254645852018,1.749651410499944,60,1970-01-01 01:06:11.877471931,-0.33987427,-0.57751465,-0.88557434,9.955356511904851,1.1105312251526704,-98.2143325805664,19.096529006958008,167.4300537109375,19638070.0,50354.0,-0.09573569857128855,0.07903484763333249,0.09362862491823419,-0.0034452506264295952,0.003974613726025469,0.0040505847700646,19.638070478000373
1612,A,3971927825935.0,-0.7011800994814426,7.475914945852018,-0.27306888950005614,60,1970-01-01 01:06:11.927825935,0.35186768,-2.6143646,-1.2705688,14.476028846728658,2.9279785179360833,-98.14886474609375,19.052248001098633,167.5765380859375,19688424.0,50354.0,-0.02350550397928856,0.005895687810332483,0.03717591813121418,-0.00300213575661588,0.002138296090865153,0.0032932659803559623,19.6884244820003
1612,A,3971978173481.0,0.9594494005185572,7.711144945852018,4.416246910499944,60,1970-01-01 01:06:11.978173481,-0.2743988,-0.44540405,0.1391449,13.272829898101508,0.5413324047143793,-98.15531921386719,19.062294006347656,167.59881591796875,19738772.0,50348.0,0.0065016713843083235,-0.11109135428624262,0.10430036350065117,-0.0004280544817460324,-0.0026481957078645616,0.003561523913800578,19.738772028000312
1612,A,3972028527485.0,6.820655400518557,13.192284945852018,3.371477610499944,60,1970-01-01 01:06:12.028527485,0.46643066,3.378769,0.86154175,6.5591106419394505,3.517938558721869,-98.1919174194336,19.080913543701172,167.4154052734375,19789126.0,50354.0,0.19587969857571144,0.03281645438343248,0.19607154026521417,0.005095355751483418,-0.001970727154853051,0.007562463421113191,19.78912603200024
1612,A,3972078881489.0,9.024741700518558,12.296090345852019,0.49962091049994406,60,1970-01-01 01:06:12.078881489,1.2142181,2.4044952,-0.2995758,8.2004963694779,2.7102893611450956,-98.17159271240234,19.048978805541992,167.291748046875,19839480.0,50354.0,0.39893956281281145,0.1482516247192325,0.09746264746321419,0.014975764543978842,0.004558751027567797,0.007390310244438642,19.839480036000168
1612,A,3972129235493.0,6.800010260518557,10.477577945852017,0.31161741049994385,60,1970-01-01 01:06:12.129235493,1.2284851,1.2398529,-1.0710144,9.574690386316465,2.0477994773824366,-98.12871551513672,18.987180709838867,167.23486328125,19889834.0,50354.0,0.3984197801230315,0.07990344658023248,0.02042454720781418,0.02007511617709572,0.00574426023010663,0.0029680459002324813,19.889834040000096
1612,A,3972179589497.0,4.743507000518558,11.328789945852018,-1.7939734895000559,60,1970-01-01 01:06:12.179589497,1.0852051,0.16156006,-2.0209808,9.70404762655352,2.299594563400656,-98.07231140136719,18.885997772216797,167.241455078125,19940188.0,50354.0,0.29063113408113145,0.055549724409432455,-0.03732127900098582,0.01734823486691821,0.0034103044860067937,-0.0004254090163566824,19.940188044000024
1612,A,3972229943500.0,1.6584849005185571,9.533654445852019,-2.199674089500056,60,1970-01-01 01:06:12.229943500,-0.271286,-2.4359894,-2.286789,12.291745087553608,3.352170100282705,-98.03927612304688,18.789857864379883,167.3858184814453,19990542.0,50354.0,0.16118295009241146,0.03178456244993249,-0.10054806509648583,0.01137532319723729,0.0021988153402582315,-0.003471136476342044,19.990542047000417
1612,A,3972280297504.0,1.7508009005185574,10.889519945852017,1.514315110499944,60,1970-01-01 01:06:12.280297504,-1.6658325,-2.3392334,-1.7594299,10.05356065152968,3.3678783218438606,-98.08546447753906,18.93616485595703,167.5189971923828,20040896.0,50354.0,0.08583558861271144,0.020725061659932476,-0.017255283014285826,0.00621918574897888,0.0013220348062140705,-0.0029659348953848977,20.040896051000345
1612,A,3972330651508.0,0.1566999005185572,10.276131945852018,3.274660590499944,60,1970-01-01 01:06:12.330651508,-1.6146088,0.92681885,-1.4157257,11.321308765835044,2.338853141048675,-98.17848205566406,18.85953712463379,167.48109436035156,20091250.0,50354.0,0.04802514766771144,0.03941841767743247,0.1205720412240742,0.003370211757332207,0.0015142323792768373,0.0026012060214478418,20.091250055000273
1612,A,3972381005512.0,0.6470104005185577,10.030907945852018,2.309221750499944,60,1970-01-01 01:06:12.381005512,-0.3628235,1.2493286,-0.74890137,11.269887390068208,1.5011049613261847,-98.21588134765625,18.813568115234375,167.42141723632812,20141604.0,50354.0,0.020235014249211446,0.01780114335343249,0.14058540569935418,0.0017185860965823676,0.0014406168880740872,0.006575161041191156,20.1416040590002
1612,A,3972431359516.0,1.1632609005185577,9.348671945852018,1.8495202104999442,60,1970-01-01 01:06:12.431359516,0.31965637,0.6379242,-0.08860779,11.648482536846947,0.7190123922964756,-98.14087677001953,19.00122833251953,167.41127014160156,20191958.0,50354.0,0.045577200546211456,-0.005549517066567509,0.1047046463520942,0.0016569541319043624,0.00030845919502439965,0.006175667640499316,20.19195806300013
1612,A,3972481713520.0,1.4176709005185577,7.993279945852018,1.445940510499944,60,1970-01-01 01:06:12.481713520,0.94551086,0.31074524,0.36746216,12.80457624832008,1.0609344134264205,-98.0626220703125,19.11395835876465,167.40443420410156,20242312.0,50354.0,0.06498011995471145,-0.05685087722256751,0.0829698145726142,0.002783501658251736,-0.0015710547270175524,0.004725079902701384,20.242312067000057
1612,A,3972532067524.0,0.5686259005185574,9.272637945852019,0.361681510499944,60,1970-01-01 01:06:12.532067524,1.0272522,-0.47166443,0.9737396,12.202466054101768,1.491939417516752,-98.00550842285156,19.16546630859375,167.42193603515625,20292666.0,50354.0,0.05000899455971145,-0.05876518524056751,0.04551049962271419,0.0028950809361296256,-0.0029108656046343507,0.0032347488704957826,20.29266607100044
1612,A,3972582421528.0,1.2420879005185572,9.720040945852018,1.8497338104999441,60,1970-01-01 01:06:12.582421528,0.7566986,-1.9747314,2.1958466,11.283100624567867,3.0485897008484892,-97.87867736816406,19.487592697143555,167.52940368652344,20343020.0,50354.0,0.04558834136871144,-0.015290523543567509,0.05567680353681419,0.0024068541266699037,-0.0018645005800581676,0.0025475927316474458,20.343020075000368
1612,A,3972632775532.0,2.7194591005185575,4.117699945852017,4.8143029104999435,60,1970-01-01 01:06:12.632775532,1.84758,0.015319824,3.4465942,16.147658458038674,3.9106007381067465,-97.79493713378906,19.6582088470459,167.50367736816406,20393374.0,50354.0,0.09973986884511145,-0.14507639756956756,0.16778045252461418,0.0036589283485534193,-0.004037557972865402,0.0056259833358585825,20.393374079000296
1612,A,3972683129536.0,6.1561046205185574,5.939644945852018,-1.215177089500056,60,1970-01-01 01:06:12.683129536,1.5706177,4.4839325,2.8662262,14.350013915207539,5.548670404130703,-97.80296325683594,19.769771575927734,167.2470703125,20443728.0,50354.0,0.22346006780455144,-0.24025542766156754,0.09061519079531417,0.008137204805028563,-0.009701499363844289,0.006505627111865837,20.443728083000224
1612,A,3972733483539.0,6.666953620518558,11.160301945852018,-2.943662089500056,60,1970-01-01 01:06:12.733483539,-1.9192047,0.49420166,1.6914978,10.308791278300943,2.6055223600371744,-97.91191864013672,19.850173950195312,167.20875549316406,20494082.0,50354.0,0.32284613733459144,-0.06294383710756753,-0.10470709400968582,0.0137543513267882,-0.0076336478890925135,-0.000354791847228235,20.494082086000162
1612,A,3972783837543.0,5.053214600518558,15.142891945852018,7.434603210499944,60,1970-01-01 01:06:12.783837543,-2.3381042,-1.3898468,0.38891602,6.641799131058193,2.7476646535085973,-98.00492095947266,19.879051208496094,167.27906799316406,20544436.0,50354.0,0.29507867530105153,0.16876631261143252,0.11306842460341418,0.015557493007727583,0.0026642924657608092,0.0002105132203582989,20.54443609000009
1612,A,3972834191547.0,5.600394800518558,13.336953345852017,2.632830150499944,60,1970-01-01 01:06:12.834191547,-0.37486267,-2.1296997,0.5268097,6.427432631497525,2.2256844550730253,-97.9868392944336,19.919954299926758,167.38731384277344,20594790.0,50354.0,0.26822592388991146,0.22356786490923244,0.25346776972989415,0.014182319893830876,0.009877797587437783,0.009228281764729705,20.594790094000018
1612,A,3972884545551.0,6.145255630518558,13.278359645852017,1.654360310499944,60,1970-01-01 01:06:12.884545551,-0.37028503,-0.50483704,-0.29066467,6.5413834602116205,0.6902589302459414,-97.99555969238281,19.909067153930664,167.4160614013672,20645144.0,50354.0,0.2957202409022215,0.17662453519213245,0.10793859423659419,0.01419847259097153,0.010075644057352066,0.009099128025584277,20.6451440980004
1612,A,3972934899555.0,1.1793439005185578,11.707802945852018,-1.5687994895000559,60,1970-01-01 01:06:12.934899555,0.14512634,0.8229675,-1.5761871,10.507220123051898,1.7840131543305546,-97.99906158447266,19.825298309326172,167.38438415527344,20695498.0,50354.0,0.18441144239292148,0.13560741557133246,0.002154164790314184,0.012088275390321816,0.007861063824371756,0.0027718053940204725,20.69549810200033
1612,A,3972985253559.0,-8.707955099481442,8.363579945852019,5.579821110499944,60,1970-01-01 01:06:12.985253559,-1.1071167,0.27781677,-1.7676239,19.093514324257235,2.1041349284119906,-98.05491638183594,19.735841751098633,167.38287353515625,20745852.0,50354.0,-0.18954784415628853,0.011868007064432496,0.10098549135191419,-0.00012931918719629219,0.0037129887157006545,0.002596747122692884,20.745852106000257
1612,A,3973035607563.0,-0.7729724994814422,9.631417945852018,1.685839210499944,60,1970-01-01 01:06:13.035607563,-0.036712646,-0.8985443,-0.37390137,12.419701488276965,0.9739260300077661,-98.03986358642578,19.723617553710938,167.43292236328125,20796206.0,50354.0,-0.23870131415908855,-0.04040913808056751,0.1829275299018142,-0.01078202905890625,-0.0007185800555932313,0.007148078136105121,20.796206110000185
1612,A,3973085961567.0,4.137076900518558,7.7942289458520175,2.892870430499944,60,1970-01-01 01:06:13.085961567,1.0321503,-0.3582306,0.4945526,12.130739907016824,1.199268810039355,-97.98313903808594,19.75060272216797,167.44810485839844,20846560.0,50354.0,0.08469805650491147,-0.05474368820756754,0.11527817263145418,-0.0038773400179592165,-0.002395662707456376,0.007507924972680099,20.846560114000113
1612,A,3973136315571.0,6.685004770518558,11.821648945852019,0.797213110499944,60,1970-01-01 01:06:13.136315571,1.4891815,0.8340759,0.0995636,8.147951716029919,1.7097535077747377,-97.92374420166016,19.749757766723633,167.4034881591797,20896914.0,50354.0,0.27246755023170144,0.000399757679432483,0.09290523331175418,0.008992358480807703,-0.0013682171389068564,0.005241433611432157,20.89691411800004
1612,A,3973186669575.0,5.836097300518557,11.140862945852017,-0.8650183895000558,60,1970-01-01 01:06:13.186669575,1.2960815,0.3212433,-1.5300751,9.341377318554896,2.030801399467006,-97.86087799072266,19.671775817871094,167.3977508544922,20947268.0,50354.0,0.3152437868425015,0.08465796189743248,-0.0017071335093858148,0.014796808333517207,0.002141498205786729,0.0022960945587242286,20.947268122000423
1612,A,3973237023579.0,4.760718900518557,8.999474945852018,0.5400872104999439,60,1970-01-01 01:06:13.237023579,0.3449402,1.695755,-1.2364502,11.071353224714876,2.126823419722728,-97.87059783935547,19.59893226623535,167.31756591796875,20997622.0,50354.0,0.26679604149351144,0.01360408709943247,-0.008180792293685818,0.014654016758015797,0.002473943607594069,-0.0002489483079439345,20.99762212600035
1612,A,3973287377582.0,5.693244500518557,12.324440945852018,-1.772107589500056,60,1970-01-01 01:06:13.287377582,0.5606842,0.7853546,-1.9958496,8.719611195118393,2.2168816490040597,-97.85152435302734,19.494705200195312,167.29075622558594,21047976.0,50354.0,0.26319943654791145,0.04340303040543249,-0.031018577082085823,0.013343696150648905,0.001435268197419985,-0.0009869225227738026,21.04797612900029
1612,A,3973337731586.0,2.8795391005185578,10.453865945852018,-1.2093176895000557,60,1970-01-01 01:06:13.337731586,-0.24797058,-1.9719238,-2.6238403,10.686190943586597,3.2915818084100636,-97.82313537597656,19.37818145751953,167.41331481933594,21098330.0,50354.0,0.21583697272331145,0.08002023261243248,-0.07506334424938582,0.01206069967622158,0.0031074274930007863,-0.002670824533362462,21.098330133000218
1612,A,3973388085590.0,2.353675400518558,10.464089945852018,2.016100410499944,60,1970-01-01 01:06:13.388085590,-3.009903,-1.2363892,-1.3789673,10.123455136828952,3.5340805222511458,-97.8771743774414,19.422351837158203,167.5119171142578,21148684.0,50354.0,0.1317566414926115,0.03318217548543248,0.02031236856661419,0.008751364425114292,0.0028500970286799462,-0.0013784653147651414,21.148684137000146
1612,A,3973438439594.0,1.3905864005185578,10.583046945852018,5.060854410499944,60,1970-01-01 01:06:13.438439594,-1.6907959,-1.5398712,-1.1715546,10.652355213306656,2.56953969979594,-97.93202209472656,19.374919891357422,167.601318359375,21199038.0,50354.0,0.09426927936471147,0.0364345655224325,0.1781764915283142,0.00569065460942482,0.0017527406883550167,0.004997354030610013,21.199038141000074
1612,A,3973488793598.0,3.5564037005185574,11.182259945852017,3.950396110499944,60,1970-01-01 01:06:13.488793598,0.4997406,1.333435,-0.49108887,9.06274552125952,1.5063060262613428,-97.92904663085938,19.341400146484375,167.534912109375,21249392.0,50354.0,0.12455036977381145,0.054515931612432476,0.22687625436721418,0.005509222306360592,0.0022898606663644956,0.010198012983411718,21.249392145
1612,A,3973539147602.0,-0.07466909948144274,9.308647945852018,-1.012067289500056,60,1970-01-01 01:06:13.539147602,1.8000488,0.953125,-1.0865784,12.831926691057623,2.308522377485867,-97.85298156738281,19.28104591369629,167.4927978515625,21299746.0,50354.0,0.08765963205031144,0.022430387989432456,0.07397830472631418,0.005342811215925942,0.0019372774886161535,0.007574615234297764,21.299746149000384
1612,A,3973589501606.0,-0.2914510994814421,7.632775945852018,-1.871106589500056,60,1970-01-01 01:06:13.589501606,0.9064789,-1.2156982,0.72987366,14.576934379714936,1.682956229136767,-97.78829956054688,19.325468063354492,167.55133056640625,21350100.0,50354.0,-0.009217808249288553,-0.06693497067856755,-0.07258966875158583,0.0019749297978383534,-0.0011204918783643543,3.496168793573574e-05,21.350100153000312
1612,A,3973639855610.0,-0.13800849948144212,8.659737945852019,0.06370791049994384,60,1970-01-01 01:06:13.639855610,-0.06814575,-0.107910156,1.9839935,13.128215445979135,1.988094226402073,-97.7945556640625,19.424484252929688,167.54275512695312,21400454.0,50354.0,-0.010812504323088536,-0.08327257774856751,-0.045504876541185825,-0.000504303179634738,-0.00378177544674998,-0.0029732663668361123,21.40045415700024
1612,A,3973690209614.0,1.930610200518558,6.592385945852017,2.868990425499944,60,1970-01-01 01:06:13.690209614,0.21817017,-1.1804352,3.9502106,13.858956911836474,4.128581992504113,-97.57022094726562,19.616485595703125,167.6439666748047,21450808.0,50354.0,0.045132333027011466,-0.10946647677856752,0.07383654600546918,0.0008640703272786677,-0.004852591175829679,0.0007133064421022622,21.450808161000168
1612,A,3973740563618.0,3.9114605005185576,0.34189694585201735,4.6491265104999435,60,1970-01-01 01:06:13.740563618,0.15248108,2.7000427,4.040146,19.616267448347454,4.861713768096314,-97.6200942993164,19.79887580871582,167.4734649658203,21501162.0,50354.0,0.14708581404001148,-0.31888475963556756,0.1892836300976692,0.004839476288706437,-0.01078459907919868,0.006624576673748715,21.501162165000096
1612,A,3973790917622.0,7.709067900518558,8.810570945852017,-0.19967408950005616,60,1970-01-01 01:06:13.790917622,-1.3602905,3.563095,3.1241455,11.385123328163205,4.930144148864767,-97.75944519042969,19.929840087890625,167.26351928710938,21551516.0,50354.0,0.29257004355291144,-0.26303751589056756,0.11202386360351417,0.011069215526617021,-0.014651057130921503,0.007586018768914694,21.551516169000024
1612,A,3973841271625.0,6.856742440518557,13.326256945852018,0.853243310499944,60,1970-01-01 01:06:13.841271625,-0.20979309,-3.7764282,0.6478729,6.694334794916359,3.8373379294663894,-97.70358276367188,19.987340927124023,167.4579315185547,21601870.0,50354.0,0.36672340695629146,0.06386971582943246,0.016454912277114177,0.016599031203470203,-0.005014447702139198,0.00323471014034658,21.601870172000417
1612,A,3973891625629.0,4.239921200518557,15.344841945852018,4.696535610499944,60,1970-01-01 01:06:13.891625629,-0.8538971,-1.942215,0.5338898,5.224524067390807,2.187779166679638,-97.71253204345703,20.026819229125977,167.55654907226562,21652224.0,50354.0,0.27938070049039143,0.22838305679643253,0.1397267838940142,0.016266963113185137,0.007358048056401404,0.003932186564500499,21.652224176000345
1612,A,3973941979633.0,6.018439830518558,14.466713945852018,0.5829034104999442,60,1970-01-01 01:06:13.941979633,0.0368042,0.7815857,0.5474701,5.709810519745584,0.9549629657615734,-97.7261734008789,20.04869842529297,167.51141357421875,21702578.0,50354.0,0.25827475567842145,0.25709634268543247,0.13292043623171418,0.013536551419962205,0.012222914840754917,0.006864439061105464,21.702578180000273
1612,A,3973992333637.0,6.8787608705185574,14.075203945852017,1.699434810499944,60,1970-01-01 01:06:13.992333637,-0.040039063,1.3805237,-0.85240173,5.765588185319401,1.6229718180346202,-97.75101470947266,19.99717140197754,167.44473266601562,21752932.0,50354.0,0.32471282205001145,0.22513066675943247,0.05746242939011418,0.014677878244468756,0.012141029416793367,0.004793269407760772,21.7529321840002
1612,A,3974042687641.0,-1.0667650994814428,9.855828945852018,-0.27193978950005615,60,1970-01-01 01:06:14.042687641,0.16923523,0.84947205,-2.6823425,12.739210340420527,2.8187239336463237,-97.75123596191406,19.858549118041992,167.41920471191406,21803286.0,50354.0,0.14632861752740145,0.10904241511443247,0.03594004214371418,0.011859410324240526,0.008413475682338299,0.0023515940258071965,21.80328618800013
1612,A,3974093041645.0,-10.066124099481444,6.597161945852019,3.321001510499944,60,1970-01-01 01:06:14.093041645,-0.95765686,-0.43380737,-2.1386566,21.052570458489622,2.3830962104990507,-97.78617858886719,19.75553321838379,167.45741271972656,21853640.0,50354.0,-0.2802927513622886,-0.07923224831956752,0.07676622694961419,-0.003372814997560954,0.0007505305693943149,0.0028376057369627287,21.853640192000057
1612,A,3974143395649.0,0.5291973005185575,12.144158545852019,0.4690118104999441,60,1970-01-01 01:06:14.143395649,0.519989,-3.1371765,-0.8080597,9.855692498714756,3.281040297076118,-97.70242309570312,19.736635208129883,167.62832641601562,21903994.0,50354.0,-0.24011120601748862,-0.021618973980367485,0.09542116538281419,-0.013102210434950651,-0.0025391312238454635,0.004335161976753549,21.90399419600044
1612,A,3974193749653.0,-1.797646099481442,1.4981169458520185,4.084703910499944,60,1970-01-01 01:06:14.193749653,0.26678467,-0.35440063,0.680542,20.012809055575232,0.8123492355233712,-97.6844253540039,19.772729873657227,167.64215087890625,21954348.0,50354.0,-0.031935735411488544,-0.1499976299453675,0.11464890070761417,-0.006849325844357359,-0.00432079123703823,0.0052889340539587154,21.954348200000368
1612,A,3974244103657.0,7.239936400518557,13.154580345852018,0.5652642104999441,60,1970-01-01 01:06:14.244103657,1.1276093,3.9476166,0.6157074,6.981793856619665,4.151418451138937,-97.69984436035156,19.776819229125977,167.42990112304688,22004702.0,50354.0,0.13702054290921145,-0.12455824028676751,0.1170722473824142,0.00264572019837017,-0.0069124931448344635,0.005834043345462644,22.004702204000296
1612,A,3974294457661.0,8.841208900518557,14.61014694585202,0.07127621049994426,60,1970-01-01 01:06:14.294457661,1.3800049,2.2223206,-0.19920349,6.285181514493825,2.6235099396870125,-97.66991424560547,19.752086639404297,167.31430053710938,22055056.0,50354.0,0.40487499524421144,0.20556333902323254,0.01602617817951419,0.01364330396408873,0.00203946537088798,0.003351019060372671,22.055056208000224
1612,A,3974344811664.0,6.418479503518557,7.349037945852018,-1.5520300895000556,60,1970-01-01 01:06:14.344811664,1.1175995,2.0380402,-1.016922,13.109217257862968,2.5370784089775964,-97.6478271484375,19.6881160736084,167.21421813964844,22105410.0,50354.0,0.3841931749484424,0.05939719801843252,-0.037280940411585806,0.019866369320940446,0.006670911441098002,-0.000535131148716867,22.105410211000162
1612,A,3974395165668.0,6.854789320518558,12.584923945852019,-0.350354689500056,60,1970-01-01 01:06:14.395165668,-0.17060852,-0.392807,-1.579773,7.808872619841203,1.6367917820769358,-97.6456527709961,19.612442016601562,167.2460479736328,22155764.0,50354.0,0.33418108918278244,0.008408158547432501,-0.047896341580885814,0.01808650884803185,0.0017071354622587836,-0.002144508428724458,22.15576421500009
1612,A,3974445519672.0,3.5629955005185576,10.756264945852019,-0.144147389500056,60,1970-01-01 01:06:14.445519672,-0.044799805,-2.5217743,-2.2772522,9.845424587732111,3.3981215730272756,-97.59811401367188,19.516307830810547,167.3946990966797,22206118.0,50354.0,0.26228856843925147,0.09419191272643253,-0.01245007884298582,0.015017316569949948,0.0025831619944621,-0.001519341827011816,22.206118219000018
1612,A,3974495873676.0,2.5015636005185575,9.906456945852018,2.931017400499944,60,1970-01-01 01:06:14.495873676,-1.4656372,-1.7950745,-1.340805,10.551322325641705,2.6773387739692356,-97.43199920654297,19.519405364990234,167.56690979003906,22256472.0,50354.0,0.15268740448681148,0.026756149067432487,0.07016502626694418,0.010447850070359487,0.0030451093517841394,0.0014530892312929996,22.2564722230004
1612,A,3974546227680.0,2.313895900518558,10.788658945852019,3.642672070499944,60,1970-01-01 01:06:14.546227680,-0.34031677,0.17655945,-1.6577911,9.848233808459305,1.7015463774363442,-97.44831085205078,19.43606948852539,167.56900024414062,22306826.0,50354.0,0.12123882385761146,0.02757173280543249,0.1655057798113642,0.0068966406510275365,0.0013678130819131215,0.00593348388463357,22.30682622700033
1612,A,3974596581684.0,1.6896282005185572,10.823265945852018,0.7474236104999439,60,1970-01-01 01:06:14.596581684,0.34498596,2.0765686,-1.2600555,10.265837000150363,2.453343091820492,-97.59611511230469,19.557254791259766,167.42454528808594,22357180.0,50354.0,0.10079672629181145,0.050654232998432504,0.11052943896053419,0.005590189046112021,0.001969495141043909,0.006949738703020086,22.357180231000257
1612,A,3974646935688.0,-1.0225300994814424,9.070046945852019,-1.0374578895000561,60,1970-01-01 01:06:14.646935688,0.20199585,0.13464355,-1.0495605,13.52904703653386,1.0772689785443905,-97.58592987060547,19.50434684753418,167.42481994628906,22407534.0,50354.0,0.01679552888981144,0.007384738674432497,-0.007302193042385827,0.0029606202087077197,0.0014612471898077222,0.0025989523704812215,22.407534235000185
1612,A,3974697289692.0,-0.5085834994814427,8.193550945852017,1.0548577104999441,60,1970-01-01 01:06:14.697289692,-0.143219,-0.82455444,0.61860657,13.542498734042002,1.040709274933148,-97.5800552368164,19.540447235107422,167.46385192871094,22457888.0,50354.0,-0.03854884708108856,-0.05882359588056753,0.0004380752933141806,-0.000547683292101784,-0.0012950761078788617,-0.00017281789256837684,22.457888239000113
1612,A,3974747643696.0,-0.18894239948144254,7.853630945852018,0.7535424104999442,60,1970-01-01 01:06:14.747643696,0.1456604,-1.0098114,2.284607,13.717925583226487,2.502072173249029,-97.61231994628906,19.888065338134766,167.48348999023438,22508242.0,50354.0,-0.01756160955818856,-0.08944930151256755,0.04553008984641419,-0.00141269296680708,-0.0037330667376669624,0.0011573404937229414,22.50824224300004
1612,A,3974797997700.0,2.8116069005185578,5.715370945852017,3.7993340504999438,60,1970-01-01 01:06:14.797997700,0.31825256,-0.89790344,4.0322266,14.4827634046861,4.143231424052723,-97.58991241455078,20.093847274780273,167.50247192382812,22558596.0,50354.0,0.06603082414261145,-0.15184243937256756,0.1146277706585942,0.0012203094155920154,-0.006075002160265047,0.004032294453934596,22.558596247000423
1612,A,3974848351704.0,5.245246500518558,1.9930969458520167,4.860399710499944,60,1970-01-01 01:06:14.848351704,0.98973083,2.8866577,4.4143524,17.875544973785846,5.366457574993726,-97.6037826538086,20.293548583984375,167.31893920898438,22608950.0,50354.0,0.2028473980779115,-0.2993931038905676,0.2180261169006942,0.006769547000846106,-0.011360757272735956,0.008375226927080204,22.60895025100035
1612,A,3974898705707.0,9.378898200518558,9.545998945852018,0.7362237104999441,60,1970-01-01 01:06:14.898705707,0.0082092285,3.0984344,3.5379791,10.796259917034016,4.702941551260523,-97.66911315917969,20.448286056518555,167.1300811767578,22659304.0,50354.0,0.3681920911380115,-0.20294938273456756,0.1409061878705142,0.014377061219989292,-0.012647476785761029,0.009036838637224714,22.65930425400029
1612,A,3974949059711.0,6.579963270518558,14.208901645852018,0.7564721104999439,60,1970-01-01 01:06:14.949059711,0.17550659,-2.3372192,0.62991333,5.875900526042234,2.4269707363900697,-97.61865997314453,20.495044708251953,167.24923706054688,22709658.0,50354.0,0.40179625525630147,0.10460793219733248,0.03758160268531418,0.01938599659716962,-0.0024759427001759676,0.004493787102824092,22.709658258000218
1612,A,3974999413715.0,3.5645214005185575,15.300683245852017,3.568743210499944,60,1970-01-01 01:06:14.999413715,-0.52227783,-2.2773132,0.4603119,5.296644783903224,2.381347641123689,-97.60368347167969,20.532941818237305,167.36648559570312,22760012.0,50354.0,0.25540769056270146,0.24949361881843243,0.10889594613681419,0.016546423743885038,0.008915214749923914,0.0036878652466947265,22.760012262000146
1612,A,3975049767719.0,4.473548500518557,14.784813945852019,-0.4397100895000561,60,1970-01-01 01:06:15.049767719,-0.04067993,0.14494324,0.22898865,6.204996337772051,0.2740423349691157,-97.6089859008789,20.5433349609375,167.35720825195312,22810366.0,50354.0,0.20237448589841145,0.2639933627955325,0.07877966688741418,0.01152558185676144,0.012928061736094796,0.004725108909110998,22.810366266000074
1612,A,3975100121723.0,1.6965252005185576,14.372612945852019,0.020128710499943914,60,1970-01-01 01:06:15.100121723,-0.13726807,1.4680786,-1.3345947,7.637902520771362,1.9887785980564994,-97.6397476196289,20.46745491027832,167.28897094726562,22860720.0,50354.0,0.15534394557101144,0.24062733685243254,-0.010563800379085825,0.009006276949105661,0.012704835355036815,0.001717470871080183,22.86072027
1612,A,3975150475727.0,-6.126625099481442,10.978005945852018,3.406908510499944,60,1970-01-01 01:06:15.150475727,-0.2866974,0.93470764,-2.0596008,15.277960517289745,2.2798748270029585,-97.66621398925781,20.359172821044922,167.2541961669922,22911074.0,50354.0,-0.11153662515618856,0.14478333183643252,0.08628251611311419,0.0011029369060839957,0.009703484405579556,0.001906370106035632,22.911074274000384
1612,A,3975200829731.0,-6.808632099481443,8.756447945852019,7.639238910499944,60,1970-01-01 01:06:15.200829731,-0.7688904,-2.8483124,-1.0657349,17.82444150608192,3.13685620522904,-97.64968872070312,20.325332641601562,167.41229248046875,22961428.0,50354.0,-0.3256709704982886,0.003385145631432506,0.2781088536185142,-0.011007575635792771,0.003730437757208438,0.009174281515733207,22.961428278000312
1612,A,3975251183735.0,6.2046886105185575,7.941933945852018,0.756533110499944,60,1970-01-01 01:06:15.251183735,1.0142517,-0.20329285,0.28897095,11.949431116548581,1.0740291912969195,-97.59595489501953,20.341001510620117,167.42098999023438,23011782.0,50354.0,-0.015205485221618567,-0.07305403911256751,0.21138035217271417,-0.008582246525660102,-0.001754053731174536,0.012323869734205756,23.01178228200024
1612,A,3975301537739.0,5.661735100518557,6.302132945852017,0.7640252104999439,60,1970-01-01 01:06:15.301537739,0.9634552,1.4283905,-0.08772278,13.584965577827885,1.7251784339679819,-97.57379913330078,20.327226638793945,167.3461151123047,23062136.0,50354.0,0.29876094977278145,-0.13484632786756756,0.038283096847814176,0.007139075931004628,-0.005234307539458862,0.006285776655989842,23.062136286000168
1612,A,3975351891743.0,6.720923960518558,13.281807945852018,0.028566910499943976,60,1970-01-01 01:06:15.351891743,0.84085083,0.41262817,-0.89012146,7.0125588371455,1.2921332510781423,-97.53717041015625,20.280397415161133,167.33053588867188,23112490.0,50354.0,0.31175820717973146,-0.00040432016956754203,0.019955091830414176,0.015371040814593418,-0.0034052055656309506,0.0014662628763517553,23.112490290000096
1612,A,3975402245747.0,5.689490860518558,12.659859945852018,-0.577497089500056,60,1970-01-01 01:06:15.402245747,0.80674744,-0.60635376,-1.6678009,7.8539099262639045,1.9493758376089259,-97.4817123413086,20.201679229736328,167.37420654296875,23162844.0,50354.0,0.31245701394925146,0.1596641725094325,-0.01382041511668582,0.0157158666223644,0.00400968530236078,0.00015445275562153883,23.162844294000024
1612,A,3975452599750.0,3.8724589005185575,9.022621945852018,0.15683221049994422,60,1970-01-01 01:06:15.452599750,-0.0448761,0.6769562,-1.4401398,11.298331778100495,1.5919441587611327,-97.6592025756836,19.94658851623535,167.29136657714844,23213198.0,50354.0,0.24074120913363148,0.05243064658743248,-0.010591079658585814,0.013927871662557744,0.00533991126040177,-0.0006146082039570139,23.213198297000417
1612,A,3975502953754.0,4.198127300518557,11.480797945852018,0.386385410499944,60,1970-01-01 01:06:15.502953754,-0.0002593994,1.1765289,-1.5807953,8.856546445585176,1.9705669489579258,-97.6764907836914,19.860403060913086,167.24057006835938,23263552.0,50354.0,0.20319314878351144,0.02274540261343248,0.013676590043914187,0.011176935329279908,0.0018927073907301771,7.768389497141246e-05,23.263552301000345
1612,A,3975553307758.0,2.8140179005185577,11.025185945852018,0.7601037104999442,60,1970-01-01 01:06:15.553307758,-0.6031494,0.88464355,-1.6317596,9.616251774416925,1.951671796555231,-97.85569763183594,19.825475692749023,167.1590118408203,23313906.0,50354.0,0.17654477972651145,0.07316395644143248,0.028865156599414188,0.009560661826096845,0.002414709932924335,0.0010710735552390785,23.313906305000273
1612,A,3975603661762.0,2.6464611005185574,10.441353945852018,1.196764510499944,60,1970-01-01 01:06:15.603661762,-1.5400085,-0.27496338,-1.336853,10.128663847826088,2.057767475693567,-97.9735107421875,19.80858612060547,167.16659545898438,23364260.0,50354.0,0.13747847980911143,0.04699387485343248,0.049268071200114186,0.007906163605328378,0.003025213718510815,0.001967160276308726,23.3642603090002
1612,A,3975654015766.0,3.1368175005185575,10.823296945852018,2.751482490499944,60,1970-01-01 01:06:15.654015766,-0.85546875,-1.5170441,-1.249939,9.467567826485942,2.1437343789034062,-97.79644012451172,19.76881217956543,167.3198699951172,23414614.0,50354.0,0.14560560533831143,0.041910915500432494,0.09940501474417418,0.007127208011756666,0.002238355906739259,0.003743142284819348,23.41461431300013
1612,A,3975704369770.0,3.1436839005185577,10.354378945852018,3.455385710499944,60,1970-01-01 01:06:15.704369770,-0.09887695,0.25582886,-0.7204437,9.928090124697944,0.7708853233262988,-97.80416870117188,19.73138427734375,167.3115997314453,23464968.0,50354.0,0.15812418377391146,0.03972114592543247,0.15627032069657418,0.007647004900478437,0.0020552504105190023,0.006437137920391723,23.464968317000057
1612,A,3975754723774.0,1.3500286005185576,8.771706945852017,1.070803210499944,60,1970-01-01 01:06:15.754723774,1.3202057,0.94862366,-0.6699066,12.17191819118589,1.7582959908240268,-97.78250885009766,19.81041717529297,167.25669860839844,23515322.0,50354.0,0.11313819963861146,-0.011931735504567552,0.1139558584640142,0.006829573027177091,0.0006996539861661162,0.006803484512726134,23.51532232100044
1612,A,3975805077778.0,-0.9354020994814425,8.288658945852019,-1.402341389500056,60,1970-01-01 01:06:15.805077778,1.0152893,-0.4410553,-0.5048065,14.210234819638114,1.2166230898658918,-97.72265625,19.78838348388672,167.28353881835938,23565676.0,50354.0,0.010439051416611446,-0.06394036794456753,-0.00834713673268582,0.0031113044498173475,-0.0019102319485388743,0.0026589107870296546,23.565676325000368
1612,A,3975855431782.0,-1.2530290994814424,9.701393945852018,-0.1293310895000559,60,1970-01-01 01:06:15.855431782,0.102752686,-2.2233582,1.1071167,12.934931852801274,2.485877548755438,-97.68048095703125,19.858139038085938,167.3927459716797,23616030.0,50354.0,-0.05509813229628856,-0.040533638345567495,-0.03856291800378582,-0.0011243816793076308,-0.00263034205636673,-0.0011810544481001466,23.616030329000296
1612,A,3975905785786.0,1.3678659005185576,8.063805945852017,3.705492510499944,60,1970-01-01 01:06:15.905785786,0.82489014,-2.3030243,3.5275116,12.718895535400398,4.292750022723693,-97.6063232421875,20.04825782775879,167.4892120361328,23666384.0,50354.0,0.002891246139711451,-0.04619476232656752,0.0900370160965142,-0.0013144127727641418,-0.0021835609437223435,0.0012959633676806225,23.666384333000224
1612,A,3975956139789.0,4.529517700518557,3.5673299458520162,3.089037410499944,60,1970-01-01 01:06:15.956139789,2.1311798,1.79245,3.9794006,16.255326661476353,4.856998402069781,-97.54197692871094,20.23368263244629,167.36663818359375,23716738.0,50354.0,0.14847842692331145,-0.20063209165456758,0.1710658798210142,0.003811034258707728,-0.0062143597026830385,0.006573787610515612,23.716738336000162
1612,A,3976006493793.0,6.3015971805185576,6.323662945852018,-4.031110089500056,60,1970-01-01 01:06:16.006493793,-0.14900208,3.6358185,2.491211,15.033813782189224,4.409933109618283,-97.6220932006836,20.333166122436523,167.15701293945312,23767092.0,50354.0,0.27269497935987147,-0.2444436719655676,-0.023718563839185827,0.010603882849991697,-0.011205672500664144,0.003709763374474493,23.76709234000009
1612,A,3976056847797.0,7.082801400518558,12.691933945852018,2.328112130499944,60,1970-01-01 01:06:16.056847797,-3.480194,-1.1663055,1.1869965,7.070856621872266,3.8575872625228453,-97.77760314941406,20.39979362487793,167.21017456054688,23817446.0,50354.0,0.33697900307477147,-0.014713517057567536,-0.042876379613745824,0.015349761855757005,-0.006524800548035473,-0.0016766608913144603,23.817446344000018
1612,A,3976107201801.0,6.970557750518558,13.720818945852017,7.012010910499944,60,1970-01-01 01:06:16.107201801,-2.1486511,-3.0131378,0.44291687,7.344105700651525,3.7271807448862266,-97.83056640625,20.44219207763672,167.36624145507812,23867800.0,50354.0,0.35382142334566147,0.17152467955443246,0.2351562778032542,0.01739228233598724,0.003948034638183568,0.004841030996717253,23.8678003480004
1612,A,3976157555805.0,6.700873900518557,12.607247545852019,1.637987610499944,60,1970-01-01 01:06:16.157555805,-0.110061646,-1.8001099,-0.08493042,7.2074587210711,1.8054701310848695,-97.80261993408203,20.450225830078125,167.46202087402344,23918154.0,50354.0,0.34420563467816145,0.16939253006163246,0.2177810127632142,0.01757422723986579,0.008583272586503666,0.011403602164591976,23.91815435200033
1612,A,3976207909809.0,7.096885260518557,11.909127445852018,1.218050510499944,60,1970-01-01 01:06:16.207909809,-0.32202148,0.113601685,-0.8823242,7.994555833688429,0.946096808113139,-97.8185806274414,20.40574836730957,167.46241760253906,23968508.0,50354.0,0.3473861823974314,0.12377957316613251,0.07190647177241419,0.0174122071785122,0.00738119404296544,0.0072934617981535175,23.968508356000257
1612,A,3976258263813.0,-0.17438549948144288,9.475594945852018,0.21916441049994395,60,1970-01-01 01:06:16.258263813,-0.6479187,0.6604614,-2.1184845,12.434964784565897,2.311705967340981,-97.85775756835938,20.29630470275879,167.44293212890625,24018862.0,50354.0,0.17428777648363145,0.044933955655932487,0.03618476006601418,0.013134185262748519,0.004247700515153131,0.002721412943996111,24.018862360000185
1612,A,3976308617817.0,-4.184273099481443,8.858620945852017,-0.3731207895000561,60,1970-01-01 01:06:16.308617817,-0.49713135,-1.5710754,-2.3946533,15.485738743514682,2.906850859407629,-97.8478775024414,20.18842887878418,167.54330444335938,24069216.0,50354.0,-0.10973794754608858,-0.03186864649456754,-0.0038761597540858243,0.0016251710431605167,0.0003289452887556853,0.0008134336300534202,24.069216364000113
1612,A,3976358971821.0,-5.366982099481442,4.898278445852018,3.405306340499944,60,1970-01-01 01:06:16.358971821,-0.29525757,-1.3538513,-1.0870514,18.92470518605139,1.7611845790251386,-97.8353042602539,20.14381980895996,167.6226348876953,24119570.0,50354.0,-0.24047195214428857,-0.14711174401506755,0.07634133561752418,-0.008817234644504625,-0.004506189291861083,0.0018244557327137876,24.11957036800004
1612,A,3976409325825.0,-0.06967969948144237,7.814553945852017,3.525682910499944,60,1970-01-01 01:06:16.409325825,0.49658203,2.0014038,1.0752716,13.55964573607093,2.325600975434075,-97.84957122802734,20.183429718017578,167.50921630859375,24169924.0,50354.0,-0.13687883411248855,-0.17339821887406756,0.1745015163724242,-0.009500560745586877,-0.008069479335659756,0.006315470484550931,24.169924372000423
1612,A,3976459679829.0,8.982291800518558,13.448662945852018,0.8138757104999441,60,1970-01-01 01:06:16.459679829,1.7583923,3.1625366,1.4333191,7.064544447827251,3.8920412214496984,-97.82291412353516,20.232864379882812,167.33187866210938,24220278.0,50354.0,0.22439283486781147,0.041874811682432456,0.10925706740091419,0.0022033399970167655,-0.0033113648228637973,0.007144189863661342,24.22027837600035
1612,A,3976510033832.0,9.374885100518558,9.159035945852018,-1.2858710895000556,60,1970-01-01 01:06:16.510033832,0.83106995,2.1855621,0.43215942,11.70510682459798,2.377839506578219,-97.82234954833984,20.239395141601562,167.21336364746094,24270632.0,50354.0,0.46217864283741145,0.07572483499643248,-0.011883427657085806,0.0172858100941844,0.0029608063044337827,0.0024515761278303674,24.27063237900029
1612,A,3976560387836.0,9.581824900518559,10.737480945852019,-0.6668830895000561,60,1970-01-01 01:06:16.560387836,-0.18502808,0.78622437,-0.939682,10.137988416588668,1.239107102511475,-97.84358215332031,20.1874942779541,167.17869567871094,24320986.0,50354.0,0.4772730876961115,0.007465405782432502,-0.049164491964685815,0.023652576219642507,0.002094480692089484,-0.0015370034723173442,24.320986383000218
1612,A,3976610741840.0,6.2558055505185575,12.14598964585202,-1.077771689500056,60,1970-01-01 01:06:16.610741840,0.28164673,-2.032257,-2.273285,8.50615914638367,3.0622243689504027,-97.78692626953125,20.088703155517578,167.3023681640625,24371340.0,50354.0,0.39874402186576147,0.08266793908733253,-0.04392517337088583,0.022055482767439277,0.0022692872237860743,-0.0023437185041536874,24.371340387000146
1612,A,3976661095844.0,2.7821422005185577,9.267311945852018,1.4102502104999441,60,1970-01-01 01:06:16.661095844,-1.1575165,-3.4325867,-2.4723206,11.139976171073858,4.385757066912564,-97.77218627929688,19.960147857666016,167.5027313232422,24421694.0,50354.0,0.22754841052786148,0.045653494174332516,0.008370811723214185,0.015768164570374246,0.0032307487252289406,-0.000895152163203429,24.421694391000074
1612,A,3976711449848.0,1.5800853005185571,8.892281945852018,4.6720300104999435,60,1970-01-01 01:06:16.711449848,-1.526474,-1.0494232,-2.3300018,11.989210686601265,2.9766290184330124,-97.82394409179688,19.85184097290039,167.5748291015625,24472048.0,50354.0,0.10982780179361144,-0.03626510458856752,0.1531335691241142,0.008494120897617724,0.00023637148460080532,0.004066195796593187,24.472048395
1612,A,3976761803852.0,0.414634300518558,9.790077945852017,2.043444160499944,60,1970-01-01 01:06:16.761803852,0.0048675537,1.9551392,-2.1161041,11.609943260586906,2.881057018958922,-97.8533706665039,19.73369598388672,167.48724365234375,24522402.0,50354.0,0.05022105539531145,-0.02310342500656755,0.16907549320326418,0.004029550077445512,-0.0014947214696167158,0.008112257562216405,24.522402399000384
1612,A,3976812157856.0,-2.2601400994814416,9.423729945852019,-1.075894789500056,60,1970-01-01 01:06:16.812157856,0.40208435,1.0946808,-1.6206207,13.993455749582848,1.996599441969283,-97.84870910644531,19.64594841003418,167.44140625,24572756.0,50354.0,-0.04646429950048852,-0.00972315871056752,0.024359990513664186,9.458384316395695e-05,-0.0008264748982463096,0.004870125173541105,24.572756403000312
1612,A,3976862511860.0,-0.839241399481442,9.941674445852017,0.7892175104999439,60,1970-01-01 01:06:16.862511860,0.21266174,-0.38694763,0.55862427,12.322942565741037,0.7120495481744774,-97.83258819580078,19.67625617980957,167.4577178955078,24623110.0,50354.0,-0.07803312799938852,-0.005906413630067517,-0.0072176738533858194,-0.003134471732164405,-0.0003935057428201684,0.0004315921065558284,24.62311040700024
1612,A,3976912865864.0,0.41850990051855774,8.809975945852019,1.128542410499944,60,1970-01-01 01:06:16.912865864,0.52337646,-0.58384705,2.7215576,12.545385949815982,2.832256356122022,-97.82391357421875,20.03339385986328,167.4616241455078,24673464.0,50354.0,-0.010592756949388538,-0.021358898088067523,0.04828344153101418,-0.00223133390535536,-0.000686458753127486,0.0010339128328196493,24.673464411000168
1612,A,3976963219868.0,2.4415966005185576,5.794731945852018,3.104525090499944,60,1970-01-01 01:06:16.963219868,0.7636719,-0.759079,4.1147614,14.471485169616228,4.253311307442775,-97.55120086669922,20.143524169921875,167.5512237548828,24723818.0,50354.0,0.07200890137661146,-0.12576646941056752,0.10657594047267419,0.0015462742682441919,-0.0037041753775131346,0.0038988946607068625,24.723818415000096
1612,A,3977013573872.0,4.335044400518558,1.7483599458520196,3.8958764104999437,60,1970-01-01 01:06:17.013573872,0.6746826,3.1968994,4.320694,18.114991733969642,5.416988003134133,-97.58638763427734,20.336626052856445,167.35202026367188,24774172.0,50354.0,0.17061549048311145,-0.3035567754425675,0.1762491085906742,0.006108554313852244,-0.010809071335667381,0.007120686260267923,24.774172419000024
1612,A,3977063927875.0,7.538169400518558,7.342766945852018,-0.8826422895000561,60,1970-01-01 01:06:17.063927875,-0.94480896,3.3546143,3.1499481,12.95881808533372,4.697688166040226,-97.7032470703125,20.470407485961914,167.1522979736328,24824526.0,50354.0,0.2989319038687115,-0.2645818982475675,0.07586419546441417,0.011821794747595846,-0.01430402738749653,0.00634745665619496,24.824526422000417
1612,A,3977114281879.0,7.507835000518558,14.304070645852018,1.9761071104999441,60,1970-01-01 01:06:17.114281879,-0.8198395,-2.4942627,0.9933319,5.584326010190821,2.8071678763353556,-97.70051574707031,20.536338806152344,167.27713012695312,24874880.0,50354.0,0.3788132528049115,0.05153323004633249,0.027530163798314182,0.017063589809571806,-0.005363926319302495,0.002603159783157712,24.874880426000345
1612,A,3977164635883.0,4.329398700518558,14.944115945852019,2.926012520499944,60,1970-01-01 01:06:17.164635883,-0.46839905,-2.208313,0.45062256,5.197784269385118,2.3019784246579844,-97.46048736572266,20.650480270385742,167.4694061279297,24925234.0,50354.0,0.2980260328910115,0.24291239381933252,0.12342066594968418,0.017040782695966254,0.007413257472065849,0.003800489040565355,24.925234430000273
1612,A,3977214989887.0,5.579795400518558,14.877511245852018,1.265642610499944,60,1970-01-01 01:06:17.214989887,-0.35209656,0.058441162,0.11148071,5.139417542382018,0.3739188490593219,-97.4794692993164,20.6556339263916,167.4655303955078,24975588.0,50354.0,0.24948377988181147,0.25734990780553246,0.10553330123318419,0.013784654556181365,0.012595103968009226,0.0057643740317630775,24.9755884340002
1612,A,3977265343891.0,7.080039560518557,13.375893945852017,2.534868710499944,60,1970-01-01 01:06:17.265343891,-0.2575531,1.467453,-1.116806,6.379838226595461,1.8619902116189038,-97.5169906616211,20.590694427490234,167.39559936523438,25025942.0,50354.0,0.31873666481403146,0.2178667825115325,0.0956854735288142,0.01430608613610724,0.011964530612112745,0.005066085092182834,25.02594243800013
1612,A,3977315697895.0,-3.3625570994814424,8.956185945852019,-3.872068089500056,60,1970-01-01 01:06:17.315697895,0.42147827,-1.4200745,-2.5424194,15.983579488057673,2.9424737761157367,-97.46334838867188,20.473915100097656,167.48846435546875,25076296.0,50354.0,0.09359505592153144,0.06878557543343246,-0.03366666876508582,0.010381275732959269,0.007217046415980383,0.0015614474475363893,25.076296442000057
1612,A,3977366051899.0,-7.827385099481443,3.5670099458520177,-0.6840490895000562,60,1970-01-01 01:06:17.366051899,-0.7911072,-1.0362701,-2.0282593,21.796804045642862,2.4111288041252257,-97.47885131835938,20.380096435546875,167.55735778808594,25126650.0,50354.0,-0.28172917474328857,-0.17817269703456753,-0.11470936221568583,-0.004736652709575379,-0.002754039560551778,-0.003735663332002888,25.12665044600044
1612,A,3977416405903.0,0.05765490051855782,6.179848945852019,3.7203088104999438,60,1970-01-01 01:06:17.416405903,0.83029175,0.2286377,0.3840027,14.97082131626374,0.9429303588211817,-97.4424819946289,20.397647857666016,167.5426025390625,25177004.0,50354.0,-0.19561849721928856,-0.24807253368356752,0.07644391099561418,-0.012018182337001804,-0.010731576173790487,-0.0009634092653677439,25.177004450000368
1612,A,3977466759907.0,6.526649060518557,13.137963545852017,1.226625910499944,60,1970-01-01 01:06:17.466759907,1.4974823,2.1527405,1.4651947,6.763111296855525,3.0039208391802923,-97.410888671875,20.45638084411621,167.41860961914062,25227358.0,50354.0,0.16577302082703146,-0.007104634896367529,0.12454897547061419,-0.000751419559127857,-0.006424595573337025,0.005060397902560232,25.227358454000296
1612,A,3977517113911.0,10.545936200518558,15.226845945852018,0.3011193104999439,60,1970-01-01 01:06:17.517113911,1.158371,1.6086426,-0.08352661,6.605860756408467,1.9840693240796432,-97.38251495361328,20.441884994506836,167.33404541015625,25277712.0,50354.0,0.42983647911713146,0.22067160857263243,0.03846404142911418,0.01499566038009419,0.005376975696247322,0.004104178726484461,25.277712458000224
1612,A,3977567467914.0,6.222785530518557,7.873467945852019,-0.24694588950005603,60,1970-01-01 01:06:17.567467914,1.6272278,1.1148834,-1.570221,12.227730498544355,2.521196005377091,-97.31797790527344,20.356887817382812,167.28579711914062,25328066.0,50354.0,0.42218610702232146,0.0881274028514325,0.0013639242205141769,0.02145137265123301,0.007774632710623684,0.0010027486911606933,25.328066461000162
1612,A,3977617821918.0,5.5038677005185574,10.419838945852018,-0.005322889500055883,60,1970-01-01 01:06:17.617821918,0.52308655,2.5297241,-1.4273987,9.749457755988088,2.9513709712053147,-97.33488464355469,20.26997184753418,167.16171264648438,25378420.0,50354.0,0.2952419483978215,-0.03289861238756752,-0.006351371048885818,0.01806268615131294,0.0013904952575087288,-0.0001255689487979128,25.37842046500009
1612,A,3977668175922.0,3.8665691005185576,10.951561945852019,-0.9263128895000561,60,1970-01-01 01:06:17.668175922,0.9950104,-0.4986267,-2.6926422,9.852470425667944,2.9135882171785856,-97.26973724365234,20.139598846435547,167.206298828125,25428774.0,50354.0,0.23591948733971146,0.04459856025043249,-0.02345579400788582,0.013373051467563868,0.00029456958734335137,-0.0007504549946343395,25.428774469000018
1612,A,3977718529926.0,0.8288799005185572,8.400002945852018,-1.832303489500056,60,1970-01-01 01:06:17.718529926,-0.21708679,-3.9567566,-2.2570648,13.433320426446395,4.560415658406052,-97.20356750488281,20.052562713623047,167.430419921875,25479128.0,50354.0,0.11821731949911146,-0.006254850721567506,-0.06945368457408582,0.008916102385781045,0.0009653795748082337,-0.0023391819422583,25.4791284730004
1612,A,3977768883930.0,2.1254345005185575,10.833992945852017,2.094210150499944,60,1970-01-01 01:06:17.768883930,-2.6963348,-2.4818573,-1.7312775,9.877139645643945,4.053043152158706,-97.22640228271484,20.121265411376953,167.59466552734375,25529482.0,50354.0,0.07438077367491144,-0.00921488543456754,0.006594024003994179,0.004849042191842375,-0.00038948154720301213,-0.0015826176741731972,25.52948247700033
1612,A,3977819237934.0,1.8244699005185572,11.843850345852019,4.916735210499944,60,1970-01-01 01:06:17.819237934,-1.7459564,-0.30978394,-1.0360565,9.341185847296234,2.0537144181641063,-97.3056869506836,20.071836471557617,167.6179962158203,25579836.0,50354.0,0.09944674310491144,0.0774908605552325,0.17651457135389417,0.004376455389965601,0.0017189842256129816,0.004610125105325555,25.579836481000257
1612,A,3977869591938.0,2.318839600518557,10.869332945852017,3.399035010499944,60,1970-01-01 01:06:17.869591938,0.29794312,1.0612183,-0.30989075,9.755268002043035,1.1449832574958407,-97.30929565429688,20.049720764160156,167.56407165527344,25630190.0,50354.0,0.10431610330761143,0.07838061573523249,0.20936614685411417,0.0051301371841280885,0.003924376158565037,0.009715318842323026,25.630190485000185
1612,A,3977919945942.0,2.6498638005185575,9.763527945852019,1.180376510499944,60,1970-01-01 01:06:17.919945942,1.4459686,1.6701508,-0.03326416,10.753874021354934,2.2093744343743786,-97.31616973876953,20.0457820892334,167.45932006835938,25680544.0,50354.0,0.12509704552791143,0.02600433867043248,0.11529584386421418,0.005775934848231959,0.002628099997071427,0.008174014940315354,25.680544489000113
1612,A,3977970299946.0,0.7690044005185577,7.459786945852018,-2.510770089500056,60,1970-01-01 01:06:17.970299946,0.94992065,0.7655792,0.1821289,14.49256030209101,1.2335443603633687,-97.28295135498047,20.04995346069336,167.41766357421875,25730898.0,50354.0,0.08607684469751145,-0.0598378009715675,-0.03349531913848583,0.005316725034205472,-0.0008518250803556763,0.002059491811019663,25.73089849300004
1612,A,3978020653950.0,0.667716600518558,7.507042945852017,-1.1972937895000557,60,1970-01-01 01:06:18.020653950,-0.19908142,-2.2410889,1.7910004,14.06373497658698,2.8757251785058644,-97.25637817382812,20.152963638305664,167.52395629882812,25781252.0,50354.0,0.036172324643111466,-0.11664932381656754,-0.09335792428158582,0.003077867336488863,-0.004443416340790876,-0.003193784109587144,25.781252497000423
1612,A,3978071007954.0,3.2399974005185577,6.181999945852018,3.414629460499944,60,1970-01-01 01:06:18.071007954,-0.12646484,-2.7512207,3.1557617,13.906922204288378,4.18856068394044,-97.21971130371094,20.32682228088379,167.64820861816406,25831606.0,50354.0,0.09838451540411147,-0.14882016711556753,0.05582586018876419,0.003387737561868932,-0.006683725373198365,-0.0009449447776649703,25.83160650100035
1612,A,3978121361957.0,4.716010600518557,3.7213069458520174,4.525637110499944,60,1970-01-01 01:06:18.121361957,0.93322754,1.3906403,3.573944,16.17115382436041,3.9468810218366785,-97.2070541381836,20.495372772216797,167.5506591796875,25881960.0,50354.0,0.20030841344211145,-0.24413364238756755,0.1999120914580642,0.007520191869561354,-0.009893398061860433,0.006438714408612199,25.88196050400029
1612,A,3978171715961.0,8.064521400518558,7.964058945852019,1.464708810499944,60,1970-01-01 01:06:18.171715961,0.23901367,3.622116,3.8853302,11.942566416791998,5.317202517765795,-97.27176666259766,20.665273666381836,167.33261108398438,25932314.0,50354.0,0.3217754541901115,-0.19926674294456753,0.15081893925301418,0.013144505535376477,-0.011163491501507167,0.00883035516021282,25.932314508000218
1612,A,3978222069965.0,8.393760300518558,12.506768445852018,-3.0259375895000558,60,1970-01-01 01:06:18.222069965,0.31526184,-0.5511017,1.2536621,9.483210966995571,1.40526573020176,-97.2486572265625,20.730932235717773,167.35336303710938,25982668.0,50354.0,0.41437015838701147,0.021924821240932486,-0.03930705696888582,0.018533938087854227,-0.00446493756273242,0.0028075346602675,25.982668512000146
1612,A,3978272423969.0,5.530875740518558,14.979500945852017,1.952242380499944,60,1970-01-01 01:06:18.272423969,-1.3119965,-4.099411,0.74513245,4.886414937271704,4.368263697509143,-97.23896789550781,20.793743133544922,167.5657958984375,26033022.0,50354.0,0.35058056160519147,0.19855260447493245,-0.027032424276995815,0.019259164277243696,0.005550960147248331,-0.0016702291193275618,26.033022516000074
1612,A,3978322777973.0,4.050330700518558,14.220421945852017,3.635530950499944,60,1970-01-01 01:06:18.322777973,-0.9748688,1.7891388,0.85954285,6.028920937329572,2.211379825779597,-97.32349395751953,20.825035095214844,167.4650421142578,26083376.0,50354.0,0.24122603456599143,0.24169725864443245,0.14068336915458418,0.014899914671801873,0.01108417080375625,0.0028613898391830423,26.08337652
1612,A,3978373131977.0,5.893439800518557,13.463784445852017,2.298479560499944,60,1970-01-01 01:06:18.373131977,-0.34431458,0.30885315,-0.61590576,6.289568316843842,0.7702484686558464,-97.34503936767578,20.792522430419922,167.45286560058594,26133730.0,50354.0,0.25035430990461144,0.20353606432393245,0.1494005826354442,0.012376518332736368,0.011209639372374524,0.007303443654217545,26.133730524000384
1612,A,3978423485981.0,-0.7919850994814421,10.319313945852018,7.200212910499944,60,1970-01-01 01:06:18.423485981,0.43572998,-0.13195801,-2.1152039,12.616995353378117,2.163645319928655,-97.31565856933594,20.688465118408203,167.4742889404297,26184084.0,50354.0,0.12843932500801145,0.10531786820793247,0.2391485803423642,0.009536887346195106,0.007776015459354764,0.009782502276292283,26.184084528000312
1612,A,3978473839985.0,-10.109048099481443,7.225106445852019,5.597414510499944,60,1970-01-01 01:06:18.473839985,-0.96798706,-1.6153717,-1.97789,20.88249366280174,2.731020602190385,-97.3291244506836,20.600671768188477,167.5733642578125,26234438.0,50354.0,-0.27445531285028857,-0.0517533277980675,0.3222058655785142,-0.0036762445259050113,0.0013485944338991703,0.014133220884949955,26.23443853200024
1612,A,3978524193989.0,-1.350975499481442,10.656456945852018,1.042467610499944,60,1970-01-01 01:06:18.524193989,-0.3701477,-0.85754395,-0.28112793,12.045939459434862,0.9754095852630205,-97.33097839355469,20.592201232910156,167.62071228027344,26284792.0,50354.0,-0.28852901415108856,-0.04326507848706752,0.1671723121604142,-0.014174256400913673,-0.002392278415040845,0.012321074380933002,26.284792536000168
1612,A,3978574547993.0,1.514319900518558,1.9751219458520168,5.349123510499944,60,1970-01-01 01:06:18.574547993,0.74676514,2.5668793,-0.069610596,18.571714263195535,2.6742051436199104,-97.34127044677734,20.572357177734375,167.48521423339844,26335146.0,50354.0,0.004112521984911467,-0.17544393824356758,0.1609210896534142,-0.007160754023267841,-0.0055064369142272,0.008260407577466758,26.335146540000096
1612,A,3978624901997.0,6.850150650518557,12.466881945852018,-0.621091389500056,60,1970-01-01 01:06:18.624901997,0.9273224,2.377945,1.054306,8.0282565624922,2.7615413084367866,-97.34174346923828,20.609455108642578,167.35205078125,26385500.0,50354.0,0.21059227506346145,-0.12986286801856756,0.11903766471041419,0.005405622675286885,-0.007686709461261777,0.007048521558618108,26.385500544000024
1612,A,3978675256000.0,9.066810200518557,15.984856845852018,0.506533110499944,60,1970-01-01 01:06:18.675256000,1.5372009,-0.042755127,-0.34074402,5.131128966401501,1.5750939956114862,-97.26325988769531,20.59282112121582,167.35662841796875,26435854.0,50354.0,0.40074132334656143,0.22286022755873244,-0.0028842337903858214,0.015391546007169146,0.0023413945211427315,0.0029243949302735542,26.435854547000417
1612,A,3978725610004.0,5.760444200518558,7.184807945852018,1.264254110499944,60,1970-01-01 01:06:18.725610004,1.5962067,2.3934631,-1.4953613,12.638397002739497,3.2423212144579674,-97.22441864013672,20.50356101989746,167.2399139404297,26486208.0,50354.0,0.37330578405491144,0.0898734504607325,0.04458310986311419,0.019488184023046883,0.00787369581149607,0.0010498526028830822,26.486208551000345
1612,A,3978775964008.0,7.521537400518557,11.763039945852018,-3.8502630895000562,60,1970-01-01 01:06:18.775964008,0.663208,3.2396393,-1.506546,10.429179017649291,3.6338393601650156,-97.2476577758789,20.408428192138672,167.0785369873047,26536562.0,50354.0,0.33440045076931146,-0.016419233630567517,-0.06510794806428583,0.01781791987416946,0.0018493568171330638,-0.0005167538513908983,26.536562555000273
1612,A,3978826318012.0,3.5051342005185577,10.871773945852018,-1.0138067895000558,60,1970-01-01 01:06:18.826318012,0.2798462,-3.0556793,-2.5424194,10.05453049943066,3.984894764683164,-97.17151641845703,20.301488876342773,167.25723266601562,26586916.0,50354.0,0.2776185108993115,0.07640750935143249,-0.12246268734358584,0.01540880139793092,0.0015103248178242176,-0.004722465887663985,26.5869165590002
1612,A,3978876672016.0,2.4266124005185574,10.135750945852019,1.113771910499944,60,1970-01-01 01:06:18.876672016,-1.3439789,-3.858368,-1.6283112,10.50332563755272,4.398258777188383,-97.23433685302734,20.292675018310547,167.4477996826172,26637270.0,50354.0,0.14934358417431146,0.0354372541984325,0.002516821851414185,0.010749624667668605,0.0028159156118949514,-0.003019877055496406,26.63727056300013
1612,A,3978927026020.0,0.8316265005185572,9.734810945852018,4.107866810499944,60,1970-01-01 01:06:18.927026020,-1.959549,-0.94750977,-1.9089813,11.497609387303491,2.8951367241282653,-97.31051635742188,20.203990936279297,167.51075744628906,26687624.0,50354.0,0.08203268081141143,0.006811936747432509,0.13146519807861418,0.005825360223545546,0.0010637078804440435,0.0033732653157783244,26.687624567000057
1612,A,3978977380024.0,1.5452495005185574,11.676720945852018,3.0148644504999442,60,1970-01-01 01:06:18.977380024,-0.044769287,1.5964203,-0.9347992,9.387798621378343,1.850516578588589,-97.33966064453125,20.147457122802734,167.43276977539062,26737978.0,50354.0,0.05984260707811144,0.0456089384374325,0.1793290049581942,0.0035719941231945173,0.0013198003745293464,0.007824865649857725,26.73797857100044
1612,A,3979027734028.0,-0.062187599481442035,9.415245945852018,-0.00605538950005613,60,1970-01-01 01:06:19.027734028,0.54875183,1.2428894,-0.4574585,12.474852532229034,1.4335867294248223,-97.333740234375,20.11683464050293,167.3702392578125,26788332.0,50354.0,0.03733904948241146,0.037563250432432485,0.07575278572879418,0.002446742567224285,0.002094026199176591,0.006422194244126307,26.788332575000368
1612,A,3979078088032.0,0.3627391005185574,8.474953945852018,0.7339654104999442,60,1970-01-01 01:06:19.078088032,0.3793335,-0.3935089,0.7826538,12.921021140203358,0.95461517338449,-97.3826904296875,20.350873947143555,167.36041259765625,26838686.0,50354.0,0.007566985141611454,-0.04304763732656753,0.018326590598714183,0.001130599233729025,-0.00013808040883363804,0.002368636457797678,26.838686579000296
1612,A,3979128442036.0,0.2626719005185576,8.855599945852019,0.28941591049994386,60,1970-01-01 01:06:19.128442036,0.62124634,-1.1414032,1.8988953,12.720000388718901,2.3009892742678586,-97.46732330322266,20.665334701538086,167.361572265625,26889040.0,50354.0,0.015745972773111447,-0.0571378446685675,0.025765671518814183,0.0005869503414189785,-0.0025223698801915147,0.0011101108833330119,26.889040583000224
1612,A,3979178796039.0,2.4731823005185576,7.267327945852019,3.198107250499944,60,1970-01-01 01:06:19.178796039,0.5319214,-1.49823,3.6987762,13.054378215941124,4.025987939172744,-97.18614196777344,20.784746170043945,167.49871826171875,26939394.0,50354.0,0.06888060121951145,-0.08754224447056749,0.08780537062449419,0.0021306432534122666,-0.003642610604256002,0.0028593781280420753,26.939394586000162
1612,A,3979229150043.0,3.9983287005185577,1.228249945852017,4.6954675104999435,60,1970-01-01 01:06:19.229150043,1.2919312,2.3949127,3.9081116,18.734828215533856,4.762145456011322,-97.17617797851562,20.963651657104492,167.3454132080078,26989748.0,50354.0,0.16293323247311145,-0.2795760354205675,0.1987365317576942,0.005836376890879167,-0.009242936932819107,0.007214265476276358,26.98974859000009
1612,A,3979279504047.0,8.829536000518559,8.431999945852018,-0.39533758950005593,60,1970-01-01 01:06:19.279504047,-0.40446472,5.0553894,3.5061188,11.97650011193884,6.165502634422475,-97.30133056640625,21.105712890625,167.05308532714844,27040102.0,50354.0,0.3229671495780115,-0.2502530884765676,0.10826437102101419,0.012233513918901123,-0.01333950785235817,0.007729361729259541,27.040102594000018
1612,A,3979329858051.0,7.235450300518558,12.955178445852017,1.5619225104999441,60,1970-01-01 01:06:19.329858051,-0.6833801,-2.619522,0.73594666,6.922544915419399,2.805444947940552,-97.28710174560547,21.158842086791992,167.18736267089844,27090456.0,50354.0,0.4044681601012115,0.044995790367932456,0.029371108556014186,0.0183146387917938,-0.005167762994481107,0.0034652484693108434,27.0904565980004
1612,A,3979380212055.0,4.293815200518558,15.203438945852017,4.861284710499945,60,1970-01-01 01:06:19.380212055,-0.59332275,-3.4052582,0.31852722,5.382572074731292,3.4712065458880046,-97.25212860107422,21.19618797302246,167.3663330078125,27140810.0,50354.0,0.2902723175196115,0.21548031007093243,0.1617170882031142,0.017491481005059463,0.006558006780749301,0.004811027529804576,27.14081060200033
1612,A,3979430566059.0,5.030524800518558,14.811867945852018,1.216478810499944,60,1970-01-01 01:06:19.430566059,-0.35665894,0.52223206,0.31158447,5.329371072970357,0.7049941885710463,-97.28076934814453,21.208335876464844,167.33644104003906,27191164.0,50354.0,0.23475890820611145,0.2622261816124325,0.1530198521682142,0.01321871117009653,0.01202721634111208,0.007924131947728934,27.191164606000257
1612,A,3979480920063.0,4.101783300518557,13.290474945852019,0.956041810499944,60,1970-01-01 01:06:19.480920063,-0.21685791,1.4341431,-1.1165771,7.065368088140078,1.830447542174205,-97.5380630493164,21.092288970947266,167.18780517578125,27241518.0,50354.0,0.22992412105981144,0.2140634869844325,0.054697551674914184,0.01169932462782814,0.01199154498626327,0.005229701076558444,27.241518610000185
1612,A,3979531274067.0,-4.133156099481443,10.027397945852018,-1.079160189500056,60,1970-01-01 01:06:19.531274067,0.40657043,0.58691406,-2.153122,14.82259383238108,2.2684139779282066,-97.52349853515625,20.981718063354492,167.1717529296875,27291872.0,50354.0,-0.0007898729594885872,0.09360488579443249,-0.0030997514280858207,0.005768912964421829,0.007746166621453485,0.0012990778168143978,27.291872614000113
1612,A,3979581628071.0,-7.239968099481443,9.205590445852017,5.352541410499944,60,1970-01-01 01:06:19.581628071,-1.4171143,-1.682373,-1.2229614,17.400185655659612,2.516788913731831,-97.55934143066406,20.93214225769043,167.26963806152344,27342226.0,50354.0,-0.2863411479572886,-0.009240251262067543,0.10759091900111417,-0.007229097713621699,0.0021240484036213524,0.002630774125986135,27.34222661800004
1612,A,3979631982075.0,2.5341411005185575,10.056999945852018,2.159777170499944,60,1970-01-01 01:06:19.631982075,0.3782959,-1.0667114,0.250412,10.418667660971241,1.1591752104797488,-97.42797088623047,20.97273826599121,167.35769653320312,27392580.0,50354.0,-0.11847860635288858,-0.008494961708067529,0.1891376449138342,-0.010192146954267331,-0.0004465194569490907,0.007470735053686656,27.392580622000423
1612,A,3979682336079.0,3.1007763005185573,5.473397945852017,2.103579050499944,60,1970-01-01 01:06:19.682336079,0.78286743,1.2756348,0.05618286,14.632119754130086,1.497759015891283,-97.2931900024414,20.77037239074707,167.3323211669922,27442934.0,50354.0,0.14187031540591144,-0.10246037228056754,0.1073385195761142,0.0005889330588279566,-0.002793522443831865,0.007464380393363432,27.44293462600035
1612,A,3979732690082.0,6.423240245518557,13.199730945852018,0.8830590104999441,60,1970-01-01 01:06:19.732690082,0.94799805,0.3607483,-0.0027923584,6.790959094278079,1.0143211700551884,-97.25257873535156,20.767948150634766,167.31320190429688,27493288.0,50354.0,0.23978616457957644,-0.023335833893567543,0.07519458646179418,0.00960896519659463,-0.0031671710828461994,0.00459563601071642,27.49328862900029
1612,A,3979783044086.0,6.998679700518558,11.962624945852017,0.1628594104999439,60,1970-01-01 01:06:19.783044086,1.5233917,-0.082901,-1.1415558,8.21067371967819,1.9054512567745021,-97.17213439941406,20.71183967590332,167.32525634765625,27543642.0,50354.0,0.33792367848137644,0.14004343428543245,0.02633308808551418,0.01454500071874561,0.002938347255065983,0.002556162262077583,27.543642633000218
1612,A,3979833398090.0,5.583304940518557,8.579064945852018,-0.037686789500055884,60,1970-01-01 01:06:19.833398090,0.426239,2.928131,-1.3769379,11.51960331766001,3.263677192790122,-97.20236206054688,20.62521743774414,167.17922973632812,27593996.0,50354.0,0.3167766273073915,0.023708926403432452,0.0031514710789141806,0.016483389598843812,0.004122793185063552,0.0007423327460828129,27.593996637000146
1612,A,3979883752094.0,6.658683360518557,12.135750945852017,-2.653470489500056,60,1970-01-01 01:06:19.883752094,0.37687683,1.4833832,-1.9640198,9.342409195822515,2.489946914660055,-97.20651245117188,20.51848793029785,167.11378479003906,27644350.0,50354.0,0.30821653945521144,0.02806771970543245,-0.06775526681338583,0.015735452959582057,0.0013035806190828917,-0.0016265297652067927,27.644350641000074
1612,A,3979934106098.0,2.6359630005185575,9.509621945852018,-1.4101540895000557,60,1970-01-01 01:06:19.934106098,-0.3782196,-2.6091003,-2.4750519,11.66172976220227,3.6161217276217155,-97.17134857177734,20.412036895751953,167.26844787597656,27694704.0,50354.0,0.23401131143183146,0.05149635329443246,-0.10230987602548582,0.013651670601783078,0.002003184665917599,-0.0042817301012542715,27.694704645
1612,A,3979984460102.0,1.3969799005185575,9.303475945852018,2.637499340499944,60,1970-01-01 01:06:19.984460102,-2.7451782,-2.7558594,-1.8865662,11.547756290013448,4.323181283419195,-97.10324096679688,20.468677520751953,167.47927856445312,27745058.0,50354.0,0.10153740341941146,-0.019811834380567526,0.030900871384424183,0.008448109993809743,0.0007977211326943776,-0.0017978645098480088,27.745058649000384
1612,A,3980034814106.0,0.9432749005185572,10.561379945852018,5.179186310499944,60,1970-01-01 01:06:20.034814106,-1.536972,-1.0594482,-1.6465149,10.91295023761295,2.489121277316405,-97.15672302246094,20.393569946289062,167.5462646484375,27795412.0,50354.0,0.05892059512571144,0.006668276785432465,0.19680069463522418,0.0040398510293705595,-0.00033091534957271543,0.005732842327676687,27.795412653000312
1612,A,3980085168110.0,1.7223583005185574,10.551415945852018,3.004030710499944,60,1970-01-01 01:06:20.085168110,0.43478394,1.5470886,-0.6173706,10.285573890003699,1.7215303274924445,-97.16204833984375,20.35329818725586,167.46849060058594,27845766.0,50354.0,0.06711264710251144,0.03808766216543246,0.20602885493771417,0.0031731389395799675,0.0011268202749659263,0.01014203956959787,27.84576665700024
1612,A,3980135522114.0,0.29412040051855737,8.677574945852019,0.13040391049994415,60,1970-01-01 01:06:20.135522114,0.9604492,1.0987701,-0.19715881,12.88939805794003,1.4726269027813073,-97.28555297851562,20.535972595214844,167.35870361328125,27896120.0,50354.0,0.05076888425601144,-0.009340896319567511,0.07891566045291419,0.002967903315013531,0.0007237573237013419,0.007174048063989851,27.896120661000168
1612,A,3980185876118.0,-0.7438740994814426,8.212624945852017,-0.04969548950005587,60,1970-01-01 01:06:20.185876118,0.99798584,-1.4485016,0.748703,13.832939826051858,1.9117240397745867,-97.21047973632812,20.582242965698242,167.43040466308594,27946474.0,50354.0,-0.01132344887878856,-0.06822463732656753,0.0020319959155141874,0.0009931177264923404,-0.001952867440608742,0.002038019144387921,27.946474665000096
1612,A,3980236230122.0,-0.5801166994814428,8.002999945852018,1.303896410499944,60,1970-01-01 01:06:20.236230122,1.0500336,-2.4941711,2.498703,13.7116175167272,3.683337714548202,-97.11905670166016,20.97019386291504,167.54551696777344,27996828.0,50354.0,-0.033334116345488565,-0.08520841210156754,0.031577016588014185,-0.0011243435196516254,-0.003862983885452157,0.0008461741078013339,27.996828669000024
1612,A,3980286584125.0,2.4476696005185574,5.661446945852019,3.768587610499944,60,1970-01-01 01:06:20.286584125,1.453125,-0.9230652,3.6566467,14.626770925090007,4.04161931875046,-97.03744506835938,21.157320022583008,167.57046508789062,28047182.0,50354.0,0.047019379389411434,-0.1494394206075675,0.1277099301967142,0.0003445538676568461,-0.0059077284841178935,0.004010367459199107,28.047182672000417
1612,A,3980336938129.0,4.409980400518558,3.526757945852019,-0.1393103895000558,60,1970-01-01 01:06:20.336938129,1.3196869,2.7938538,3.3563843,16.57095901253573,4.562072789762626,-97.03330993652344,21.306764602661133,167.399658203125,28097536.0,50354.0,0.17265505407611145,-0.26213776544156747,0.0913743125931142,0.00553074321136147,-0.010362278813159072,0.00551588398071951,28.097536676000345
1612,A,3980387292133.0,6.2117534305185576,9.078865945852018,-4.879026089500056,60,1970-01-01 01:06:20.387292133,-1.165863,1.447876,2.3078156,13.121094926246847,2.963375489159003,-97.1252670288086,21.412353515625,167.3072509765625,28147890.0,50354.0,0.2674233926640215,-0.1760974072785675,-0.12634665753178584,0.011079855053576329,-0.01103344694357484,-0.000880498728520936,28.147890680000273
1612,A,3980437646137.0,7.779014200518557,12.742226945852018,3.401278010499944,60,1970-01-01 01:06:20.437646137,-2.7034607,-2.0130768,1.1647339,7.132007543618578,3.566200080891696,-97.22406768798828,21.482707977294922,167.40673828125,28198244.0,50354.0,0.3522455566466215,0.05592045573443246,-0.037205263384985816,0.01560140513679406,-0.0030256951090266884,-0.00411774671292156,28.1982446840002
1612,A,3980488000141.0,7.825080500518558,12.555062545852017,5.7888207104999445,60,1970-01-01 01:06:20.488000141,-1.1670685,-1.0410156,0.816391,7.885843333824833,1.7641589010110768,-97.26409912109375,21.529762268066406,167.4567108154297,28248598.0,50354.0,0.3928642922880115,0.14344065753263247,0.2313791154986142,0.018759630666627256,0.005019314748724894,0.004888715074664822,28.24859868800013
1612,A,3980538354145.0,8.783301900518557,12.501809345852017,0.15468071049994414,60,1970-01-01 01:06:20.538354145,0.06300354,0.8367462,-0.18997192,8.04587928494215,0.8603504981433195,-97.27684020996094,21.51504135131836,167.4133758544922,28298952.0,50354.0,0.4181492437109115,0.13738766361743243,0.14963953527651422,0.020418887795844887,0.007070414641595185,0.00959290657056541,28.298952692000057
1612,A,3980588708149.0,5.268149900518558,12.752587545852018,-2.658780589500056,60,1970-01-01 01:06:20.588708149,0.042922974,1.1337128,-2.3196106,8.920067099869486,2.582196822516286,-97.29100799560547,21.392807006835938,167.36875915527344,28349306.0,50354.0,0.35377340199471147,0.14236075054243247,-0.06304572265358582,0.01943469645093047,0.007043225823302919,0.002180172420407468,28.34930669600044
1612,A,3980639062153.0,-3.029290099481443,8.861321945852017,-5.5476200895000565,60,1970-01-01 01:06:20.639062153,-0.22840881,-1.2647247,-3.8169403,16.622771124113363,4.02749703973073,-97.2685317993164,21.211511611938477,167.46205139160156,28399660.0,50354.0,0.05636777321071144,0.050704199272632464,-0.20661254989518582,0.010326124368146934,0.0048607962414938906,-0.006789186327960424,28.399660700000368
1612,A,3980689416157.0,-7.524575099481442,3.152703945852018,5.497438910499945,60,1970-01-01 01:06:20.689416157,-1.0220032,-1.9728851,-2.6230621,21.79917367200007,3.437618498185722,-97.27536010742188,21.093900680541992,167.58477783203125,28450014.0,50354.0,-0.26571466411428857,-0.19099207012456756,-0.0012634115436858167,-0.005270726672279362,-0.0035320277244391706,-0.005233693081146472,28.450014704000296
1612,A,3980739770161.0,-3.0924150994814426,4.754708945852018,6.205873910499944,60,1970-01-01 01:06:20.739770161,0.5617218,0.9010315,0.14659119,18.03599097457334,1.071857323328579,-97.2648696899414,21.095476150512695,167.535888671875,28500368.0,50354.0,-0.26730396223928854,-0.2943842656255675,0.2946543068943142,-0.013419809955704012,-0.01222032000518115,0.007386702572242772,28.500368708000224
1612,A,3980790124164.0,6.727317400518557,11.963418245852019,1.428652310499944,60,1970-01-01 01:06:20.790124164,1.9425507,3.710678,1.7475586,7.877887137686697,4.5383472214219625,-97.24313354492188,21.15872573852539,167.3267364501953,28550722.0,50354.0,0.09151593523321144,-0.07255691169446751,0.1922144666661142,-0.004425815155932003,-0.009238478021386524,0.012257895111930907,28.550722711000162
1612,A,3980840478168.0,8.541083900518558,11.212853945852018,-0.6988806895000561,60,1970-01-01 01:06:20.840478168,1.9571686,2.8002625,1.2442322,9.441475747835238,3.635944549253887,-97.20211791992188,21.202836990356445,167.1693878173828,28601076.0,50354.0,0.3844125395562115,0.0900398049705325,0.01837346010191418,0.011982451209773303,0.0004401668040114883,0.0053019722322386505,28.60107671500009
1612,A,3980890832172.0,10.277503600518557,10.526619945852017,-1.6247686895000557,60,1970-01-01 01:06:20.890832172,0.38052368,3.0521545,-0.013702393,10.91318416071943,3.075814220411388,-97.24177551269531,21.1829776763916,167.00711059570312,28651430.0,50354.0,0.47379557751361145,0.053865534171432465,-0.058502520415085815,0.021607105763466937,0.003623104723577252,-0.0010103293515047224,28.651430719000018
1612,A,3980941186176.0,9.215705500518558,12.787102945852018,-0.9928564895000558,60,1970-01-01 01:06:20.941186176,0.2533722,0.34292603,-1.6256866,8.387879678186039,1.680670299375806,-97.23171997070312,21.100177764892578,166.9998321533203,28701784.0,50354.0,0.4907805255368115,0.09350040124443247,-0.0659039491316858,0.024285132546500502,0.0037102321559652316,-0.0031321816837790693,28.7017847230004
1612,A,3980991540180.0,4.259254000518558,10.408547945852018,0.02499631049994422,60,1970-01-01 01:06:20.991540180,-0.102493286,-3.318039,-2.4566345,9.942641547279173,4.129762795341438,-97.16756439208984,20.999101638793945,167.19268798828125,28752138.0,50354.0,0.33925905535761147,0.09052770250043247,-0.02436781572668581,0.020897906528178887,0.004633275567984465,-0.002272772223839222,28.75213872700033
1612,A,3981041894184.0,2.4954754005185578,8.945809945852018,3.246767510499944,60,1970-01-01 01:06:21.041894184,-1.6633606,-2.7348328,-2.2583313,11.4595360324327,3.9174148606125305,-96.95507049560547,20.882539749145508,167.43826293945312,28802492.0,50354.0,0.17006382212991147,-0.006184531360567539,0.08237319772131418,0.012823222086503366,0.0021235080197883793,0.0014604015024787587,28.802492731000257
1612,A,3981092248188.0,1.3084329005185573,10.366814945852019,4.111528910499944,60,1970-01-01 01:06:21.092248188,-1.0354767,0.8096466,-2.2369995,10.71984116793817,2.5945917551967015,-97.0169677734375,20.7665958404541,167.4098358154297,28852846.0,50354.0,0.09577099929521145,-0.007235243101567512,0.1852598289915142,0.006692923299020321,-0.0003378696616331742,0.006738196713548881,28.852846735000185
1612,A,3981142602192.0,-0.18590609948144277,10.311302945852018,0.940813510499944,60,1970-01-01 01:06:21.142602192,0.54367065,1.9237213,-1.5870056,11.625652157854773,2.5524239832317184,-97.02223205566406,20.676088333129883,167.31813049316406,28903200.0,50354.0,0.028261857269711435,0.027143774159432508,0.1272028251335142,0.003122775229735064,0.0005012370864438671,0.00786687224290584,28.903200739000113
1612,A,3981192956196.0,-1.5519336994814426,8.251610945852018,-0.6710028895000559,60,1970-01-01 01:06:21.192956196,0.5875244,0.108078,-0.25975037,14.372768077808464,0.6514107992614928,-96.99427795410156,20.662538528442383,167.3140869140625,28953554.0,50354.0,-0.04375359261848857,-0.0261107169485675,0.006793022004914182,-0.0003900354208761619,2.600928139794827e-05,0.0033736134434042115,28.95355474300004
1612,A,3981243310200.0,-1.4777454994814425,7.279885945852017,0.4118829104999442,60,1970-01-01 01:06:21.243310200,0.030654907,-1.3016205,1.6809692,14.90858318049139,2.126220379145132,-96.97217559814453,20.753875732421875,167.3722381591797,29003908.0,50354.0,-0.07627823319228856,-0.10243270275756754,-0.006523863711285814,-0.003022041278437936,-0.003236337677941362,6.776598358681431e-06,29.003908747000423
1612,A,3981293664204.0,1.0296093005185574,6.964821945852018,3.433901310499944,60,1970-01-01 01:06:21.293664204,-0.014755249,-1.2372589,3.6345062,13.844910871881602,3.8393570582638836,-96.71724700927734,20.999332427978516,167.50013732910156,29054262.0,50354.0,-0.01128272508128856,-0.13483018941056754,0.0968253093321142,-0.0022045222464538517,-0.005973567836117137,0.0022735194963955964,29.05426275100035
1612,A,3981344018207.0,4.178443500518558,3.1363609458520187,5.576220010499944,60,1970-01-01 01:06:21.344018207,1.0930634,1.8764038,4.7206726,16.95193637285251,5.19619366589283,-96.709228515625,21.2227840423584,167.3706817626953,29104616.0,50354.0,0.13112314537171146,-0.23915171833556753,0.2268478244988142,0.003017222261651978,-0.009415742491324442,0.008149118490461285,29.10461675400029
1612,A,3981394372211.0,7.674583000518558,5.074394945852019,-0.49149848950005603,60,1970-01-01 01:06:21.394372211,0.76841736,4.494278,4.0166016,15.059737660102853,6.076354860733196,-96.76705169677734,21.395854949951172,167.1058349609375,29154970.0,50354.0,0.2984236482166115,-0.2867469989145675,0.1280180337342142,0.010814699622173208,-0.01324055200420665,0.008934457712732958,29.154970758000218
1612,A,3981444726215.0,8.425452800518558,11.819405945852019,-1.281217089500056,60,1970-01-01 01:06:21.444726215,-0.7257538,-0.005630493,1.7665253,9.117828868347926,1.909806774573269,-96.80732727050781,21.48360252380371,167.0949249267578,29205324.0,50354.0,0.4053506013627115,-0.0681339749495675,-0.044631660132485824,0.017718924281658617,-0.008934838278977326,0.0020994187281707156,29.205324762000146
1612,A,3981495080219.0,6.0166698005185575,14.880501945852018,3.9597955104999443,60,1970-01-01 01:06:21.495080219,-0.4234314,-2.2412415,0.6480713,4.982728617054031,2.371171445027099,-96.78616333007812,21.52903938293457,167.21041870117188,29255678.0,50354.0,0.3636093207263115,0.1787543809894325,0.0674385689055142,0.019360103958435335,0.0027850899628656814,0.0005742095421785354,29.255678766000074
1612,A,3981545434223.0,5.338843900518557,15.526452245852017,3.309038640499944,60,1970-01-01 01:06:21.545434223,0.124053955,-0.5506592,0.21354675,4.346598249597532,0.6035040619012805,-96.76966094970703,21.542888641357422,167.2384490966797,29306032.0,50354.0,0.28589776845101145,0.2720866856845325,0.1830074374197242,0.01635263998421746,0.011350825535650417,0.006305479101250527,29.30603277
1612,A,3981595788227.0,3.9252086005185576,14.309243445852019,2.670885570499944,60,1970-01-01 01:06:21.595788227,0.38153076,0.6306305,-1.1569366,5.942274497861961,1.3717736128005917,-96.62973022460938,21.558773040771484,167.26007080078125,29356386.0,50354.0,0.23324104981861146,0.2577041104300325,0.1505565518603442,0.013070358027574298,0.013338542873776402,0.008398140558104282,29.356386774000384
1612,A,3981646142231.0,-2.8600850994814433,10.209969945852018,-4.986646089500056,60,1970-01-01 01:06:21.646142231,0.6409607,-1.1820221,-2.140091,15.383384512346105,2.527448585454094,-96.5696792602539,21.459266662597656,167.33639526367188,29406740.0,50354.0,0.026816614385611427,0.1238510355629325,-0.05830390258686582,0.00654747181166972,0.009606413910664881,0.0023226449507583653,29.406740778000312
1612,A,3981696496235.0,-4.486656599481442,8.462151945852018,0.033449610499943994,60,1970-01-01 01:06:21.696496235,-0.9438782,-1.4428864,-1.4167938,15.894702099455126,2.2316209112343968,-96.58557891845703,21.39716148376465,167.42208862304688,29457094.0,50354.0,-0.18496891575478858,-0.023361187132567532,-0.12470662775178581,-0.0039818004915717735,0.002530032913931299,-0.004607656122336232,29.45709478200024
1612,A,3981746850239.0,1.7562633005185573,7.107628945852017,7.403688910499944,60,1970-01-01 01:06:21.746850239,-0.2599945,0.68374634,-0.80618286,14.196640200372729,1.0885940479588454,-96.61006164550781,21.353193283081055,167.39060974121094,29507448.0,50354.0,-0.06874311208798856,-0.10146882648956755,0.1872448365432142,-0.0063877077249976,-0.0031428452529644953,0.0015745244827417924,29.507448786000168
1612,A,3981797204243.0,3.1874004005185577,7.7570129458520185,1.527575010499944,60,1970-01-01 01:06:21.797204243,0.66256714,1.1147614,-0.12702942,12.444101161482001,1.303006012067203,-96.58497619628906,21.180261611938477,167.33676147460938,29557802.0,50354.0,0.12446662100101147,-0.11922211109256753,0.22486243173901418,0.0014029507839031779,-0.005556335735505415,0.010375624693541665,29.557802790000096
1612,A,3981847558247.0,5.515494900518558,12.535378645852017,0.623247610499944,60,1970-01-01 01:06:21.847558247,1.3471222,-0.94525146,0.31903076,7.55307875617584,1.6763111794029022,-96.50011444091797,21.201496124267578,167.38516235351562,29608156.0,50354.0,0.21911279499421146,0.017432343104332466,0.05415126112891418,0.008650298956511728,-0.0025627609886397945,0.007024727745335833,29.608156794000024
1612,A,3981897912250.0,6.015632200518557,13.144341645852018,-0.0612005895000558,60,1970-01-01 01:06:21.897912250,1.8249664,-0.6400757,-1.0536346,7.176713929590006,2.202349911611824,-96.39425659179688,21.152740478515625,167.42559814453125,29658510.0,50354.0,0.29031918702281145,0.15306911778423246,0.014150657847714188,0.012825969011242586,0.0042927152807914,0.0017196374140745724,29.658510797000417
1612,A,3981948266254.0,4.409843000518558,8.360817945852018,-1.3963600895000559,60,1970-01-01 01:06:21.948266254,0.5085907,2.697281,-1.4736023,12.266147849031098,3.1153640287537474,-96.41738891601562,21.064472198486328,167.29075622558594,29708864.0,50354.0,0.2624821891365115,0.04796620304033248,-0.03669700521518581,0.013917880247563274,0.005061466272400072,-0.0005676493876708331,29.708864801000345
1612,A,3981998625590.0,5.199805800518558,10.649681945852018,-0.8507360895000557,60,1970-01-01 01:06:21.998625590,0.24319458,1.3247681,-1.8125916,9.845461666879425,2.258238789612282,-96.42662811279297,20.967004776000977,167.23110961914062,29759224.0,50360.0,0.24197095681011457,-0.014843612726892405,-0.056581881787222815,0.012702130214936044,0.0008340268240924211,-0.0023487623747206494,29.759224137000274
1612,A,3982048979594.0,3.8620372005185577,11.949379945852018,-0.917981589500056,60,1970-01-01 01:06:22.048979594,-0.5572357,-0.48664856,-2.1640015,8.974582490405352,2.2869720020819697,-96.44060516357422,20.862213134765625,167.2699737548828,29809578.0,50354.0,0.22815002123711145,0.07550738124743248,-0.04453100500418582,0.011836235864295011,0.0015273317000416373,-0.0025457191507472954,29.809578141000202
1612,A,3982099333598.0,3.1819989005185576,10.807167945852019,1.337725210499944,60,1970-01-01 01:06:22.099333598,-1.7164001,-1.5712433,-1.596756,9.580193479622125,2.822138291191787,-96.5667495727539,20.7604923248291,167.3370361328125,29859932.0,50354.0,0.17734769691581145,0.07947240626943249,0.010567885145914179,0.01020921604993614,0.0039019261103121097,-0.000855089468671705,29.85993214500013
1612,A,3982149687602.0,1.4521862005185575,9.400399445852019,3.816149210499944,60,1970-01-01 01:06:22.149687602,-1.9661255,-0.75201416,-1.4810486,11.479876846933873,2.5738453205569125,-96.647705078125,20.691259384155273,167.38607788085938,29910286.0,50354.0,0.11667487828881146,0.015296724220932511,0.12975909629751417,0.007402606375926792,0.0023860023983559193,0.0035330124118011954,29.910286149000058
1612,A,3982200041606.0,1.2212597005185577,10.129540945852018,4.006548410499944,60,1970-01-01 01:06:22.200041606,0.2584839,-0.10621643,-1.3827972,10.956157259416099,1.410752973730339,-96.62977600097656,20.62319564819336,167.40025329589844,29960640.0,50354.0,0.06730934745041145,-0.0017638907580675171,0.1969520580039142,0.004632170851436415,0.000340716148094552,0.008225606731847064,29.96064015300044
