Subject-id_accel,Activity_accel,Timestamp_accel,accel_x,accel_y,accel_z,Segment_accel,DateTime,gyro_x,gyro_y,gyro_z,accel_magnitude,gyro_magnitude,Roll,Pitch,Yaw,Time_Difference,Difference_Microseconds,vx,vy,vz,dx,dy,dz,Time_diff
1649,A,1165034799044835.0,1.459266,17.842927474582616,4.76498944604918,248,1970-01-14 11:37:14.799044835,-2.4298682,-2.5928538,-0.64341974,4.378075837244733,3.6112517579597445,-86.5152359008789,0.16646218299865723,-97.52483367919922,15003247.0,39379.0,0.1399605464575,0.2829579649529888,0.18445853080417063,0.006801059448757198,0.006212036013990583,0.007117656467184976,15.003247859189287
1649,A,1165034840045303.0,-2.2301989,20.135375634582616,5.5820111460491795,248,1970-01-14 11:37:14.840045303,-1.1632688,-2.4117587,-0.7126619,5.002995317579597,2.7708593092740634,-84.00746154785156,1.3975319862365723,-97.37223052978516,15044248.0,41001.0,-0.01580450991645,0.37676440288944185,0.21211868563831243,0.0025452608271097957,0.01352463840195375,0.008130031225679124,15.044248327147216
1649,A,1165034879513689.0,-1.846528,19.327931094582613,3.4745148460491797,248,1970-01-14 11:37:14.879513689,0.5049353,-1.7331853,-1.1174624,3.0271621376274047,2.123114023489068,-82.89219665527344,2.197282552719116,-97.25756072998047,15083716.0,39468.0,-0.0804501286446,0.39198249499334664,0.17872148392806905,-0.0018994890373637606,0.015170451282818949,0.0077128399062229725,15.083716713124886
1649,A,1165034919043168.0,-1.6400281,16.914575874582614,-0.3538136539508203,248,1970-01-14 11:37:14.919043168,2.6141589,-1.2346416,-1.2697952,3.6118062288943618,3.157617216326705,-83.47959899902344,2.736276149749756,-97.23448181152344,15123246.0,39530.0,-0.06891178131650001,0.3289391502455507,0.06168065906182408,-0.0029521381503811416,0.014249016318146807,0.004751548356195238,15.123246192000806
1649,A,1165034961029105.0,-4.994903,0.16294537458261615,-18.49527815395082,248,1970-01-14 11:37:14.961029105,1.2250541,1.8429075,0.014913702,28.183543598337824,2.2129817034920114,-84.52789306640625,2.957839250564575,-97.3808364868164,15165232.0,41986.0,-0.1392871085823,-0.05295439641627436,-0.39569898432327916,-0.004370719295645509,0.005793747937137998,-0.007012046702213727,15.165232129162177
1649,A,1165035000706499.0,-5.7029886,9.037053374582616,-8.39533815395082,248,1970-01-14 11:37:15.000706499,-0.680704,-4.169445,0.14913702,15.438858192048851,4.227277066194677,-85.52566528320312,3.428295135498047,-97.2267074584961,15204909.0,39677.0,-0.21223012250659998,-0.20632042481468557,-0.5334694916243067,-0.0069735745889571415,-0.005143623540990397,-0.018433308810086178,15.204909523017704
1649,A,1165035038744730.0,-5.167286,8.769502374582615,-3.40342815395082,248,1970-01-14 11:37:15.038744730,-0.60080916,1.031176,0.44101948,12.972769410436038,1.2723182665730206,-86.15283966064453,3.953218460083008,-97.31487274169922,15242947.0,38038.0,-0.20674175261740002,-0.03410951620662651,-0.22440073640998132,-0.007968426092983358,-0.004572737048284334,-0.014413933866984124,15.242947754217312
1649,A,1165035078672126.0,0.39085343,7.430544374582615,5.7394298460491795,248,1970-01-14 11:37:15.078672126,1.2197278,2.8858013,-0.29507825,13.188120089216953,3.1468486177122648,-85.68994903564453,3.8117494583129883,-97.4323501586914,15282875.0,39928.0,-0.09535669982747999,-0.06787666669966538,0.04663593778105165,-0.006031093504609584,-0.002036052155541211,-0.0035488964398279516,15.282875150209293
1649,A,1165035118359157.0,-0.8074445,18.568969174582616,12.59582484604918,248,1970-01-14 11:37:15.118359157,0.65513766,2.3020365,-0.4101268,11.56933205290935,2.4283289301412125,-84.25603485107422,3.8829643726348877,-97.45435333251953,15322562.0,39687.0,-0.008266624897545,0.12698874711286026,0.36383562648265383,-0.0020562494441810335,0.0011729905676792327,0.00814519248546684,15.322562181157991
1649,A,1165035158080303.0,1.7681179,10.134196374582615,2.5976384460491797,248,1970-01-14 11:37:15.158080303,4.077832,2.2786007,0.15978967,9.913859748337021,4.673999113061876,-83.986083984375,3.552382230758667,-97.5629653930664,15362283.0,39721.0,0.0190794540607,0.18079341938919605,0.30174977771271944,0.00021474819359483985,0.00611270771781409,0.013218858920022211,15.36228332715109
1649,A,1165035198507490.0,2.8377275,7.662782374582616,5.714888846049179,248,1970-01-14 11:37:15.198507490,3.206446,4.844823,0.51984906,13.263478783196897,5.832996562439231,-83.48267364501953,3.214866876602173,-97.78091430664062,15402710.0,40427.0,0.09310025599289999,-0.03644537005374864,0.16802527041883017,0.002267544569168443,0.0029177792952420657,0.009495797935407077,15.40271051414311
1649,A,1165035238093636.0,3.7427359,10.350872374582615,4.25083484604918,248,1970-01-14 11:37:15.238093636,2.5001757,0.628506,0.34834146,10.614153074986568,2.601391953485945,-83.08324432373047,2.657944440841675,-97.79666137695312,15442296.0,39586.0,0.13024711207620002,-0.03139853154977263,0.19725156903770286,0.0044207144561916965,-0.0013428343444384966,0.007229924483363158,15.442296660039574
1649,A,1165035277979678.0,1.0749966,11.588075874582614,-0.6530888539508202,248,1970-01-14 11:37:15.277979678,1.551025,-1.7875137,0.87032104,8.446216345938359,2.52157539863066,-83.46733856201172,2.4462649822235107,-97.72350311279297,15482182.0,39886.0,0.0960800392475,0.04664564493310213,0.07174984832041759,0.004513642378848549,0.0003040731822037402,0.005364695266372996,15.482182702049613
1649,A,1165035318123740.0,-1.7417817,13.205358774582615,-2.23026935395082,248,1970-01-14 11:37:15.318123740,1.8226675,0.36005938,0.017044231,7.577691479633615,1.8579693427214068,-84.14796447753906,2.7281970977783203,-97.77587127685547,15522326.0,40144.0,-0.0133837105272,0.10424262027804446,-0.05787476594900172,0.0016598807100738616,0.0030286292593181344,0.0002785006533590593,15.522326764184982
1649,A,1165035357724678.0,-0.3172317,11.907701374582615,1.7560765460491798,248,1970-01-14 11:37:15.357724678,1.5957662,1.635181,0.36218992,7.900742650638166,2.3133240598699194,-84.10238647460938,2.743917465209961,-97.85690307617188,15561927.0,39601.0,-0.040769494826699997,0.10916134748354611,-0.009389254692856426,-0.0010722605426098967,0.004225505263663374,-0.0013318612407191121,15.561927702045068
1649,A,1165035397763792.0,0.004189853,10.761477374582615,3.5511292460491797,248,1970-01-14 11:37:15.397763792,1.4796523,1.8588865,0.32810146,9.33734819253448,2.398432929400293,-83.80329132080078,2.70166277885437,-97.93689727783203,15601966.0,40039.0,-0.0062669412560164995,0.06144342396891329,0.10624760635491311,-0.0009416459321579428,0.0034154222220925106,0.0019390557710985436,15.60196681600064
1649,A,1165035437884157.0,1.1234791,6.2807283745826155,0.8414915460491798,248,1970-01-14 11:37:15.437884157,1.5936357,0.77444726,0.62531024,13.545023196445397,1.8789508240198454,-83.90853118896484,2.551483392715454,-97.9805679321289,15642087.0,40121.0,0.022621603031656497,-0.05131063156887092,0.08811816939988913,0.00032808269255022615,0.00020326888194104991,0.00389907464452921,15.64208718109876
1649,A,1165035477874521.0,6.225523,5.928781374582615,-2.9593034539508203,248,1970-01-14 11:37:15.477874521,0.6508766,1.216532,0.21411815,15.720495458376785,1.3962224169561892,-84.38190460205078,1.9474807977676392,-98.05988311767578,15682077.0,39990.0,0.14694329698949998,-0.14777285256544126,-0.0423456490984933,0.0033904501759230237,-0.003980674265265572,0.0009152215434264096,15.682077545206994
1649,A,1165035517781292.0,5.368997,7.1743643745826144,-0.3681788539508202,248,1970-01-14 11:37:15.517781292,-0.9012137,1.2942963,0.082025364,13.77832812952466,1.5792774314859035,-84.71088409423828,1.3560642004013062,-98.13179779052734,15721984.0,39907.0,0.23135125481999996,-0.12963498129403161,-0.06639491823071537,0.0075483003395308565,-0.005535257212914992,-0.0021697549102033652,15.721984316129237
1649,A,1165035558059834.0,4.213795,3.4843003745826167,-3.63925715395082,248,1970-01-14 11:37:15.558059834,-1.3305153,0.6178534,-0.3334278,17.48757397893976,1.5043895390617719,-85.28914642333984,0.9664509296417236,-98.17424011230469,15762262.0,40278.0,0.19298784808800004,-0.18006955061656144,-0.08070575376313113,0.008545765193464214,-0.006237139568147434,-0.0029624604332840754,15.762262858217582
1649,A,1165035597488011.0,0.025139118,7.225839874582615,0.9564132260491798,248,1970-01-14 11:37:15.597488011,-3.609116,-2.4841967,-0.62104917,12.551471130339358,4.425229216357564,-85.6036605834961,0.8987086415290833,-98.05509185791016,15801691.0,39429.0,0.083568466669311,-0.17525914005783205,-0.05289092661661688,0.005452169467283008,-0.00700512747230033,-0.002633791755346542,15.801691035041586
1649,A,1165035637972646.0,-3.5075054,6.287911374582615,3.58225404604918,248,1970-01-14 11:37:15.637972646,-3.18301,-1.7757958,0.023435818,14.15309819658233,3.6449352012022063,-85.61711883544922,1.2263789176940918,-97.9642333984375,15842175.0,40484.0,-0.070490058280244,-0.12319784721439744,0.091871702921815,0.00026473314261149424,-0.006041366336364469,0.0007890488739698203,15.842175670200959
1649,A,1165035677498218.0,-4.8069587,3.2724153745826143,2.21755894604918,248,1970-01-14 11:37:15.677498218,-3.9105859,1.4626081,-0.015978966,17.224756556964227,4.175183811860125,-85.82817840576172,1.6012423038482666,-98.0382080078125,15881701.0,39526.0,-0.1643187540083,-0.1984140624562476,0.11462170416283989,-0.004640526557258495,-0.006356016170820957,0.004080929204214034,15.881701242178679
1649,A,1165035717008480.0,-4.710592,5.132110874582615,1.2227681760491798,248,1970-01-14 11:37:15.717008480,-2.6780748,-0.43995422,0.39627838,15.383475681334264,2.7427506092509164,-86.05088806152344,2.0198662281036377,-98.01813507080078,15921211.0,39510.0,-0.18801921407850003,-0.22116658394774094,0.0679636622970531,-0.006960436559554736,-0.008288815669710793,0.0036069739144151862,15.921211504144594
1649,A,1165035756626085.0,4.8733974,6.7685473745826155,0.3554686460491797,248,1970-01-14 11:37:15.756626085,-3.2405345,-3.3268209,-1.9398465,13.91156701670811,5.033071188641117,-86.3787841796875,1.363721251487732,-97.86292266845703,15960829.0,39618.0,0.0032250121685999974,-0.15251626074228597,0.031263293208946406,-0.0036605883456332098,-0.007402283470464743,0.001965586761618344,15.960829109186307
1649,A,1165035796894053.0,4.633379,16.966649774582613,6.53430454604918,248,1970-01-14 11:37:15.796894053,-3.4429348,-2.0122845,-1.5744609,7.6614715740189006,4.2874253429791755,-85.57206726074219,0.39802390336990356,-97.75102233886719,16001097.000000002,40268.00000000186,0.19140943603760885,0.08325805940129655,0.1387186934497148,0.00391876998018399,-0.0013944446257995455,0.0034224173193856434,16.00109707703814
1649,A,1165035836883741.0,-0.010175358,18.889792224582614,5.55806914604918,248,1970-01-14 11:37:15.836883741,-2.1965754,-3.3896716,-0.51452273,4.527684038368031,4.071799440470806,-84.30199432373047,0.3578598201274872,-97.57489013671875,16041086.0,39988.99999999814,0.0924386452199647,0.325039429552294,0.24178096578664937,0.0056754004607042895,0.008163704142882186,0.007607900436601129,16.041086765006185
1649,A,1165035876560981.0,-2.9233203,19.147767444582616,5.07683434604918,248,1970-01-14 11:37:15.876560981,-0.87564737,-2.4724789,-0.7190535,4.96114729624564,2.719733105176936,-83.2247314453125,1.1507132053375244,-97.44098663330078,16080763.999999998,39677.99999999814,-0.05819762035905927,0.36578274627655183,0.21098585037972947,0.000679307692215471,0.013705221146267828,0.008982440865924368,16.080764005193487
1649,A,1165035916809991.0,-2.9753942,18.662343074582616,1.7435070460491797,248,1970-01-14 11:37:15.916809991,0.9715212,-1.4402375,-1.3784522,3.238051993831781,2.2177168363297715,-82.9573974609375,2.3790183067321777,-97.37036895751953,16121013.000000002,40249.000000003725,-0.118708679955261,0.3664693691429746,0.13725596034529616,-0.003560150840675868,0.014736207696761625,0.007008192319936427,16.12101301504299
1649,A,1165035956339783.0,-1.4909891,13.733878874582615,-9.07110215395082,248,1970-01-14 11:37:15.956339783,3.2575786,-0.066046394,-1.5808525,11.93949284115607,3.6215017724826,-84.0979995727539,2.4546327590942383,-97.431640625,16160542.0,39528.99999999814,-0.08827583273284584,0.25291092871426424,-0.14482625351011513,-0.004090945401023895,0.012241741896998821,-0.00014962305925605746,16.160542807076126
1649,A,1165035996439001.0,-8.628703,0.16294537458261615,-17.37838315395082,248,1970-01-14 11:37:15.996439001,1.530785,-0.48043427,0.5837649,28.3064135890832,1.707308192005018,-85.05453491210938,2.879102945327759,-97.45255279541016,16200641.999999998,40099.99999999814,-0.20289982660499056,-0.11434867380423183,-0.5303121804234032,-0.005838071969723349,0.0027781732109460207,-0.013536525600366413,16.200642025098205
1649,A,1165036036494210.0,-1.0079589,10.628000374582616,-6.07116715395082,248,1970-01-14 11:37:16.036494210,-0.8873653,-2.9049761,0.16192019,11.678647447450206,3.041795763220295,-86.0679702758789,2.946631669998169,-97.35660552978516,16240697.0,40055.00000000186,-0.19299824620225897,-0.17642333400860155,-0.46963586879152197,-0.007928848653147557,-0.005823436386471792,-0.020026459555652843,16.24069723417051
1649,A,1165036076423064.0,-5.315128,10.678279374582615,-7.26647315395082,248,1970-01-14 11:37:16.076423064,-0.48363006,1.1163971,0.09054748,13.465635053667723,1.2200161334828175,-87.05313873291016,3.472193717956543,-97.46582794189453,16280626.000000002,39929.00000000186,-0.1262372684150559,0.03406502205221082,-0.26627931992711473,-0.00637337743157768,-0.0028421125190534954,-0.014692178785173909,16.280626088147983
1649,A,1165036116364783.0,0.45549688,8.458854374582614,4.59260714604918,248,1970-01-14 11:37:16.116364783,1.2101405,2.964631,-0.21092236,11.847512796428912,3.209044287299448,-86.65168762207031,3.330690860748291,-97.59397888183594,16320567.0,39940.99999999814,-0.09704926328195547,-0.009243670462295376,-0.0533984411107972,-0.0044591436812549574,0.0004956948019263832,-0.006384124726807323,16.32056780718267
1649,A,1165036156321395.0,0.22325931,19.099883374582614,9.56057534604918,248,1970-01-14 11:37:16.156321395,0.9139969,0.74675035,-0.76059884,8.472545064790623,1.4041143165156027,-85.18785858154297,3.2452189922332764,-97.5521011352539,16360524.000000002,39957.00000000186,0.013560530541915633,0.15900364212170492,0.2827593564184003,-0.0016679796470469637,0.0029919795937976535,0.004582287046473162,16.360524419229478
1649,A,1165036197565927.0,4.6938324,8.547439374582614,4.58003744604918,248,1970-01-14 11:37:16.197565927,3.4344127,2.4671526,0.21411815,12.653209031687146,4.234132629921679,-84.73827362060547,2.662585496902466,-97.66047668457031,16401768.0,41243.99999999814,0.10140026524361541,0.16595188973327785,0.2916077169986392,0.0023707215306891143,0.006701232977913152,0.011844597788005652,16.401768951211125
1649,A,1165036237518115.0,1.5574282,8.954453374582615,2.56292264604918,248,1970-01-14 11:37:16.237518115,2.6652918,3.7774277,0.66579026,11.02834996775401,4.670761937648439,-84.55524444580078,2.445463180541992,-97.84334564208984,16441721.000000002,39953.00000000186,0.12487830737590583,-0.041912839496302784,0.14269134227980954,0.004520253905934076,0.002477866087059048,0.008675775157676334,16.441721139010042
1649,A,1165036275928428.0,1.9147629,7.972232374582616,3.14471354604918,248,1970-01-14 11:37:16.275928428,2.538525,0.12357068,0.4048005,12.12883008019464,2.573566073249512,-84.32243347167969,2.1800973415374756,-97.84358978271484,16480131.0,38409.99999999814,0.06668343007549676,-0.051341000187279294,0.10961515306924369,0.0036789431677540087,-0.0017909399911231073,0.004845546243178333,16.48013145220466
1649,A,1165036315928376.0,-1.4700398,12.949179374582615,-2.4331778539508204,248,1970-01-14 11:37:16.315928376,1.8844528,-1.365669,-0.14061491,7.834594213564615,2.3315202606675216,-84.99573516845703,2.3903286457061768,-97.80680847167969,16520131.0,40000.0,0.008894462,0.02642823498330458,0.014230713841967191,0.0015115578415099355,-0.0004982553040794943,0.0024769173382242177,16.52013140008785
1649,A,1165036355668167.0,-1.3670892,12.025017374582614,-0.7656162539508202,248,1970-01-14 11:37:16.355668167,2.0921793,0.34408042,0.037284255,8.09311811853208,2.12061209900509,-85.3440933227539,2.579540729522705,-97.8432388305664,16559871.000000002,39740.00000000186,-0.05637375323000265,0.10678528940591807,-0.06356003892400859,-0.0009434135167401969,0.0026469527296139783,-0.0009801736893802087,16.55987119115889
1649,A,1165036396961448.0,0.80684596,12.019031774582615,2.53179804604918,248,1970-01-14 11:37:16.396961448,1.9100192,1.365669,0.058589544,7.926167193724829,2.3487566703674876,-85.11055755615234,2.3786492347717285,-97.90518951416016,16601164.0,41292.99999999814,-0.011567062054659476,0.09175406075823572,0.03646547237055713,-0.0014027400427747134,0.004099142693164017,-0.0005594079683458103,16.601164472056553
1649,A,1165036435634208.0,0.18974048,9.553004374582615,3.42303954604918,248,1970-01-14 11:37:16.435634208,1.6138756,0.6359629,0.27803403,10.481591701222907,1.7567999841444135,-84.836181640625,2.3104660511016846,-97.92778778076172,16639837.0,38673.0,0.01927049369706,0.03813227699833344,0.11514571709960993,0.0001489574059532777,0.0025115471700298993,0.0029316297651898852,16.639837232185528
1649,A,1165036475331552.0,1.2282255,5.4678973745826145,-2.20094015395082,248,1970-01-14 11:37:16.475331552,1.7864485,2.0325246,0.041545313,14.73950030107528,2.706340796313295,-85.1974868774414,2.1473898887634277,-98.04638671875,16679534.0,39697.0,0.028144497754030003,-0.09088823163169397,0.02425683978406429,0.00094111645781696,-0.0010471265655402566,0.0027669316503056082,16.679534576134756
1649,A,1165036515474574.0,4.465186,7.447902374582615,-1.9010664539508202,248,1970-01-14 11:37:16.515474574,0.101200126,0.31638354,0.034088463,13.455141073338543,0.33391920159680827,-85.62326049804688,1.6272927522659302,-98.07621002197266,16719677.0,40143.0,0.11427530892224999,-0.13416192533463012,-0.08233342563049777,0.0028585791497029536,-0.004517094225549573,-0.0011656841928166894,16.71967759821564
1649,A,1165036554965095.0,4.9841294,5.449342374582615,-0.4418005539508203,248,1970-01-14 11:37:16.554965095,-1.063134,1.091896,-0.18322548,15.249089853722257,1.5349470197023838,-85.92655944824219,1.1163915395736694,-98.13706970214844,16759167.999999998,39490.99999999814,0.1865814572306912,-0.13234925380535173,-0.04626108050451966,0.00594056727607262,-0.0052623964877082634,-0.002539162820888867,16.75916811916977
1649,A,1165036594607960.0,1.9973627,4.762206374582615,-7.712393153950821,248,1970-01-14 11:37:16.594607960,-2.5566347,1.0727214,-0.6466155,17.532457155832358,2.8469674736642676,-86.8622055053711,0.9013932347297668,-98.20684051513672,16798810.0,39642.00000000186,0.1383801549141065,-0.18608849224280474,-0.161624273484326,0.006441064114322338,-0.006311754564420805,-0.004120495601413103,16.798810984008014
1649,A,1165036635296658.0,-2.2080526,4.753228374582616,6.54029024604918,248,1970-01-14 11:37:16.635296658,-3.9926112,-3.2597091,0.14061491,16.12350863392625,5.156202106580245,-86.65101623535156,1.073939323425293,-98.03694915771484,16839499.0,40689.0,-0.004286380670549995,-0.20516543774560803,-0.023845847609804932,0.0027280707900980356,-0.007959865578649264,-0.003773296878599547,16.839499682188034
1649,A,1165036675779001.0,-3.2746694,5.8378013745826145,1.9356417060491797,248,1970-01-14 11:37:16.675779001,-3.613377,0.2695119,0.6125271,14.341275503102882,3.674822370755493,-86.83175659179688,1.406159520149231,-98.04914093017578,16879982.0,40483.0,-0.11097851736299999,-0.18235507133227202,0.17156557660839894,-0.002333134433546102,-0.007843996384499908,0.0029900688945250407,16.87998202512972
1649,A,1165036714913219.0,-4.7261543,3.077885374582614,4.279565246049179,248,1970-01-14 11:37:16.714913219,-4.5753107,2.5076325,0.3536678,17.639929643484752,5.229413893482479,-86.88253021240234,1.7807700634002686,-98.16911315917969,16919116.0,39134.0,-0.1565521173379,-0.209059957379084,0.1216129544317086,-0.00523477192919251,-0.007658817866795104,0.005736624316861785,16.919116243021563
1649,A,1165036754751813.0,-1.6783354,5.164432374582615,-0.32328765395082026,248,1970-01-14 11:37:16.754751813,-2.122007,-2.855974,0.6764429,14.778337590427835,3.621750432275174,-87.20059204101562,1.9260421991348267,-98.03175354003906,16958954.0,39838.0,-0.1275710303343,-0.2262336727543778,0.07880509335700721,-0.005659448978482552,-0.008670613818628424,0.00399212709390343,16.958954837173223
1649,A,1165036794539365.0,5.847239,10.095889374582615,5.46050534604918,248,1970-01-14 11:37:16.794539365,-3.9500005,-1.7747306,-1.6117451,12.114316289317745,4.620594650037008,-86.93881225585938,1.1107590198516846,-97.93352508544922,16998742.0,39788.0,0.0829361682184,-0.08633355912210693,0.10219980876660475,-0.0008879659469337147,-0.006218212510950787,0.0036009115228471363,16.99874238902703
1649,A,1165036834522230.0,3.122039,17.583755374582616,10.92766484604918,248,1970-01-14 11:37:16.834522230,-2.8836708,-0.3206446,-1.1046792,10.525361547475221,3.1046233873361255,-85.76561737060547,0.6224507689476013,-97.8999252319336,17038725.0,39983.0,0.17930932113699996,0.16152421800293668,0.3276241043953343,0.005242680700448477,0.001503174057016108,0.008592824759976903,17.038725254125893
1649,A,1165036874141553.0,0.21188685,20.673472474582614,5.133696446049179,248,1970-01-14 11:37:16.874141553,-1.3859091,-3.1691618,-0.34194988,4.120140167429075,3.4758107354218906,-82.97277069091797,0.44488370418548584,-97.71640014648438,17078344.0,39619.0,0.066043404125575,0.3695903550780386,0.3181675365158224,0.004860314811088979,0.01052111413544758,0.01279280951062956,17.078344577224925
1649,A,1165036914360875.0,-2.391209,19.722974384582614,3.2003788460491798,248,1970-01-14 11:37:16.914360875,0.014913702,-1.6788567,-0.63702816,3.1712661439093344,1.79571353903545,-82.03992462158203,1.4811463356018066,-97.6213150024414,17118563.0,40219.0,-0.043825078775425,0.41820614811438306,0.16759408708645193,0.0004467994136288413,0.015842193780948,0.009768423369829936,17.118563899071887
1649,A,1165036954270459.0,-1.6226702,18.291840374582616,0.4703902460491798,248,1970-01-14 11:37:16.954270459,2.380866,-0.87032104,-1.3784522,2.2925844523837284,2.885500318888827,-82.4493179321289,2.3981049060821533,-97.60470581054688,17158473.0,39910.0,-0.080096959436,0.36746762851914216,0.07325019723282276,-0.002472864272508986,0.015678120212721997,0.004806047693591126,17.158473483053967
1649,A,1165036994665771.0,-2.2631192,4.318681374582615,-18.49527815395082,248,1970-01-14 11:37:16.994665771,3.6155076,1.8354506,-1.3997575,25.074679065094823,4.2895332111436515,-83.50057983398438,2.4380850791931152,-97.7567138671875,17198868.0,40395.0,-0.0784832314065,0.06080501302876473,-0.36405767351984336,-0.0032029234045413938,0.00865003667766385,-0.005873584002307098,17.19886879506521
1649,A,1165037033846240.0,-10.184336,0.16294537458261615,-8.83407615395082,248,1970-01-14 11:37:17.033846240,-0.94595486,-3.0551784,0.26844665,24.237295460766656,3.2095185397315285,-84.25715637207031,2.9900906085968018,-97.63737487792969,17238049.0,39181.0,-0.2438518710956,-0.29617649117047856,-0.535395715568947,-0.006314705825567391,-0.004611044942535245,-0.017620741618943947,17.23804926406592
1649,A,1165037073782803.0,1.2413936,13.984072974582615,-0.6315410539508202,248,1970-01-14 11:37:17.073782803,-1.0982877,-0.77125144,0.36432046,6.176673014050455,1.3906092381571378,-84.84873962402344,2.649336099624634,-97.62345886230469,17277985.0,39936.0,-0.1785726738432,-0.1088851376038687,-0.18900944440737996,-0.008434973313337958,-0.008088270603366166,-0.014464922234407297,17.277985827066004
1649,A,1165037113826864.0,-4.408922,2.8546253745826142,3.35959324604918,248,1970-01-14 11:37:17.113826864,1.0247844,3.4216294,-0.3057309,17.62964715948059,3.584857347321164,-84.74786376953125,2.943408489227295,-97.79248809814453,17318029.0,40044.0,-0.06342025362479999,-0.05528678165301382,0.054621060990193364,-0.004845182393764296,-0.003287050167361302,-0.00269072421277891,17.318029888207093
1649,A,1165037156725562.0,1.9644425,14.370137974582615,10.62539684604918,248,1970-01-14 11:37:17.156725562,0.015978966,1.6341157,-0.46339005,11.111940017241183,1.6986229089412168,-83.59334564208984,2.633801221847534,-97.81974029541016,17360928.0,42899.0,-0.05243286303524999,-0.05094763854208044,0.29997104498046373,-0.0024849914257997416,-0.0022786751959746744,0.007605823377017609,17.360928586218506
1649,A,1165037193348792.0,-1.7399861,16.833172774582614,-2.34459245395082,248,1970-01-14 11:37:17.193348792,3.625095,1.9153455,-1.2026836,4.866099644235458,4.2727403367282,-84.52823638916016,3.060765266418457,-97.97627258300781,17397551.0,36623.0,0.0041101333686000005,0.2124740247833391,0.15163394962590912,-0.0008848616642908613,0.002957790421656808,0.008269564858734597,17.39755181618966
1649,A,1165037233382125.0,2.5408466,6.723656374582616,4.74942724604918,248,1970-01-14 11:37:17.233382125,3.0402648,4.458132,0.36005938,13.784523431254405,5.408122940602315,-84.140869140625,2.7629823684692383,-98.18457794189453,17437585.0,40034.0,0.0160308246285,0.07920384907884039,0.04813757803343287,0.0004031615562279507,0.005838516001099247,0.003998826669157048,17.437585149193183
1649,A,1165037273158583.0,3.5649664,9.779855374582615,3.68400754604918,248,1970-01-14 11:37:17.273158583,2.7281423,2.1198764,0.20559604,10.918840647149011,3.461055632605453,-83.80791473388672,2.252638816833496,-98.28085327148438,17477361.0,39776.0,0.12143240894399998,-0.06158295833260192,0.1677241511452522,0.0027338687892898795,0.00035044427516119065,0.004293058069905689,17.47736160713248
1649,A,1165037313085771.0,1.8980033,10.439457374582615,0.4841569460491798,248,1970-01-14 11:37:17.313085771,1.7406421,-1.0727214,0.479369,9.548812041045048,2.1000858935937288,-83.96458435058594,1.9319247007369995,-98.23411560058594,17517288.0,39927.0,0.10905999560595,0.012363650067960036,0.08321115183800559,0.004601435118232926,-0.000982589660541178,0.005009546921106266,17.517288795206696
1649,A,1165037353290719.0,-1.2228385,12.021425974582616,-1.0014451539508205,248,1970-01-14 11:37:17.353290719,1.8599517,0.6487461,-0.14168017,8.13170943208054,1.9749342012252786,-84.38799285888672,2.098911762237549,-98.28512573242188,17557493.0,40205.0,0.013572500392000001,0.057510907526594025,-0.01039878619934273,0.0024652197507987897,0.001404653294044523,0.0014637105802512201,17.55749374302104
1649,A,1165037392878531.0,-0.21787235,12.317109874582615,1.6495346460491798,248,1970-01-14 11:37:17.392878531,1.8397117,1.4274544,0.11930962,7.4812215997668865,2.3316088841443356,-84.33699798583984,2.1011245250701904,-98.35702514648438,17597081.0,39588.0,-0.028517430564899995,0.09379457859837655,0.012828283406594924,-0.00029581994784238244,0.0029949407923576675,4.8089467720349924e-05,17.59708155505359
1649,A,1165037433133687.0,-0.46806642,12.996464374582615,2.81491234604918,248,1970-01-14 11:37:17.433133687,1.3006879,1.8546255,0.1257012,7.00456664972808,2.2687497768899285,-84.06672668457031,2.1605422496795654,-98.44097137451172,17637336.0,40255.0,-0.013806232593174999,0.11499996570007313,0.08985815683345973,-0.0008518695302141545,0.004202512190367046,0.0020668213259317,17.637336711166427
1649,A,1165037474880509.0,-0.6691794,7.0953563745826145,1.3969463460491798,248,1970-01-14 11:37:17.474880509,1.6618125,1.144094,0.45806372,12.701596190101684,2.0689113653253703,-84.10233306884766,2.210881233215332,-98.49993896484375,17679083.0,41747.0,-0.023738300623769998,0.010266020407700392,0.08791623240951513,-0.0007836858141039014,0.0026147395610206106,0.003710773713863235,17.67908353311941
1649,A,1165037513008480.0,5.380968,5.839597374582615,-3.89364065395082,248,1970-01-14 11:37:17.513008480,1.1558119,1.6831179,0.18642128,15.757592935053065,2.0502536201940624,-84.63094329833984,1.6927448511123657,-98.60287475585938,17717211.0,38128.0,0.08982553787040001,-0.1270624417259141,-0.04759698028583687,0.0012598870908697548,-0.0022266069760104265,0.0007686462224858024,17.71721150400117
1649,A,1165037552557699.0,5.687426,6.855936374582615,-1.51619855395082,248,1970-01-14 11:37:17.552557699,-0.30786142,1.320928,-0.14807177,14.360373124565154,1.3643880255188952,-85.03018951416016,1.0870658159255981,-98.67852020263672,17756760.0,39549.0,0.21887195715300004,-0.1365323678771322,-0.106976865416651,0.006104338615340224,-0.005212455562495439,-0.0030566205118438463,17.756760723190382
1649,A,1165037592725199.0,4.959589,3.5621133745826157,-3.80206265395082,248,1970-01-14 11:37:17.592725199,-0.9331717,1.212271,-0.3387541,17.6551077892344,1.5668965311687622,-85.58944702148438,0.6485932469367981,-98.7479476928711,17796928.0,40168.0,0.21383464926,-0.18441028883776553,-0.10681195809949655,0.008690479483198694,-0.006445812317462007,-0.004293734731498308,17.796928223222494
1649,A,1165037632620147.0,-0.47644615,7.085779374582614,-6.44406415395082,248,1970-01-14 11:37:17.632620147,-3.1606395,-0.9044095,-0.23648871,14.780394883168778,3.295986271604899,-86.572265625,0.6665509939193726,-98.71327209472656,17836823.0,39895.0,0.089427492000375,-0.1785721593860266,-0.20438461450061796,0.00604932156279133,-0.007240592385944093,-0.006207593631940784,17.836823171004653
1649,A,1165037673757855.0,-2.8215668,5.803085374582615,6.2523874460491795,248,1970-01-14 11:37:17.673757855,-3.3364084,-3.073288,0.24607609,15.151638515583905,4.542826607367295,-86.33136749267578,0.9203563332557678,-98.55387115478516,17877960.0,41137.0,-0.067835179362075,-0.13803798540679502,-0.003942502366474894,0.0004441214825008735,-0.006512195763171151,-0.004284976303280799,17.87796087912284
1649,A,1165037712684417.0,-1.4808137,4.5557063745826145,4.174220246049179,248,1970-01-14 11:37:17.712684417,-3.6911414,1.8290591,0.22264028,15.594805716160469,4.12547581745006,-86.32676696777344,1.0506222248077393,-98.64136505126953,17916887.0,38927.0,-0.08373938286175,-0.1798662567901226,0.20293827881515641,-0.002950171491843418,-0.006187529217999706,0.003873154294908913,17.91688744118437
1649,A,1165037752270042.0,-2.106299,0.16294537458261615,-2.2033344539508204,248,1970-01-14 11:37:17.752270042,-4.1012683,0.5006743,0.4676511,20.003735652096353,4.1580973984018925,-86.85968780517578,1.2008026838302612,-98.67155456542969,17956473.0,39586.0,-0.0709997216711,-0.2945465259287726,0.03900974248300282,-0.0030627510960187,-0.009390052208355093,0.004788877185554466,17.956473066005856
1649,A,1165037791854833.0,1.323395,7.994378374582615,8.73876584604918,248,1970-01-14 11:37:17.791854833,-2.271144,-0.93423694,-1.9004318,14.093952726089654,3.1052431072699935,-86.2646255493164,0.942661464214325,-98.61661529541016,17996057.0,39584.0,-0.015495235967999997,-0.22647344835652178,0.12934925811241074,-0.0017119082015930672,-0.010312027331054546,0.003332161339784425,17.996057857060805
1649,A,1165037832166187.0,4.3317094,15.655225374582615,3.8384336460491797,248,1970-01-14 11:37:17.832166187,-3.6815538,-2.5949843,-1.4434333,6.56864921639355,4.72982891774003,-85.9144058227539,-0.09803374856710434,-98.48625946044922,18036369.0,40312.0,0.11398428428640002,0.08162381316817435,0.2535060329627345,0.001985145257905671,-0.0029195892468563307,0.007716831246910628,18.036369211040437
1649,A,1165037872227646.0,1.4275428,18.288847574582615,5.050498146049179,248,1970-01-14 11:37:17.872227646,-2.404302,-3.077549,-0.5454154,4.440112668766229,3.943279588510325,-84.80430603027344,-0.597152054309845,-98.3416519165039,18076430.0,40061.0,0.11536070119210001,0.28731895320825407,0.17804974826162615,0.004593894731627094,0.00739010808190305,0.008644278075814556,18.076430670218542
1649,A,1165037912828479.0,-3.369839,20.420285674582615,6.102749846049179,248,1970-01-14 11:37:17.912828479,-1.1377025,-2.4213462,-0.56245965,6.051290443197144,2.7337968572369844,-82.48182678222656,0.9566773176193237,-98.2169418334961,18117031.0,40601.0,-0.039429584008099997,0.3879249595246787,0.22641651086359268,0.0015414396443937921,0.013707789050434903,0.008210867293371504,18.11703150300309
1649,A,1165037952213635.0,-2.6318262,19.910919224582614,2.7365021460491796,248,1970-01-14 11:37:17.952213635,0.5752428,-1.7949706,-1.1494204,3.092591902331821,2.2077117089312996,-81.69911193847656,2.1054322719573975,-98.11505889892578,18156416.0,39385.0,-0.118187791951,0.40824925247681126,0.17406696985439693,-0.003103880176074577,0.015678660669839344,0.007886520944039011,18.156416659010574
1649,A,1165037992276970.0,-1.5987282,12.940799374582614,-6.81396815395082,248,1970-01-14 11:37:17.992276970,3.145726,-1.0610034,-1.2761868,10.592248072835684,3.5566800573543014,-82.73592376708984,2.2227559089660645,-98.11673736572266,18196479.0,40063.0,-0.0847443504636,0.26545180111917827,-0.08167776033728172,-0.00406503521077806,0.013495242655108064,0.0018506944504420935,18.196479994105175
1649,A,1165038031496708.0,-9.506777,0.16294537458261615,-17.469962153950817,248,1970-01-14 11:37:18.031496708,1.0130665,0.30146983,0.25566345,28.645654033412903,1.0874518800794735,-83.73295593261719,2.6786794662475586,-98.17466735839844,18235699.0,39220.0,-0.21777895697199998,-0.12739156546886987,-0.4762078733379511,-0.005932482058812115,0.0027073612211025474,-0.010940137276371316,18.235699732089415
1649,A,1165038071924782.0,-0.09995792,13.325068774582615,-6.98455515395082,248,1970-01-14 11:37:18.071924782,-0.83516735,-3.299124,0.165116,10.35757815085589,3.407196349396087,-84.97952270507812,2.6481378078460693,-98.06594848632812,18276127.0,40428.0,-0.19419053967287997,-0.12354768198877404,-0.4943236128619237,-0.008327551405179602,-0.0050724859481088135,-0.01961832346204427,18.276127806166187
1649,A,1165038111572281.0,-5.5000796,12.102230374582614,-6.427903153950821,248,1970-01-14 11:37:18.111572281,0.046871636,1.5318503,0.13209279,12.086453819552954,1.5382492636245242,-85.95306396484375,3.27323055267334,-98.19198608398438,18315775.0,39648.0,-0.11101514379648,0.11552037833305148,-0.26588857349584216,-0.006050397469096592,-0.00015913326767104402,-0.015070446382356353,18.31577530503273
1649,A,1165038151581396.0,0.8714894,3.2029823745826143,5.3401964460491795,248,1970-01-14 11:37:18.151581396,2.747317,3.472762,-0.3206446,17.124815286430582,4.439666605347991,-85.57061767578125,3.116874933242798,-98.3525619506836,18355784.0,40009.0,-0.09259263265590002,-0.08591507155932422,-0.021759028838218383,-0.0040730717640416365,0.000592239359355027,-0.005754246460891715,18.35578442015685
1649,A,1165038195667593.0,-2.5234885,17.209062574582614,8.43290654604918,248,1970-01-14 11:37:18.195667593,0.30360037,1.7715348,-0.32597092,8.152665816316905,1.8266816287905296,-84.31181335449219,3.5205237865448,-98.36994934082031,18399870.0,44086.0,-0.0364150161613,0.01789990681444909,0.3036005092548241,-0.00284371560287754,-0.0014992582764712823,0.00621263175282324,18.399870617082343
1649,A,1165038232443531.0,1.6645688,12.907879174582614,2.3252980460491797,248,1970-01-14 11:37:18.232443531,3.456783,0.902279,0.08628642,7.169571770358556,3.5736398040662154,-84.03743743896484,3.1121363639831543,-98.40907287597656,18436646.0,36776.0,-0.0157938154436,0.1933855248836502,0.19782186603950463,-0.0009600159955509013,0.0038851165180646503,0.009220154636912118,18.436646555084735
1649,A,1165038270806187.0,3.3728316,8.294252374582616,5.92617734604918,248,1970-01-14 11:37:18.270806187,3.5388086,4.8352356,0.24074976,12.896918840024844,5.9967182743465095,-83.47357940673828,2.7043824195861816,-98.62891387939453,18475009.0,38363.0,0.0966248957726,0.030731286310312838,0.1582756752335347,0.0015504613673307135,0.004298896613917002,0.006830484987928804,18.475009211106226
1649,A,1165038310764364.0,3.4973302,8.722814374582615,3.8444191460491797,248,1970-01-14 11:37:18.310764364,1.4498249,1.4881744,0.50600064,11.909781594850525,2.1383853565612956,-83.22937774658203,2.253882646560669,-98.69275665283203,18514967.0,39958.0,0.1372589626022,-0.05160442341842788,0.19520674731563312,0.004672765606470129,-0.00041702440628303044,0.007062225320109824,18.51496738800779
1649,A,1165038350965614.0,0.7266402,11.522833374582614,-1.86096365395082,248,1970-01-14 11:37:18.350965614,1.7651432,-2.6130936,0.65726817,8.804610737063296,3.2211783754027574,-83.77603149414062,2.1033201217651367,-98.58348846435547,18555168.0,40201.0,0.08490391702519999,0.012977842582095665,0.039868447118923074,0.004465584961950554,-0.0007764135881006956,0.004725128945731797,18.555168638005853
1649,A,1165038390806187.0,-1.6717514,14.053504674582616,0.03883544604917977,248,1970-01-14 11:37:18.390806187,2.066613,0.5581986,0.22690132,6.058808228421115,2.152663275533055,-84.07440948486328,2.464123487472534,-98.62567138671875,18595009.0,39841.0,-0.018827087659600002,0.11905164210839594,-0.03629770496550463,0.0013162834793774346,0.0026300933497769383,7.113096906717216e-05,18.595009211217985
1649,A,1165038430942906.0,-2.2301989,12.038185374582614,2.1948140460491796,248,1970-01-14 11:37:18.430942906,1.5755261,1.3731259,0.4708469,8.124705603229081,2.1423011068175337,-83.95062255859375,2.8283379077911377,-98.68914794921875,18635145.0,40136.0,-0.0783043386204,0.1302752359066478,0.04482487800742987,-0.00194923346258704,0.005003491788005898,0.0001711233086053557,18.635145930107683
1649,A,1165038470583531.0,-0.19393034,9.722394374582615,2.7221369460491798,248,1970-01-14 11:37:18.470583531,1.6927053,1.1984226,0.6849651,10.182863750488933,2.1841806585209156,-83.7933120727539,2.8254573345184326,-98.74146270751953,18674786.0,39641.0,-0.04804745360142001,0.0428237709183294,0.09745642713888553,-0.0025043556977325833,0.0034309088647744607,0.0028200866086525445,18.674786555115134
1649,A,1165038510752957.0,3.5338416,4.638306874582614,-1.1367176539508201,248,1970-01-14 11:37:18.510752957,1.5744609,0.8767126,0.61678815,15.70761180754519,1.9047256313201626,-84.07044982910156,2.472306728363037,-98.79835510253906,18714955.0,40169.0,0.06708044770147001,-0.10522869576114098,0.03184235377214951,0.0003822681700024543,-0.0012533717130054493,0.002596901365207683,18.71495598112233
1649,A,1165038550379467.0,5.395334,7.0929613745826146,-1.3420203539508204,248,1970-01-14 11:37:18.550379467,0.24927188,1.5201324,0.11717909,14.00096888154505,1.5448850840181358,-84.44540405273438,1.8796772956848145,-98.88804626464844,18754582.0,39627.0,0.1769182207506,-0.1559071165451648,-0.049112475519559155,0.00483446761737509,-0.00517401441713099,-0.00034218155724230107,18.75458249100484
1649,A,1165038590560249.0,6.506243,5.715098374582615,-1.03436555395082,248,1970-01-14 11:37:18.590560249,-0.77125144,1.3688648,0.10439592,15.642244866077784,1.5746485742837226,-84.80669403076172,1.2543858289718628,-98.96424102783203,18794763.0,40181.0,0.2391086327185,-0.136453475609396,-0.04774278108269791,0.008358187499620954,-0.005873670476681203,-0.0019458705327676457,18.79476327309385
1649,A,1165038630436915.0,2.80361,3.8943083745826144,-5.02849255395082,248,1970-01-14 11:37:18.630436915,-1.9078887,0.11611383,-0.70840085,17.259078514610113,2.0384684146156595,-85.5296630859375,0.9591501951217651,-98.98511505126953,18834639.0,39876.0,0.185619849114,-0.1991924482351437,-0.1208812649553429,0.008468236470776385,-0.006692108429612434,-0.003362026229906458,18.83463993901387
1649,A,1165038669815457.0,-2.5091233,7.775309374582616,6.13088184604918,248,1970-01-14 11:37:18.669815457,-3.8946068,-3.1606395,-0.6956177,13.24563814960604,5.063742505313613,-85.28215026855469,1.1607367992401123,-98.82244110107422,18874018.0,39379.0,0.005798295879649995,-0.15614526132781123,0.021705493966770645,0.0037689275658524717,-0.006996421832439801,-0.0019527213428794934,18.874018481001258
1649,A,1165038709586447.0,-4.1611223,5.414027374582615,2.9627542460491796,248,1970-01-14 11:37:18.709586447,-3.3609095,-0.39840892,-0.02876214,15.066229863595307,3.384563427596415,-85.38724517822266,1.5253561735153198,-98.80177307128906,18913789.0,39771.0,-0.13264116887879998,-0.12747924407447483,0.18083150050942193,-0.002522333951024597,-0.00564001510217716,0.004027549403656328,18.91378947114572
1649,A,1165038749893061.0,-7.3867106,0.37961937458261374,-1.20914215395082,248,1970-01-14 11:37:18.749893061,-4.432565,1.1185277,0.12144015,20.885599966362573,4.573126327243139,-85.87681579589844,2.0070960521698,-98.8661880493164,18954096.0,40307.0,-0.23272925035015002,-0.2782463402406986,0.03534142129810429,-0.007363492743930644,-0.008176790563495849,0.00435664097964798,18.954096085159108
1649,A,1165038790057644.0,1.3311762,3.4938773745826133,5.38508784604918,248,1970-01-14 11:37:18.790057644,-1.6831179,-0.42184472,-0.75633776,16.884767988078085,1.8928511933837024,-85.69849395751953,1.8058013916015625,-98.8390121459961,18994260.0,40164.0,-0.12160724182079999,-0.3158196382832639,0.08386134138871926,-0.007115785435777017,-0.011930032980718217,0.0023938298802767904,18.994260668056086
1649,A,1165038829672332.0,5.9531827,12.301547774582616,4.26220714604918,248,1970-01-14 11:37:18.829672332,-4.298342,-1.9686087,-2.4650218,10.059691330839188,5.331744239660688,-85.54473114013672,0.7936540842056274,-98.73988342285156,19033875.0,39615.0,0.14428493891174998,-0.07535911635790975,0.19108879555598823,0.000449188485128992,-0.007748273182555047,0.005446074837532293,19.033875356195495
1649,A,1165038869786655.0,4.724957,17.209661374582616,5.96508284604918,248,1970-01-14 11:37:18.869786655,-2.9795446,-3.4131074,-1.0535465,7.23923838664165,4.65155332926391,-84.7762451171875,-0.21611109375953674,-98.56793212890625,19073989.0,40114.0,0.21417144796289997,0.19878912190480702,0.20512875537151679,0.007189559751544854,0.0024756356212541184,0.007946935418952967,19.07398967910558
1649,A,1165038909853009.0,-1.4263457,19.762478715582613,6.50377834604918,248,1970-01-14 11:37:18.909853009,-1.8663434,-3.4131074,-0.644485,5.57144726746119,3.943082642537856,-83.49120330810547,0.10159569978713989,-98.40254974365234,19114056.0,40067.0,0.06608272947855,0.3480247684963251,0.24979493069190248,0.0056144720637732876,0.010954596073351081,0.00911371366475151,19.114056033082306
1649,A,1165038949670770.0,-3.5595794,17.862081074582616,4.453144846049179,248,1970-01-14 11:37:18.949670770,-0.1768339,-2.4351945,-1.0748519,5.240007242115973,2.66772357787554,-82.65237426757812,1.0054126977920532,-98.27954864501953,19153873.0,39817.0,-0.09926228985335,0.3588419485825044,0.21813590536989017,-0.0006605552777217059,0.014072656036963874,0.009315801049736198,19.153873794013634
1649,A,1165038989580301.0,-2.574964,18.832331374582616,0.34230044604917975,248,1970-01-14 11:37:18.989580301,1.8546255,-1.2495552,-1.5733956,2.8501152487417,2.734336785620354,-83.00578308105469,2.2060110569000244,-98.23918914794922,19193783.0,39910.0,-0.122414813547,0.3411190004230922,0.09569311080382276,-0.004423566598353985,0.01396772073740668,0.006262458017746442,19.19378332514316
1649,A,1165039029465822.0,-2.0111294,6.659013374582615,-18.49527815395082,248,1970-01-14 11:37:19.029465822,2.984871,1.892975,-1.4263891,23.680961840587646,3.811482008597812,-84.13558959960938,2.242048978805542,-98.39132690429688,19233668.0,39885.0,-0.0914581676295,0.11748814266022758,-0.36201575793982843,-0.004265161927112351,0.009145772950939103,-0.005311139390509792,19.233668846078217
1649,A,1165039069080666.0,-6.05733,0.16294537458261615,-12.74680015395082,248,1970-01-14 11:37:19.069080666,-0.11824436,-2.7089674,0.350472,24.771073305583347,2.7341025448432927,-85.05009460449219,2.5554914474487305,-98.29295349121094,19273283.0,39615.0,-0.1598160095655,-0.25310105207590966,-0.6188274660837617,-0.0049771132647899625,-0.0026861527032511225,-0.01942805215984726,19.273283690214157
1649,A,1165039109258062.0,1.2653356,14.361159374582616,-2.7755485539508205,248,1970-01-14 11:37:19.109258062,-0.7105314,-0.16831179,0.3653857,6.7885286349679275,0.8165111381992618,-86.00296783447266,2.2584147453308105,-98.32144165039062,19313461.0,40178.0,-0.0962663755016,-0.10196965969401967,-0.31182846319303603,-0.005144439033612972,-0.00713301552874611,-0.01869594696324159,19.313461086014286
1649,A,1165039149713322.0,-0.9768343,8.288865374582615,1.9919054460491799,248,1970-01-14 11:37:19.149713322,1.139833,3.2735577,-0.4825648,11.561910614617528,3.4997525725852863,-85.94374084472656,2.310520887374878,-98.48615264892578,19353916.0,40455.0,0.005835660045749999,0.06169437561373969,-0.015851140965080435,-0.0018291872968832059,-0.0008146683087338632,-0.006628139193108301,19.353916346095502
1649,A,1165039189736707.0,2.1146786,1.2678683745826156,0.6493568760491797,248,1970-01-14 11:37:19.189736707,0.8586032,4.7191215,0.18535602,18.634686249291455,4.800173334470614,-86.0465316772461,2.1167097091674805,-98.72635650634766,19393939.0,40023.0,0.02276997120945,-0.20098082257858002,0.05285562095867133,0.0005724415898634348,-0.0027873307334369025,0.0007405151513917443,19.393939731176943
1649,A,1165039228923010.0,-5.591658,17.863278174582614,1.9518026160491797,248,1970-01-14 11:37:19.228923010,1.9558256,0.21198763,-0.8042747,5.968355977123149,2.1253353443512077,-85.78108978271484,3.4009275436401367,-98.73053741455078,19433126.0,39187.0,-0.0681261958739,-0.009186480088931095,0.050965818508429205,-0.000888687187962901,-0.004117913044815878,0.0020342253741986345,19.433126034215093
1649,A,1165039268815197.0,0.59256494,11.063745374582615,9.48575684604918,248,1970-01-14 11:37:19.268815197,3.952131,5.61927,0.24820662,12.094535067059924,6.874382975967576,-84.68594360351562,3.300710916519165,-98.95704650878906,19473018.0,39892.0,-0.09971191017475999,0.18603681171164965,0.22813356103101387,-0.0033476988632465715,0.0035274567145467443,0.005566916224293731,19.47301822109148
1649,A,1165039308797697.0,4.296395,6.310656374582615,3.2015758460491797,248,1970-01-14 11:37:19.308797697,3.5515916,5.4956994,0.041545313,14.287137375410863,6.543564838937809,-84.43994903564453,2.8202736377716064,-99.22708129882812,19513000.0,39982.0,0.09773519816054,-0.04449193463243791,0.25363246784773824,-3.9516449876271854e-05,0.0028296236376905213,0.009630984683315132,19.513000721111894
1649,A,1165039348695301.0,6.3703723,10.441851874582616,0.9169089060491797,248,1970-01-14 11:37:19.348695301,0.716923,-1.5030881,0.6423545,11.302786898286854,1.7849010415036628,-84.5409164428711,1.9808950424194336,-99.15525817871094,19552898.0,39898.0,0.21279134086770002,-0.05680461293740283,0.08215965231961017,0.00619469392707436,-0.0020207648274707534,0.006698717005218433,19.552898325026035
1649,A,1165039388328374.0,0.52852005,13.146700674582615,-1.90944615395082,248,1970-01-14 11:37:19.388328374,1.4966966,-1.4796523,0.3355583,7.307240167366479,2.1312135073815903,-85.17833709716797,1.8445379734039307,-99.10392761230469,19592531.0,39633.0,0.136711900253775,0.07903915159053276,-0.019668614373042858,0.00692593097768371,0.00044061073521974926,0.001238353653468151,19.59253139817156
1649,A,1165039429618271.0,-1.1737574,12.269824374582615,2.6149964460491795,248,1970-01-14 11:37:19.429618271,1.4285196,1.2644689,0.25033715,7.743706839514323,1.924115000544794,-84.94969177246094,2.034158706665039,-99.16040802001953,19633821.0,41290.0,-0.013320925090749999,0.12008215964001615,0.01456608578037063,0.002547406682240651,0.004110859470354682,-0.00010534170279571814,19.633821295108646
1649,A,1165039469643738.0,-0.8523358,11.944213374582615,0.9205002060491798,248,1970-01-14 11:37:19.469643738,1.3124058,2.2807312,0.5539375,7.88074973357573,2.6890501193606133,-85.04934692382812,2.176283359527588,-99.27748107910156,19673846.0,40025.0,-0.040547190165,0.09233843045516914,0.07075412675011841,-0.0010780356565556967,0.004251067059279895,0.001707470753266412,19.673846762161702
1649,A,1165039508821968.0,1.2958617,5.926986374582615,1.8171287460491796,248,1970-01-14 11:37:19.508821968,1.438107,0.77231675,0.7584683,13.927310682692317,1.7999719630828843,-85.03005981445312,2.030102491378784,-99.31468200683594,19713024.0,39178.0,0.008688228855099997,-0.03386546811360233,0.05362741354265475,-0.000624085193099631,0.001145426859308952,0.0024365099927951333,19.713024992030114
1649,A,1165039548260927.0,5.4085016,6.298685374582615,-0.5249990539508202,248,1970-01-14 11:37:19.548260927,0.75420725,1.1206582,0.18642128,14.61492493270627,1.363618814338025,-85.26898956298828,1.4682449102401733,-99.37830352783203,19752463.0,39439.0,0.13220669209435001,-0.14541806594233628,0.0254801514633336,0.0027783773936626796,-0.0035353816498160814,0.0015599616281355875,19.752463951008394
1649,A,1165039589071446.0,7.0156097,7.079794374582615,-0.7883613539508203,248,1970-01-14 11:37:19.589071446,-0.7318367,2.0080235,-0.17789917,14.630548327502197,2.144619184542055,-85.59606170654297,0.7493852376937866,-99.48445129394531,19793274.0,40811.0,0.25352020313215,-0.12695323147840892,-0.026799775803436926,0.007870950160544347,-0.005557872509519016,-2.6927594471978417e-05,19.793274470139295
1649,A,1165039629619937.0,5.647323,3.938600374582615,-4.53109715395082,248,1970-01-14 11:37:19.629619937,-1.1163971,1.0375676,-0.42717105,17.737976256848327,1.582834203388426,-86.20537567138672,0.25954633951187134,-99.54244995117188,19833822.0,40548.0,0.2567282975598,-0.17398346485542415,-0.10784670178919785,0.010344778103028593,-0.006101190581472132,-0.0027298226867130773,19.833822961198166
1649,A,1165039667471135.0,0.04070143,6.133485374582614,-1.7023478539508203,248,1970-01-14 11:37:19.667471135,-3.4653053,-2.3180156,-0.59867865,13.931297221317266,4.211882390335379,-86.76036071777344,0.21211199462413788,-99.43029022216797,19871674.0,37852.0,0.10765155036217999,-0.18032530511129888,-0.11797418021954642,0.006896253001771393,-0.006705647780390199,-0.004273886012897494,19.871674159076065
1649,A,1165039707633583.0,-3.4925418,6.858330374582614,4.5878188460491796,248,1970-01-14 11:37:19.707633583,-3.4471958,-2.4543693,0.0010652645,13.824249252425293,4.231676816476961,-86.6485824584961,0.5619627833366394,-99.30636596679688,19911836.0,40162.0,-0.06931640646997,-0.13269894794101308,0.057943142992327154,0.0007698080244994688,-0.006285840025543477,-0.0012054832585597901,19.91183660714887
1649,A,1165039747774468.0,-6.319495,1.7892053745826146,-0.8224786539508202,248,1970-01-14 11:37:19.747774468,-3.8402784,1.3496901,0.33449304,19.163380891876184,4.084273148230051,-87.06494140625,1.0416014194488525,-99.3766860961914,19951977.0,40141.0,-0.1969324845944,-0.21982143374637933,0.07557226032551013,-0.005343748368107438,-0.00707526032065681,0.0026797209022906537,19.951977492077276
1649,A,1165039787725614.0,-3.7104142,2.7432953745826154,1.3472666560491797,248,1970-01-14 11:37:19.787725614,-2.5374599,0.32384038,0.30146983,17.43390697523001,2.5757444349598786,-87.24501037597656,1.3368421792984009,-99.39351654052734,19991928.0,39951.0,-0.20035245122460002,-0.30098083128505,0.01048290273591578,-0.007935965235452435,-0.010403285645135317,0.0017189949097335133,19.991928638191894
1649,A,1165039827628739.0,3.2202013,8.490577374582616,4.16943184604918,248,1970-01-14 11:37:19.827628739,-3.1190944,-2.17527,-2.2370553,12.126297934936519,4.41191181510572,-87.1030502319336,0.8080108165740967,-99.28398895263672,20031831.0,39903.0,-0.009780482674350008,-0.16691678784502992,0.11006641016461544,-0.004192467230684902,-0.009335259348073789,0.0024051396163349485,20.03183176321909
1649,A,1165039867662541.0,5.445013,16.772719374582614,5.47307484604918,248,1970-01-14 11:37:19.867662541,-3.3811493,-2.2786007,-1.6373115,7.591825975063838,4.393743356975147,-86.47969818115234,-0.3159080743789673,-99.16930389404297,20071865.0,40034.0,0.1734515946431,0.11336221102804038,0.19301405645573289,0.0032762046482784687,-0.0010720019641456797,0.0060667617003395125,20.071865565143526
1649,A,1165039907415458.0,0.56323594,18.883208114582615,4.74643454604918,248,1970-01-14 11:37:19.907415458,-2.4437168,-2.9252162,-0.5070659,3.778905793133415,3.845225278483367,-85.2509994506836,-0.5627961158752441,-99.03495788574219,20111618.0,39753.0,0.11942296005591001,0.3191356427383926,0.20312807843204303,0.005821321086474872,0.008596543590388505,0.007873919144096879,20.111618482042104
1649,A,1165039947309207.0,-3.4979286,18.944260274582614,5.10317054604918,248,1970-01-14 11:37:19.947309207,-0.95660746,-2.05383,-0.61678815,5.367412212456917,2.348136095589026,-84.25762939453125,0.3335917294025421,-98.93762969970703,20151512.0,39894.0,-0.05853831448901999,0.36358331195867877,0.19647007277208597,0.0012144660251227552,0.013618194989342481,0.00797078432206876,20.15151223121211
1649,A,1165039987289832.0,-2.079364,19.245331124582616,2.84723404604918,248,1970-01-14 11:37:19.987289832,0.7882957,-1.4977618,-1.3081448,2.7560477894945694,2.139145469093855,-83.3504638671875,1.3389157056808472,-98.85665893554688,20191492.0,39980.0,-0.111490079074,0.37160593206931297,0.1589285877960462,-0.00339886758732477,0.014696432988119554,0.007104419224756963,20.19149285601452
1649,A,1165040026860510.0,-1.2904748,14.004423374582615,-5.3971997539508205,248,1970-01-14 11:37:20.026860510,3.5185685,-1.1568772,-1.4871092,8.799282181304655,3.991263323535135,-84.3359375,1.4496163129806519,-98.8359146118164,20231063.0,39571.0,-0.0666739455774,0.27006721764323366,-0.050452346513687914,-0.003525064309740275,0.012695824103637591,0.0021462566718921,20.231063534040004
1649,A,1165040066773166.0,-8.3868885,0.16294537458261615,-16.019074153950818,248,1970-01-14 11:37:20.066773166,1.2080098,0.30466563,0.4079963,27.362410254117748,1.3109423342821098,-85.2704849243164,1.8863779306411743,-98.8777847290039,20270976.0,39913.0,-0.19312630069644998,-0.10841630555728408,-0.42739387024303904,-0.0051847036147640874,0.003225986427043252,-0.00953613802470562,20.270976190222427
1649,A,1165040106915822.0,-2.2822728,11.163703374582616,-8.50487315395082,248,1970-01-14 11:37:20.106915822,-0.52837116,-2.8059065,0.2130529,13.114295902426818,2.863158903669233,-86.4177474975586,2.107581853866577,-98.7762680053711,20311118.0,40142.0,-0.21414073645229997,-0.16605443295550465,-0.4922201464168937,-0.00817425670261256,-0.005508902192690183,-0.01845757292838151,20.311118846060708
1649,A,1165040148923426.0,-4.7866077,5.626513374582615,-7.128806153950821,248,1970-01-14 11:37:20.148923426,-0.40906155,2.4703484,0.34834146,17.062728416261784,2.5281009358460937,-87.20899200439453,2.491170644760132,-98.92937469482422,20353126.0,42008.0,-0.148474766022,-0.05901668740053353,-0.328369800183166,-0.007616376013970196,-0.004727393811958225,-0.01723567123838765,20.353126450208947
1649,A,1165040191331862.0,-0.19393034,13.499845774582614,3.70256264604918,248,1970-01-14 11:37:20.191331862,1.3571469,2.641856,-0.26312032,6.790482461689841,2.9816913213329967,-86.66636657714844,2.4672341346740723,-99.04129791259766,20395534.0,42408.0,-0.10560732860016,-0.010043080601100525,-0.0726500673415464,-0.005387556734368281,-0.0014643433207066484,-0.008503225270994003,20.395534886047244
1649,A,1165040226655823.0,-3.7714663,18.376834574582617,3.69178854604918,248,1970-01-14 11:37:20.226655823,2.3190808,3.2969935,-0.588026,4.77562390324251,4.073582756327271,-85.8115005493164,3.558565378189087,-99.16748809814453,20430858.0,35324.0,-0.07003683545568001,0.2168307283269563,0.13059903075484122,-0.0031022272255542467,0.003652283434134065,0.0010234945918056132,20.430858847219497
1649,A,1165040266516655.0,3.3806129,6.1771793745826145,5.65204134604918,248,1970-01-14 11:37:20.266516655,3.653857,4.6413574,0.608266,14.728220275321206,5.938253701025223,-85.29864501953125,3.194763422012329,-99.37740325927734,20470719.0,39861.0,-0.007789903688700002,0.09873597501383762,0.18622720166446635,-0.001551125824517066,0.006289402180933693,0.00631450522523301,20.470719679025933
1649,A,1165040305801603.0,4.630386,9.315978374582615,4.39269124604918,248,1970-01-14 11:37:20.305801603,3.5345476,5.256015,0.44741106,11.898786488528204,6.349716298662569,-84.8451919555664,2.6112911701202393,-99.62397766113281,20510004.0,39285.0,0.15735604589325,-0.08066864891202201,0.19730365994029203,0.0029378529482528733,0.00035488745295491307,0.007533504949071466,20.510004627052695
1649,A,1165040346108061.0,3.8672342,11.161309374582615,1.5070796460491798,248,1970-01-14 11:37:20.346108061,1.5446335,-0.98110855,0.5368933,9.451136895288656,1.9070188913039752,-84.82453155517578,1.9886295795440674,-99.57544708251953,20550311.0,40307.0,0.17125678870070002,0.017680418652801434,0.1189010326739043,0.006622698761989172,-0.0012694332985292017,0.0063726312726002056,20.550311085069552
1649,A,1165040386211500.0,0.6464345,11.659901874582616,0.06876284604917982,248,1970-01-14 11:37:20.386211500,1.3401027,-1.0162623,0.78723043,8.209375970307578,1.8569857454667134,-85.0659408569336,1.8622475862503052,-99.53175354003906,20590414.0,40103.0,0.09050582793805001,0.06459011736263659,0.031598005730310255,0.005248733107531896,0.0016496476529135554,0.003017731468562108,20.59041452407837
1649,A,1165040427636291.0,-1.039682,12.195005674582614,-1.3605755539508202,248,1970-01-14 11:37:20.427636291,1.4604776,1.0759171,0.33768883,8.043604858598341,1.8451629120706223,-85.5509033203125,2.025965929031372,-99.60269927978516,20631839.0,41425.0,-0.008145138843749998,0.08812977261208478,-0.026756670712412726,0.0017058957728656888,0.0031632107211014156,0.00010027615155820257,20.631839315174147
1649,A,1165040468244101.0,-0.8858546,12.627158874582616,2.3097357460491796,248,1970-01-14 11:37:20.468244101,1.284709,2.25623,0.37603834,7.301668177634246,2.6234435120144965,-85.36636352539062,2.1772351264953613,-99.70915985107422,20672447.0,40608.0,-0.0390960951264,0.10603082900625078,0.019271748540365088,-0.0009591860145299254,0.003942236855258685,-0.00015197385978125524,20.672447125194594
1649,A,1165040508110511.0,0.31783026,8.190703374582615,3.4451858460491795,248,1970-01-14 11:37:20.508110511,1.5446335,1.1792477,0.7435546,11.821230553154425,2.08071892154099,-85.12345123291016,2.126647472381592,-99.75869750976562,20712313.0,39866.0,-0.01132242916922,0.02427564821261051,0.1147128520952966,-0.0010049924447845934,0.002597399010403562,0.002670715044470644,20.71231353515759
1649,A,1165040545362644.0,4.8159366,5.899452374582616,-2.76896465395082,248,1970-01-14 11:37:20.545362644,1.1068097,1.4402375,0.35579833,15.1943177981524,1.850919830800656,-85.54693603515625,1.6492726802825928,-99.84487915039062,20749565.0,37252.0,0.09562154153435999,-0.10262635901604844,0.012595295924024042,0.0015701552669130977,-0.0014593603394248349,0.002371241565007866,20.74956566817127
1649,A,1165040587404363.0,5.7975593,7.507158374582614,-1.0229929539508205,248,1970-01-14 11:37:20.587404363,-0.23222765,1.7971011,-0.10226539,13.737763064793501,1.8149270660380776,-85.88255310058594,1.0104217529296875,-99.9422836303711,20791607.0,42042.0,0.22310629731390003,-0.13019123544179773,-0.07971074087570039,0.006699977900429274,-0.004894058653098385,-0.0014108337683291885,20.79160738713108
1649,A,1165040627741551.0,6.129156,4.784951374582615,-0.4400049539508202,248,1970-01-14 11:37:20.627741551,-0.76485986,1.0759171,-0.27377295,16.270614511329626,1.3481690693912733,-86.15306091308594,0.4379611015319824,-99.9996566772461,20831944.0,40337.0,0.24054395752804997,-0.1473891845239611,-0.029506473305514237,0.009351130164779868,-0.005598380700079407,-0.002202747384213827,20.83194457506761
1649,A,1165040667658737.0,2.3373394,3.3017423745826164,-5.33375315395082,248,1970-01-14 11:37:20.667658737,-2.5768747,-1.107875,-0.8511463,17.846506807171714,2.9312318671727047,-86.88697814941406,0.19468465447425842,-99.9503173828125,20871861.0,39917.0,0.1689785484409,-0.22978832280728576,-0.11523555119655489,0.008173454935381288,-0.007527897280070691,-0.002888833696024547,20.871861761203036
1649,A,1165040705225718.0,-3.3925838,7.684329374582616,8.44667324604918,248,1970-01-14 11:37:20.705225718,-3.904194,-3.4141726,-0.24181503,14.540742372169323,5.192088196569918,-86.4249496459961,0.502665638923645,-99.77703857421875,20909428.0,37567.0,-0.019821183187400008,-0.16179972129955492,0.05847153454992955,0.0028016973702391173,-0.007355394026480842,-0.001066226906681887,20.909428742015734
1649,A,1165040745290093.0,-6.081871,3.8901188745826154,2.25646474604918,248,1970-01-14 11:37:20.745290093,-3.2234902,0.058589544,0.60720074,17.048584172042077,3.280703360991163,-86.57392120361328,1.0323740243911743,-99.7786636352539,20949493.0,40065.0,-0.18979701578100003,-0.16077186544859756,0.2144106118267104,-0.004199176570834474,-0.0064619153115323645,0.00546651159729004,20.94949311716482
1649,A,1165040785194572.0,-9.075222,1.652737374582614,-1.5742579539508204,248,1970-01-14 11:37:20.785194572,-4.3526707,1.2836437,0.6040049,20.446749548445005,4.578024168832248,-87.05728912353516,1.6790785789489746,-99.84841918945312,20989397.0,39904.0,-0.302414319536,-0.2804681321166554,0.013611389915946473,-0.009820600562244784,-0.008803620431421928,0.00454949497876949,20.989397596102208
1649,A,1165040824981603.0,2.0847511,6.933148374582615,5.8118542460491796,248,1970-01-14 11:37:20.824981603,-1.933455,-1.5680692,-1.5180018,13.831969863314841,2.915719245369293,-86.73472595214844,1.3435683250427246,-99.76271057128906,21029184.0,39787.0,-0.13906493284915,-0.21910928184898157,0.08430062183685873,-0.008782567507323983,-0.009938343284725398,0.0019478126058044304,21.029184627113864
1649,A,1165040864997280.0,6.273407,15.214093974582614,5.42818344604918,248,1970-01-14 11:37:20.864997280,-4.24934,-1.1089402,-1.7992316,8.873914232303889,4.745932274402428,-86.29389190673828,0.21987284719944,-99.70149993896484,21069200.0,40016.0,0.16723002726480002,0.05096522492209787,0.22489067414350397,0.0005635272090683256,-0.003364226290993089,0.006186299449975097,21.069200304104015
1649,A,1165040904682124.0,2.9083564,17.993762174582614,3.3853308460491798,248,1970-01-14 11:37:20.904682124,-2.7984498,-2.863431,-0.531567,4.095909350703968,4.038950587760395,-85.68360137939453,-0.8362770080566406,-99.56309509277344,21108885.0,39685.0,0.18218914026449998,0.270013885639811,0.17488215734096169,0.006933349831700135,0.006369028001324676,0.007932492408730509,21.108885148074478
1649,A,1165040946324416.0,-2.2296004,19.273463034582615,4.44117384604918,248,1970-01-14 11:37:20.946324416,-1.3603427,-2.279666,-0.49215218,4.033267563675889,2.6999302030382273,-84.58917999267578,-0.07473935931921005,-99.46099090576172,21150527.0,41642.0,0.014132378676000007,0.3678492960800292,0.16295565419417996,0.00408761034586015,0.013280949306588791,0.007034121073973183,21.1505274400115
1649,A,1165040985850822.0,-2.1416135,19.077737074582615,3.2937525460491797,248,1970-01-14 11:37:20.985850822,0.33129725,-1.3475596,-1.0610034,3.131808791652778,1.7468265392480395,-83.61161041259766,0.8455328941345215,-99.39231872558594,21190053.0,39526.0,-0.0863883003057,0.3705799677574324,0.15286535028703988,-0.0014279937791677607,0.014593577541219755,0.006241570511562348,21.190053846221417
1649,A,1165041024466186.0,-1.8902222,16.979219174582614,-1.3276551539508201,248,1970-01-14 11:37:21.024466186,2.8421257,-0.9054748,-1.3763217,4.168648644007825,3.2850912513850234,-84.41109466552734,1.4089487791061401,-99.37281799316406,21228669.0,38616.0,-0.0778466836956,0.31775091125888216,0.03796140844663513,-0.0031710490710971,0.013290292612047,0.0036844830576297965,21.22866921010427
1649,A,1165041064657436.0,-5.3061495,0.16294537458261615,-15.35528315395082,248,1970-01-14 11:37:21.064657436,1.0684602,1.937716,-0.34834146,26.1573419335638,2.2400205955291956,-85.36309051513672,1.6663672924041748,-99.49777221679688,21268860.0,40191.0,-0.14461468749735,-0.04939143230225015,-0.3352519867664374,-0.004470472484807926,0.005392817909372999,-0.005974202816625586,21.26886046002619
1649,A,1165041104493009.0,-4.3023806,9.038251374582615,-10.07367415395082,248,1970-01-14 11:37:21.104493009,-0.22050974,-3.8935416,0.32277513,16.09562217895625,3.9131157050248264,-86.43843078613281,2.025583267211914,-99.33683013916016,21308696.0,39836.0,-0.1913827025318,-0.20712336315012697,-0.506493971658785,-0.0066923960146006095,-0.005109261695820448,-0.016765895999913582,21.30869603320025
1649,A,1165041146478374.0,-3.0867245,12.939003774582616,-4.90818365395082,248,1970-01-14 11:37:21.146478374,-0.39734364,1.5531555,0.10865697,9.622416201968248,1.6068541665497464,-87.42073059082031,2.460113763809204,-99.45169830322266,21350681.0,41985.0,-0.15511578881175,0.04990452871885108,-0.3145066500323752,-0.007273869579529474,-0.003300416381798559,-0.01723485555085168,21.350681398063898
1649,A,1165041186413841.0,-5.067328,3.3795553745826155,10.49431384604918,248,1970-01-14 11:37:21.186413841,2.630138,4.5295043,0.35260254,19.556178248444862,5.249606047502702,-86.66679382324219,2.807194948196411,-99.64794158935547,21390616.0,39935.0,-0.16281604329374996,-0.06552217018904326,0.11154105461072399,-0.00634830385756657,-0.0003118452560560623,-0.004052715526581821,21.39061686513014
1649,A,1165041226311759.0,-2.0488381,14.055898874582615,12.10501384604918,248,1970-01-14 11:37:21.226311759,-0.00958738,1.7331853,-0.02876214,12.555241727985083,1.7334504500240941,-85.45663452148438,3.009049892425537,-99.67300415039062,21430514.0,39898.0,-0.14196039752890002,-0.04318052318340285,0.4508339881296702,-0.006079985217971045,-0.0021685100300869275,0.011218819727628124,21.43051478313282
1649,A,1165041263867436.0,0.12569559,15.491821374582615,0.7289640460491797,248,1970-01-14 11:37:21.263867436,4.239753,1.144094,-0.35792887,4.303888284430985,4.405969774955848,-85.49000549316406,2.8798670768737793,-99.74421691894531,21468070.0,37556.0,-0.036112770052780005,0.18679829083882468,0.24099643685782302,-0.0033438579408487873,0.002696854441033511,0.012991191720415145,21.46807046001777
1649,A,1165041304546655.0,1.4933833,8.774888374582615,9.51867684604918,248,1970-01-14 11:37:21.304546655,4.3643885,6.5300713,0.6679208,13.922322146509645,7.8826287719953285,-84.51414489746094,2.727703094482422,-100.0299072265625,21508749.0,40679.0,0.032931255083155,0.09491854294314617,0.2084318919248346,-6.471042372468772e-05,0.005729979540708397,0.009141147493274864,21.508749679196626
1649,A,1165041343181290.0,5.6604915,10.656133374582614,5.28812254604918,248,1970-01-14 11:37:21.343181290,0.93636745,1.582983,0.041545313,11.515526334573542,1.8396589881662229,-84.06245422363281,1.9781936407089233,-100.09207916259766,21547384.0,38635.0,0.13819497644900003,-0.0032642373605007197,0.28603034725686005,0.003305730977622405,0.0017705320480927535,0.009551774305392387,21.547384314006194
1649,A,1165041383164415.0,1.1204864,11.556352374582614,-3.15203675395082,248,1970-01-14 11:37:21.383164415,1.7353158,-2.1401162,0.9555422,9.330355360406587,2.916244017775762,-84.75496673583984,1.802261471748352,-100.00662231445312,21587367.0,39983.0,0.13556191968785,0.05222750885443664,0.04270355911273436,0.005472810989119838,0.0009788492420710199,0.006571883889187747,21.587367439176887
1649,A,1165041423695978.0,-1.364695,12.886331374582614,-0.13594125395082024,248,1970-01-14 11:37:21.423695978,1.5648735,0.64555025,0.15978967,7.134825213457062,1.7003225973079408,-85.05514526367188,2.0442960262298584,-100.05054473876953,21627899.0,40532.0,-0.0049491314875999975,0.09814182886058248,-0.06663416230813464,0.0026469987656662667,0.0030473849981325772,-0.00048497760435798205,21.62789900205098
1649,A,1165041465081290.0,-0.50397944,11.944213374582615,1.2598782960491797,248,1970-01-14 11:37:21.465081290,1.1206582,1.5425029,0.44847634,7.849512327359791,1.9586528598185655,-85.09930419921875,2.114288330078125,-100.12901306152344,21669284.0,41385.0,-0.038667545849699995,0.10823304722210147,0.0232570672436203,-0.0009025380958020801,0.004270412123340938,-0.000897580539622463,21.66928431414999
1649,A,1165041503183529.0,0.4950012,10.276651374582615,2.6036239460491797,248,1970-01-14 11:37:21.503183529,1.6575515,2.207228,0.64768076,9.62778925570984,2.835281782470735,-84.92076873779297,2.029902458190918,-100.23272705078125,21707386.0,38102.0,-0.00017104445023999941,0.049930094336346764,0.07360358121421584,-0.0007399139838041568,0.0030131660098299973,0.0018452922137702362,21.707386553054675
1649,A,1165041542927697.0,3.86484,5.216506374582615,-0.5740802539508203,248,1970-01-14 11:37:21.542927697,1.4998924,0.111852765,0.64768076,15.15870038923342,1.637583164144674,-85.12704467773438,1.6496262550354004,-100.24469757080078,21747130.0,39744.0,0.0866387643264,-0.08161116920858859,0.0403310922493786,0.0017182865293790517,-0.0006295663198611895,0.002264109831068549,21.747130721108988
1649,A,1165041583269207.0,4.5160627,6.897236374582615,-1.01700745395082,248,1970-01-14 11:37:21.583269207,0.16405073,1.784318,-0.06178534,13.813835283666544,1.7929084737867822,-85.45511627197266,1.1479994058609009,-100.34207916259766,21787472.0,40342.0,0.16905118836170002,-0.15100529500658819,-0.03209383015608399,0.005157522035671666,-0.004692106699684331,0.00016615381368384558,21.787472231080756
1649,A,1165041623463374.0,5.9005103,5.437970374582616,0.3961700460491797,248,1970-01-14 11:37:21.623463374,-0.809601,1.8482338,-0.008522116,15.521701639871651,2.0177944853538867,-85.6682357788086,0.5839963555335999,-100.43661499023438,21827666.0,40194.0,0.20934186758099999,-0.14600054996202638,-0.012476969386599266,0.007604565245280442,-0.0059689264663342475,-0.0008957393584093054,21.827666398137808
1649,A,1165041663669831.0,4.5914803,4.115772374582615,-5.34452685395082,248,1970-01-14 11:37:21.663669831,-1.587244,-0.4111921,-0.52411014,17.55268189277322,1.721369773607411,-86.36986541748047,0.16915498673915863,-100.42190551757812,21867872.0,40206.0,0.21092048703179997,-0.20195990951353138,-0.09947681690924669,0.008448534114781118,-0.006995049116837138,-0.0022506069659053913,21.867872855160385
1649,A,1165041702541029.0,-1.6250644,7.9231513745826145,3.00764544604918,248,1970-01-14 11:37:21.702541029,-3.6922066,-2.5236115,-0.75101143,12.112280917591876,4.5348674454725195,-86.41969299316406,0.3117518424987793,-100.29802703857422,21906744.0,38872.0,0.057655259432399984,-0.1469570780112246,-0.04541962704397628,0.00522003820827819,-0.0067815505695311565,-0.0028162072846748413,21.906744053121656
1649,A,1165041742528529.0,-4.1293993,7.0869763745826155,3.2446714460491797,248,1970-01-14 11:37:21.742528529,-3.134008,-1.5499598,0.17257284,13.512665349751751,3.5005946510251236,-86.4346694946289,0.7458725571632385,-100.21941375732422,21946731.0,39987.0,-0.11505186998595002,-0.091767610847065,0.12500569778216858,-0.0011475591331024026,-0.004772942066688214,0.0015912041053040477,21.946731553180143
1649,A,1165041782309363.0,-7.5985975,0.16294537458261615,-2.3020952539508204,248,1970-01-14 11:37:21.782309363,-3.8946068,2.0112193,0.3888215,21.310031014400675,4.400471265462483,-86.94265747070312,1.2648266553878784,-100.324951171875,21986512.0,39781.0,-0.23327572035039998,-0.24564923144822898,0.018748311748932413,-0.006928409935585168,-0.006711389701674545,0.002859339126578364,21.986512387171388
1649,A,1165041822646498.0,-0.05267244,3.4507833745826133,6.70369424604918,248,1970-01-14 11:37:21.822646498,-1.6170714,-0.13422333,-0.9086706,17.254657923572445,1.859736022751242,-86.632568359375,1.1930196285247803,-100.31222534179688,22026849.0,40337.0,-0.15431463778489,-0.32241911172246107,0.08877364927213574,-0.007817116138051595,-0.011457086379238063,0.0021685566708534126,22.02684952202253
1649,A,1165041862393738.0,4.080917,12.896506374582614,3.49187284604918,248,1970-01-14 11:37:21.862393738,-3.9606533,-2.573679,-2.3329291,8.34385167888374,5.268126454772009,-86.49152374267578,0.343405157327652,-100.18463134765625,22066596.0,39747.0,0.08005531826316,-0.06464273716996487,0.20262160260481674,-0.001475792586515101,-0.007692273653963627,0.0057910435381766144,22.066596762044355
1649,A,1165041902613685.0,4.2515035,18.841908174582613,4.89487484604918,248,1970-01-14 11:37:21.902613685,-3.0423954,-2.5875273,-1.1877699,5.763062258680283,4.1668050870580045,-85.72138214111328,-0.7830013632774353,-100.06116485595703,22106816.0,40220.0,0.16756497625500003,0.24410351658371268,0.16865749608809802,0.004979644122760198,0.003608956274010469,0.0074664226747145155,22.106816709041595
1649,A,1165041942563270.0,-0.9636662,18.978976204582615,5.005606846049179,248,1970-01-14 11:37:21.942563270,-1.9132149,-2.8485172,-0.48469532,4.083822695303988,3.465453945085369,-84.47970581054688,-0.47597745060920715,-99.93592071533203,22146766.0,39950.0,0.0656745500675,0.3639621654738254,0.19776212179966474,0.004658959538291938,0.012146111999099323,0.007319231867308061,22.146766294026747
1649,A,1165041983910612.0,-3.2399535,18.041047674582614,4.59739554604918,248,1970-01-14 11:37:21.983910612,-0.39095205,-2.4298682,-0.8564726,5.061052369270568,2.6058872364937824,-83.56645202636719,0.3905668556690216,-99.81995391845703,22188113.0,41347.0,-0.08690353186795001,0.36013286366592234,0.19852766995304544,-0.0004388773552516032,0.014969578584920576,0.008192697009799655,22.18811363610439
1649,A,1165042022679051.0,-1.6466122,18.167341874582615,-0.3173021539508203,248,1970-01-14 11:37:22.022679051,1.4029533,-1.1526161,-1.2634037,2.712942534311608,2.212010566234662,-84.3439712524414,1.1857781410217285,-99.78093719482422,22226882.0,38769.0,-0.09472363281165,0.32194532721579333,0.08296747035913066,-0.003520751773731706,0.013221744691146618,0.0054566425473813775,22.226882075192407
1649,A,1165042062109415.0,-1.6358383,6.7200653745826155,-18.49527815395082,248,1970-01-14 11:37:22.062109415,1.6500946,2.420281,-0.95128113,23.61824167939152,3.0798552070193557,-85.52610778808594,1.234114170074463,-99.93269348144531,22266312.0,39430.0,-0.06471351160750001,0.10424123391729248,-0.3708900207702808,-0.0031433033022235427,0.008402268052738786,-0.005676393081355826,22.266312439227477
1649,A,1165042102001238.0,-5.105635,1.580313374582616,-10.67641415395082,248,1970-01-14 11:37:22.102001238,0.18322548,-3.653857,0.38242993,22.277077246801138,3.678382144955855,-86.360107421875,1.544472336769104,-99.76953125,22306204.0,39892.0,-0.1344654264418,-0.2253822454691503,-0.5818585747734061,-0.003972823098331338,-0.002416278616413356,-0.01900352348671438,22.306204262189567
1649,A,1165042143561602.0,-1.6454151,11.221164374582616,-3.4902178539508206,248,1970-01-14 11:37:22.143561602,-0.6221144,-0.9779128,0.39734364,9.855591047751783,1.2252435428679678,-87.13745880126953,1.7681435346603394,-99.74111938476562,22347764.0,41560.0,-0.140286821078,-0.1412732923723465,-0.29438261312419606,-0.005709351703461443,-0.007619102076346304,-0.018208291884512173,22.347764626145363
1649,A,1165042182867331.0,-2.5372553,6.5111703745826155,6.35533784604918,248,1970-01-14 11:37:22.182867331,1.0737866,4.032026,-0.30786142,14.485487844627777,4.183901287188785,-86.63835906982422,1.973214864730835,-99.92849731445312,22387070.0,39306.0,-0.0822020213712,-0.03670522517465574,0.05630820320470905,-0.004372573220654128,-0.0034978118053512353,-0.004678876378147678,22.387070355005562
1649,A,1165042223291343.0,-2.4744074,10.942838374582616,3.69298584604918,248,1970-01-14 11:37:22.223291343,0.26525086,4.2472095,-0.099069595,9.52796992071867,4.256637327782866,-86.32421112060547,2.306614398956299,-100.12939453125,22427494.0,40424.0,-0.10129572649240001,-0.04337477516187238,0.20309671846469204,-0.0037088564798190837,-0.0016185769668019066,0.0052430922767819355,22.427494367118925
1649,A,1165042263249049.0,-3.3991678,17.459256674582615,1.2586811960491797,248,1970-01-14 11:37:22.263249049,3.2756882,-0.52837116,-0.51452273,4.11613452418977,3.357684158169979,-86.16194915771484,3.428596258163452,-100.1031723022461,22467452.0,39958.0,-0.11734815892079999,0.17585705698727208,0.09892935583408312,-0.004368286186670323,0.0026468635085896606,0.006034178938415229,22.467452073004097
1649,A,1165042301728529.0,5.7424927,7.833368374582616,10.43206484604918,248,1970-01-14 11:37:22.301728529,3.46424,5.5052867,0.24714136,16.19752852914701,6.509241067791201,-85.25183868408203,2.887974739074707,-100.33671569824219,22505931.0,38479.0,0.04508439941355,0.10952325963341443,0.22492410847695138,-0.0013903186010397362,0.005490574601623699,0.006230778726612148,22.505931553198025
1649,A,1165042341344259.0,6.108207,9.273480374582615,3.8563901460491796,248,1970-01-14 11:37:22.341344259,2.4000409,3.7199035,0.22583607,12.454594587802482,4.432705753994743,-84.92597198486328,2.151564359664917,-100.51261901855469,22545547.0,39616.0,0.2347386596576,-0.04938433997653514,0.2830257164834843,0.005542735154081339,0.001191231720563465,0.010061470132816311,22.545547283021733
1649,A,1165042381733946.0,1.3491327,11.532410374582614,-0.7739959539508203,248,1970-01-14 11:37:22.381733946,1.5584819,-2.0271983,1.1856394,8.565086450524078,2.8185350036823844,-85.28163146972656,1.9259568452835083,-100.42207336425781,22585936.0,40389.0,0.15059724657165002,0.024352360734017194,0.06224740951233032,0.00778166595834659,-0.0005055083048130287,0.006972618142922478,22.585936970077455
1649,A,1165042421226290.0,-2.6312277,11.279223374582616,-0.10481665395082018,248,1970-01-14 11:37:22.421226290,1.6660736,0.20985709,0.037284255,8.978756933719364,1.679652152831393,-85.50485229492188,2.3032989501953125,-100.44340515136719,22625429.0,39493.0,-0.025316888917500006,0.06341852582789119,-0.017353473161929745,0.0024738485824176734,0.001733167811494724,0.000886498114143185,22.625429314095527
1649,A,1165042462126185.0,-0.87089086,12.356015974582615,-0.9709191539508204,248,1970-01-14 11:37:22.462126185,1.6437031,1.2985574,0.5635249,7.757701318054009,2.1692329323897837,-85.91761016845703,2.4431698322296143,-100.52627563476562,22666329.0,40900.0,-0.07161832455200001,0.08252064469042893,-0.02199879727158855,-0.0019823251154512753,0.002984456037099646,-0.0008047539303654492,22.666329209227115
1649,A,1165042502146654.0,-0.08200141,12.808520074582615,2.81551084604918,248,1970-01-14 11:37:22.502146654,1.3891048,1.8354506,0.41758367,7.171986404938528,2.339415989488417,-85.61266326904297,2.4269044399261475,-100.60624694824219,22706349.0,40020.0,-0.0190673743227,0.11134636634379623,0.03691027975888817,-0.0018146208344827473,0.0038792788907948453,0.0002983787645708654,22.706349678104743
1649,A,1165042541033999.0,0.26156655,8.469029374582615,2.6634790460491797,248,1970-01-14 11:37:22.541033999,1.6745957,1.2548815,0.7840346,11.415340060101878,2.2346607329744486,-85.44654083251953,2.3775486946105957,-100.6623306274414,22745237.0,38888.0,0.00349146458216,0.0326182714895687,0.10653347946196051,-0.00030285798899505975,0.002799248418031948,0.0027891204542901814,22.745237023103982
1649,A,1165042580790925.0,4.665102,5.139293374582614,-0.7153381539508203,248,1970-01-14 11:37:22.580790925,1.1941614,1.128115,0.47723848,15.471417175239894,1.7106786575121788,-85.66582489013672,1.918675184249878,-100.7273178100586,22784993.0,39756.0,0.09793231743690001,-0.1191025603920936,0.03872514465313119,0.002016101938974875,-0.0017191346948043902,0.002887450930159793,22.784993949113414
1649,A,1165042622323895.0,5.2444987,7.201897874582615,-1.0750669539508202,248,1970-01-14 11:37:22.622323895,-0.12996227,1.5808525,0.21411815,13.799587680425217,1.6005722103482947,-86.00025939941406,1.3480039834976196,-100.8145980834961,22826526.0,41533.0,0.20578772293655,-0.1507400519242103,-0.03718044767323942,0.00630720221841525,-0.005603686608666525,3.207794983292244e-05,22.826526919147
1649,A,1165042662244934.0,6.211756,3.829066374582615,-1.3294507539508205,248,1970-01-14 11:37:22.662244934,-0.51984906,1.0727214,-0.034088463,17.288393586141186,1.192533551104767,-86.32173156738281,0.8046876192092896,-100.87364196777344,22866447.0,39921.0,0.22867257193935,-0.17104223810453745,-0.047995375708570695,0.008672044715870401,-0.006422935400118819,-0.0017001520226126209,22.866447958163917
1649,A,1165042700691760.0,3.0142999,4.899873374582615,-4.5538421539508205,248,1970-01-14 11:37:22.700691760,-2.0367856,-0.7584683,-0.64555025,16.20378008379588,2.2672681508254184,-87.00788879394531,0.4858047068119049,-100.84416961669922,22904894.0,38447.0,0.17735708559365002,-0.20897982673192225,-0.1130974812150472,0.007805311121585627,-0.007305354163383684,-0.003096768535071169,22.904894784092903
1649,A,1165042740511758.0,-3.5410242,9.278868374582615,6.79287854604918,248,1970-01-14 11:37:22.740511758,-3.7209687,-2.8943236,-0.39095205,12.44740032419017,4.730281246743776,-86.60311889648438,0.8551543354988098,-100.6943588256836,22944714.0,39820.0,-0.010487080812999995,-0.10793725177412031,0.04457921456667834,0.0033223817951827423,-0.006309819033055308,-0.0013641986889690238,22.944714782061055
1649,A,1165042779835456.0,-3.6565444,5.451736374582614,2.43962124604918,248,1970-01-14 11:37:22.779835456,-3.2330775,0.07243799,0.128897,14.842792864361233,3.236456676677519,-86.71941375732422,1.1939232349395752,-100.69725799560547,22984038.0,39324.0,-0.1415185938132,-0.09574204942191329,0.18152941091223793,-0.002988735574500344,-0.0040047424201164125,0.004445747794166451,22.98403848009184
1649,A,1165042819827956.0,-6.093243,1.6515393745826152,-1.01700745395082,248,1970-01-14 11:37:22.819827956,-4.515656,1.1515509,0.39840892,19.240346357468297,4.677173104895988,-87.18260192871094,1.6424909830093384,-100.76033782958984,23024030.0,39992.0,-0.1949567488504,-0.2498844981196921,0.028446585386798805,-0.006728160951901346,-0.006911148444641941,0.004198680021995539,23.0240309801884
1649,A,1165042860202331.0,0.7906851,2.8911383745826136,5.91181214604918,248,1970-01-14 11:37:22.860202331,-1.3038837,0.07669904,-1.1920309,17.570214761612483,1.7683136351952449,-86.9251937866211,1.4787548780441284,-100.75822448730469,23064405.0,40375.0,-0.10704538760625,-0.303969692938727,0.09881386972173564,-0.0060966681297186225,-0.011180931481991837,0.002569070437503539,23.06440535513684
1649,A,1165042899718789.0,4.485537,13.249052774582616,4.259812846049179,248,1970-01-14 11:37:22.899718789,-3.8253646,-2.424542,-2.530003,8.52027793581552,5.187748395277682,-86.6458511352539,0.5628029704093933,-100.63407897949219,23103921.0,39516.0,0.10424759625180001,-0.06835890327479344,0.2009709665938794,-5.5278761581222926e-05,-0.007356468403986737,0.005923148795923922,23.103921813191846
1649,A,1165042941247331.0,4.4556093,18.093121574582614,5.41321984604918,248,1970-01-14 11:37:22.941247331,-3.0072415,-3.1148334,-0.9917612,6.413586034316288,4.441765282734248,-85.86053466796875,-0.49613404273986816,-100.47958374023438,23145450.0,41529.0,0.18565843234635002,0.2438203792732414,0.20085568733507642,0.006019753730826287,0.003643369818369773,0.008343729555507802,23.14545035501942
1649,A,1165042981716808.0,-1.4730326,18.682693774582614,5.376109446049179,248,1970-01-14 11:37:22.981716808,-1.788579,-3.4216294,-0.47617322,4.6364846761095935,3.8901546917353467,-84.66319274902344,-0.07512697577476501,-100.31742095947266,23185919.0,40469.0,0.06035094823615,0.34754403568268377,0.21831668356096423,0.004977876811396597,0.011965963254425668,0.008481743338895934,23.1859198322054
1649,A,1165043023654836.0,-3.551798,18.597100974582617,3.75882634604918,248,1970-01-14 11:37:23.023654836,-0.294013,-2.4106934,-0.9033443,4.580338301487742,2.591122775422857,-83.88896942138672,0.9791586995124817,-100.19551849365234,23227857.0,41938.0,-0.1053656728514,0.3707276160952457,0.1915504686245105,-0.0009439137604571774,0.015061438266131405,0.00859450431417722,23.227857860038057
1649,A,1165043059485976.0,-1.8549078,18.028478174582617,-1.6951651539508203,248,1970-01-14 11:37:23.059485976,1.4285196,-0.71798825,-1.3124058,3.795970788726605,2.068473920211677,-84.9429931640625,1.6006819009780884,-100.19176483154297,23263689.0,35832.0,-0.0968665411128,0.30503027603644434,0.03697255391763422,-0.0036231923453826074,0.01210687839543136,0.0040942184718650645,23.263689000159502
1649,A,1165043100248009.0,-1.6352397,5.853364374582615,-18.49527815395082,248,1970-01-14 11:37:23.100248009,1.5297197,1.7939054,-1.164334,24.10813474963621,2.6294129778856057,-86.10334014892578,1.6262626647949219,-100.32101440429688,23304451.0,40762.0,-0.0711326961975,0.08726823299453655,-0.41150142505834336,-0.003423992455621224,0.007995435912560422,-0.007633272922718793,23.304451033007354
1649,A,1165043142278477.0,-4.076727,2.493700374582616,-11.976465153950821,248,1970-01-14 11:37:23.142278477,0.01917476,-3.738013,0.0958738,22.06290222302413,3.739291462980186,-87.0215835571289,1.854052186012268,-100.1622085571289,23346481.0,42030.0,-0.12003698020049998,-0.2364804342962927,-0.6403636856155529,-0.004017430749503969,-0.0031356944103564056,-0.022104945300811932,23.3464815011248
1649,A,1165043179129727.0,0.6853402,12.478120074582616,-4.24858115395082,248,1970-01-14 11:37:23.179129727,-0.30253512,-0.56672066,0.15020229,9.084753813056528,0.6597427780775581,-87.94100189208984,1.7163262367248535,-100.16168975830078,23383332.0,36851.0,-0.06248799748340001,-0.08527652231390605,-0.29895459074624176,-0.0033631139763146997,-0.005928532804021218,-0.017307408901104247,23.38333275122568
1649,A,1165043219165717.0,0.85054016,5.536731374582615,-0.018625353950820323,248,1970-01-14 11:37:23.219165717,0.43995422,1.9526298,-0.6530071,14.310106371974902,2.1054075909890364,-88.08679962158203,1.5594375133514404,-100.26520538330078,23423368.0,40036.0,0.03074525304648,-0.03173150369061043,-0.08542093987517504,-0.0006354262581382648,-0.0023422666645584113,-0.007694429371979523,23.423368741059676
1649,A,1165043258837956.0,-4.7548847,12.654093974582615,3.7043582460491797,248,1970-01-14 11:37:23.258837956,0.38456047,5.0450926,-0.09161274,8.945563428246485,5.060557181950589,-87.69994354248047,2.2937750816345215,-100.5049057006836,23463040.0,39672.0,-0.07744657829544,-0.02795238837395852,0.07311019764766305,-0.0009263674876383704,-0.0011838896829927897,-0.0002441958828249279,23.463040980044752
1649,A,1165043298851602.0,-12.708423,17.165368374582616,1.0970725810491797,248,1970-01-14 11:37:23.298851602,3.3747578,-1.7512947,-0.58056915,12.9738634464743,3.846177826471451,-87.54052734375,3.6515116691589355,-100.4171371459961,23503054.0,40014.0,-0.3493883971539,0.20446078321974875,0.09606222655775688,-0.008539687353814945,0.003531403455679725,0.003384632691077837,23.5030546260532
1649,A,1165043338573946.0,7.6111674,6.108945374582616,15.91358934604918,248,1970-01-14 11:37:23.338573946,3.92763,5.7226005,0.13315806,21.532156792292753,6.942057689795096,-86.41539764404297,3.106879472732544,-100.6483154296875,23542776.0,39722.0,-0.1012365934716,0.07297554537217066,0.33784875653410057,-0.008949862938813056,0.0055101629221641114,0.00861790603518738,23.54277697019279
1649,A,1165043378944102.0,4.789002,9.347102374582615,-2.42060815395082,248,1970-01-14 11:37:23.378944102,2.9987195,6.865629,-0.08628642,12.009307479923768,7.492437891073751,-86.78172302246094,2.4866483211517334,-101.01668548583984,23583147.0,40371.0,0.2503036194237,-0.08364774815922525,0.2723625718531014,0.003008992452356114,-0.00021542374935809049,0.012317420769159863,23.58314712601714
1649,A,1165043418889154.0,4.770447,9.960617374582615,3.4338134460491796,248,1970-01-14 11:37:23.418889154,2.23599,-0.39521313,0.86499476,11.156460386198821,2.429827284613426,-86.44287872314453,1.8614121675491333,-100.98654174804688,23623092.0,39945.0,0.19092609515250003,-0.005837567309797474,0.020236242696434485,0.008812460474373155,-0.0017872454632050564,0.005843929823590606,23.62309217802249
1649,A,1165043459308061.0,-0.06464344,11.380379374582615,-1.1947768539508203,248,1970-01-14 11:37:23.459308061,1.2996227,-2.401106,0.8383631,8.70883358958091,2.8560780579376503,-86.83951568603516,1.8627992868423462,-100.87918853759766,23663511.0,40419.0,0.09510193704581998,0.035184673802254686,0.04524981000801179,0.005780483516711948,0.000593090348659314,0.0013234403821305067,23.66351108509116
1649,A,1165043499370717.0,-0.5243302,12.050754774582614,-0.8248728539508203,248,1970-01-14 11:37:23.499370717,1.4274544,0.66579026,0.44741106,7.983292991279256,1.6374001926836796,-87.1939468383789,1.936493158340454,-100.92525482177734,23703573.0,40062.0,-0.01179773098284,0.07674144814192868,-0.040455603298977766,0.0016686665516475521,0.002241992148663937,9.603275458866048e-05,23.703573741018772
1649,A,1165043538006133.0,0.34835634,12.369782374582616,2.8735702460491797,248,1970-01-14 11:37:23.538006133,1.216532,2.2295985,0.4293016,7.619645431037441,2.5759191450798316,-86.87516021728516,1.8506848812103271,-101.0270004272461,23742209.0,38636.0,-0.0033994630274799993,0.09312313664757389,0.0395767362205561,-0.0002935793938913617,0.00328144404896361,-1.6977954220949693e-05,23.74220915720798
1649,A,1165043578610716.0,-0.05267244,8.978395374582615,2.5557400460491797,248,1970-01-14 11:37:23.578610716,1.8695391,1.3923006,0.7595336,10.893271897416625,2.4516461197974984,-86.67243194580078,1.8533174991607666,-101.09087371826172,23782813.0,40604.0,0.0060029745378,0.03549150466355249,0.11022585755018088,5.285649068251666e-05,0.0026111344478984876,0.003041292258733502,23.782813740195706
1649,A,1165043618418373.0,3.8534677,5.3769183745826155,-2.49961695395082,248,1970-01-14 11:37:23.618418373,1.2974921,0.7797736,0.49534798,15.338746423848908,1.5927655942132384,-87.02410125732422,1.4777095317840576,-101.14065551757812,23822621.0,39808.0,0.07565102885504,-0.1043902351366153,0.001117074025125748,0.0016252412835310879,-0.001371360331335842,0.0022161697100749034,23.822621397208422
1649,A,1165043658247123.0,5.2852,7.085779374582614,-1.68977815395082,248,1970-01-14 11:37:23.658247123,-0.09054748,2.026133,0.09161274,14.0308591033178,2.030223306425591,-87.38428497314453,0.9148470163345337,-101.24896240234375,23862450.0,39829.0,0.18199199791165,-0.14213580567424908,-0.08342970887630723,0.005130832056545248,-0.004909442839727959,-0.0016392149667438538,23.86245014704764
1649,A,1165043698309623.0,7.6548615,3.007855374582615,0.6170351460491798,248,1970-01-14 11:37:23.698309623,-0.82344943,1.4029533,-0.6263755,18.439815493921277,1.743184784453004,-87.5245132446289,0.2713831961154938,-101.32125091552734,23902512.0,40062.0,0.2592023719065,-0.19042200233947132,-0.021488115191277756,0.008837564421827362,-0.006661465452322833,-0.002101608933897795,23.90251264721155
1649,A,1165043737964050.0,3.13401,2.6319653745826166,-4.97761545395082,248,1970-01-14 11:37:23.737964050,-2.4746094,-1.3912354,-1.1227888,18.463616912502577,3.0528482291438856,-88.17799377441406,-0.036657627671957016,-101.25492858886719,23942167.0,39655.0,0.21391634966625,-0.27679545409592643,-0.0864594060549198,0.0093807614519837,-0.00926375411747285,-0.0021403294775089823,23.942167074186727
1649,A,1165043778040091.0,-4.5603557,7.397025374582615,8.67771384604918,248,1970-01-14 11:37:23.778040091,-3.9382827,-3.3491914,-0.6306366,15.20496218521396,5.208152856840207,-87.69971466064453,0.35617443919181824,-101.08734130859375,23982243.0,40076.0,-0.028581115136599996,-0.19178388336822713,0.07414257158086693,0.0037137474295051267,-0.00938939276410671,-0.00024680472919107134,23.982243115082383
1649,A,1165043817975403.0,-5.604826,4.048734374582615,1.5352115060491798,248,1970-01-14 11:37:23.817975403,-3.2618399,0.3323625,0.7275756,16.701578487011577,3.358486358220563,-87.88137817382812,0.8654571175575256,-101.1034164428711,24022178.0,39935.0,-0.20297326559474999,-0.16281979220854328,0.203926586968024,-0.004623562097253231,-0.007080548892079163,0.005552345923324979,24.022178427083418
1649,A,1165043857776028.0,-10.187927,3.177843374582615,1.1305914050491797,248,1970-01-14 11:37:23.857776028,-4.808604,1.2378373,0.44208476,19.475650528409737,4.985012792873409,-88.16737365722656,1.6204512119293213,-101.16700744628906,24061979.0,39801.0,-0.31428368107650007,-0.24623728950273738,0.05305081083231291,-0.010293671867231211,-0.008140440454595341,0.005113978704925605,24.061979052145034
1649,A,1165043897407539.0,1.7495629,6.176581374582614,0.7966002860491798,248,1970-01-14 11:37:23.897407539,-1.7704695,-2.2381206,-1.2186625,13.715507393938632,3.1030443695636802,-88.33206176757812,1.3333731889724731,-101.05889129638672,24101610.0,39631.0,-0.16721040382355,-0.20302119638291644,0.03818826695495954,-0.009541046039336943,-0.008902281527067173,0.001807947945893697,24.10161056322977
1649,A,1165043938295559.0,5.965752,13.250848374582615,6.95568384604918,248,1970-01-14 11:37:23.938295559,-4.607269,-1.865278,-1.9409119,10.594777041512343,5.336040541375843,-87.7978286743164,0.4057917296886444,-100.95504760742188,24142498.0,40888.0,0.15773189781560001,-0.003528026208066078,0.15848769679661887,-0.0001937785768265298,-0.004222692306650047,0.004020843402937269,24.14249858306721
1649,A,1165043977314883.0,3.2357635,19.527248404582615,4.49384634604918,248,1970-01-14 11:37:23.977314883,-2.9635658,-2.851713,-0.52624065,4.682772253035767,4.146313845696085,-86.91738891601562,-0.6176027655601501,-100.81417083740234,24181517.0,39019.0,0.17951696664724998,0.257098079113124,0.22337460928274294,0.006579556721237971,0.004947024947151227,0.007449942660455309,24.18151790718548
1649,A,1165044016857748.0,-2.7401638,19.821735207582616,4.63929404604918,248,1970-01-14 11:37:24.016857748,-1.7779263,-2.5598304,-0.27377295,4.462053886074175,3.1286906579506306,-85.87725067138672,0.24079902470111847,-100.69147491455078,24221060.0,39543.0,0.009798749468550002,0.39046702948792483,0.18057588526237273,0.0037430556811835396,0.012803333544705637,0.007986707202898754,24.221060772193596
1649,A,1165044057164726.0,-1.774702,19.503306374582614,2.84723404604918,248,1970-01-14 11:37:24.057164726,-0.12144015,-1.4977618,-0.829841,2.492837282927596,1.7165879543012825,-84.90252685546875,1.212078332901001,-100.60738372802734,24261367.0,40307.0,-0.0909903479003,0.39752862552616697,0.1508797439041043,-0.0016362948789942738,0.0158808704333265,0.006679991022406595,24.26136775012128
1649,A,1165044096962382.0,-1.4287399,18.315183774582614,-1.1846016539508204,248,1970-01-14 11:37:24.096962382,2.0112193,-0.57311225,-1.2985574,3.078648028534412,2.461648237439158,-85.9293441772461,1.797088384628296,-100.61369323730469,24301165.0,39798.0,-0.0637452903681,0.36252973547823886,0.03308472197036526,-0.0030790844659028915,0.015124401325626672,0.0036607089064360702,24.30116540612653
1649,A,1165044136520507.0,-4.969166,2.8276923745826146,-15.999324153950822,248,1970-01-14 11:37:24.136520507,1.6490294,1.2516857,-0.71798825,24.59572307563006,2.1912375911313022,-86.91411590576172,2.025451421737671,-100.71408081054688,24340723.0,39558.0,-0.12654418079610003,0.030516547354339035,-0.33988086855448657,-0.0037637354501567125,0.007774062428145559,-0.006068120983287336,24.34072353108786
1649,A,1165044176853268.0,-7.57286,6.873892374582615,-9.754646153950821,248,1970-01-14 11:37:24.176853268,0.25566345,-2.7302728,0.24820662,18.494156670538754,2.75342693534758,-87.7913589477539,2.5837576389312744,-100.61290740966797,24381056.0,40333.0,-0.252928767329,-0.19961639115595942,-0.5193674422142985,-0.00765264120836483,-0.0034101520000253773,-0.017328031059118707,24.381056292215362
1649,A,1165044216185820.0,-2.7156234,10.048604374582615,-4.83695615395082,248,1970-01-14 11:37:24.216185820,-0.8032094,-0.07243799,0.44847634,11.724477508869748,0.9227803802549096,-88.60506439208984,2.8849587440490723,-100.64543914794922,24420388.0,39332.0,-0.2023333145444,-0.052655778930916615,-0.2869584509871937,-0.008953184102122284,-0.004961184496928504,-0.015857205015700548,24.420388844097033
1649,A,1165044256401132.0,-4.7297454,3.323292374582614,7.31242024604918,248,1970-01-14 11:37:24.256401132,1.2900352,3.8125815,0.027696876,18.20551360184471,4.025013742625166,-88.0942611694336,3.197655439376831,-100.81188201904297,24460604.0,40216.0,-0.1497114758304,-0.12523470016778562,0.04977663196391382,-0.007078916644856479,-0.0035770217537167046,-0.004769252016920112,24.46060415613465
1649,A,1165044296335195.0,-1.3964181,16.440523874582617,11.293977846049179,248,1970-01-14 11:37:24.296335195,0.12250541,2.3542345,-0.24501082,10.799402851524054,2.3701177098166646,-86.7584228515625,3.347569704055786,-100.85382080078125,24500538.0,39934.0,-0.12232110660449999,0.003270919047082138,0.37151395070492793,-0.005431674573477648,-0.0024352508176370864,0.008411909064148763,24.50053821899928
1649,A,1165044336482903.0,2.64679,13.158073374582614,0.4793685460491798,248,1970-01-14 11:37:24.336482903,4.8064733,2.0133498,-0.5230448,7.15636611439667,5.237302632422531,-86.72633361816406,2.7215182781219482,-100.96797943115234,24540685.0,40147.0,0.025099340334650007,0.20070684188111823,0.23633226880178643,-0.001951581125217834,0.00409454758399223,0.01220160108726803,24.5406859270297
1649,A,1165044376332799.0,6.075287,4.725695374582616,1.7177693860491798,248,1970-01-14 11:37:24.376332799,3.943609,5.563876,-0.07989483,16.24154748004651,6.820201703184278,-86.56398010253906,2.135556697845459,-101.24810028076172,24580535.0,39850.0,0.173787384225,-0.03419590767288283,0.04377797329705981,0.003962817986851026,0.00331773036409909,0.00558119657381951,24.580535823013633
1649,A,1165044415742278.0,3.6128504,12.226130374582615,2.50246894604918,248,1970-01-14 11:37:24.415742278,2.3233418,3.6208339,0.3834952,8.483726675153058,4.319192496224207,-86.29656982421875,1.5084558725357056,-101.42337036132812,24619945.0,39410.0,0.190904747467,-0.05218227361269916,0.08315979633399818,0.00718625845499086,-0.001702082062232393,0.0025013087505799977,24.619945302139968
1649,A,1165044455659830.0,0.6739678,10.633985374582615,0.8103669260491797,248,1970-01-14 11:37:24.455659830,2.5129588,-1.9973708,0.96939063,9.172229938942714,3.353232803836005,-86.30852508544922,1.4077513217926025,-101.32423400878906,24659862.0,39917.0,0.0855584610447,0.06506702017971422,0.06611923475327511,0.005517790947080765,0.0002571602143577701,0.0029793855419553445,24.659862854052335
1649,A,1165044495752643.0,-1.4826094,11.618602374582615,-2.5085951539508202,248,1970-01-14 11:37:24.495752643,1.3752564,0.48363006,0.37603834,9.04973042764846,1.5055341357227738,-86.89657592773438,1.631710171699524,-101.36442565917969,24699955.0,40093.0,-0.0162104338344,0.05317510031364074,-0.034043532170630234,0.0013901852274712787,0.00237034066847004,0.0006430055718229904,24.699955667136237
1649,A,1165044535989101.0,-0.14664486,12.639129874582615,0.8157538760491798,248,1970-01-14 11:37:24.535989101,1.4828482,2.021872,0.24607609,7.145018425518061,2.5193964774717235,-86.96333312988281,1.6382031440734863,-101.46869659423828,24740192.0,40237.0,-0.032778151829810004,0.09370658625483065,-0.03405742724946415,-0.0009855768606854092,0.002955039211227792,-0.0013700891520931691,24.74019212508574
1649,A,1165044575334309.0,0.7398083,12.570895374582616,4.74224464604918,248,1970-01-14 11:37:24.575334309,1.4434333,2.0570257,0.28442562,8.099344161553375,2.528982474301031,-86.32121276855469,1.4902077913284302,-101.55513000488281,24779537.0,39345.0,0.011669007773399999,0.11036322171420296,0.10933972592597997,-0.0004152696364497258,0.0040145632972708135,0.0014809910207137572,24.77953733317554
1649,A,1165044615205559.0,2.4947581,7.0869763745826155,2.42405894604918,248,1970-01-14 11:37:24.615205559,1.5456988,0.9289106,0.77125144,12.997965172997386,1.9613486346939633,-86.19105529785156,1.220356822013855,-101.59793090820312,24819408.0,39871.0,0.06448269846719999,0.0011537022554834397,0.14286384526027684,0.0015181223397594812,0.0022231456377976833,0.005027804293383622,24.819408583221957
1649,A,1165044655381340.0,5.4743423,5.598381374582615,-1.7334724539508204,248,1970-01-14 11:37:24.655381340,0.9896307,1.8983012,0.1555286,15.463223175101554,2.146416901191819,-86.49397277832031,0.6996387839317322,-101.69822692871094,24859584.0,40176.0,0.1600832888352,-0.13890133353476888,0.013872501453271848,0.004511081552930612,-0.002767074417138286,0.0031485197327817665,24.85958436410874
1649,A,1165044695201549.0,2.943671,7.243796374582615,-0.7093526539508201,248,1970-01-14 11:37:24.695201549,-0.18535602,1.9302592,-0.23648871,13.002567994711361,1.953505654788935,-86.78949737548828,0.3525475263595581,-101.7978744506836,24899404.0,39820.0,0.167602644803,-0.1345482410141203,-0.048636647898321665,0.006524226938736562,-0.005444381029268384,-0.000692154155720942,24.899404573021457
1649,A,1165044735106861.0,4.321534,5.148271374582615,-1.41205085395082,248,1970-01-14 11:37:24.735106861,-0.71585774,1.1792477,-0.008522116,15.461388919664278,1.3795470518740254,-87.1353530883789,-0.053352318704128265,-101.8574447631836,24939309.0,39905.0,0.1449590027625,-0.14381626823478078,-0.04232730349140748,0.0062363862730506385,-0.0055540678707887,-0.0018149582401035711,24.939309885026887
1649,A,1165044774845299.0,2.469619,5.156052374582615,-6.04303565395082,248,1970-01-14 11:37:24.774845299,-2.1763353,-0.12037488,-0.48682585,16.466019734007254,2.2333662614961582,-87.92990112304688,-0.2915990948677063,-101.8503646850586,24979048.0,39739.0,0.13493681453349998,-0.1847004392659615,-0.14812884136875162,0.005561389941762872,-0.006527462719685998,-0.003784268370298931,24.97904832311906
1649,A,1165044814791080.0,-2.9831753,7.437128374582615,8.456249846049179,248,1970-01-14 11:37:24.814791080,-3.7486656,-2.453304,-0.28549087,14.662971506151237,4.489175796724018,-87.44482421875,-0.013127623125910759,-101.73053741455078,25018994.0,39946.0,-0.010257259979900006,-0.1399472008969229,0.048199127058780517,0.0024902247430990524,-0.00648418731697329,-0.0019958961839130532,25.018994104117155
1649,A,1165044854591393.0,-2.681506,4.254636374582615,3.1955903460491797,248,1970-01-14 11:37:24.854591393,-3.4184337,0.3334278,0.28655612,15.88795491084706,3.446589251567118,-87.49104309082031,0.24399729073047638,-101.74668884277344,25058794.0,39800.0,-0.11272715787,-0.15737388149161194,0.23187161982275734,-0.00244738991521301,-0.005916689539531844,0.005573407862942604,25.05879441718571
1649,A,1165044895019465.0,-4.5795093,0.7183993745826136,-2.79111085395082,248,1970-01-14 11:37:24.895019465,-4.169445,1.7374463,0.27803403,19.986363302379747,4.525515901557161,-88.03984832763672,0.5837094783782959,-101.83594512939453,25099222.0,40428.0,-0.1467741632742,-0.29566945536637407,0.008176148453276242,-0.005245559705608858,-0.00915781801124733,0.004852325587931743,25.099222489167005
1649,A,1165044934447903.0,-0.64703304,2.2889953745826155,3.7624176460491796,248,1970-01-14 11:37:24.934447903,-2.2658174,-0.112918034,-1.2783173,17.69789234525991,2.6039919531412683,-87.98760223388672,0.557511031627655,-101.830810546875,25138650.0,39428.0,-0.10303605569075999,-0.3271066199149567,0.01914834209942706,-0.004924758656675222,-0.012277407548096152,0.0005386750067559929,25.13865092722699
1649,A,1165044974318580.0,3.7205894,12.041776874582615,4.00961884604918,248,1970-01-14 11:37:24.974318580,-4.1151166,-2.1081583,-2.2285333,9.056827351302088,5.1327260513944575,-87.7789306640625,-0.1581856608390808,-101.72665405273438,25178521.0,39871.0,0.06127288281478,-0.10504468982676657,0.15493943348822684,-0.0008325697328690991,-0.008615152435356124,0.003470526850227674,25.178521604044363
1649,A,1165045014237851.0,4.282628,17.275501774582615,5.52275454604918,248,1970-01-14 11:37:25.014237851,-3.278884,-3.3406694,-1.3060142,6.632970020871062,4.859714540603593,-87.01510620117188,-1.154159665107727,-101.57147979736328,25218440.0,39919.0,0.15974021769530003,0.19395202319801336,0.19026140671958724,0.004411310979630942,0.0017745459204234005,0.006890036170127865,25.218440875178203
1649,A,1165045054153945.0,-1.6316484,18.306804074582615,5.52514884604918,248,1970-01-14 11:37:25.054153945,-2.4277377,-3.722034,-0.3174488,4.923850386587437,4.455134249130853,-85.88136291503906,-0.6968176960945129,-101.4072494506836,25258356.0,39916.0,0.052908250856799996,0.31897486013763965,0.22049405589949905,0.004244038135362812,0.010236994737612963,0.008197857522951725,25.25835696910508
1649,A,1165045094451809.0,-3.3542767,19.086116774582614,2.28519524604918,248,1970-01-14 11:37:25.094451809,-1.0279802,-2.5640914,-0.7052051,3.6179750428061843,2.851073873510122,-85.49163818359375,0.5899372100830078,-101.28291320800781,25298654.0,40298.0,-0.1004614048399,0.35850956218983016,0.15737062311168987,-0.000958148499605482,0.01365063362547619,0.0076135954173964454,25.29865483311005
1649,A,1165045134279205.0,-1.9081788,19.141183374582614,-3.3687121539508205,248,1970-01-14 11:37:25.134279205,0.15446335,-0.7105314,-1.0844392,4.916831506505937,1.3056500968390508,-86.80120849609375,1.0882511138916016,-101.27102661132812,25338482.0,39828.0,-0.104796538827,0.37094405517047635,-0.021577155703953268,-0.004087506690182647,0.014526339336113145,0.0027041911099576666,25.338482229039073
1649,A,1165045174040403.0,-2.3169887,13.673425374582614,-18.143331153950818,248,1970-01-14 11:37:25.174040403,0.76272935,1.2953615,-0.8213189,20.337467098410674,1.7129746678018571,-88.14311981201172,1.2062065601348877,-101.36555480957031,25378243.0,39761.0,-0.08399844248374999,0.2627130292377793,-0.4276701769827385,-0.0037533386259483653,0.012597419666578326,-0.008931261597477775,25.378243427025154
1649,A,1165045213916028.0,-1.7142484,5.554088374582616,-14.68131515395082,248,1970-01-14 11:37:25.213916028,0.753142,-3.6517265,-0.24181503,21.326683918254158,3.7364159045400918,-89.19328308105469,1.2853939533233643,-101.20711517333984,25418119.0,39876.0,-0.08037480529980001,-0.007426630869143683,-0.6544577980869429,-0.00327727381430842,0.0050899002106738565,-0.021575467566939312,25.418119052192196
1649,A,1165045254167799.0,-2.7252002,1.7383293745826158,-18.49527815395082,248,1970-01-14 11:37:25.254167799,-1.3688648,-2.1763353,0.19281286,26.785717586862145,2.5782558014453314,-90.32178497314453,1.4187188148498535,-101.12330627441406,25458370.0,40251.0,-0.08934612279930002,-0.24769624658917516,-0.6676955286181745,-0.003415718538458438,-0.005134475470287396,-0.02660899677660384,25.458370823180303
1649,A,1165045293582018.0,-5.8215013,16.195118174582614,4.78773434604918,248,1970-01-14 11:37:25.293582018,0.72970617,0.6711166,0.112918034,7.75765036858054,0.9978071295265705,-89.60455322265625,2.482496738433838,-101.13336181640625,25497785.0,39415.0,-0.16843411981125,-0.03284358242482626,-0.27014141959422155,-0.005080204131247414,-0.005528738680293433,-0.018482421656895794,25.49778504204005
1649,A,1165045333460195.0,-19.6133,21.228328674582613,1.3885666460491797,248,1970-01-14 11:37:25.333460195,2.283927,4.3121905,-1.5893745,19.668840262937362,5.131999683444017,-89.46380615234375,5.268726825714111,-101.34474182128906,25537663.0,39878.0,-0.5071445031206999,0.3553817067255054,0.12314926548144918,-0.01347036216264015,0.00643108766043124,-0.0029308765608545683,25.537663219030946
1649,A,1165045373370820.0,10.63684,1.1517503745826154,13.01660584604918,248,1970-01-14 11:37:25.373370820,3.7273602,6.0602894,0.8309063,24.527341486506053,7.163150630251754,-88.61680603027344,4.595887660980225,-101.59037017822266,25577573.0,39910.0,-0.1791252593,0.05547647742609211,0.28745521707982274,-0.013694513109105067,0.008198675064745128,0.008193612449510182,25.577573843998834
1649,A,1165045413443059.0,7.3627687,5.930576374582616,2.25227484604918,248,1970-01-14 11:37:25.413443059,2.7760792,5.380651,-0.2247708,15.722577487653533,6.058757531128498,-88.42485046386719,3.8217387199401855,-101.85575866699219,25617646.0,40073.0,0.36064915971754996,-0.25081036009035085,0.30593492798722877,0.0036371036307162393,-0.00391380734000242,0.011889461641635977,25.61764608300291
1649,A,1165045453212538.0,2.2768857,14.148075874582615,0.7942060460491798,248,1970-01-14 11:37:25.453212538,3.6559875,1.9558256,0.13635385,6.079914233270432,4.148504640250682,-88.36099243164062,3.2078757286071777,-101.96138000488281,25657415.0,39769.0,0.19167970791679997,0.009517760648526,0.060577749298929826,0.01098278336847523,-0.004797982693600966,0.00728792133149662,25.657415562076494
1649,A,1165045493092538.0,1.8920178,11.926854874582615,3.5020481460491797,248,1970-01-14 11:37:25.493092538,3.5803537,1.4093449,1.2197278,8.4188030013832,4.036449128919196,-87.81793212890625,2.8743278980255127,-102.01116943359375,25697295.0,39880.0,0.08312793579,0.12911011913835466,0.08566730859044129,0.005479664415513592,0.0027642399229504,0.00291612645431406,25.69729556213133
1649,A,1165045533006080.0,0.4961983,10.962590374582614,-0.038976053950820155,248,1970-01-14 11:37:25.533006080,1.6223978,-1.1504856,0.58483016,8.903110206694754,2.0731179545066474,-87.97422790527344,2.7509918212890625,-101.96440124511719,25737209.0,39914.0,0.0476616287077,0.06564745883759045,0.06911252974200696,0.0026101673386805984,0.0038867769836659367,0.003088941233600669,25.737209104001522
1649,A,1165045572864674.0,1.0654198,10.956605374582615,-3.3166381539508203,248,1970-01-14 11:37:25.572864674,2.0655477,0.15765914,0.7765778,9.92911770478284,2.2123328829210287,-88.55625915527344,2.5764143466949463,-102.00288391113281,25777067.0,39858.0,0.0311214871149,0.04621925208511383,-0.06687403554927179,0.0015700687152285953,0.0022293916819785737,4.461095076701917e-05,25.777067698072642
1649,A,1165045613276497.0,-0.44771573,12.118391374582615,0.1884730460491798,248,1970-01-14 11:37:25.613276497,1.3624732,1.2389026,0.16618125,7.727045892952033,1.8490075935097083,-88.69916534423828,2.6055068969726562,-102.07406616210938,25817479.0,40412.0,0.012481328438419998,0.0702157843136326,-0.06320770417026055,0.0008810384910703838,0.00235268634547307,-0.0026284316327728706,25.817479521036148
1649,A,1165045652789049.0,-0.89902276,10.525648374582614,2.66168344604918,248,1970-01-14 11:37:25.652789049,1.8855181,2.5768747,0.21198763,9.421500831328393,3.2000625744195563,-88.40791320800781,2.6917121410369873,-102.19332885742188,25856992.0,39513.0,-0.026606838977684996,0.06013957130438281,0.05630911673614124,-0.0002790706489689889,0.0025753655832673216,-0.0001362919426421781,25.856992073124275
1649,A,1165045692930091.0,2.771887,6.927762374582615,0.054397746049179796,248,1970-01-14 11:37:25.692930091,1.3923006,1.1217234,0.6668556,13.187045505652842,1.9082611818404944,-88.49513244628906,2.36043643951416,-102.2555160522461,25897133.0,40141.0,0.03758932172892,-0.0430831195588793,0.054513107566010126,0.0002204239200586622,0.0003423315147581283,0.002224257452856329,25.897133115213364
1649,A,1165045732497122.0,5.431845,6.685947374582614,-0.008450053950820324,248,1970-01-14 11:37:25.732497122,0.23542345,0.8426242,0.13315806,14.217235342158427,0.8849693848820456,-88.63304138183594,1.7671765089035034,-102.30288696289062,25936700.0,39567.0,0.162298532022,-0.1184297731773897,0.0009090061666278946,0.003954481354681325,-0.0031952903134479776,0.0010964433870296443,25.936700146179646
1649,A,1165045772594830.0,5.0344076,5.893467374582615,-1.64009845395082,248,1970-01-14 11:37:25.772594830,-0.5581986,2.5161545,-0.14487597,15.022783113308062,2.581396558376037,-88.95879364013672,1.2421517372131348,-102.43646240234375,25976797.0,40097.0,0.20983266525110003,-0.14075220340136094,-0.03305092476066604,0.007460672308529747,-0.005196209857439083,-0.0006443972549325738,25.97679785406217
1649,A,1165045812338007.0,2.4558525,4.794528374582615,0.5260554460491798,248,1970-01-14 11:37:25.812338007,-1.5659387,-0.6593987,-0.45699844,15.193205059781633,1.7594937430641275,-89.11795043945312,0.9566824436187744,-102.40528106689453,26016541.0,39744.0,0.1488464487072,-0.17709934847258857,-0.022138262653021396,0.0071276713525793385,-0.006316346038839125,-0.0010967195322847967,26.016541031189263
1649,A,1165045852288997.0,0.80086046,7.680139374582614,-2.74921235395082,248,1970-01-14 11:37:25.852288997,-2.91989,-1.361408,-0.57311225,12.724490488710229,3.272254116914526,-89.71917724609375,0.8145377039909363,-102.34452056884766,26056492.0,39951.0,0.06505446973248001,-0.14233207437655,-0.04440867081378922,0.004272777796291828,-0.006380802387122967,-0.0013293082694662756,26.05649202107452
1649,A,1165045892119361.0,-4.3239284,7.860303374582616,3.65647424604918,248,1970-01-14 11:37:25.892119361,-3.2096417,-1.3741912,0.44528055,12.92786800453796,3.519726703132593,-89.60355377197266,1.296639323234558,-102.27129364013672,26096322.0,39830.0,-0.07016189802509999,-0.08084608265037446,0.01806812058113883,-0.00010171443444752691,-0.0044445929971912,-0.0005245720578832324,26.096322385128587
1649,A,1165045932093788.0,-8.884883,1.0757353745826137,1.5723216260491797,248,1970-01-14 11:37:25.932093788,-3.8498657,2.1411815,-0.0127831735,20.708853383852453,4.405256806759791,-89.77655792236328,1.8816899061203003,-102.37876892089844,26136296.0,39974.0,-0.26400451345180004,-0.2131405935204346,0.10450794309562993,-0.006678984066188801,-0.005875911696625962,0.0024499277847075773,26.136296812212095
1649,A,1165045972781393.0,-4.486734,6.025147374582614,1.8829692460491798,248,1970-01-14 11:37:25.972781393,-3.186206,-0.9214538,0.7041398,14.484772097521134,3.3906929436200026,-89.8637924194336,2.3155417442321777,-102.3305435180664,26176984.0,40688.0,-0.272032176248,-0.25428204135098265,0.07029443750196902,-0.010905130415252734,-0.009509246083824112,0.0035561796308775533,26.176984417019412
1649,A,1165046012080038.0,4.4741645,6.069441374582615,0.03943394604917971,248,1970-01-14 11:37:26.012080038,-2.360626,-0.85966843,-1.8322549,14.458837288160575,3.109460232900346,-90.09041595458984,1.7261747121810913,-102.2910385131836,26216283.0,39299.0,-0.00024698439025001113,-0.14747757837327785,0.03777426152313672,-0.005350149366961294,-0.007894375647771857,0.0021234959014938153,26.216283062007278
1649,A,1165046052099466.0,4.8386817,16.326799174582614,5.605953146049179,248,1970-01-14 11:37:26.052099466,-4.091681,-2.6045716,-1.397627,7.4466802693635925,5.047673509292827,-89.4278793334961,0.7053936123847961,-102.1405258178711,26256302.0,40019.0,0.1863453960389,0.055951375268521626,0.1129613730193421,0.003723736167883662,-0.0018313935610246197,0.00301614467937773,26.25630249013193
1649,A,1165046091891132.0,1.5610195,18.996334174582614,4.70214184604918,248,1970-01-14 11:37:26.091891132,-2.392584,-2.7132285,-0.29188246,3.9863466399280543,3.6292233963651093,-88.2615966796875,0.12348990887403488,-101.9951171875,26296094.0,39792.0,0.12732845507520002,0.3128274611149914,0.20508985796278897,0.006240854941766134,0.007337223728686375,0.00632794729162048,26.29609415610321
1649,A,1165046131766548.0,-2.6940753,19.198045674582616,3.5852466460491796,248,1970-01-14 11:37:26.131766548,-1.4072144,-2.1241374,-0.39627838,3.69858822104938,2.5786137004409064,-87.3824234008789,1.1423633098602295,-101.87969970703125,26335969.0,39875.0,-0.022590300012500005,0.37072544824273174,0.16522980806121107,0.0020882169665625817,0.013628336130319604,0.0073832483413535,26.335969572188333
1649,A,1165046171578996.0,-2.2888567,20.098864074582615,1.7746316760491796,248,1970-01-14 11:37:26.171578996,0.3930826,-1.164334,-1.0567423,2.4029324350836854,1.620768917084743,-86.55516815185547,3.835479259490967,-101.78842163085938,26375782.0,39813.0,-0.099192735858,0.39209653392175764,0.10669641781885099,-0.0024242740035561082,0.015185115787957408,0.005413099415481455,26.375782020157203
1649,A,1165046211528006.0,-2.475006,17.159981474582615,-4.53528715395082,248,1970-01-14 11:37:26.211528006,3.197924,0.44208476,-0.98430437,6.703013810515403,3.375057323602275,-87.6399154663086,4.2818498611450195,-101.90086364746094,26415731.0,39949.0,-0.09515577550115001,0.3527266104218008,-0.05514271284334632,-0.0038820143401433415,0.014877469896690408,0.001029759480033218,26.415731030050665
1649,A,1165046251327381.0,-7.4884644,0.16294537458261615,-12.71088715395082,248,1970-01-14 11:37:26.251327381,2.014415,-0.035153728,-0.16298546,25.139557674914414,2.02130349947471,-88.37503814697266,4.617770671844482,-101.96400451660156,26455530.0,39799.0,-0.1982680792248,-0.04531261716503651,-0.3431902456400887,-0.005838987997119042,0.006117384758812982,-0.007926626707341115,26.455530405044556
1649,A,1165046291341236.0,-3.9636009,8.897591374582616,-9.01723215395082,248,1970-01-14 11:37:26.291341236,-0.33981937,-3.1947281,0.39521313,15.387612504567198,3.236967447361991,-89.35404968261719,4.922092437744141,-101.88434600830078,26495544.0,40014.0,-0.2291214704571,-0.21086304125945124,-0.4347144829931881,-0.008550782720485773,-0.005125306398098726,-0.015563539905765969,26.49554426013492
1649,A,1165046331571965.0,-2.0248961,15.932354374582616,-6.85586715395082,248,1970-01-14 11:37:26.331571965,-0.81705785,0.049002163,0.2066613,9.080672222913742,0.8442118425744755,-90.66484069824219,5.198576927185059,-101.99878692626953,26535774.0,40230.0,-0.120458617155,0.10520035874445861,-0.3192873925784415,-0.007031803462317392,-0.0021254048587890768,-0.01516674772712333,26.535774989053607
1649,A,1165046371122538.0,-8.20433,2.558943374582615,9.51029784604918,248,1970-01-14 11:37:26.371122538,3.0381343,5.098356,0.10865697,20.836909928496596,5.935932973400396,-89.94364166259766,5.657344818115234,-102.1982421875,26575325.0,39551.0,-0.20228806074055,-0.021925141361383012,0.05249269415159113,-0.0063824769287234495,0.0016468090613590116,-0.0052759985587401805,26.57532556215301
1649,A,1165046411021079.0,1.7926586,9.600289374582616,11.33228484604918,248,1970-01-14 11:37:26.411021079,-0.4708469,0.6924219,-0.46339005,14.52910437718922,0.9570137038090011,-88.96009826660156,5.3588080406188965,-102.13597869873047,26615224.0,39899.0,-0.1279096385943,-0.14843958627052825,0.4157991034160162,-0.00658727900288059,-0.0033986911338928136,0.009342187215574982,26.615224103210494
1649,A,1165046451147329.0,-1.4185646,20.556755144582613,5.4425488460491795,248,1970-01-14 11:37:26.451147329,3.174488,1.9302592,-1.2112057,4.617689335497529,3.907722340320654,-86.08412170410156,6.2194108963012695,-101.95781707763672,26655350.0,40126.0,0.007505447921999999,0.21180598418801197,0.33655348836456944,-0.002415669277458355,0.001271320041418476,0.015094450048893891,26.65535035310313
1649,A,1165046491060715.0,-0.04369418,8.938292374582614,9.79520684604918,248,1970-01-14 11:37:26.491060715,4.1460094,4.278102,1.1259845,13.88368373076108,6.062952396442892,-85.07806396484375,6.168254375457764,-102.08006286621094,26695263.0,39913.0,-0.029181567343069998,0.19747051581622085,0.30409227146936085,-0.0004325794772265834,0.008167726472334472,0.01278504710612583,26.695263739209622
1649,A,1165046530949465.0,6.205771,3.9870833745826157,1.9667663460491798,248,1970-01-14 11:37:26.530949465,2.038916,2.0208068,-0.30040458,16.98615900057942,2.8863612888318775,-85.02970123291016,5.49852991104126,-102.18746185302734,26735152.0,39889.0,0.12289954113649,-0.1331220433707741,0.23458667432980573,0.0018691581283228655,0.0012833981086882128,0.010743682234491478,26.735152489040047
1649,A,1165046570567590.0,1.4443022,12.980303974582615,-2.7486139539508203,248,1970-01-14 11:37:26.570567590,1.7608821,-2.3425164,0.5422196,7.951207503706619,2.9802837027695084,-85.73384094238281,5.14558744430542,-102.1427230834961,26774770.0,39618.0,0.1515403000188,-0.052149424000385976,-0.015487619264923598,0.00543637881344514,-0.00367004249715531,0.00434013318178025,26.774770614225417
1649,A,1165046610403527.0,-1.721431,12.656488374582615,-1.04633655395082,248,1970-01-14 11:37:26.610403527,2.1443772,0.06711166,-0.16192019,7.637978247577075,2.1515286887972076,-86.13325500488281,5.342403888702393,-102.1927719116211,26814606.0,39836.0,-0.005519851438399997,0.12024083001067302,-0.07558782421638488,0.0029084352948244075,0.0013562446249128974,-0.0018140406832607022,26.814606551080942
1649,A,1165046650419673.0,-0.29029694,11.349254374582616,2.2630487460491797,248,1970-01-14 11:37:26.650419673,1.220793,2.2445123,0.23116238,8.509379309278554,2.5654642970868946,-85.98550415039062,5.277304172515869,-102.29550170898438,26854622.0,40016.0,-0.040250652623520004,0.08815010092529792,0.024343977539503982,-0.0009157762452708955,0.004169485746166907,-0.001025286884311033,26.85462269722484
1649,A,1165046691017173.0,0.01436521,12.408688374582615,3.14710774604918,248,1970-01-14 11:37:26.691017173,1.4689997,1.929194,0.32490566,7.641877524344795,2.446489995102397,-85.63687133789062,5.168635845184326,-102.36519622802734,26895220.0,40598.0,-0.00560113818727,0.084402079865305,0.1098207666331046,-0.0009307455016682265,0.0035026367178684487,0.0027234101419597815,26.895220197038725
1649,A,1165046730229256.0,-0.01436521,7.834565374582615,1.3197333360491799,248,1970-01-14 11:37:26.730229256,1.3731259,0.34514567,0.5113269,11.943392110571283,1.5053423097203402,-85.65476989746094,5.068342685699463,-102.38819122314453,26934432.0,39212.0,0.0,0.01261163300613348,0.08757688625562043,-0.00010981591529961562,0.0019020508545574226,0.003870178382536342,26.934432280017063
1649,A,1165046770180350.0,5.0721164,5.962898374582615,-3.88166965395082,248,1970-01-14 11:37:26.770180350,1.0929613,1.4455639,0.33449304,15.54129451534621,1.8428524048575734,-86.16372680664062,4.515257358551025,-102.50605010986328,26974383.0,39951.0,0.10103110889584499,-0.11590856287854998,-0.05117595891824422,0.0020181469157489517,-0.0020634078226664555,0.0007271267240277587,26.974383374210447
1649,A,1165046810092850.0,4.495114,7.441916374582615,0.45183521604917976,248,1970-01-14 11:37:26.810092850,-0.51665324,1.3060142,-0.029827405,13.14479084577719,1.4048107826654703,-86.35709381103516,3.9245100021362305,-102.58329772949219,27014295.0,39912.0,0.1909236498624,-0.12363111686565872,-0.06844577604276514,0.005826249165779538,-0.004780253848975429,-0.002387171342881903,27.01429587416351
