Subject-id_accel,Activity_accel,Timestamp_accel,accel_x,accel_y,accel_z,Segment_accel,DateTime,gyro_x,gyro_y,gyro_z,accel_magnitude,gyro_magnitude,Roll,Pitch,Yaw,Time_Difference,Difference_Microseconds,vx,vy,vz,dx,dy,dz,Time_diff
1637,A,16606358905150.0,3.4610396698122328,14.367305,2.5652375,189,1970-01-01 04:36:46.358905150,-1.0447208,1.8576946,2.729136,14.727190921370902,3.4627523855046003,-57.27164840698242,-67.68324279785156,92.33651733398438,15030075.0,49878.0,0.17937685092419456,0.2104924421879999,0.11433526707689999,0.008175613742450799,0.010738684044472044,0.006910460436443015,15.030075660000875
1637,A,16606408783210.0,2.6063094698122327,10.443209,0.85098904,189,1970-01-01 04:36:46.408783210,-1.1778789,1.794844,3.312901,10.852525521654979,3.947679916508203,-57.6470947265625,-67.6718521118164,92.63468933105469,15079953.0,49878.0,0.15131362019309452,0.12994500864599995,0.08519727368105999,0.008247089659194073,0.008490169586349123,0.004976142033962764,15.079953720000049
1637,A,16606458661270.0,3.0252948698122326,8.482357,1.2220904,189,1970-01-01 04:36:46.458661270,-0.92541116,1.331454,3.683613,8.901849106963406,4.024693814805984,-57.90420913696289,-67.5988540649414,92.84574127197266,15129831.0,49878.0,0.14044658062589452,-0.016819709526000037,0.05170052815415999,0.007276207648224767,0.0028212318347536776,0.0034140942799685513,15.129831779999222
1637,A,16606508539330.0,2.8289702698122325,7.6180506,0.81028765,189,1970-01-01 04:36:46.508539330,0.23572704,0.70720905,3.2511156,8.091624205102313,3.3354856501493786,-58.35177230834961,-67.52405548095703,93.29181671142578,15179709.0,49878.0,0.1459995183170945,-0.08727633486360002,0.05068547618895,0.007143679261539203,-0.0025960512510322356,0.00255340456231282,15.179709839998395
1637,A,16606558417390.0,2.6494053698122326,7.2254014,0.71691376,189,1970-01-01 04:36:46.558417390,0.90151733,0.36738974,2.3328576,7.776315868742444,2.5278317387091565,-58.82518005371094,-67.45573425292969,93.78822326660156,15229587.0,49878.0,0.13662521007659453,-0.11862355057200002,0.03808687596399,0.00704837810141021,-0.00513493724287843,0.0022138936903421703,15.229587900001206
1637,A,16606608295450.0,2.8624890698122325,6.4113727,1.2723686,189,1970-01-01 04:36:46.608295450,1.35532,0.040353548,1.2761154,7.023835913372244,1.8619858284512663,-58.960941314697266,-67.36292266845703,93.98816680908203,15279465.0,49878.0,0.13746113542979452,-0.14871689072010003,0.04961071277604,0.006835439370583837,-0.006667203265383683,0.0021870901655876083,15.27946596000038
1637,A,16606658173510.0,3.2742918698122327,8.1758995,1.348983,189,1970-01-01 04:36:46.658173510,1.5694381,-0.38575223,0.25878787,8.563112241529375,1.6367381874755411,-58.91963195800781,-67.49515533447266,94.03136444091797,15329344.0,49879.0,0.15304824824376434,-0.12501492496810004,0.0653751982282,0.00724515877412672,-0.006826734617355865,0.002867691127490243,15.329344019999553
1637,A,16606708051570.0,3.9638219698122326,10.491093,1.5070003,189,1970-01-01 04:36:46.708051570,1.061307,-0.70213574,-0.6413606,10.70017661780458,1.425030022443986,-58.89917755126953,-67.54074096679688,94.06665802001953,15379222.0,49878.0,0.18051132104639453,-0.023268274042500054,0.0712253675187,0.00831864209852727,-0.003698034700125356,0.0034066815091619387,15.379222079998726
1637,A,16606757930940.0,4.085926269812233,11.343429,0.5708675,189,1970-01-01 04:36:46.757930940,-0.68679196,-0.84275067,-1.6618838,11.437438144872166,1.9858926589341455,-58.916969299316406,-67.6336669921875,94.04875946044922,15429101.0,49879.0,0.20075669622211434,0.055727861418999956,0.0518209839981,0.009508633716667977,0.0008095258793762193,0.0030687144836532335,15.429101450001326
1637,A,16606807810310.0,2.4219561698122325,11.518205,1.217302,189,1970-01-01 04:36:46.807810310,-1.4750876,-1.1527426,-2.7516494,11.96744509229952,3.3281035666049936,-59.10112380981445,-67.95079040527344,94.14280700683594,15478980.0,49879.0,0.16230333410301434,0.08134352114299997,0.04459605324525,0.009054535626293547,0.0034184917454049973,0.002404592700330527,15.478980820000288
1637,A,16606857689680.0,1.430756369812233,13.651439,2.3306057,189,1970-01-01 04:36:46.857689680,-0.98400074,-1.1218499,-3.4451365,14.41578193358188,3.7544334004058197,-59.064720153808594,-68.2100601196289,94.04829406738281,15528860.0,49880.0,0.09608665073823416,0.13890692135999996,0.088484818038,0.006444246221940738,0.005493046036024818,0.003319036929804255,15.52886018999925
1637,A,16606907569050.0,2.6565878698122325,11.187805,2.7184663,189,1970-01-01 04:36:46.907569050,0.31988293,-1.1037405,-3.4419408,11.843470640943291,3.6287083998235894,-58.6465950012207,-68.46339416503906,93.65928649902344,15578739.0,49879.0,0.10193632166411437,0.130664125738,0.125921331144,0.004938593920228372,0.0067229671291005695,0.00534718215752449,15.578739559998212
1637,A,16606957448420.0,3.7555263698122325,8.104074,3.6115036,189,1970-01-01 04:36:46.957448420,-0.6558993,-1.2773786,-2.818761,9.02963325706926,3.163433823331768,-58.631534576416016,-68.61698150634766,93.60787200927734,15628618.0,49879.0,0.15991492307911434,-0.0076843836794999966,0.15786628432105,0.0065304391182737535,0.0030670532770679603,0.007077521235890614,15.628618930000812
1637,A,16607007327790.0,2.5751848698122326,8.379407,2.821417,189,1970-01-01 04:36:47.007327790,-2.1110506,-1.1229151,-2.2488446,9.292164594943527,3.2824952387654016,-58.319976806640625,-68.6516342163086,93.21556091308594,15678498.0,49880.0,0.15788793831623416,-0.07772598386000001,0.16043703976399998,0.007926003363199992,-0.0021301345664351302,0.007938484902681146,15.678498299999774
1637,A,16607057207160.0,0.5688441698122322,9.404125,2.2683566,189,1970-01-01 04:36:47.057207160,-2.5978763,-0.88536125,-1.8994379,10.8280671090185,3.337767240096239,-58.64442443847656,-68.55158233642578,93.39222717285156,15728377.0,49879.0,0.07841051223371434,-0.04530180368600001,0.1269364086972,0.00589316520749044,-0.0030682515075034673,0.007166950117898096,15.728377669998736
1637,A,16607107086530.0,-1.8229634301877677,10.43842,3.5301008,189,1970-01-01 04:36:47.107086530,-0.58239603,-0.79481375,-1.4435047,13.193832679011901,1.7477470789192908,-58.66435623168945,-68.63391876220703,93.38235473632812,15778257.0,49880.0,-0.03127773435376586,0.006049072299999994,0.14461352755600002,0.0011754914803259152,-0.0009789631207668403,0.006772455410154809,15.778257040001336
1637,A,16607156965900.0,-0.07998483018776703,10.991481,3.7240312,189,1970-01-01 04:36:47.156965900,1.041067,-0.54021555,-0.9119377,12.84829238265925,1.485693005850163,-58.515724182128906,-68.44328308105469,93.29227447509766,15828136.0,49879.0,-0.04745857813963565,0.045636815989499986,0.180914425014,-0.001963644265429187,0.0012890202109959847,0.008118504373119515,15.828136410000297
1637,A,16607206845270.0,1.3685072698122323,10.900501,4.8181815,189,1970-01-01 04:36:47.206845270,1.2551851,-0.37936065,-0.506072,12.592031311700849,1.4055294401806149,-58.460411071777344,-68.47476196289062,93.3002700805664,15878015.0,49879.0,0.032135105383014353,0.057160885088999976,0.21303851363165,-0.00038215974881375685,0.0025637232660472497,0.009824989313353188,15.87801577999926
1637,A,16607256724640.0,1.8808663698122325,10.3642,4.957045,189,1970-01-01 04:36:47.256724640,0.47860733,-0.028888639,0.012711801,12.02536999042804,0.4796468697673996,-58.440467834472656,-68.47499084472656,93.30455780029297,15927895.0,49880.0,0.08103937857223416,0.04151764293999998,0.24379414890999998,0.002822571629843898,0.002461042489043259,0.011393406603788752,15.927895149998221
1637,A,16607306604010.0,1.5768028698122327,10.254066,4.4039845,189,1970-01-01 04:36:47.306604010,-0.1882482,0.36312866,0.79035485,11.807387081852456,0.8899216805063006,-58.46305465698242,-68.43181610107422,93.31873321533203,15977774.0,49879.0,0.08623254200161436,0.02539504490699997,0.23345939521525003,0.004171678063151495,0.0016687689785602553,0.011902464763711672,15.977774520000821
1637,A,16607356483380.0,1.2583738698122326,11.827057,4.813393,189,1970-01-01 04:36:47.356483380,1.0272185,0.7871039,1.4582757,13.434246540287214,1.949686747492517,-57.872352600097656,-68.20921325683594,92.81925964355469,16027653.0,49879.0,0.07070789029786435,0.06187796705849996,0.22987678616124999,0.003914015911332849,0.0021765452819135856,0.011555372695439221,16.027653889999783
1637,A,16607406362750.0,2.9750166698122325,14.396035,3.0728083,189,1970-01-01 04:36:47.406362750,1.2764903,1.4571552,1.9216657,14.92419801684326,2.7286494508158463,-57.446170806884766,-68.2703857421875,92.47876739501953,16077532.999999998,49879.99999999814,0.10558076005823021,0.16517991447999372,0.19668186042199265,0.004396638939880834,0.005662823565569821,0.010638372645785673,16.077533259998745
1637,A,16607456242120.0,3.1881006698122327,13.6849575,1.9547161,189,1970-01-01 04:36:47.456242120,0.074872114,1.9066968,2.486256,14.005013519589129,3.1340975444489705,-57.28665542602539,-68.35265350341797,92.32904052734375,16127412.0,49879.00000000186,0.15370506489157007,0.21151171245375777,0.12538394477380468,0.006466458831335785,0.009394500829914646,0.008032160148680887,16.127412630001345
1637,A,16607506121490.0,3.2479556698122325,10.589254,0.69536597,189,1970-01-01 04:36:47.506121490,-0.40662742,1.9024358,3.055107,10.834761523992205,3.6219175326429642,-57.31320571899414,-68.1727294921875,92.33573913574219,16177292.000000002,49880.00000000186,0.16051524511024015,0.1165748348100043,0.06609304682580246,0.00783665453144544,0.008182478488758532,0.00477543617049438,16.177292000000307
1637,A,16607556000860.0,3.0612078698122325,10.3809595,0.5349544,189,1970-01-01 04:36:47.556000860,-0.94778174,1.4070878,3.4354064,10.661981659745274,3.831475360321038,-57.443450927734375,-67.9901123046875,92.425048828125,16227170.999999998,49878.999999996275,0.15734738409645257,0.03417243958324741,0.03068357486761271,0.007927335041099721,0.00375956164973022,0.0024135605567227473,16.22717136999927
1637,A,16607605880230.0,2.9630456698122325,9.413702,0.12554595,189,1970-01-01 04:36:47.605880230,-0.7144888,0.8531503,3.2862694,9.733255428334411,3.469571479173169,-57.60790252685547,-67.82861328125,92.56397247314453,16277050.0,49879.00000000186,0.15024187115146995,0.004854760479250149,0.016472548478825615,0.007671122231255849,0.000973318855958694,0.0011760501381985423,16.27705073999823
1637,A,16607655759600.0,2.4865995698122325,8.242937,0.446369,189,1970-01-01 04:36:47.655759600,0.18459435,0.30666965,2.4915822,8.765213305743726,2.517161736488119,-58.250526428222656,-67.80947875976562,93.1878890991211,16326930.0,49880.0,0.13591415227623416,-0.04846742334000003,0.014263558853000001,0.00713673122428694,-0.0010876998117471022,0.0007665585168557308,16.32693011000083
1637,A,16607705638970.0,2.4961763698122326,7.280468,0.93957454,189,1970-01-01 04:36:47.705638970,0.988869,-0.00012650015,1.4859725,7.9066663564471,1.7849303028184427,-58.65380096435547,-67.74195098876953,93.62174987792969,16376809.000000002,49879.00000000186,0.124267940546269,-0.10166824100250384,0.03456473891583129,0.006488811303947059,-0.0037443084008700147,0.0012177533322058134,16.376809479999793
1637,A,16607755518340.0,3.042054269812233,7.8550763,0.4894646,189,1970-01-01 04:36:47.755518340,1.2764903,-0.35059848,0.58049774,8.225593913345639,1.4454495516335075,-59.045597076416016,-67.87367248535156,94.05498504638672,16426687.999999998,49878.999999996275,0.13812070303690405,-0.11134129293014171,0.035639521632027334,0.006543841576642055,-0.0053123512715128164,0.0017508591559331893,16.426688849998754
1637,A,16607805409310.0,3.724401769812233,9.679459,0.96591073,189,1970-01-01 04:36:47.805409310,1.0570459,-0.63928515,-0.3111286,9.87651907358728,1.2739044483222801,-59.04053497314453,-67.90347290039062,94.1065673828125,16476579.000000002,49891.000000003725,0.1687926291364647,-0.051524049673853885,0.03630506529451771,0.0076561065277313415,-0.0040627574039282755,0.0017946936931762633,16.476579819998733
1637,A,16607855300280.0,3.7722857698122327,9.837476,1.5477017,189,1970-01-01 04:36:47.855300280,0.21868281,-0.88749176,-1.2123423,10.096071406498337,1.5183009081953036,-58.866024017333984,-68.21129608154297,93.95741271972656,16526470.0,49890.99999999814,0.18700861901969512,-0.0020720979574999545,0.06270331887256267,0.008875640035879154,-0.0013369827007378874,0.0024698136472398116,16.52647078999871
1637,A,16607905191250.0,1.7803099698122327,12.4112425,1.43278,189,1970-01-01 04:36:47.905191250,-0.34803787,-1.049412,-2.5108995,13.016795293780826,2.743540086056405,-59.03138732910156,-68.45755004882812,94.08751678466797,16576360.999999998,49890.99999999814,0.13851227702279692,0.06607360734174751,0.07434960624734722,0.008120281512227682,0.001596549652344688,0.003418853743578585,16.57636175999869
1637,A,16607955082220.0,2.7571442698122324,11.659463,2.2180781,189,1970-01-01 04:36:47.955082220,0.22720492,-1.033433,-3.0861423,12.16656736821913,3.262495998006817,-58.7594108581543,-68.7439956665039,93.83196258544922,16626252.0,49891.00000000186,0.11318906473455631,0.11152398405025415,0.0910724807335534,0.00627881582080829,0.004430260716069343,0.00412653667078221,16.62625272999867
1637,A,16608004973190.0,3.1737354698122324,11.273996,2.9028199,189,1970-01-01 04:36:48.004973190,0.11641742,-1.214528,-3.0254223,11.858983562343056,3.262178930071241,-58.24272918701172,-69.01074981689453,93.3458023071289,16676143.0,49891.0,0.14794876054480208,0.08315480148449998,0.127743361059,0.006514213620506234,0.00485635964455721,0.0054584705814361405,16.676143699998647
1637,A,16608054864160.0,3.4466744698122325,8.664317,3.9921818,189,1970-01-01 04:36:48.054864160,-0.3981053,-1.3050754,-2.568424,9.744487368290587,2.9083520201910305,-58.23089599609375,-69.1542739868164,93.31183624267578,16726033.999999998,49890.99999999814,0.16514943614889593,0.00843938694149967,0.17199926490734357,0.007810391065622351,0.002284862827380689,0.007477229676043145,16.726034669998626
1637,A,16608104755130.0,2.4171677698122327,8.065766,2.9794345,189,1970-01-01 04:36:48.104755130,-1.0585692,-1.2400943,-1.9857242,9.112153730585337,2.5693390633676145,-57.86824035644531,-69.11493682861328,92.92365264892578,16775925.0,49891.00000000186,0.14627647658855755,-0.0715915145235027,0.1739104544116565,0.007768675106192436,-0.0015753613985969154,0.008628890903272438,16.775925639998604
1637,A,16608154646100.0,1.6582055698122327,9.799169,2.4958057,189,1970-01-01 04:36:48.154646100,-0.6644214,-1.2965533,-1.5990332,10.793745843806345,2.1631951902731963,-57.89458084106445,-69.11972045898438,92.921630859375,16825816.0,49891.0,0.1016622256436021,-0.043282063957500054,0.1365826044091,0.006184954896532338,-0.002865578851997854,0.007745404598813181,16.825816609998583
1637,A,16608204537070.0,0.690948369812233,10.608409,3.9730282,189,1970-01-01 04:36:48.204537070,0.81842667,-1.3572733,-1.3391087,12.280645916361097,2.074903644865435,-57.636009216308594,-68.98546600341797,92.72618865966797,16875707.0,49891.0,0.058600819600902104,0.02014543699899994,0.16136829605244998,0.003997841795146779,-0.0005771547277932645,0.007432534187463595,16.87570757999856
1637,A,16608254428040.0,2.2495735698122328,11.048942,4.674529,189,1970-01-01 04:36:48.254428040,1.1635723,-1.0185193,-0.96733147,12.412379843504207,1.8240099327175114,-57.62245178222656,-69.05358123779297,92.77397918701172,16925598.0,49891.0,0.07335279004490211,0.05132164937049997,0.21571763813259998,0.0032916487694194087,0.00178278220303036,0.009406597171213164,16.92559854999854
1637,A,16608304319010.0,2.0795851698122325,10.555736,5.160552,189,1970-01-01 04:36:48.304319010,0.44132307,-0.73835474,-0.62644684,12.218961481553466,1.0641284779295581,-57.638092041015625,-69.09980773925781,92.81434631347656,16975489.0,49891.0,0.10799302933930209,0.050007695048999955,0.24534101308549996,0.004523762137448665,0.0025277111612166353,0.011501338583961112,16.97548951999852
1637,A,16608354209980.0,2.2591503698122324,10.1343565,5.7734675,189,1970-01-01 04:36:48.354209980,-0.0071532507,-0.36444694,-0.14494734,12.08776451878323,0.3922785648541305,-57.66862869262695,-69.11569213867188,92.84664916992188,17025380.0,49891.0,0.10823192740370209,0.027192902458749973,0.27275458343725,0.005393839658432611,0.0019258075051295758,0.012924153703058258,17.025380489998497
1637,A,16608404100950.0,1.9862113698122328,11.118374,6.1278095,189,1970-01-01 04:36:48.404100950,0.30283868,0.17883793,0.44201335,13.15490356687454,0.5648628797230791,-57.66464614868164,-69.09220886230469,92.85859680175781,17075271.0,49891.0,0.10590267127580211,0.04122818868774997,0.2968833054035,0.0053416946313595715,0.0017067983291950142,0.01420990195607693,17.075271459998476
1637,A,16608453991920.0,4.275068169812233,11.590032,6.1397805,189,1970-01-01 04:36:48.453991920,0.29218605,1.2302539,0.86705387,13.166909614378856,1.5331926688325213,-57.5749397277832,-69.02264404296875,92.77818298339844,17125162.0,49891.0,0.1561907487557021,0.07754074187299996,0.30602116634499993,0.006538051409395888,0.002962750357303187,0.015039753500002204,17.125162429998454
1637,A,16608503882890.0,3.6573640698122327,12.243649,2.5652375,189,1970-01-01 04:36:48.503882890,-1.6039846,2.1985793,1.2207216,12.634940981523764,2.9827300850281793,-57.112491607666016,-69.10408020019531,92.24989318847656,17175053.0,49891.0,0.1978784884335521,0.10561128938549996,0.21715102651899998,0.00883243415630454,0.00456881899575891,0.013050791937088907,17.175053399998433
1637,A,16608553773860.0,2.3740718698122327,12.540529,1.9331683,189,1970-01-01 04:36:48.553773860,-1.3493865,2.0824654,2.0058215,13.052263199546923,3.190740659853392,-57.10523986816406,-69.08313751220703,92.1683120727539,17224944.0,49891.0,0.1504571852319021,0.12932191229899992,0.11221498188389999,0.008689407547421587,0.005860526182620692,0.008216199762614541,17.22494436999841
1637,A,16608603664830.0,1.7827041698122326,11.350611,1.6003742,189,1970-01-01 04:36:48.603664830,-0.82847214,1.7788651,2.7664204,12.030180450251041,3.391726545623976,-57.3596305847168,-68.96343994140625,92.36731719970703,17274835.0,49891.0,0.10369285669645209,0.10704463286999996,0.08814598443375,0.00633989987092376,0.005896281652513286,0.004998104485276937,17.27483533999839
1637,A,16608653555800.0,3.1689470698122326,10.560524,2.1055508,189,1970-01-01 04:36:48.653555800,0.05569735,1.4049573,3.4013178,11.003900067036517,3.680485020512535,-57.241756439208984,-68.90608978271484,92.27159881591797,17324726.0,49891.0,0.1235214159980521,0.05765241814249996,0.0924461520875,0.005667973639500753,0.004108450286032317,0.0045049611415908415,17.32472630999837
1637,A,16608703446770.0,3.4299150698122327,11.271603,1.7057191,189,1970-01-01 04:36:48.703446770,0.20057331,1.1450328,3.4599075,11.57464968248796,3.6499711881488115,-57.229122161865234,-68.9305648803711,92.28553771972656,17374617.0,49891.0,0.1646119155040021,0.05568152407849996,0.09507403329045,0.007187630020984492,0.0028271718556739534,0.004677784784345652,17.374617279998347
1637,A,16608753337740.0,2.9750166698122325,9.61242,1.0544962,189,1970-01-01 04:36:48.753337740,0.007760451,0.87019455,2.9411237,9.977689731014333,3.067166020637148,-57.517642974853516,-68.92584228515625,92.57059478759766,17424508.0,49891.0,0.15977422471080208,0.03203059574649999,0.06885495076615,0.008091974460728396,0.002188022685094536,0.0040892904717839155,17.424508249998325
1637,A,16608803228710.0,2.8984022698122325,8.013094,0.8940847,189,1970-01-01 04:36:48.803228710,0.14091851,0.46965513,2.1155438,8.451943069242862,2.1716260123037707,-57.892269134521484,-68.89774322509766,92.94000244140625,17474399.0,49891.0,0.14651537215840207,-0.04925454051300002,0.04860832484095,0.007640547138700732,-0.00042965991417272644,0.002930180141656913,17.474399219998304
1637,A,16608853121240.0,3.0636020698122324,7.5318594,1.0257658,189,1970-01-01 04:36:48.853121240,0.44132307,0.089355715,1.2910291,7.962229883996985,1.3672990283636555,-58.14455795288086,-68.89991760253906,93.20695495605469,17524291.0,49892.0,0.1487281602562719,-0.10115719248360001,0.04789259057299999,0.0073651451596164555,-0.003752171091333185,0.0024073118359163965,17.524291749999975
1637,A,16608903013770.0,3.6813060698122326,9.214983,0.82944125,189,1970-01-01 04:36:48.903013770,0.473281,-0.32609743,0.36957538,9.416674716485476,0.6833157398419484,-58.276634216308594,-69.12406158447266,93.36083984375,17574184.0,49893.0,0.16826185090514173,-0.07117629606840004,0.046280922672825006,0.007907791313438205,-0.004299117372162469,0.0023492995481869733,17.574184279998008
1637,A,16608952906300.0,3.9279088698122324,9.787197,1.5764322,189,1970-01-01 04:36:48.952906300,-0.106222846,-0.6925484,-0.90235037,10.027008820781095,1.1424284527242994,-58.0742073059082,-69.39716339111328,93.1686019897461,17624076.0,49892.0,0.1898194758838719,-0.01491321772000001,0.0600169190837,0.008932696778078734,-0.0021475890109654274,0.002651705960458273,17.62407680999968
1637,A,16609002798830.0,2.414773569812233,10.807127,1.8733132,189,1970-01-01 04:36:49.002798830,-0.6250066,-0.99082243,-2.3862636,11.376092455800793,2.658310799458864,-58.051387786865234,-69.58476257324219,93.1105728149414,17673969.0,49893.0,0.1582277274800917,0.024804903665999974,0.08605907362109999,0.008682559558719119,0.0002467629434518881,0.0036440847520102927,17.67396934000135
1637,A,16609052691360.0,1.7060898698122324,11.379341,2.9339445,189,1970-01-01 04:36:49.052691360,0.3891251,-1.2177237,-3.133014,12.328437397727672,3.383791671658836,-57.77431869506836,-69.69743347167969,92.85816192626953,17723861.0,49892.0,0.1027990593648719,0.06452203072799996,0.1199218505842,0.006511574224634462,0.0022283497053927227,0.005138400135225414,17.723861869999382
1637,A,16609102583890.0,3.1019092698122326,9.131186,3.0368953,189,1970-01-01 04:36:49.102583890,1.2328146,-1.2315722,-3.0307486,9.901373635338231,3.4960032892129775,-57.07814407348633,-69.82820129394531,92.25279998779297,17773754.0,49893.0,0.11994275053664173,0.022714461805499957,0.14895155507070001,0.005556628560708109,0.0021762451609869554,0.006707450414169963,17.773754400001053
1637,A,16609152476420.0,4.847282369812232,8.417714,1.8852842,189,1970-01-01 04:36:49.152476420,0.6096349,-1.3583386,-2.8017168,8.646141015713074,3.1727520374195977,-56.99508285522461,-69.98271179199219,92.19680786132812,17823646.0,49892.0,0.1983005346420719,-0.05116674060000004,0.122788689807,0.00793889699206819,-0.000709770546807599,0.006778832148719104,17.823646929999086
1637,A,16609202368950.0,2.2783038698122327,8.635586,3.5827732,189,1970-01-01 04:36:49.202368950,-0.7826657,-1.0185193,-2.4863985,9.867336123185186,2.798593336523052,-56.9651985168457,-70.11468505859375,92.1233901977539,17873539.0,49893.0,0.1777584371267917,-0.06353125155000003,0.1364088939291,0.009381355139231955,-0.0028613134611699766,0.006466072522672619,17.873539460000757
1637,A,16609252261480.0,1.9957881698122324,10.146328,3.4534862,189,1970-01-01 04:36:49.252261480,-0.634594,-1.4126672,-2.1913204,11.255745306074784,2.6833231743955106,-56.613460540771484,-70.11367797851562,91.76261138916016,17923431.0,49892.0,0.1066215000204719,-0.020407973356000024,0.1755265269924,0.007094141912075638,-0.0020939479045050773,0.007781541010307739,17.92343198999879
1637,A,16609302154010.0,2.1394401698122327,10.969933,5.6753054,189,1970-01-01 04:36:49.302154010,-1.0276766,-1.4499514,-1.9260695,12.782753128966524,2.6207292831156312,-56.68599319458008,-70.23400115966797,91.78509521484375,17973324.0,49893.0,0.10315947377444172,0.037825405036499955,0.22773139964939998,0.005233301062774812,0.0004345039594175915,0.010059873866969663,17.97332452000046
1637,A,16609352046540.0,0.11873416981223262,11.391313,5.0671782,189,1970-01-01 04:36:49.352046540,-0.9552386,-0.95992976,-1.597968,13.553011342825547,2.094623511776667,-56.72331237792969,-70.32711029052734,91.77399444580078,18023217.0,49893.0,0.056333546163441724,0.06888342333899995,0.2679873671274,0.003978792621880409,0.0026620117870694085,0.012366448215397442,18.023217049998493
1637,A,16609401939070.0,0.137887869812233,11.465532,4.7415667,189,1970-01-01 04:36:49.401939070,-0.41408426,-0.626502,-0.8149987,13.49012467841561,1.1082388783044193,-56.75478744506836,-70.37836456298828,91.78543853759766,18073109.0,49892.0,0.0064016934004719195,0.08124525536999996,0.24468895027540002,0.0015649932861613895,0.003745110019074712,0.01278922341393025,18.073109580000164
1637,A,16609451831600.0,1.7539738698122327,10.160693,5.3185697,189,1970-01-01 04:36:49.451831600,-0.16587766,-0.25898576,0.052126583,12.04429895214861,0.31193942140279274,-56.797481536865234,-70.38330841064453,91.82196044921875,18123002.0,49893.0,0.047195328887541736,0.05054722196249996,0.25096519270260004,0.0013370581165079326,0.0032877610357752098,0.012364836077800678,18.123002109998197
1637,A,16609501724130.0,1.0285304698122326,11.776779,5.96261,189,1970-01-01 04:36:49.501724130,-0.50676227,0.36632445,0.74774426,13.915754761592012,0.9747425707982098,-56.83721160888672,-70.34199523925781,91.83723449707031,18172894.0,49892.0,0.06941235325627192,0.05831057651199995,0.28142030879619995,0.002908895238759575,0.0027155666407448747,0.013280888720389062,18.172894639999868
1637,A,16609551616660.0,2.4554748698122326,11.345822,3.8820484,189,1970-01-01 04:36:49.551616660,-0.39064845,1.1130748,1.5871726,12.355812048079663,1.9775385164575687,-56.29362869262695,-70.18274688720703,91.30613708496094,18222787.0,49893.0,0.08691373920494172,0.08787656584649996,0.2455897707756,0.0038997888655836663,0.003646857546846318,0.013147056950037908,18.22278717000154
1637,A,16609601509190.0,2.3740718698122327,11.946767,2.3425767,189,1970-01-01 04:36:49.601509190,0.033326797,1.408153,2.4127526,12.55278752715718,2.7938111345640455,-56.23096466064453,-70.09269714355469,91.25159454345703,18272679.0,49892.0,0.12047787296667191,0.09211532519399995,0.15527949774459998,0.005173591157233073,0.00449007771389631,0.010000084772504908,18.27267969999957
1637,A,16609651401720.0,3.374848169812233,11.659463,2.2013187,189,1970-01-01 04:36:49.651401720,0.19737752,1.4230667,2.856968,12.042697791251959,3.1978653616239443,-56.0376091003418,-70.07827758789062,91.08596801757812,18322572.0,49893.0,0.14341543376849172,0.09994141669499997,0.1133542865961,0.00658321437646876,0.004791143511533936,0.006701472701055271,18.322572230001242
1637,A,16609701294250.0,2.6757414698122326,9.724948,1.0664672,189,1970-01-01 04:36:49.701294250,-0.11154916,1.5349195,3.1222186,10.164483136970507,3.480900755948511,-56.37807083129883,-69.99060821533203,91.40876007080078,18372464.0,49892.0,0.1509380091500719,0.04451391680599996,0.08151818706139999,0.007342940987046488,0.0036035827495159442,0.0048612887278599946,18.372464759999275
1637,A,16609751186780.0,3.5807496698122323,8.963592,1.5141829,189,1970-01-01 04:36:49.751186780,-0.43538955,1.1599464,3.2479198,9.27745074520747,3.476208097676864,-56.408058166503906,-69.95138549804688,91.43071746826172,18422357.0,49893.0,0.15607755621464173,-0.022737736890000044,0.06437818771965,0.007658963801370829,0.0005432394722744919,0.0036396039134754636,18.422357290000946
1637,A,16609801079310.0,3.0827556698122325,9.267655,1.2580034,189,1970-01-01 04:36:49.801079310,-0.23511983,0.62624896,2.7706814,9.64352586066675,2.8502884967431403,-56.66741180419922,-69.92000579833984,91.68061828613281,18472249.0,49892.0,0.16622780420227187,-0.034144912338000044,0.0691549594398,0.008040229520960326,-0.00141899456764169,0.0033311178890396394,18.47224981999898
1637,A,16609850971840.0,2.0053648698122326,8.259697,1.0856209,189,1970-01-01 04:36:49.850971840,0.21868281,0.29601702,1.8833162,9.008478248884758,1.9189393311675116,-57.212440490722656,-69.76641845703125,92.21605682373047,18522142.0,49893.0,0.1269307990417417,-0.05170531333200007,0.05846522359995,0.007313281095826784,-0.002141662654676658,0.0031836768962011236,18.52214235000065
1637,A,16609900875690.0,2.7427790698122325,7.9747868,1.2364556,189,1970-01-01 04:36:49.900875690,0.86316776,0.07976833,1.1312394,8.506794766651423,1.4251751290584487,-57.446006774902344,-69.71778869628906,92.485107421875,18572046.0,49904.0,0.11847568758150964,-0.08397636022240004,0.057940452828,0.0061233826542233675,-0.0033855291185293916,0.002904554438230208,18.572046199999022
1637,A,16609950779540.0,3.3652713698122327,8.84867,1.3513772,189,1970-01-01 04:36:49.950779540,1.359581,-0.24513732,0.5368219,9.187077357331987,1.4821371574646498,-57.43339920043945,-69.81871795654297,92.5456314086914,18621950.0,49904.0,0.15240807456950964,-0.06928030592640001,0.0645716040256,0.006759091633192233,-0.0038240603337448592,0.0030569208426110273,18.621950050001033
1637,A,16610000683390.0,3.9997349698122324,9.7680435,1.4615105,189,1970-01-01 04:36:50.000683390,0.8280141,-0.49334392,-0.18436211,9.980286522963702,0.9813179713036078,-57.24180603027344,-70.05459594726562,92.40998077392578,18671853.0,49903.0,0.18376795568313983,-0.02453447310475005,0.07018576744655,0.008388096218848983,-0.002340819458995741,0.0033623985542873508,18.671853899999405
1637,A,16610050587240.0,3.5639901698122323,11.858182,2.036119,189,1970-01-01 04:36:50.050587240,-0.16694291,-0.82144535,-1.3710667,12.176083202678942,1.607005380851222,-56.99834060668945,-70.31448364257812,92.1722183227539,18721757.0,49904.0,0.18873006968390962,0.050558378675999924,0.08727285128399999,0.009294570728958618,0.0006493484918138269,0.003928907454564683,18.721757750001416
1637,A,16610100491090.0,1.9742403698122324,12.253225,2.6753707,189,1970-01-01 04:36:50.100491090,-0.48545697,-0.9066665,-2.520487,13.010188533138164,2.722235722547339,-56.818199157714844,-70.4474105834961,91.96936798095703,18771661.0,49904.0,0.13818992842470965,0.11256862746399995,0.11756109099439999,0.008157307792806268,0.0040703450572052765,0.005111016527730636,18.77166159999979
1637,A,16610150394940.0,2.271121369812233,11.154286,3.4439094,189,1970-01-01 04:36:50.150394940,0.20163858,-0.81505376,-2.688799,12.09457298362272,2.8168441226016667,-56.28757858276367,-70.517822265625,91.46551513671875,18821565.0,49904.0,0.10593026612710967,0.095005014472,0.1526882770552,0.006091287094456995,0.00517937751358707,0.006743262231573619,18.82156544999816
1637,A,16610200298790.0,3.7507379698122323,8.245332,2.534113,189,1970-01-01 04:36:50.200298790,0.5393274,-0.91412336,-2.2680194,8.788550694288734,2.504078185773122,-55.611968994140625,-70.65331268310547,90.84542846679688,18871469.0,49904.0,0.15025743424230964,-0.0049999316640000286,0.14916361492480001,0.0063923954996177495,0.002245806826225215,0.00753180840868496,18.87146930000017
1637,A,16610250202640.0,4.272673869812232,6.698677,2.8525417,189,1970-01-01 04:36:50.250202640,-0.33418944,-1.1037405,-1.9250042,7.372691688026083,2.2440068723525344,-55.60346984863281,-70.763916015625,90.8187255859375,18921373.0,49904.0,0.20020017222230965,-0.11617628743200004,0.1344078080744,0.008744618196505181,-0.0030235890188833937,0.007075674146676038,18.921373149998544
1637,A,16610300106490.0,2.1873243698122327,7.577349,2.1342812,189,1970-01-01 04:36:50.300106490,-0.72514147,-1.1037405,-1.8568273,8.515190230306466,2.278569916609824,-55.65687561035156,-70.67474365234375,90.83262634277344,18971277.0,49904.0,0.16118987607510965,-0.13284379924800002,0.12443120500079999,0.009017404485117205,-0.006213549202839361,0.006458551054252389,18.971277000000555
1637,A,16610350010340.0,1.3709014698122326,9.5693245,2.8238113,189,1970-01-01 04:36:50.350010340,-0.27986094,-1.1719173,-1.9463094,10.772645010369455,2.289068060216938,-55.636451721191406,-70.58844757080078,90.7979965209961,19021180.0,49903.0,0.08878307203738985,-0.06121417616475003,0.12371184501375002,0.006237200014829031,-0.004842037573511233,0.006191541312438045,19.021180849998927
1637,A,16610399914190.0,1.0381072698122322,10.620379,4.791845,189,1970-01-01 04:36:50.399914190,1.049589,-1.2262459,-1.8472399,12.45282859133046,2.4530820052211504,-55.579505920410156,-70.69933319091797,90.79326629638672,19071084.0,49904.0,0.060109586071109646,0.01471428173199997,0.1900258559976,0.003715169605123279,-0.0011602653658859795,0.007828383115635206,19.071084700000938
1637,A,16610449818040.0,2.1753533698122327,11.032182,4.7511435,189,1970-01-01 04:36:50.449818040,1.3670379,-0.97803926,-1.2901067,12.44577663081965,2.1188979946006476,-55.52212142944336,-70.7801513671875,90.80487823486328,19120988.0,49904.0,0.08018226987990965,0.05121550207199997,0.23811664905199997,0.003500562389689833,0.0016450799654774064,0.010683011785997617,19.12098854999931
1637,A,16610499721890.0,3.2048600698122325,11.149498,5.464616,189,1970-01-01 04:36:50.499721890,0.5148263,-0.71811473,-0.5444215,12.615061682839599,1.0378485700124622,-55.53717803955078,-70.82296752929688,90.84808349609375,19170892.0,49904.0,0.13424708574550964,0.06441807935999996,0.254903631044,0.005350441281565462,0.0028852891238912623,0.01230184202895539,19.17089240000132
1637,A,16610549625740.0,3.6501814698122326,9.358635,5.3377233,189,1970-01-01 04:36:50.549625740,-1.0255461,-0.16098143,0.12562983,10.920405364112353,1.0456780949297368,-55.617713928222656,-70.82228088378906,90.87905883789062,19220796.0,49904.0,0.17104699649670965,0.02265973461599994,0.2695399702136,0.007617697940107856,0.0021727656143291493,0.013085916738579633,19.220796249999694
1637,A,16610599529590.0,1.7874925698122328,9.626786,5.2395606,189,1970-01-01 04:36:50.599529590,-1.1821399,0.23742747,0.67956734,11.550789531664943,1.3840658641398849,-55.703739166259766,-70.78755950927734,90.90756225585938,19270700.0,49904.0,0.13568084263670965,-0.015334975208000066,0.26392438787280004,0.0076534730420570775,0.00018276739674841284,0.013311002662971853,19.270700099998066
1637,A,16610649433440.0,1.8281938698122326,11.891701,4.906767,189,1970-01-01 04:36:50.649433440,0.35929772,0.65075004,1.157871,13.359884696495364,1.3759490247818777,-55.70219421386719,-70.72137451171875,90.92495727539062,19320603.0,49903.0,0.09021680019828986,0.047869128380499934,0.2531660931114,0.005636485035197491,0.0008117759228836306,0.012902183136277268,19.320603950000077
1637,A,16610699337290.0,2.1777475698122326,12.73446,3.058443,189,1970-01-01 04:36:50.699337290,0.6522454,1.311214,1.5552146,13.49518068132002,2.136211288161899,-55.418800354003906,-70.62410736083984,90.68489837646484,19370507.0,49904.0,0.09995625080150963,0.12541276927199996,0.19874791992000002,0.0047451979685469966,0.0043237299102251775,0.011276158453159492,19.37050779999845
1637,A,16610749241140.0,2.7188370698122326,12.851775,2.0935798,189,1970-01-01 04:36:50.749241140,0.77048975,1.5114837,1.9919732,13.301132237653254,2.6165233917813526,-55.30478286743164,-70.61062622070312,90.61180877685547,19420411.0,49904.0,0.12217957992790965,0.14936853571999997,0.1285532729056,0.0055427332483604696,0.006856343122160382,0.00816681936338437,19.42041165000046
1637,A,16610799144990.0,3.1138802698122325,11.520599,2.3042696,189,1970-01-01 04:36:50.799144990,0.6352012,1.7383851,2.4617548,11.975562249462358,3.0798863640898326,-55.062767028808594,-70.55408477783203,90.41304016113281,19470315.0,49904.0,0.14553796305830966,0.11908027604799998,0.1097351382288,0.006680088132592144,0.006698334751235134,0.005945772434625549,19.470315499998833
1637,A,16610849048840.0,5.536812449812232,9.67467,1.6985365,189,1970-01-01 04:36:50.849048840,0.7523803,1.7714082,2.8324668,9.823184683384328,3.4244461303921208,-55.04917907714844,-70.38728332519531,90.43854522705078,19520219.0,49904.0,0.21585208474006962,0.039805152088,0.09987801780719999,0.009017404472665158,0.003964509202849471,0.005230267469410272,19.520219350000843
1637,A,16610898952690.0,3.9087552698122323,9.849446,0.7719804,189,1970-01-01 04:36:50.898952690,-0.6622909,1.4656774,2.8292708,9.996605475967225,3.2544758006207712,-55.244686126708984,-70.474609375,90.59860229492188,19570123.0,49904.0,0.23568580574006961,-0.001893457568000007,0.06164433768879999,0.011266773443260434,0.0009459726016630397,0.004030305814336191,19.570123199999216
1637,A,16610948864920.0,2.7164428698122327,9.102455,0.7839514,189,1970-01-01 04:36:50.948864920,-1.0873314,1.0534201,2.5086265,9.53158920671086,2.930049555385066,-55.784080505371094,-70.41853332519531,91.06509399414062,19620035.0,49912.0,0.16533844477246815,-0.016173958644000005,0.0388298340008,0.010007961195790891,-0.0004508904389866722,0.002507433428685657,19.620035429998097
1637,A,16610998777150.0,2.3956196698122327,9.171887,0.7767688,189,1970-01-01 04:36:50.998777150,-0.65696454,0.5889647,1.9056867,9.693042269349116,2.1000294338938184,-56.36761474609375,-70.36598205566406,91.59364318847656,19669947.0,49912.0,0.12757663273886816,-0.033083121048000014,0.0389493333112,0.007309988674372908,-0.0012292596807935525,0.0019410568994382717,19.669947660000616
1637,A,16611048689380.0,2.9391036698122326,9.79438,0.5995979,189,1970-01-01 04:36:51.048689380,-0.21914087,0.102138884,1.1067383,10.12477039795417,1.1328392371453295,-56.826141357421875,-70.46110534667969,92.02417755126953,19719859.0,49912.0,0.13313335566366816,-0.01581544074800003,0.034348607365200005,0.006506278470573697,-0.001220312508180977,0.0018292234075202383,19.719859889999498
1637,A,16611098601610.0,3.2575324698122325,9.061754,1.7248727,189,1970-01-01 04:36:51.098601610,0.25596705,-0.27389947,0.21404678,9.477606602029093,0.43168978952524667,-56.74751663208008,-70.52381134033203,91.9679183959961,19769772.0,49913.0,0.15464634981853795,-0.018564291829000015,0.05801065052889999,0.007181974219866677,-0.0008579977960579016,0.0023049638196341064,19.76977211999838
1637,A,16611148513840.0,3.7220075698122326,10.462362,1.4998177,189,1970-01-01 04:36:51.148513840,-0.09130914,-0.5210408,-1.0887716,10.70697809155998,1.2104728296325944,-56.600772857666016,-70.76602172851562,91.82247924804688,19819684.0,49912.0,0.17418140122886816,-0.001893761104000007,0.0804753736224,0.008206225355139067,-0.0005105511689959486,0.0034560572187198424,19.819684350000898
1637,A,16611198426070.0,1.9311448698122327,10.696994,1.5357307,189,1970-01-01 04:36:51.198426070,0.0034993936,-0.7532685,-2.326609,11.360018950810888,2.44551326263605,-56.75520324707031,-70.87937927246094,91.957763671875,19869596.0,49912.0,0.14108007228326816,0.038915288335999984,0.07575514587039998,0.007867665332968872,0.0009239092336017914,0.003898888844462316,19.86959657999978
1637,A,16611248338300.0,2.383648669812233,9.490316,2.5365071,189,1970-01-01 04:36:51.248338300,1.0282837,-0.7213105,-2.7814767,10.285962654210254,3.051928707840147,-56.378883361816406,-70.92945861816406,91.63562774658203,19919508.0,49912.0,0.10767998757486817,0.014656908359999965,0.1016267665368,0.00620805605381965,0.0013369477407453745,0.004426743006034082,19.91950880999866
1637,A,16611298250530.0,4.435479669812232,7.7736735,2.1342812,189,1970-01-01 04:36:51.298250530,1.1667682,-1.1878964,-2.7473884,8.122870588464274,3.212567339390532,-55.57243728637695,-71.18759155273438,90.91930389404297,19969421.0,49913.0,0.17018157640783796,-0.05829864604325003,0.11656652820895,0.006934452121534405,-0.0010891450264920303,0.005445340960322309,19.96942104000118
1637,A,16611348162760.0,2.2064778698122325,7.1894884,3.0775967,189,1970-01-01 04:36:51.348162760,-1.339799,-0.89175284,-2.3543057,8.460109597151236,2.8518484912599327,-55.55162811279297,-71.30984497070312,90.82658386230469,20019333.0,49912.0,0.16575669235886814,-0.11571693162360003,0.1300676248724,0.008383675435341917,-0.0043427327562539095,0.00615500192429817,20.01933327000006
1637,A,16611398074990.0,2.1226807698122325,8.355465,2.4503157,189,1970-01-01 04:36:51.398074990,-2.2708402,-1.0632604,-2.3010426,9.315513374681071,3.403238889522591,-55.5317268371582,-71.24696350097656,90.69337463378906,20069245.0,49912.0,0.10803848301046814,-0.10119774294960002,0.1379545818544,0.006832832396517156,-0.00541332261864878,0.00668876219107402,20.069245499998942
1637,A,16611447987220.0,0.7867162698122323,10.531794,2.3066638,189,1970-01-01 04:36:51.447987220,-0.59730977,-1.2060058,-2.359632,11.740152130067054,2.716448439855815,-55.78706741333008,-71.19789123535156,90.9013671875,20119157.0,49912.0,0.07260691252086814,-0.01778716439600003,0.11871518040199999,0.004508186490880028,-0.0029693873477167946,0.006405450586870718,20.11915773000146
1637,A,16611497899450.0,-0.4702398301877677,11.664251,4.245967,189,1970-01-01 04:36:51.497899450,2.1510725,-1.295488,-1.9974421,13.745402953653533,3.208609823779242,-55.67150115966797,-71.3168716430664,90.89289855957031,20169069.0,49912.0,0.007897986027268138,0.06478689901999996,0.1635274542448,0.0020090802481672887,0.001172925377276542,0.007043647190245541,20.169069960000343
1637,A,16611547811680.0,1.8473475698122326,10.776003,5.3281465,189,1970-01-01 04:36:51.547811680,2.8445597,-1.1580689,-1.2389739,12.54476983118205,3.311751770421888,-55.567264556884766,-71.40071868896484,90.93299865722656,20218982.0,49913.0,0.034367789303937954,0.07088279895099996,0.23893636356274997,0.001054805822053245,0.0033858408174132597,0.010044088269114121,20.218982189999224
1637,A,16611597723910.0,4.528853569812233,11.343429,7.1597104,189,1970-01-01 04:36:51.597723910,1.4970001,-0.81505376,-0.43363398,13.444443536908684,1.7587951443248835,-55.5558967590332,-71.4416275024414,90.99996948242188,20268894.0,49912.0,0.15912447564046814,0.06287494499199996,0.3116469567964,0.004828792963952598,0.0033380582578415056,0.013740357342882944,20.268894419998105
1637,A,16611647636140.0,4.260702869812233,9.183859,6.1278095,189,1970-01-01 04:36:51.647636140,-0.9722828,0.012656673,0.15013091,11.102637711114925,0.9838868454678602,-55.61559295654297,-71.43508911132812,91.01166534423828,20318806.0,49912.0,0.21935217050726816,0.023141399327999974,0.3316033466244,0.009445263181262906,0.0021466238888499184,0.016052954572169483,20.318806650000624
1637,A,16611697548370.0,1.8329823698122327,10.752061,6.2259717,189,1970-01-01 04:36:51.697548370,-0.79438365,0.6496848,0.80207276,12.935711775633072,1.3024808770467151,-55.6429443359375,-71.3836669921875,90.99861907958984,20368718.0,49912.0,0.15207400884006816,0.00838321951999995,0.3083009636272,0.009269311731792126,0.0007867283879706861,0.015969451966638928,20.368718879999506
1637,A,16611747460600.0,1.9359331698122326,12.308291,4.4255323,189,1970-01-01 04:36:51.747460600,0.5126958,1.3101487,1.3613366,13.53926614447535,1.9576986330763195,-55.021080017089844,-71.16532897949219,90.42896270751953,20418631.0,49913.0,0.09405894066463796,0.08635827468799996,0.265824259576,0.006142616954314198,0.0023644161002019494,0.014328156132870659,20.418631109998387
1637,A,16611797372830.0,3.8010161698122324,13.203723,3.4654574,189,1970-01-01 04:36:51.797372830,0.6842034,1.9578295,1.6915685,13.748178608023489,2.676309891218515,-54.27987289428711,-71.15479278564453,89.74958801269531,20468543.0,49912.0,0.14317130771966813,0.14754022138399997,0.1969275389532,0.005920318078678742,0.00583717086797283,0.011548433884094714,20.468543340000906
1637,A,16611847285060.0,4.284644869812233,11.8222685,2.8884547,189,1970-01-01 04:36:51.847285060,-0.5546992,2.370087,1.951493,12.224110231745636,3.1198282835916853,-54.19343566894531,-71.00634765625,89.62890625,20518455.0,49912.0,0.20178575690486816,0.13541104387399996,0.1585682303676,0.008608748504769927,0.007061331775778647,0.008871752419169885,20.518455569999787
1637,A,16611897197290.0,3.537653969812233,8.750508,3.094356,189,1970-01-01 04:36:51.897197290,-1.4825445,2.1740782,2.349902,9.473137343020484,3.52797301914279,-53.56758117675781,-70.79824829101562,88.96107482910156,20568367.0,49912.0,0.19521328984166816,0.02427661033399996,0.1493070238292,0.009907508210606559,0.003985165098414846,0.00768333484373534,20.56836779999867
1637,A,16611947109520.0,2.8026340698122327,9.092878,1.8685248,189,1970-01-01 04:36:51.947109520,-1.4335424,1.7202755,2.6492412,9.648461656949697,3.4688428249598524,-53.692291259765625,-70.63221740722656,89.01421356201172,20618280.0,49913.0,0.15823139846088796,-0.04383893729100002,0.12385613468519999,0.008820742363622742,-0.00048820721270237193,0.006817196365464623,20.618280030001188
1637,A,16611997026450.0,2.5057531698122326,10.914866,1.3465889,189,1970-01-01 04:36:51.997026450,-0.30010098,1.1844475,2.5682812,11.380632354248304,2.8441246106186435,-54.032955169677734,-70.57412719726562,89.33077239990234,20668196.0,49916.0,0.13248672872654743,0.010176474751999981,0.0802428077246,0.007255743018344013,-0.0008401477400483629,0.005093901404663788,20.668196959999477
1637,A,16612046943380.0,2.6972892698122326,10.040982,1.241244,189,1970-01-01 04:36:52.046943380,0.60856956,0.8712598,2.3520324,10.48085771997392,2.5809895309947293,-54.345218658447266,-70.53010559082031,89.66516876220703,20718113.0,49917.0,0.12986013472936722,0.033839932307999955,0.06458842743465,0.006547784191564446,0.0010985834956070085,0.0036147703827221415,20.718113890001405
1637,A,16612096860310.0,3.978187169812233,9.34427,1.4782699,189,1970-01-01 04:36:52.096860310,0.93241,0.4131961,1.9536235,9.571747257846214,2.2038067530769254,-54.25346755981445,-70.61636352539062,89.63597869873047,20768030.0,49917.0,0.16660987871836724,-0.005359787958000049,0.06787498767315,0.0073994468306352815,0.0007108216827594727,0.003306088145968027,20.768030819999694
1637,A,16612146777240.0,4.196059569812233,9.830293,0.6570587,189,1970-01-01 04:36:52.146777240,-0.10835337,-0.024627581,1.0641278,9.929623849376952,1.0699135223321128,-54.34981918334961,-70.57383728027344,89.73238372802734,20817947.0,49917.0,0.2040169372509172,-0.010618269364500058,0.0532945988631,0.009250289386369388,-0.00039878834368361896,0.003024211125564996,20.817947750001622
1637,A,16612196694170.0,3.7339785698122325,8.456021,0.7624036,189,1970-01-01 04:36:52.196694170,-1.0596344,-0.27709526,-0.19501476,8.658731277834557,1.11249161857323,-54.60539245605469,-70.77021026611328,89.92545318603516,20867864.0,49917.0,0.19792185690781725,-0.03278763203100006,0.03542764981455,0.010031789394010775,-0.0010833461899795898,0.0022143742436211275,20.86786467999991
1637,A,16612246611100.0,2.3477357698122328,10.076896,0.95154554,189,1970-01-01 04:36:52.246611100,-1.3738875,-0.5242366,-1.8674799,10.581619681077859,2.3769459506559714,-54.9986572265625,-70.91850280761719,90.22130584716797,20917781.0,49917.0,0.15179046734551724,-0.026632791055500052,0.042777599610690005,0.00872829504487685,-0.001483044629604413,0.0019518857177798531,20.9177816099982
1637,A,16612296528030.0,1.6821478698122325,10.359411,1.7200843,189,1970-01-01 04:36:52.296528030,-0.50143594,-0.5263671,-2.8975906,11.151146818433183,2.987395456094565,-55.13810729980469,-70.99446868896484,90.30931854248047,20967698.0,49917.0,0.10057985081956722,0.020872968259499948,0.06667987336164001,0.006298784585923261,-0.0001437565372539686,0.002731894339179899,20.96769854000013
1637,A,16612346444960.0,2.5895500698122325,10.931625,1.5548843,189,1970-01-01 04:36:52.346444960,0.39977777,-0.7628558,-3.2224963,11.402001839687422,3.3356039393929104,-55.07577896118164,-71.21295166015625,90.24943542480469,21017615.0,49917.0,0.10661517302611721,0.042205722005999965,0.08173830380310002,0.0051712770026525155,0.00157434949099148,0.0037042950747661644,21.017615469998418
1637,A,16612396361890.0,3.6310278698122325,8.918102,2.6035447,189,1970-01-01 04:36:52.396361890,0.40936515,-1.1516774,-3.144732,9.463592339884844,3.373911678086621,-54.40537643432617,-71.38306427001953,89.62003326416016,21067532.0,49917.0,0.15525629450611722,0.006232811329499957,0.1037881501965,0.006535919022403274,0.001208953134254075,0.004630462002149017,21.067532400000346
1637,A,16612446278820.0,3.1569760698122327,7.9699984,3.6785412,189,1970-01-01 04:36:52.446278820,-1.0074365,-1.2486165,-2.7186263,9.068335258496692,3.1567230516242932,-54.371063232421875,-71.52989196777344,89.53070068359375,21117449.0,49917.0,0.16941839632711722,-0.06768494616660006,0.15679144093515002,0.008103393271161281,-0.001533753107331763,0.006503675725259287,21.117449329998635
1637,A,16612496195750.0,1.7276375698122326,9.758467,3.1039329,189,1970-01-01 04:36:52.496195750,-0.64844245,-1.4914967,-2.3532405,10.89012617979615,2.8605560417361415,-54.22901153564453,-71.47417449951172,89.36272430419922,21167366.0,49917.0,0.12191262952456722,-0.046710696314100054,0.16928037982485,0.007271185408719267,-0.002855143642854554,0.00813826353843846,21.167366260000563
1637,A,16612546112680.0,0.034936869812232985,10.661081,3.5636196,189,1970-01-01 04:36:52.546112680,1.2392061,-1.6203938,-1.984659,12.470027099595299,2.84608137122547,-54.1900749206543,-71.60208129882812,89.38700103759766,21217283.0,49917.0,0.043991214151367225,0.02045468875799994,0.16641210907125,0.00414071108238581,-0.0006553105645889248,0.008378380984113313,21.217283189998852
1637,A,16612596029610.0,1.0405014698122326,11.257237,5.859659,189,1970-01-01 04:36:52.596029610,3.2152717,-1.6704612,-1.2560182,13.429767646489642,3.8348395591285915,-54.12255859375,-71.70188903808594,89.48524475097656,21267200.0,49917.0,0.026841327799517225,0.057861739802999954,0.2351908989381,0.0017678739982811497,0.001954660582239716,0.010023408675401363,21.26720012000078
1637,A,16612645946540.0,3.0683904698122326,11.139921,6.333711,189,1970-01-01 04:36:52.645946540,2.8030143,-1.3295765,-0.5540089,13.031004023875663,3.1514423200553665,-54.09636306762695,-71.76329040527344,89.60523986816406,21317117.0,49917.0,0.10255177947511722,0.06981286794299996,0.304328225145,0.0032294578679139636,0.0031865666974285395,0.013465588058428051,21.31711704999907
1637,A,16612695863470.0,4.540824569812233,11.7265005,7.1956234,189,1970-01-01 04:36:52.695863470,1.0719596,-0.63928515,-0.18542738,13.787114417615628,1.2618106832232587,-54.10490036010742,-71.78955078125,89.67066955566406,21367033.0,49916.0,0.18991078895894742,0.08152334779699996,0.3376651279552,0.007299280782977386,0.003777049272438918,0.016022870106674792,21.367033980000997
1637,A,16612745780400.0,4.356471069812232,10.749666,5.505317,189,1970-01-01 04:36:52.745780400,-0.62074554,0.29388648,0.27370158,12.125330429420561,0.7393286437378025,-54.124149322509766,-71.7698745727539,89.65825653076172,21416950.0,49917.0,0.22206315322156722,0.07178480159024996,0.31699642097340003,0.010282251635912376,0.0038263414464816767,0.016339370268934467,21.416950909999287
1637,A,16612795697330.0,3.5855380698122326,11.376947,5.8883896,189,1970-01-01 04:36:52.795697330,-0.7507078,1.1450328,0.74241793,12.94305591422181,1.5575129844858968,-54.087074279785156,-71.70621490478516,89.5796890258789,21466867.0,49917.0,0.19822063511131724,0.06306047056049995,0.2843698261761,0.010489652931106298,0.0033655357249744917,0.015009199479480798,21.466867840001214
1637,A,16612845614260.0,2.5991268698122325,13.728053,3.0321069,189,1970-01-01 04:36:52.845614260,-0.98400074,2.0643559,1.2164606,14.341767274420283,2.590289391079251,-53.74021530151367,-71.64004516601562,89.18865966796875,21516784.0,49917.0,0.1543599598956172,0.13739654249999994,0.22264221189525002,0.008799882780480574,0.005003106360470487,0.012654259952203793,21.516784769999504
1637,A,16612895531190.0,3.283868669812233,12.399271,2.3473651,189,1970-01-01 04:36:52.895531190,-1.0266113,2.5405293,1.7554845,12.801272769216842,3.2542196783847324,-53.41938018798828,-71.59934997558594,88.819580078125,21566701.0,49917.0,0.14683074417571723,0.16291221605399991,0.134263551912,0.0075172681875644,0.007495256150370006,0.008907832505983251,21.56670170000143
1637,A,16612945448120.0,3.832140869812233,10.761638,3.0201359,189,1970-01-01 04:36:52.945448120,-1.6242247,2.5170934,2.354163,11.291507663527348,3.809980116874975,-52.82026290893555,-71.48824310302734,88.1644515991211,21616618.0,49917.0,0.17760492409471726,0.08887494727649997,0.13396477370850002,0.00809742762652764,0.006284229915984282,0.006694576664999251,21.61661862999972
1637,A,16612995365050.0,3.1090918698122327,8.975563,2.974646,189,1970-01-01 04:36:52.995365050,-2.4284992,2.1453161,3.0604334,9.737130896898018,4.4571562827833855,-52.52049255371094,-71.21127319335938,87.76750183105469,21666535.0,49917.0,0.17324275733191724,0.0034243311584999368,0.14962076405115,0.008756631856886656,0.0023036515408199456,0.007077869644174225,21.66653555999801
1637,A,16613045282290.0,2.5536370698122326,8.432079,1.5931916,189,1970-01-01 04:36:53.045282290,-2.307059,1.3293235,3.3512504,9.051592367910587,4.28024548836085,-53.01496124267578,-70.97949981689453,88.1419448852539,21716452.0,49917.0,0.14133322023961722,-0.05471796714300006,0.1140063747396,0.007851344536219143,-0.0012802122137191465,0.006579737943508935,21.716452799999388
1637,A,16613095199530.0,2.0197301698122327,9.085696,0.542137,189,1970-01-01 04:36:53.095199530,-0.5451118,0.5847037,2.874012,9.720957458371284,2.9831141894732975,-53.95217514038086,-70.85578155517578,89.0224609375,21766370.0,49918.0,0.11414667293378702,-0.05197025377500002,0.05329566652739999,0.006376522653714996,-0.002662831305892364,0.004175691647983052,21.766370040000766
1637,A,16613145116770.0,1.9191738698122327,8.4943285,0.5541081,189,1970-01-01 04:36:53.145116770,1.0016521,0.2065348,1.9333836,9.209263173648523,2.1872209988463465,-54.04140090942383,-70.7715072631836,89.16995239257812,21816287.0,49917.0,0.09830913647296723,-0.05041555851675003,0.027360633328350002,0.005302578319078476,-0.002555396296083644,0.0020130602599497363,21.816287279998505
1637,A,16613195034010.0,2.8265760698122326,9.207801,1.1047745,189,1970-01-01 04:36:53.195034010,1.8730384,-0.13967614,1.0492141,9.633261340443614,2.1514256900015556,-54.34009552001953,-70.7964096069336,89.55245208740234,21866204.0,49917.0,0.11844679986811722,-0.04736800087425004,0.04140322137210001,0.005409903037168957,-0.0024405309670602754,0.0017162426675411818,21.866204519999883
1637,A,16613244951250.0,3.9326973698122325,10.400113,1.3202527,189,1970-01-01 04:36:53.244951250,1.5790255,-0.4997355,0.09686769,10.59044685632134,1.65904805505339,-54.24562454223633,-71.01567077636719,89.54534149169922,21916121.0,49917.0,0.16870132614286723,0.000197521568999944,0.060525041371199996,0.0071667865030451555,-0.0011773044077400846,0.002543976545678653,21.91612176000126
1637,A,16613294868490.0,3.5280771698122324,9.531017,1.0497078,189,1970-01-01 04:36:53.294868490,0.27088076,-0.5934788,-0.7564091,9.776117616383528,0.9988734648344741,-54.356788635253906,-71.21871948242188,89.6639633178711,21966039.0,49918.0,0.18621347173448702,0.008264673669999953,0.059151844119499995,0.008858318440220884,0.0002112079309701984,0.002987015384962381,21.966038999999
1637,A,16613344785730.0,0.8824842698122328,11.09922,1.205331,189,1970-01-01 04:36:53.344785730,0.4913905,-0.84594643,-2.0762718,12.056386629096586,2.2952112263134374,-54.87362289428711,-71.25657653808594,90.1681900024414,22015956.0,49917.0,0.11008099769086722,0.02571317016449999,0.0562823858898,0.0073950655151527045,0.0008480360153433668,0.0028810652296871143,22.015956240000378
1637,A,16613394702970.0,5.8432702698122325,11.630733,2.9483097,189,1970-01-01 04:36:53.394702970,0.76622874,-1.3029449,-3.0190308,12.005601329910045,3.3762877344483893,-54.73535919189453,-71.41748809814453,90.06269073486328,22065873.0,49917.0,0.16786474467721724,0.07811893195049997,0.10366864141094999,0.0069371088108938364,0.0025914935206372267,0.003992137714885769,22.065873479998118
1637,A,16613444620210.0,3.0731788698122324,10.486304,2.9435213,189,1970-01-01 04:36:53.444620210,-0.5483076,-1.5394336,-3.105317,11.144397415684963,3.509058378470743,-54.259246826171875,-71.57573699951172,89.57666778564453,22115790.0,49917.0,0.2225411958513172,0.06282146796449996,0.1470512640135,0.009743946666681427,0.003517660971278526,0.0062575927595361356,22.115790719999495
1637,A,16613494537450.0,3.7124307698122325,7.637204,3.3625066,189,1970-01-01 04:36:53.494537450,-2.0439389,-1.4861704,-2.7676284,8.520276695106796,3.7478201191167018,-54.29975509643555,-71.73147583007812,89.51167297363281,22165707.0,49917.0,0.1693586381905672,-0.03685102558200001,0.15738899734215,0.009781232007934373,0.0006481832862036249,0.007598372263044991,22.165707960000873
1637,A,16613544454690.0,1.5504665698122326,8.051401,1.9714755,189,1970-01-01 04:36:53.544454690,-3.1379654,-1.3466207,-2.3873289,9.153635653585134,4.166479741705324,-54.4114990234375,-71.86771392822266,89.46414184570312,22215625.0,49918.0,0.13135665469968702,-0.09762450780500004,0.1331308592339,0.007505552995247855,-0.003356374837806134,0.007251085100281632,22.215625199998613
1637,A,16613594371930.0,-1.0280887301877675,10.536582,3.2332199,189,1970-01-01 04:36:53.594371930,-0.44497693,-1.2454206,-2.0911853,12.775925566912267,2.4742944242900187,-54.40243148803711,-71.98897552490234,89.43119812011719,22265542.0,49917.0,0.013037767310267215,-0.02525842629450005,0.12990139014090002,0.0036038681817354428,-0.003066973710722373,0.006564890396020946,22.26554243999999
1637,A,16613644289170.0,0.24562686981223258,10.732907,4.2651205,189,1970-01-01 04:36:53.644289170,2.2117925,-1.0153235,-1.5947722,12.66095056194302,2.9096745939368103,-54.27568435668945,-72.0833511352539,89.41421508789062,22315459.0,49917.0,-0.01952907434218279,0.04166794120649997,0.18714732887340002,-0.00016201328655606487,0.00040955687793115,0.007913060453518408,22.315459680001368
1637,A,16613694206410.0,2.8385470698122326,11.051335,5.3784246,189,1970-01-01 04:36:53.694206410,2.196879,-0.9173192,-1.1100769,12.561559814772997,2.6267894051947236,-54.180625915527344,-72.15522003173828,89.42974853515625,22365376.0,49917.0,0.07697635527211721,0.05451540395699999,0.24068842037835003,0.0014337979610897684,0.0024005920202632143,0.010678138547699804,22.365376919999107
1637,A,16613744123650.0,3.1019092698122326,12.10239,5.986552,189,1970-01-01 04:36:53.744123650,-0.013544837,-0.58282614,-0.6232511,13.701918026233297,0.8534118031336725,-54.198089599609375,-72.1975326538086,89.44738006591797,22415294.0,49918.0,0.148267849780687,0.08869742227499995,0.28365845095939995,0.00562187011391294,0.003574448929924486,0.0130871735617189,22.415294160000485
1637,A,16613794040890.0,2.7715094698122327,9.825504,5.4981346,189,1970-01-01 04:36:53.794040890,-1.1874663,-0.105587676,-0.085292526,11.569604256182004,1.1951986386999576,-54.26304626464844,-72.20409393310547,89.45323944091797,22465211.0,49917.0,0.14659172161291723,0.058100742398999976,0.2866405505061,0.00735925261262727,0.003663861993016027,0.014233807628076682,22.465211399998225
1637,A,16613843958130.0,1.3709014698122326,9.942821,5.8021984,189,1970-01-01 04:36:53.843958130,-1.0852009,0.41958767,0.58049774,12.207751414004692,1.3002662928500248,-54.31697463989258,-72.16824340820312,89.45289611816406,22515128.0,49917.0,0.10338836343661723,0.004201139512499985,0.28203936118050005,0.006239127952708806,0.001554961519688172,0.014193397575830009,22.515128639999602
1637,A,16613893875370.0,2.8696716698122327,12.011411,4.2675147,189,1970-01-01 04:36:53.893875370,0.72148764,0.9277188,1.1504142,13.002247685158691,1.6445848771370388,-53.56501007080078,-72.01887512207031,88.77043914794922,22565045.0,49917.0,0.10583834470531722,0.058758099371999994,0.25132493440635006,0.005221984795160471,0.0015713681636987927,0.013311972771404399,22.56504588000098
1637,A,16613943792610.0,2.1298633698122327,13.261184,2.7663505,189,1970-01-01 04:36:53.943792610,0.30070817,1.4976352,1.7341791,13.94364139920618,2.3109984306919378,-53.43605041503906,-71.90489959716797,88.65941619873047,22614963.0,49918.0,0.12478339505398703,0.141582298605,0.17555824152680002,0.005756088002652474,0.005000295993107942,0.010654577188115492,22.61496311999872
1637,A,16613993709850.0,2.3166111698122327,12.272379,1.9044378,189,1970-01-01 04:36:53.993709850,-0.09343967,1.7085576,2.2987692,12.804398560292972,2.8657005913591376,-53.55745315551758,-71.80122375488281,88.77029418945312,22664880.0,49917.0,0.11097733479721722,0.1480928321355,0.11657586978555,0.005884234175991282,0.00722985675058677,0.007291229217189288,22.664880360000097
1637,A,16614043627090.0,2.7954514698122326,9.102455,1.3777134,189,1970-01-01 04:36:54.043627090,-0.20316191,1.7383851,2.8516414,9.576618483966799,3.3459103681615288,-53.82994842529297,-71.6421127319336,89.02400207519531,22714797.0,49917.0,0.12758941539106722,0.04429719438900001,0.0819175707252,0.005954268234574298,0.004801766477011734,0.004954098534987555,22.714797600001475
1637,A,16614093547250.0,5.093885139812232,9.145552,1.4615105,189,1970-01-01 04:36:54.093547250,0.4679547,1.3548899,3.043389,9.267815999778653,3.3640637401355966,-53.91153335571289,-71.47925567626953,89.13467407226562,22764717.0,49920.0,0.19691784177622665,-0.03374574528,0.070867028544,0.008099701138895656,0.0002633641697606402,0.0038135035977592325,22.764717760001076
1637,A,16614143467410.0,3.6046916698122327,8.748114,1.2963105,189,1970-01-01 04:36:54.143467410,-0.3746695,0.86699873,2.692917,9.030733120668316,2.8537459594261123,-54.07698440551758,-71.44852447509766,89.28784942626953,22814637.0,49920.0,0.21711647716822663,-0.04259009664000005,0.06883521215999999,0.010334296600853554,-0.0019053426143232012,0.00348696792797184,22.814637920000678
1637,A,16614193387570.0,1.9191738698122327,9.880571,1.3777134,189,1970-01-01 04:36:54.193387570,-0.41408426,0.61240053,1.9312531,10.577034236859667,2.067906845044921,-54.591590881347656,-71.30821228027344,89.76600646972656,22864558.0,49921.0,0.13787844580179645,-0.024244508057500058,0.06674497355595,0.008860850774793263,-0.0016682251505519513,0.0033841492255629697,22.86455808000028
1637,A,16614243307730.0,2.6063094698122327,9.01387,0.83422965,189,1970-01-01 04:36:54.243307730,0.11215637,0.5239836,1.3176607,9.4835808173986,1.4224512591737641,-55.086429595947266,-71.27617645263672,90.24541473388672,22914478.0,49920.0,0.11295606415702664,-0.017610752640000022,0.055210098528,0.006260829368572224,-0.001044707307009602,0.0030439985992153917,22.91447823999988
1637,A,16614293227890.0,3.5807496698122323,9.923667,0.6259341,189,1970-01-01 04:36:54.293227890,0.48393366,0.119183116,0.74454844,10.114510425970506,0.8959624891293712,-55.35444641113281,-71.44136047363281,90.5275650024414,22964398.0,49920.0,0.15442899612502664,-0.016535076480000018,0.0364456872,0.006673931104640049,-0.000852279894835201,0.0022877284117708797,22.96439839999948
1637,A,16614343148050.0,3.8680538698122326,9.097667,1.8493712,189,1970-01-01 04:36:54.343148050,0.2730113,-0.3804259,-0.07144409,9.41477920490754,0.47367002577155765,-55.07783126831055,-71.55807495117188,90.28251647949219,23014318.0,49920.0,0.18592213634902663,-0.014443503360000047,0.061783620288,0.008495164266552368,-0.0007732253528064016,0.00245180351490048,23.014318559999083
1637,A,16614393068210.0,2.714048669812233,10.96275,2.2994812,189,1970-01-01 04:36:54.393068210,-0.20848823,-0.75646424,-1.3508266,11.526683955236003,1.5621901266218752,-54.93547058105469,-71.64794158935547,90.1351089477539,23064238.0,49920.0,0.16428927938902665,0.011492008319999946,0.103555355904,0.008741276936821809,-7.36693161984025e-05,0.00412686084575232,23.064238719998684
1637,A,16614442988370.0,1.6845420698122324,10.385748,2.3904607,189,1970-01-01 04:36:54.442988370,0.11215637,-0.795879,-2.1551013,11.297437592341067,2.3001008776212983,-54.92085647583008,-71.63912200927734,90.1173324584961,23114158.0,49920.0,0.10978882486102665,0.04364251007999995,0.117060949824,0.00684098948208133,0.0013761575792639973,0.00550658299097088,23.114158879998286
1637,A,16614492908530.0,3.1114860698122326,10.3809595,2.3306057,189,1970-01-01 04:36:54.492908530,1.2530546,-0.91412336,-2.3255436,10.889783612821283,2.7953390462303154,-54.52749252319336,-71.785888671875,89.79402923583984,23164079.0,49921.0,0.11971126037909645,0.029121602553749938,0.1178401778772,0.005728436877636093,0.0018162286333947139,0.005863249597985802,23.164079040001525
1637,A,16614542828690.0,4.708418669812232,8.132804,3.178153,189,1970-01-01 04:36:54.542828690,0.6863339,-1.021715,-2.3021078,8.761779156304879,2.6104896257857546,-54.415985107421875,-71.90925598144531,89.7127914428711,23213999.0,49920.0,0.19518482230102666,-0.027112463040000045,0.13749861715199999,0.007859806223695873,5.014812226319734e-05,0.0063732563239288316,23.213999200001126
1637,A,16614592748850.0,4.770667929812233,6.353912,3.8940194,189,1970-01-01 04:36:54.592748850,-1.8852144,-0.92051494,-2.1103601,7.481631883941896,2.975735344482532,-54.43667221069336,-72.0218276977539,89.63541412353516,23263919.0,49920.0,0.23659800152662666,-0.12762756864000002,0.17652142310399999,0.010777299282738226,-0.0038623111907328013,0.007837940204789758,23.263919360000727
1637,A,16614642669010.0,2.0245185698122325,7.3570824,1.5548843,189,1970-01-01 04:36:54.642669010,-2.8087988,-0.76605165,-2.0272696,8.256202939326815,3.5476764030042705,-54.89270782470703,-71.9133529663086,89.92689514160156,23313839.0,49920.0,0.16960785503062667,-0.14698957977600002,0.136004636352,0.010138898179669042,-0.006854444024463361,0.00780065044402176,23.31383952000033
1637,A,16614692589170.0,-0.29067413018776733,9.825504,3.331382,189,1970-01-01 04:36:54.692589170,-1.1832051,-1.0675215,-2.0464444,11.849211233981315,2.5937446180994033,-54.90523147583008,-72.02772521972656,89.87784576416016,23363759.0,49920.0,0.04327675721302665,-0.06033864345600001,0.12196120684799999,0.005313599921601587,-0.005174912451870721,0.006438827446272,23.36375967999993
1637,A,16614742509330.0,0.08282116981223275,11.475109,5.0719666,189,1970-01-01 04:36:54.742509330,1.4756948,-1.0462161,-1.7779977,13.639347612459527,2.5364382688824776,-54.80548095703125,-72.13053894042969,89.85055541992188,23413679.0,49920.0,-0.005188009890973343,0.04244730047999997,0.20974758105599997,0.0009506951331584505,-0.00044656792068096103,0.008279451346083839,23.41367983999953
1637,A,16614792429490.0,0.38449036981223284,10.584466,4.4183497,189,1970-01-01 04:36:54.792429490,2.3119273,-0.7063968,-1.1271211,12.531733838047007,2.6672844343265565,-54.67839813232422,-72.19693756103516,89.83848571777344,23463600.0,49921.0,0.011664329684796474,0.06139222178749998,0.23688304000615,0.00016165218021372226,0.0025918863955579326,0.011148123617021794,23.463599999999133
1637,A,16614842349650.0,3.4825873698122325,11.803115,5.7830443,189,1970-01-01 04:36:54.842349650,1.4810212,-0.6179799,-0.43789506,13.287695255778473,1.6634527451135648,-54.6434326171875,-72.23265838623047,89.8795394897461,23513520.0,49920.0,0.09652226038102665,0.06957802175999998,0.25462679424,0.002700337288042945,0.003269017278945599,0.012268085462783905,23.513520159998734
1637,A,16614892269810.0,3.9614277698122327,10.498275,5.038448,189,1970-01-01 04:36:54.892269810,-0.5525686,-0.121566646,0.030821295,11.737396489807738,0.5666219721746821,-54.68932342529297,-72.23493957519531,89.89871978759766,23563440.0,49920.0,0.18580261788502664,0.06742669439999996,0.27010444780799997,0.00704682896152069,0.003419637715353598,0.013097291801518078,23.563440319998335
1637,A,16614942189970.0,1.188942269812233,11.32188,6.5515833,189,1970-01-01 04:36:54.942189970,-0.34484208,0.44408876,0.57197565,13.752226770436243,0.8020517633482184,-54.701637268066406,-72.19879913330078,89.89354705810547,23613360.0,49920.0,0.12855323618902667,0.05541506879999996,0.289287181248,0.00784632211768837,0.0030661304094719982,0.013962415061237759,23.613360480001575
1637,A,16614992110130.0,1.9574808698122328,11.501446,3.6474166,189,1970-01-01 04:36:54.992110130,0.29751238,1.1492938,1.3453577,12.556632160475816,1.794262298528561,-54.305152893066406,-71.97437286376953,89.52799224853516,23663280.0,49920.0,0.07853472156502667,0.08045421695999996,0.254567037504,0.005168915425541171,0.003391297372569598,0.013574601300049921,23.663280640001176
1637,A,16615042030290.0,3.0827556698122325,11.783961,2.6035447,189,1970-01-01 04:36:55.042030290,0.7811424,1.5530291,1.9717331,12.294949008691777,2.628652554477328,-53.970733642578125,-71.89376831054688,89.24547576904297,23713200.0,49920.0,0.12580430402902665,0.09198775871999995,0.156023994048,0.0051003020788275705,0.004304151712972798,0.01024835214753792,23.713200800000777
1637,A,16615091950450.0,4.385201369812233,10.481516,2.7064953,189,1970-01-01 04:36:55.091950450,0.31668714,1.8363894,2.2518976,10.875938663669924,2.922953912390597,-53.264892578125,-71.87104034423828,88.58718872070312,23763120.0,49920.0,0.18640020770902666,0.06653030591999994,0.13253859839999999,0.00779262461298181,0.003956610893414397,0.00720252230750208,23.76312096000038
1637,A,16615141874620.0,4.042830569812232,8.630797,1.454328,189,1970-01-01 04:36:55.141874620,-0.6015708,1.9056315,2.4319272,8.862248355799238,3.1476322446093876,-53.110740661621094,-71.84580993652344,88.4109878540039,23813045.0,49925.0,0.21038474729287568,-0.012173886737500072,0.10386455162624998,0.009904744439234987,0.0013568721138431529,0.005901213632530264,23.8130451299985
1637,A,16615191798790.0,3.4035788698122325,8.556578,1.4974235,189,1970-01-01 04:36:55.191798790,-1.190662,1.5668775,2.4915822,8.920623872577089,3.175021725533085,-53.21754837036133,-71.74238586425781,88.45965576171875,23862969.0,49924.0,0.1858772724319059,-0.060223945250000056,0.07368162094300001,0.009891492536369999,-0.0018071946820719784,0.004431907559673619,23.86296930000026
1637,A,16615241722960.0,2.7475674698122328,8.858247,1.2939163,189,1970-01-01 04:36:55.241722960,-1.1640304,1.0448979,2.1144786,9.346471249467141,2.630170744154556,-53.61824035644531,-71.6255111694336,88.79148864746094,23912893.0,49924.0,0.1535449149297059,-0.05454633835000003,0.06967742408760001,0.008472656640920553,-0.002864895819223202,0.0035785284820538383,23.91289346999838
1637,A,16615291647130.0,2.072402569812233,8.795998,1.4160206,189,1970-01-01 04:36:55.291647130,-0.44071588,0.6166616,1.4529493,9.522136598071594,1.6387689538703205,-54.09849166870117,-71.45903015136719,89.23187255859375,23962817.0,49924.0,0.1203160921291059,-0.048569936310000006,0.0676454448978,0.00683611845820206,-0.002573988448062921,0.003427853455613556,23.96281764000014
1637,A,16615341571300.0,2.5201182698122326,8.298004,1.5141829,189,1970-01-01 04:36:55.341571300,0.42427886,0.21718745,0.8297696,8.923951236142967,0.9569224255730253,-54.365169525146484,-71.34812927246094,89.50968933105469,24012741.0,49924.0,0.11463850519870591,-0.062554722076,0.073143739767,0.005864936658496839,-0.0027738937226313323,0.0035143796276027378,24.01274180999826
1637,A,16615391495470.0,3.1761296698122328,9.856629,1.7512089,189,1970-01-01 04:36:55.391495470,1.0879385,-0.22809309,0.23535207,10.262319196949706,1.1362337938739908,-54.31126022338867,-71.40764617919922,89.51529693603516,24062665.0,49924.0,0.1421897410689059,-0.036079251054000026,0.0815107101116,0.006410946683332126,-0.002462101237271061,0.003860484377869613,24.06266598000002
1637,A,16615441419640.0,3.3987904698122327,8.575731,2.5269303,189,1970-01-01 04:36:55.441419640,1.1316144,-0.42623228,-0.18862318,9.168872735293082,1.2238479524984591,-53.86610794067383,-71.3915023803711,89.15078735351562,24112590.0,49925.0,0.1641264439853757,-0.029147213500000053,0.10679304978,0.007646417769417504,-0.001628215621429227,0.004700532606294064,24.11259014999814
1637,A,16615491343810.0,3.8105930698122323,11.992257,2.4503157,189,1970-01-01 04:36:55.491343810,0.77794665,-0.66698205,-1.0344431,12.347138092974726,1.4560695630381246,-53.44076156616211,-71.59346771240234,88.78315734863281,24162514.0,49924.0,0.1799606319161059,0.02416291645599996,0.12424201465200001,0.008589101588652783,-0.00012441802281233034,0.0057670972783515845,24.1625143199999
1637,A,16615541267980.0,3.5711728698122327,10.637139,2.1893477,189,1970-01-01 04:36:55.541267980,-0.34377682,-0.67337364,-1.8248694,11.018616395646792,1.975288051923699,-53.10519790649414,-71.77776336669922,88.43965911865234,24212438.0,49924.0,0.18426364138490592,0.07561978295199996,0.1158152777908,0.009091766310139858,0.002490775742622494,0.005992310133957174,24.21243848999802
1637,A,16615591192150.0,3.0157180698122326,9.432856,2.8764837,189,1970-01-01 04:36:55.591192150,-0.91475856,-0.84914225,-2.1593623,10.153727342165965,2.4941273677359836,-52.67329025268555,-71.814697265625,87.97628021240234,24262362.0,49924.0,0.16442197163490593,0.011732015189999933,0.1264532834068,0.008703890272200544,0.0021804755852206014,0.006047507824614492,24.26236265999978
1637,A,16615641116320.0,3.7076423698122323,6.969222,2.404826,189,1970-01-01 04:36:55.641116320,-0.4790654,-1.1708521,-2.1103601,7.571758527200287,2.4604914243344926,-52.1186637878418,-71.83599090576172,87.4211196899414,24312286.0,49924.0,0.16782852329390588,-0.07982652896400005,0.1318320527314,0.008293636854413,-0.0016997752528265912,0.00644731856068175,24.31228683000154
1637,A,16615691040490.0,-6.084643130187767,8.139986,3.4774284,189,1970-01-01 04:36:55.691040490,-3.6929681,0.82438815,-1.7524314,14.526441215124184,4.169969426888402,-52.03969955444336,-71.8797607421875,87.14371490478516,24362211.0,49925.0,-0.059335881480874285,-0.11210139530000002,0.14683577545999998,0.002708247571257801,-0.004791000809440102,0.006956245661227822,24.36221099999966
1637,A,16615740964660.0,2.977410869812233,9.363423,2.321029,189,1970-01-01 04:36:55.740964660,-1.5166329,-0.461386,-2.0634885,9.954537242874427,2.6021216697131324,-51.82875442504883,-71.93415069580078,86.8570556640625,24412135.0,49924.0,-0.07756273168349409,-0.05233510454200005,0.14474109361880003,-0.003417263181808964,-0.0041046639090560055,0.007278341805945006,24.41213517000142
1637,A,16615790888830.0,-0.053648630187767665,8.807969,2.1989245,189,1970-01-01 04:36:55.790888830,-0.7752089,-0.65100306,-2.342588,10.607706197215471,2.5519546156843336,-51.723262786865234,-72.04631042480469,86.70537567138672,24462059.0,49924.0,0.0729829530255059,-0.03566091289600006,0.112827079267,-0.00011432043486070107,-0.002196556587287359,0.0064294167315753405,24.46205933999954
1637,A,16615840813000.0,-0.20448313018776698,10.115203,3.865289,189,1970-01-01 04:36:55.840813000,1.2967304,-0.8086622,-1.7716061,12.208343953687821,2.339665031056841,-51.58652114868164,-72.14087677001953,86.62980651855469,24511983.0,49924.0,-0.006443485002494097,-0.016894980536000057,0.15137489738700002,0.0016609582007904209,-0.001311900211849587,0.006595009741237149,24.5119835100013
1637,A,16615890737170.0,1.2847102698122326,11.197382,4.482993,189,1970-01-01 04:36:55.890737170,2.4461508,-0.83316326,-0.86613137,12.755011687772761,2.725435433880712,-51.481849670410156,-72.20069885253906,86.6483383178711,24561907.0,49924.0,0.02696462985930591,0.04274954676999993,0.208389815284,0.0005122488179157365,0.0006453816823331049,0.008980446757693503,24.561907679999422
1637,A,16615940661340.0,3.020506469812233,11.482292,6.0057054,189,1970-01-01 04:36:55.940661340,2.0360239,-0.65952516,-0.17370947,13.180805901765417,2.147217207925625,-51.44356918334961,-72.22801971435547,86.71504211425781,24611831.0,49924.0,0.10746682025450591,0.07687482238799993,0.2618188894608,0.003355677857740971,0.002986063502921993,0.0117373496878397,24.61183185000118
1637,A,16615990585510.0,3.9398799698122327,10.146328,5.2251954,189,1970-01-01 04:36:55.990585510,0.2250744,-0.18441725,0.25346157,11.510051232516194,0.38588984840208923,-51.479454040527344,-72.22384643554688,86.76453399658203,24661756.0,49925.0,0.17374864649912572,0.05063942674999995,0.28035136122,0.007019841088837529,0.003183074444107322,0.013533924882619468,24.661756019999302
1637,A,16616040509680.0,1.5025826698122327,11.987469,6.0224648,189,1970-01-01 04:36:56.040509680,0.195247,0.39934766,0.49314606,13.979303321497538,0.6639224209574484,-51.46887969970703,-72.19213104248047,86.76368713378906,24711680.0,49924.0,0.13585475241030592,0.063248640714,0.2807640939124,0.007728320043577234,0.002842873940036367,0.01400656399101497,24.71168019000106
1637,A,16616090433850.0,1.4977942698122324,12.667422,3.6617818,189,1970-01-01 04:36:56.090433850,0.51695687,1.0789864,1.040692,13.760861885854432,1.5857162090642691,-51.27402877807617,-71.98979187011719,86.59989166259766,24761604.0,49924.0,0.0748954091669059,0.126180189142,0.2417381636292,0.005260745533290362,0.004728522450865472,0.013042701352753419,24.761604359999183
1637,A,16616140366420.0,3.3341468698122325,11.41286,3.2523735,189,1970-01-01 04:36:56.140366420,0.95158476,1.4251974,1.6628064,12.051482253310514,2.3878078457681595,-50.74776840209961,-71.884033203125,86.14370727539062,24811536.0,49932.0,0.1206342424918644,0.11185472041199997,0.1726188012198,0.0048815932833128585,0.005942779551925163,0.010344835984420132,24.81153692999942
1637,A,16616190298990.0,4.294221669812233,9.444826,3.1159039,189,1970-01-01 04:36:56.190298990,0.30496922,1.6968397,2.104891,10.010562015914424,2.720815560548803,-49.96092224121094,-71.7793960571289,85.4108657836914,24861469.0,49933.0,0.1904536631445342,0.03140001751899999,0.1589935977071,0.007766776196071145,0.0035765694145543105,0.008279200957808448,24.861469499999657
1637,A,16616240231560.0,3.9853697698122326,8.135198,1.8637364,189,1970-01-01 04:36:56.240231560,-0.2969052,1.6787302,2.42234,8.470642755266367,2.9620970371983226,-49.750343322753906,-71.69202423095703,85.2010498046875,24911402.0,49933.0,0.20671241967738418,-0.05043173080399999,0.12432418954994999,0.009915847006773426,-0.0004751552697299525,0.007073453535553138,24.911402069999895
1637,A,16616290164130.0,3.2168310698122324,8.527847,1.9020436,189,1970-01-01 04:36:56.290164130,-0.5845266,1.3367803,2.4617548,9.014165473730843,2.8616235971732356,-49.85512161254883,-71.5399398803711,85.28170013427734,24961334.0,49932.0,0.1798101461620644,-0.07332401853000002,0.09401646348,0.009649922378747672,-0.003089686037872644,0.005451092743545731,24.961334640000132
1637,A,16616340096700.0,2.1825358698122326,9.305963,1.8517654,189,1970-01-01 04:36:56.340096700,-0.18611768,0.9458283,1.9930384,10.02986459146559,2.213918026432784,-50.251644134521484,-71.35530853271484,85.6576919555664,25011267.0,49933.0,0.1348032946981342,-0.04409558263500004,0.0937194723985,0.007854796471236148,-0.0029315564724859736,0.004687109243110571,25.01126721000037
1637,A,16616390029270.0,2.2639387698122326,8.855853,1.8517654,189,1970-01-01 04:36:56.390029270,0.47541153,0.78923446,1.4241872,9.586487027311776,1.696235931806738,-50.551918029785156,-71.18548583984375,85.96945190429688,25061199.0,49932.0,0.1110106858528644,-0.03590570174400003,0.09246234995279999,0.0061369918384362315,-0.0019973120658061156,0.004648215376822556,25.061199780000607
1637,A,16616439961840.0,3.3724539698122324,9.145552,1.2364556,189,1970-01-01 04:36:56.439961840,0.7491845,0.5122657,0.98103714,9.456082456438532,1.3364607859926605,-50.71497344970703,-71.23719787597656,86.16294860839844,25111132.0,49933.0,0.14072099933383422,-0.03991132206750003,0.0771020695965,0.006284859118213712,-0.0018928857249898164,0.004233430080677598,25.111132350000844
1637,A,16616489894410.0,3.7291901698122327,10.349834,1.2268788,189,1970-01-01 04:36:56.489894410,0.20803016,0.09255151,0.46331865,10.560713537855325,0.5162426763749082,-50.79249954223633,-71.39866638183594,86.24980163574219,25161064.0,49932.0,0.17729964758986438,-0.0026117931240000384,0.061499606630399994,0.007939703471097058,-0.0010616320938709907,0.0034603294486807855,25.16106492000108
1637,A,16616539826980.0,3.8105930698122323,10.3570175,1.7583915,189,1970-01-01 04:36:56.539826980,-0.6590951,-0.24513732,-0.16412209,10.629830490927432,0.7221043670597489,-50.695098876953125,-71.55534362792969,86.1275863647461,25210997.0,49933.0,0.1882419982520842,0.02763420797474994,0.07453175094494999,0.009126295500913009,0.0006247221203712474,0.0033962268889049753,25.21099749000132
1637,A,16616589759550.0,2.4674458698122326,11.764808,1.9092262,189,1970-01-01 04:36:56.589759550,-1.0937229,-0.4581902,-1.2166034,12.282215280832666,1.6989090247132157,-50.836021423339844,-71.6633071899414,86.2028579711914,25260930.0,49933.0,0.1567406591861342,0.06296115634574996,0.09156757730705,0.00861300951693128,0.0022618491633077608,0.004146918878803557,25.260930060001556
1637,A,16616639692120.0,2.4219561698122325,10.455179,2.3042696,189,1970-01-01 04:36:56.639692120,-0.9019754,-0.48588708,-1.7939767,11.1215690335267,2.0659134243377615,-50.814109802246094,-71.70846557617188,86.12734985351562,25310862.0,49932.0,0.12206881132126439,0.06541059544199995,0.1051941361428,0.0069607572406877125,0.003204929155132964,0.004912352937988955,25.310862629998155
1637,A,16616689624690.0,2.9295268698122325,8.817546,1.88289,189,1970-01-01 04:36:56.689624690,-0.5355244,-0.7287674,-1.984659,9.357555092822697,2.180999691100189,-50.79633712768555,-71.77704620361328,86.07423400878906,25360795.0,49933.0,0.13360780130878422,-0.00817091128750005,0.1045387201534,0.006383350149228108,0.001429074574443322,0.005236295356719077,25.360795199998392
1637,A,16616739557260.0,3.1689470698122326,6.272509,2.060061,189,1970-01-01 04:36:56.739557260,-0.21487981,-0.9471466,-2.0059643,6.979686657592277,2.2287110148046754,-50.61853790283203,-71.69129943847656,85.8868408203125,25410727.0,49932.0,0.1522545003766644,-0.11259528687000002,0.09843971466599999,0.00713683822387891,-0.003015048903200147,0.0050675596037011396,25.41072776999863
1637,A,16616789489830.0,3.8919958698122326,6.1671643,2.3066638,189,1970-01-01 04:36:56.789489830,-0.38745266,-1.1974837,-2.0102253,6.762438891207367,2.371727752560748,-50.04256820678711,-71.68252563476562,85.31614685058594,25460660.0,49933.0,0.1762870319021342,-0.17876829655555004,0.1090218347192,0.008202532165638626,-0.007274328905593996,0.005179588772725596,25.460660339998867
1637,A,16616839422400.0,2.1873243698122327,9.109638,2.4958057,189,1970-01-01 04:36:56.839422400,-0.17866082,-1.4510167,-2.2616277,9.987574336796134,2.6930148543387675,-50.07841873168945,-71.6694107055664,85.33635711669922,25510592.0,49932.0,0.1517763091024644,-0.10793295377820003,0.11989845353699999,0.008190429371520808,-0.007157783415832403,0.005715223916604288,25.510592909999104
1637,A,16616889354970.0,1.1171162698122323,11.156681,4.23639,189,1970-01-01 04:36:56.889354970,0.41149566,-1.4904314,-2.5013123,12.690506195854939,2.940625385600159,-49.98744201660156,-71.81311798095703,85.26222229003906,25560525.0,49933.0,0.0825003172291842,0.01663565331349999,0.16807936394405,0.005849067391309104,-0.0022793740520519333,0.007189798180140635,25.56052547999934
1637,A,16616939287540.0,1.0716264698122329,11.985074,4.9043727,189,1970-01-01 04:36:56.939287540,1.2647725,-1.3881661,-2.0453792,13.664554546900028,2.776730211910783,-49.88539505004883,-71.93608856201172,85.22138977050781,25610458.0,49933.0,0.05464524560883421,0.08842522620749996,0.22821285194955,0.003424044694595386,0.0026230024485610452,0.009894029608107563,25.61045804999958
1637,A,16616989220110.0,1.9742403698122324,11.994651,6.1661167,189,1970-01-01 04:36:56.989220110,1.9412154,-1.2379638,-1.0419,13.923308592233964,2.527138146067128,-49.830509185791016,-72.01577758789062,85.26573181152344,25660390.0,49932.0,0.0760431115180644,0.10934421434999991,0.2763858383604,0.0032627655240301504,0.004937511852958542,0.01259781090227821,25.660390619999816
1637,A,16617039152680.0,3.609480069812233,11.139921,7.4302554,189,1970-01-01 04:36:57.039152680,1.3499936,-0.71172315,-0.08955359,13.514187583957312,1.5287420998221937,-49.837955474853516,-72.04215240478516,85.34452056884766,25710323.0,49933.0,0.1394059563558842,0.08824589183799993,0.33945382403464996,0.005379009153074938,0.004933133386142698,0.015375360931186015,25.710323190000054
1637,A,16617089085250.0,3.9039668698122325,11.178228,7.2435074,189,1970-01-01 04:36:57.089085250,0.043979444,0.22570956,0.3812933,13.407474994970334,0.4452679840217942,-49.84709167480469,-72.02032470703125,85.35643768310547,25760255.0,49932.0,0.18758071629466438,0.06786130793399996,0.3663451620648,0.008163549269393595,0.0038973723495077488,0.01762097748695887,25.76025576000029
1637,A,16617139017820.0,2.955863069812233,10.955567,5.3137813,189,1970-01-01 04:36:57.139017820,-0.14776815,1.1993612,0.7594622,12.425738328453514,1.4272650585818678,-49.78894805908203,-71.95263671875,85.28752899169922,25810188.0,49933.0,0.1712659441876342,0.06325999286749999,0.31351154832855,0.008959145148931306,0.003273639956460648,0.01697364256003557,25.81018833000053
1637,A,16617188951580.0,2.5608196698122327,12.710518,3.379266,189,1970-01-01 04:36:57.188951580,0.40829986,1.8182799,1.2015469,13.462113438081193,2.2173329752925337,-49.427555084228516,-71.8240737915039,84.9539566040039,25860122.0,49934.0,0.13773501796020404,0.10151794419499999,0.2170393119391,0.007714827021945077,0.004114010754639437,0.013246263328302416,25.860122089998185
1637,A,16617238885340.0,3.7866509698122326,11.865364,3.8820484,189,1970-01-01 04:36:57.238885340,0.44451886,2.2284067,1.4849073,12.592417853126149,2.7144692164572213,-48.61493682861328,-71.70647430419922,84.19193267822266,25910055.0,49933.0,0.1584741257241842,0.12423035795299996,0.1812896059676,0.007395305585796278,0.005636144985578041,0.009944878928917626,25.91005584999948
1637,A,16617288819100.0,4.320558069812233,9.483133,3.9083846,189,1970-01-01 04:36:57.288819100,-0.60050553,2.519224,1.9397751,10.317156947681333,3.2357107244493584,-48.55369186401367,-71.55037689208984,84.09574890136719,25959989.0,49934.0,0.202412688092304,0.04365472459899997,0.194503740711,0.009010261080556262,0.004191586856075782,0.009382432486524605,25.959989610000775
1637,A,16617338752860.0,3.8704480698122325,8.932467,2.4814403,189,1970-01-01 04:36:57.338752860,-1.5645698,2.2848656,2.5022347,9.401562191178238,3.7322470393878655,-48.228843688964844,-71.40461730957031,83.71263122558594,26009923.0,49934.0,0.204504850288004,-0.029570914800000004,0.15953475827830002,0.01015951018074115,0.00035163047925163205,0.008839279204265853,26.009923369998432
1637,A,16617388686620.0,2.6254630698122328,9.320328,1.2388498,189,1970-01-01 04:36:57.388686620,-1.30358,1.6116186,2.5949128,9.812637002043033,3.321175660495813,-48.80217742919922,-71.2833251953125,84.20246124267578,26059857.0,49934.0,0.16218341342300402,-0.033635667235000014,0.09288448292669998,0.009155105880072737,-0.0015780787336678453,0.006302151195165236,26.059857129999727
1637,A,16617438620380.0,1.7850983698122325,9.346664,1.3801076,189,1970-01-01 04:36:57.438620380,-0.14883342,1.0864432,2.1176744,10.12793283979431,2.384754720752324,-49.48979568481445,-71.1012954711914,84.85557556152344,26109790.0,49933.0,0.1101162821823842,-0.023293944232000024,0.0653861999271,0.0067983703503319256,-0.0014213331446908564,0.003951465003469397,26.109790890001022
1637,A,16617488554140.0,2.3213995698122325,9.040206,1.609951,189,1970-01-01 04:36:57.488554140,0.76622874,0.75940704,1.5232568,9.69545736539612,1.866578906221162,-49.87278747558594,-70.97396850585938,85.26070404052734,26159724.0,49934.0,0.10252693405860401,-0.030288216710000034,0.0746527930662,0.0053090631798887525,-0.0013377858122389154,0.003496353538063721,26.15972464999868
1637,A,16617538487900.0,3.3461178698122325,9.741708,1.6745944,189,1970-01-01 04:36:57.538487900,1.0645027,0.34501916,0.9778414,10.102571038047708,1.4860612445751877,-49.901023864746094,-71.0171890258789,85.34370422363281,26209658.0,49934.0,0.141500907915104,-0.020425153162000068,0.0820052450018,0.006092643130557568,-0.0012661607055942266,0.003911281236443756,26.209658409999975
1637,A,16617588421660.0,4.011705969812232,9.48074,1.906832,189,1970-01-01 04:36:57.588421660,0.57980746,-0.042737078,0.60073775,9.774542942426088,0.8359958090700529,-49.6873779296875,-71.12651062011719,85.17584228515625,26259592.0,49934.0,0.183702787803904,-0.009426340784000035,0.0894174729288,0.008119360671016472,-0.0007453022493497846,0.00427991099857329,26.25959217000127
1637,A,16617638355420.0,3.7387669698122323,11.233295,1.8493712,189,1970-01-01 04:36:57.638355420,-0.42047584,-0.45073336,-0.1577305,11.509948528069152,0.6362699147931208,-49.622314453125,-71.30621337890625,85.09825134277344,26309525.0,49933.0,0.1935021826471342,0.027813554827499986,0.0937792471928,0.009417487894765845,0.00045906437941704153,0.0045737809129159255,26.309525929998927
1637,A,16617688289180.0,3.5592017698122325,9.806351,2.0456958,189,1970-01-01 04:36:57.688289180,-1.158704,-0.65739465,-0.9577441,10.19127364408894,1.64074265092044,-49.51068115234375,-71.43920135498047,84.93568420410156,26359459.0,49934.0,0.182208385522204,0.03594364168199995,0.097248137789,0.009380365755483868,0.0015918259252526846,0.0047693807208406,26.35945969000022
1637,A,16617738222940.0,2.9702282698122326,9.712977,2.2922986,189,1970-01-01 04:36:57.738222940,-0.9424554,-0.87151283,-1.6363175,10.279291485689475,2.0797335778051043,-49.43484115600586,-71.51642608642578,84.81273651123047,26409393.0,49934.0,0.16302027979930403,-0.0020141378240000406,0.10830670618479998,0.008619324087082091,0.0008471179228226837,0.005132087789493864,26.409393450001517
1637,A,16617788156700.0,2.8624890698122325,8.374619,2.0026002,189,1970-01-01 04:36:57.788156700,-0.80397105,-1.0078666,-2.201973,8.986339640899818,2.551636656219428,-49.45108413696289,-71.5639419555664,84.77946472167969,26459327.0,49934.0,0.14562545381840403,-0.03776019066800004,0.1072307383396,0.007705958031233318,-0.000993045659459766,0.0053813233774406945,26.459327209999174
1637,A,16617838090460.0,4.598285369812233,6.3946133,-0.47061026,189,1970-01-01 04:36:57.838090460,-1.2204894,-1.5021493,-2.5630975,6.466064584784968,3.2117776525639345,-49.4329719543457,-71.71012115478516,84.69608306884766,26509260.0,49933.0,0.1862694250468842,-0.12060736178205006,0.03824842683701,0.008286253493190218,-0.003953883498244176,0.0036321055773818334,26.50926097000047
1637,A,16617888024220.0,-1.0209061301877673,4.3212347,4.8660655,189,1970-01-01 04:36:57.888024220,-1.649791,-1.0451509,-2.657906,9.16569127434125,3.2982745568384404,-49.373313903808594,-71.84502410888672,84.54641723632812,26559194.0,49934.0,0.08931642747570404,-0.22181062298400006,0.10974133097708001,0.006880551979931461,-0.008549149825653973,0.0036948602833443856,26.559194729998126
1637,A,16617937957980.0,2.6996834698122325,9.456798,3.295469,189,1970-01-01 04:36:57.937957980,-0.81888473,-0.93223286,-3.188408,10.38096434707245,3.4213412400336436,-48.88612365722656,-71.84890747070312,84.02325439453125,26609128.0,49934.0,0.04191403383840402,-0.14535705757910006,0.2037690318615,0.003276430927629336,-0.00916707548061892,0.007827413228990828,26.60912848999942
1637,A,16617987891740.0,-0.4127785301877678,11.853394,4.8277583,189,1970-01-01 04:36:57.987891740,2.7870352,-1.2326374,-2.9061127,14.070826322852858,4.210991711107859,-48.59513854980469,-71.998779296875,83.8637466430664,26659062.0,49934.0,0.05709715562760401,0.042698363663999934,0.2028126159991,0.0024720123673978227,-0.002563079610978305,0.0101511240021356,26.659062250000716
1637,A,16618037825500.0,2.8960080698122326,11.791144,6.003311,189,1970-01-01 04:36:58.037825500,3.6946406,-1.4616693,-1.8099556,13.472536617523815,4.366095003513117,-48.39421081542969,-72.11495971679688,83.84671783447266,26708996.0,49934.0,0.061998791915804013,0.10097998024599994,0.2704193072131,0.002973468522316268,0.003587217212400967,0.011815181426838997,26.708996009998373
1637,A,16618087759260.0,4.313375469812232,12.605173,7.861212,189,1970-01-01 04:36:58.087759260,1.3776906,-0.93862444,-0.7606702,14.897769102999003,1.8323936208854563,-48.35582733154297,-72.17460632324219,83.87876892089844,26758929.0,49933.0,0.1799930741420342,0.11974724838049995,0.3461486134795,0.006041689923933017,0.00551078635350351,0.015393542991971798,26.758929769999668
1637,A,16618137693020.0,4.339711669812233,11.108797,5.7710733,189,1970-01-01 04:36:58.137693020,-1.0543082,-0.12902349,-0.12470731,12.56609884315985,1.0694693799854469,-48.41067123413086,-72.18355560302734,83.88101196289062,26808863.0,49934.0,0.216041626615004,0.10271348898999996,0.3403572670851,0.009887798373800973,0.005554177229929271,0.01713999232005637,26.808863530000963
1637,A,16618187626780.0,2.2208431698122326,9.471163,5.835717,189,1970-01-01 04:36:58.187626780,-1.1991842,0.59109527,0.36424905,11.579254101798444,1.3856816857315808,-48.43946838378906,-72.15030670166016,83.8482666015625,26858797.0,49934.0,0.16379737268090402,0.024466661319999958,0.2897867334201,0.009483440295420935,0.0031753068127897675,0.015732805260613325,26.85879728999862
1637,A,16618237565090.0,2.0795851698122325,10.266038,4.1238627,189,1970-01-01 04:36:58.237565090,-0.050829094,1.0363758,0.8862286,11.56053372587886,1.3645730200617558,-48.412986755371094,-72.08275604248047,83.81776428222656,26908735.0,49938.0,0.10737739521208328,0.003425771768999981,0.2486807455293,0.006770962779520001,0.0006964461617992396,0.013444994481887568,26.90873559999818
1637,A,16618287503400.0,2.9295268698122325,11.355399,4.1430163,189,1970-01-01 04:36:58.287503400,0.7971214,1.3804562,1.2239175,12.344193599108152,2.009735279399416,-47.803436279296875,-71.8852310180664,83.27263641357422,26958673.0,49938.0,0.1250725185173833,0.05047326045299998,0.206415701751,0.005804041895911051,0.0013458049355511172,0.011363303192141811,26.95867391000138
1637,A,16618337441710.0,3.6741234698122325,10.069713,3.3241994,189,1970-01-01 04:36:58.337441710,0.27088076,1.7746041,1.572259,10.749163723112684,2.3863349431620002,-47.206058502197266,-71.73583984375,82.71395874023438,27008612.0,49939.0,0.1648898471552531,0.045572134083999974,0.18645264242115,0.007240215289662894,0.00239820547889162,0.0098097261198065,27.00861222000094
1637,A,16618387380020.0,3.8848132698122324,8.1758995,2.273145,189,1970-01-01 04:36:58.387380020,-0.24257669,1.8619558,2.0313878,8.626162619974505,2.7662717230369536,-46.89616775512695,-71.60057067871094,82.40849304199219,27058550.0,49938.0,0.18873909145168327,-0.03381770148750004,0.1397600923236,0.008829760968076594,0.0002934964275020069,0.008145205773841663,27.058550530000502
1637,A,16618437318330.0,3.3293583698122324,8.81994,1.7655741,189,1970-01-01 04:36:58.437318330,-0.30116624,1.6755345,2.2998345,9.237729095679363,2.861355568991075,-47.03581619262695,-71.48748779296875,82.53217315673828,27108488.0,49938.0,0.1801306516697833,-0.06502328352450003,0.1008427772079,0.009210308615999899,-0.0024679605547646296,0.006007613049332024,27.108488840000064
1637,A,16618487256640.0,2.8241818698122327,10.160693,1.7440263,189,1970-01-01 04:36:58.487256640,0.058893144,1.4017615,2.1293921,10.634349833755786,2.5500420429543635,-47.30813217163086,-71.40045166015625,82.79988861083984,27158427.0,49939.0,0.15365082301330307,-0.01546528430650001,0.08763296718779999,0.008334356532099326,-0.0020097592944561555,0.00470614509968843,27.158427149999625
1637,A,16618537194950.0,3.427520869812233,9.997887,1.9786581,189,1970-01-01 04:36:58.537194950,0.18885541,1.2462329,1.6713285,10.3873208796652,2.093347023749509,-47.290225982666016,-71.36844635009766,82.79532623291016,27208365.0,49938.0,0.1560987657056833,0.01394718401999998,0.09295170678360001,0.007734137480724372,-3.790544605361925e-05,0.004509018724391887,27.208365459999186
1637,A,16618587133260.0,3.6693350698122327,9.712977,1.5907974,189,1970-01-01 04:36:58.587133260,-0.31927574,0.8712598,1.230309,9.999226422820348,1.5410032033482566,-47.34752655029297,-71.41580963134766,82.83760833740234,27258303.0,49938.0,0.17720139595648327,0.0027681632159999854,0.08912573437950001,0.008322171736542637,0.0004173655051356831,0.0045462916284014455,27.258303769998747
1637,A,16618637071570.0,3.736372769812233,10.390536,1.3561656,189,1970-01-01 04:36:58.637071570,-0.61541927,0.22357903,0.6561315,10.61519517498041,0.9269503793814013,-47.48535919189453,-71.55372619628906,82.943603515625,27308242.0,49939.0,0.18491682190150308,0.012572467853499997,0.0735841926285,0.00904191084080499,0.0003830478874898798,0.004062785522426256,27.30824207999831
1637,A,16618687009880.0,3.6501814698122326,11.046547,1.4998177,189,1970-01-01 04:36:58.687009880,-0.92967224,-0.28561738,-0.02563772,11.289622136386509,0.9728951918225727,-47.6015625,-71.7275619506836,83.01284790039062,27358180.0,49938.0,0.1844348728091833,0.045870125426999996,0.07131104701770001,0.00922234246523113,0.0014592531116208044,0.003617889238725968,27.358180390001507
1637,A,16618736948190.0,3.5400481698122324,10.680235,1.6267104,189,1970-01-01 04:36:58.736948190,-0.32140625,-0.63076305,-0.7425607,10.968064381097479,1.0259436612060406,-47.64410400390625,-71.90418243408203,83.03746795654297,27408118.0,49938.0,0.17953284387178328,0.053103619757999966,0.0780662801289,0.009087909917807056,0.0024712754435242644,0.003729802481523456,27.40811870000107
1637,A,16618786886500.0,3.2695034698122325,10.565312,2.581997,189,1970-01-01 04:36:58.786886500,0.3475798,-0.83316326,-1.0919675,11.08941071729068,1.4168153571436601,-47.42022705078125,-71.98643493652344,82.83927154541016,27458057.0,49939.0,0.17003109966560306,0.041088485816499966,0.10508931942429998,0.008728436888156768,0.002351929780142476,0.0045733037430436265,27.45805701000063
1637,A,16618836824810.0,3.6621524698122325,9.578901,2.191742,189,1970-01-01 04:36:58.836824810,1.1422671,-0.90240544,-1.2783887,9.98481050230665,1.9373660919329867,-47.13791275024414,-72.10856628417969,82.62191009521484,27507995.0,49938.0,0.17307651715648326,0.01358845439699998,0.119195489091,0.008567054084430675,0.0013652285201908802,0.005600167383818525,27.50799532000019
1637,A,16618886763120.0,4.313375469812232,6.3012395,3.0536547,189,1970-01-01 04:36:58.886763120,0.39125565,-1.0611299,-1.3636098,7.091185376267575,1.7715838492679292,-47.09497833251953,-72.19463348388672,82.59735107421875,27557933.0,49938.0,0.19914095712448326,-0.09288117185550003,0.13097231020230002,0.009293898115321454,-0.001979859862221288,0.006246439780554409,27.557933629999752
1637,A,16618936701430.0,4.097897269812233,5.5279126,4.1478047,189,1970-01-01 04:36:58.936701430,-0.32247153,-1.3444902,-1.3284562,7.038870893859626,1.9174038856941489,-47.123714447021484,-72.28904724121094,82.610595703125,27607871.0,49938.0,0.2100210690356833,-0.19403030121510004,0.1798132397586,0.0102163666311932,-0.007163892571099813,0.0077600043969737135,27.607871939999313
1637,A,16618986639740.0,3.590326469812233,6.8950014,3.4439094,189,1970-01-01 04:36:58.986639740,-0.4375201,-1.2379638,-1.2975634,7.924551958267123,1.8459818485115205,-47.14952087402344,-72.37874603271484,82.6147232055664,27657810.0,49939.0,0.19197110266655307,-0.17920824887700004,0.18956130521995,0.01003754353131899,-0.009319579976524692,0.009223097700841903,27.657810249998874
1637,A,16619036578050.0,2.7332022698122325,8.8366995,4.576367,189,1970-01-01 04:36:59.036578050,-0.19037873,-1.275248,-1.4232646,10.311233207349236,1.9204644344412038,-47.15382385253906,-72.4742660522461,82.60924530029297,27707748.0,49938.0,0.15789218909968328,-0.09658756022790005,0.20025828143160002,0.008735736532111155,-0.006886345557540251,0.009733405259102554,27.707748559998436
1637,A,16619086516360.0,2.9702282698122326,10.584466,5.668123,189,1970-01-01 04:36:59.086516360,0.35503665,-1.174048,-1.4797237,12.256664196344866,1.921983859840897,-47.112857818603516,-72.56843566894531,82.58492279052734,27757686.0,49938.0,0.14240895714388327,-0.004465318630500017,0.25579467081,0.007498219320555613,-0.0025231893322153914,0.011387186164520512,27.757686869997997
1637,A,16619136454670.0,2.7188370698122326,12.083237,5.8405056,189,1970-01-01 04:36:59.136454670,0.5382621,-0.93223286,-1.3327172,13.692517804835823,1.7131606254919676,-47.050086975097656,-72.64898681640625,82.5473403930664,27807625.0,49939.0,0.14205311699775305,0.07659901005849999,0.28736470182769996,0.007102875760279587,0.0018011422081114451,0.013562417955077049,27.807625180001196
1637,A,16619186392980.0,3.1450050698122327,12.813468,6.369624,189,1970-01-01 04:36:59.186392980,0.1110911,-0.51038814,-0.9225904,14.49116566558746,1.0601935352208245,-47.00356674194336,-72.70008850097656,82.5044174194336,27857563.0,49938.0,0.14641427438428328,0.132253427145,0.3048747259824,0.007202742295418067,0.005214836504534192,0.014787626272990387,27.857563490000757
1637,A,16619236339560.0,2.3908312698122325,12.281956,5.7016416,189,1970-01-01 04:36:59.236339560,-0.89345324,0.005199822,-0.28556225,13.878489215813264,0.9379933522367799,-47.01640319824219,-72.71039581298828,82.47107696533203,27907510.0,49947.0,0.13824920882761157,0.13723997126399995,0.3014617514616,0.007109043497992256,0.00673019338516716,0.015142344019447734,27.90751006999926
1637,A,16619286286140.0,1.9072025698122328,10.26125,5.742343,189,1970-01-01 04:36:59.286286140,-0.2926441,0.47817722,0.39088067,12.276070779038996,0.6834337723374426,-47.01763916015625,-72.67977142333984,82.45704650878906,27957456.0,49946.0,0.10733479907694177,0.07350068343799995,0.28579062741579997,0.0061329694294004105,0.005262826369873044,0.014665453657705309,27.957456650001404
1637,A,16619336232720.0,2.876854269812233,10.196606,3.8868368,189,1970-01-01 04:36:59.336232720,0.5126958,0.8925651,1.0321698,11.207777036696625,1.457705024038708,-46.53382873535156,-72.44750213623047,82.02069854736328,28007403.0,49947.0,0.11947464348436158,0.021423666815999953,0.24047432173529998,0.0056642256138047095,0.0023705932610682667,0.013142677707624995,28.00740322999991
1637,A,16619386179300.0,3.494558369812233,10.4288435,3.9538746,189,1970-01-01 04:36:59.386179300,0.54358846,1.2206665,1.4177955,11.320470744283897,1.9482451585690317,-45.88318634033203,-72.2530746459961,81.42793273925781,28057349.0,49946.0,0.15911328784934178,0.025608550363499925,0.1958060857922,0.006957176409196573,0.0011745355596236504,0.010895230617184256,28.057349809998414
1637,A,16619436125880.0,3.3940020698122324,9.428067,3.259556,189,1970-01-01 04:36:59.436125880,0.13346165,1.4358499,1.59676,10.181961946736084,2.151538855087384,-45.46889114379883,-72.0494384765625,81.04116821289062,28107296.0,49947.0,0.17203146413896156,0.006415954371749956,0.1801446090891,0.008269843463779894,0.000799763969005763,0.009388804678618143,28.107296390000556
1637,A,16619486072460.0,3.6406046698122325,8.106467,2.2659624,189,1970-01-01 04:36:59.486072460,-0.010349044,1.4891132,1.7544191,8.606018479081369,2.3012065538692448,-45.3034553527832,-71.89649200439453,80.88597106933594,28157242.0,49946.0,0.17567523410864175,-0.05158088241800001,0.13798877100319998,0.008683279375337397,-0.0011279037480990024,0.007944744901045006,28.15724296999906
1637,A,16619536019040.0,3.7962277698122326,8.187871,1.6793828,189,1970-01-01 04:36:59.536019040,0.056762613,1.347433,1.7746592,8.517155226555333,2.2289488464000757,-45.32210159301758,-71.83908081054688,80.91090393066406,28207189.0,49947.0,0.1857237349309616,-0.08255394995700004,0.0985290783522,0.009025397153310534,-0.0033498162363170634,0.005906678510877081,28.207189550001203
1637,A,16619585965620.0,3.2671092698122326,8.487145,1.6027684,189,1970-01-01 04:36:59.585965620,-0.12646286,1.1855128,1.5893031,8.904682368419241,1.9867857955987176,-45.56712341308594,-71.7585678100586,81.14192199707031,28257136.0,49947.0,0.17639624755906158,-0.07304708792400005,0.0819668029932,0.009043403382714595,-0.003885902519521156,0.004507613892779347,28.257136129999708
1637,A,16619635912200.0,3.2311962698122327,9.037812,1.4567221,189,1970-01-01 04:36:59.635912200,-0.5078275,0.9639378,1.3208566,9.41561697273673,1.7122286674941083,-45.8717041015625,-71.73326873779297,81.4107666015625,28307082.0,49946.0,0.16228218424104177,-0.051820048839000016,0.07640465625649999,0.00845781647734398,-0.0031183070063824005,0.003955010451842757,28.307082709998213
1637,A,16619685858780.0,3.219225269812233,9.351453,1.574038,189,1970-01-01 04:36:59.685858780,-0.61541927,0.5325057,0.81272537,9.738064261681926,1.150141611046857,-46.12364959716797,-71.74147033691406,81.6236801147461,28357029.0,49947.0,0.1610896023198116,-0.030236290522500035,0.07568868735735,0.008075725311677471,-0.0020492339910444216,0.0037983031167404826,28.357029290000355
1637,A,16619735805360.0,2.7834804698122326,10.491093,2.2228665,189,1970-01-01 04:36:59.735805360,-0.5174149,0.06698543,0.11497719,11.046551929721826,0.534251795312464,-46.25123977661133,-71.73624420166016,81.72076416015625,28406975.0,49946.0,0.14990557043564176,0.006057101257999931,0.0948200960785,0.0077664824492219365,-0.0006038268935023611,0.004258115848743482,28.40697586999886
1637,A,16619785751940.0,3.2335904698122326,9.8877535,1.7559973,189,1970-01-01 04:36:59.785751940,-0.7453815,-0.17376433,-0.35373917,10.28058434068372,0.8431601409666422,-46.38327407836914,-71.81582641601562,81.80892181396484,28456922.0,49947.0,0.1502673211107116,0.01945052306774996,0.0993661551093,0.007496367707032855,0.0006370146560991149,0.004849510344038523,28.456922450001002
1637,A,16619835698520.0,3.042054269812233,10.371383,2.261174,189,1970-01-01 04:36:59.835698520,-0.5887876,-0.54554164,-1.0972937,10.881042649707746,1.3595366795152457,-46.36279296875,-71.88883209228516,81.7558364868164,28506869.0,49947.0,0.15672481390501158,0.016460945382749972,0.10032282746055,0.007666668083815163,0.0008968350573485599,0.004986932806208149,28.506869029999507
1637,A,16619885645100.0,2.8936138698122327,10.043377,1.8613422,189,1970-01-01 04:36:59.885645100,-1.0756135,-0.62011015,-1.7662798,10.525426134367711,2.158987107743655,-46.47684860229492,-71.9950942993164,81.80118560791016,28556815.0,49946.0,0.14823144045084177,0.020347001479999946,0.10295159706259999,0.007615672540028726,0.0009192048570034537,0.005076372203616624,28.55681560999801
1637,A,16619935591680.0,1.9526925698122324,10.40969,2.8357823,189,1970-01-01 04:36:59.935591680,-0.76562154,-0.87151253,-2.0922508,11.336609764648573,2.392326031827521,-46.529964447021484,-71.96956634521484,81.80278778076172,28606762.0,49947.0,0.12102923386996157,0.021304068724499938,0.11730363870075,0.006724381450150582,0.001040173001752078,0.005500544130336021,28.606762190000154
1637,A,16619985538260.0,2.7954514698122326,6.827964,1.88289,189,1970-01-01 04:36:59.985538260,-0.433259,-0.88323045,-1.6512313,7.558121954909563,1.9220754914903557,-46.74915313720703,-71.8818359375,81.98291015625,28656708.0,49946.0,0.11857540110154177,-0.05899486665800006,0.11783940334789998,0.005983646549143353,-0.0009412522967932985,0.0058722271890809365,28.65670876999866
1637,A,16620035484840.0,3.1330338698122326,6.4113727,3.3385646,189,1970-01-01 04:37:00.035484840,-0.13711551,-1.1175886,-0.9364388,7.585740374565917,1.4644871348284219,-46.782493591308594,-71.95426177978516,82.01077270507812,28706655.0,49947.0,0.1480550286291116,-0.15884802492255004,0.13039799645310002,0.006658695036878472,-0.005440299452886868,0.006199356703930274,28.7066553500008
1637,A,16620085431420.0,3.2359846698122325,8.147169,3.4893994,189,1970-01-01 04:37:00.085431420,0.15263641,-1.3562078,-0.6413606,9.131317625700937,1.5079591803728931,-46.85944747924805,-72.02404022216797,82.09971618652344,28756601.0,49946.0,0.15905349999004176,-0.1259003381259,0.17051474497199998,0.0076694212852061175,-0.007111020870408944,0.007514693891609022,28.756601929999306
1637,A,16620135378000.0,1.6749652698122324,9.384972,4.1789293,189,1970-01-01 04:37:00.135378000,0.5734159,-1.2507467,-0.80967236,10.939244850405728,1.5964781340443313,-46.88628005981445,-72.09634399414062,82.1580581665039,28806548.0,49947.0,0.12264360831721156,-0.05164167673650005,0.19150500678944998,0.0070349627343111905,-0.004433845508166148,0.00904090027061457,28.80654851000145
1637,A,16620185324580.0,2.2352083698122325,9.05936,4.5117235,189,1970-01-01 04:37:00.185324580,1.5683728,-1.2486161,-0.98011464,10.613960833443494,2.2314703924769828,-46.845252990722656,-72.17476654052734,82.19734191894531,28856495.0,49947.0,0.09765072138916157,-0.028861074798000052,0.2170360177008,0.00550152044292211,-0.0020104354654468383,0.010202699275107257,28.856495089999953
1637,A,16620235271160.0,2.8361528698122327,10.598831,5.028871,189,1970-01-01 04:37:00.235271160,1.35532,-1.1676561,-1.1622748,12.015428482114235,2.1333531777420847,-46.78620147705078,-72.25706481933594,82.20648956298828,28906441.0,49946.0,0.12664710423714176,0.0014532038429999749,0.2382572664485,0.005601389599365673,-0.0006844567613592168,0.011370039185060469,28.906441669998458
1637,A,16620285218780.0,2.5249066698122324,11.941978,6.0464067,189,1970-01-01 04:37:00.285218780,0.7268139,-0.5785648,-1.0727926,13.69778379336334,1.4191122702756853,-46.70076370239258,-72.31598663330078,82.15495300292969,28956389.0,49948.0,0.13388710094258138,0.073443763966,0.2765939852798,0.006506581240158405,0.0018704768740619652,0.012857895160662564,28.956389290000516
1637,A,16620335166400.0,1.5193420698122324,12.485462,6.1062617,189,1970-01-01 04:37:00.335166400,0.11854795,0.36312893,-0.38463184,14.439291656093921,0.5420866061746342,-46.61200714111328,-72.31753540039062,82.06802368164062,29006336.0,49947.0,0.10099904589901156,0.12055807283999997,0.30349466428739996,0.005865929188148521,0.00484490487147464,0.014486843889966468,29.006336909998936
1637,A,16620385114020.0,3.6070858698122326,11.7504425,4.7367783,189,1970-01-01 04:37:00.385114020,-0.022066953,1.2025573,0.5666493,12.800212416990826,1.3295572343409985,-46.53738021850586,-72.2556381225586,81.98851776123047,29056284.0,49948.0,0.1280274113641814,0.11577707898299996,0.27079408096,0.00571970674369098,0.005902234081627601,0.014342287123808566,29.056284530000994
1637,A,16620435061640.0,1.390054869812233,11.865364,2.3353941,189,1970-01-01 04:37:00.435061640,-1.0191544,1.7650169,1.2111343,12.751065538651067,2.3708240425981555,-46.91518020629883,-72.07099151611328,82.29280090332031,29106232.0,49948.0,0.12479859283138141,0.10029075153099995,0.17662043351759998,0.006314076628779985,0.005396077999256634,0.011173730084563582,29.106232149999414
1637,A,16620485009260.0,2.0604315698122324,10.505458,1.7176901,189,1970-01-01 04:37:00.485009260,0.159028,1.6265326,1.874794,11.166562135212061,2.4871169546450282,-47.355228424072266,-71.91746520996094,82.72029113769531,29156179.0,49947.0,0.08617072309996159,0.06919712321699997,0.10121969826869999,0.005268642211411394,0.004232705440019176,0.006938640531165162,29.156179770001472
1637,A,16620534956880.0,3.0252948698122326,8.839093,1.0688614,189,1970-01-01 04:37:00.534956880,0.039718386,1.5722041,2.2700071,9.223397533283652,2.7615820676368945,-47.83246612548828,-71.8377914428711,83.18165588378906,29206127.0,49948.0,0.1270109321031814,-0.006379583326000012,0.069591337161,0.005323998657043292,0.001568805241237833,0.004265834798821327,29.206127389999892
1637,A,16620584904500.0,3.7124307698122325,8.858247,1.1813889,189,1970-01-01 04:37:00.584904500,0.03226153,1.3080184,2.4116874,9.100879025378408,2.74375455468875,-48.070945739746094,-71.82958221435547,83.41990661621094,29256075.0,49948.0,0.16826796012398137,-0.04751703084000002,0.05619775099220001,0.007374295054481162,-0.0013460140421816848,0.003141456687538017,29.256075009998312
1637,A,16620634852120.0,3.0564194698122327,8.549395,1.1454759,189,1970-01-01 04:37:00.634852120,-0.5909182,0.9660686,2.08039,8.947310630974505,2.3686484355212363,-48.57887268066406,-71.76066589355469,83.88479614257812,29306022.0,49947.0,0.16904188145926158,-0.05475085251300001,0.0581099580828,0.008423807328779117,-0.0025539869849161463,0.0028546635725845127,29.30602263000037
1637,A,16620684799740.0,2.4626575698122326,8.094497,0.96591073,189,1970-01-01 04:37:00.684799740,-0.38958317,0.61772716,1.5797157,8.676361695654247,1.7403630607937541,-49.33683776855469,-71.64830780029297,84.59506225585938,29355970.0,49948.0,0.13783342998758139,-0.073825841192,0.052729769697620006,0.007663904028073457,-0.0032110743485886705,0.002768111361588209,29.35597024999879
1637,A,16620734747360.0,2.7499616698122327,7.670723,0.81986445,189,1970-01-01 04:37:00.734747360,0.27407655,0.2917562,1.0076687,8.167807502744187,1.0842674229441889,-50.014373779296875,-71.5951156616211,85.25789642333984,29405917.0,49947.0,0.13017734658076158,-0.09576787833000003,0.044597056457729996,0.006693167128629512,-0.004235348754482667,0.0024305914929906333,29.40591787000085
1637,A,16620784694980.0,3.0372658698122326,9.571719,1.1143513,189,1970-01-01 04:37:00.784694980,0.694856,-0.01823573,0.46331865,9.929808854171448,0.835357153571127,-50.34114074707031,-71.66432189941406,85.60590362548828,29455865.0,49948.0,0.1445302205745814,-0.05887765349200005,0.048305104140499995,0.006860546782137535,-0.00386211751172263,0.002320138558780196,29.45586548999927
1637,A,16620834642600.0,3.7674973698122325,11.4559555,1.7105075,189,1970-01-01 04:37:00.834642600,0.32307872,-0.3719035,-0.25147378,11.702137701235477,0.5531104181414203,-50.24441909790039,-71.8510971069336,85.53135681152344,29505813.0,49948.0,0.1699421571463814,0.03565474296299996,0.07054802367120001,0.007853633161203325,-0.0005799689675512481,0.002968238013969396,29.505813110001327
1637,A,16620884590220.0,2.4913878698122325,13.323433,2.1965303,189,1970-01-01 04:37:00.884590220,-0.3586905,-0.7330282,-1.3976983,13.820062350254867,1.6185023183821456,-50.27627944946289,-71.9972915649414,85.5394515991211,29555760.0,49947.0,0.15630627053176158,0.12934745870474995,0.09757240849830001,0.008147565108620103,0.004120682483349553,0.004198555612785008,29.555760729999747
1637,A,16620934537840.0,2.3094285698122325,11.525388,3.8605006,189,1970-01-01 04:37:00.934537840,0.10043845,-0.79587877,-1.9026337,12.549793278767218,2.064830718279541,-49.819679260253906,-71.97325134277344,85.10067749023438,29605708.0,49948.0,0.11989558976318139,0.13108405565399994,0.1512682896966,0.006897865259005906,0.00650401663959542,0.0062145475967194325,29.605708349998167
1637,A,16620984485460.0,3.2958396698122328,10.330681,2.620304,189,1970-01-01 04:37:00.984485460,0.5126958,-0.7884219,-1.7407135,10.870058976911544,1.978522065790397,-49.446956634521484,-72.06964874267578,84.7624740600586,29655655.0,49947.0,0.13998316638226158,0.056341939171499954,0.16184837367809998,0.00649008211659822,0.0046806830817746215,0.007819618992788071,29.655655970000225
1637,A,16621034433080.0,4.220001569812233,7.44088,2.3018754,189,1970-01-01 04:37:01.034433080,0.57980746,-0.8842957,-1.4115467,7.882746508323914,1.7636948891435364,-48.81064987182617,-72.14918518066406,84.18073272705078,29705603.0,49948.0,0.1877006191183814,-0.04566343558600003,0.1229265083356,0.008183574859093058,0.00026668494854427513,0.007111967903410144,29.705603589998645
1637,A,16621084380700.0,4.892772219812232,5.535095,3.958663,189,1970-01-01 04:37:01.084380700,-0.6463119,-0.90347046,-1.1857107,6.826461874135563,1.6247731559416878,-48.827293395996094,-72.22355651855469,84.16427612304688,29755551.0,49948.0,0.22758241262208143,-0.16542840035000003,0.1563506860016,0.01037127843468632,-0.005271807510665665,0.006974668651377232,29.755551210000704
1637,A,16621134328320.0,1.3517478698122325,5.8990135,1.9403509,189,1970-01-01 04:37:01.134328320,-1.6945322,-0.6328933,-1.0450958,7.431238864451745,2.0890712140086007,-48.87901306152344,-72.28369903564453,84.12962341308594,29805498.0,49947.0,0.15594752245823656,-0.20393089137525,0.14731902363165,0.00957808483372832,-0.009224194271900531,0.007583695493525969,29.805498829999124
1637,A,16621184275940.0,1.8832605698122324,7.8909893,3.4103906,189,1970-01-01 04:37:01.184275940,0.25383654,-1.0068011,-1.138839,9.300648231735149,1.5411150871759647,-48.86781311035156,-72.35971069335938,84.13117980957031,29855446.0,49948.0,0.08079110077118139,-0.14509887007280003,0.133629418221,0.005912310376531484,-0.008716669262403602,0.007016406386828081,29.855446450001182
1637,A,16621234223560.0,2.1059213698122328,9.428067,4.1573815,189,1970-01-01 04:37:01.234223560,0.8514499,-0.9524726,-1.319934,10.827948465688387,1.8369531159822152,-48.80127716064453,-72.44072723388672,84.10604095458984,29905394.0,49948.0,0.09962582976018139,-0.05696428796380002,0.18899754042539998,0.004505732423090254,-0.005046325308806049,0.008057285665235194,29.905394069999602
1637,A,16621284171180.0,2.2471793698122324,10.991481,4.245967,189,1970-01-01 04:37:01.284171180,0.70550865,-0.8608599,-1.3540225,12.20626782661155,1.7527689959487194,-48.30409622192383,-72.32745361328125,83.66212463378906,29955341.0,49947.0,0.10871216132101158,0.020466981977999982,0.20986102376475,0.005202928820266173,-0.0009114654710363773,0.00996089435280271,29.955341689998022
1637,A,16621334117800.0,2.6781356698122325,12.09042,5.332935,189,1970-01-01 04:37:01.334117800,0.29857764,-0.6392849,-1.0685316,13.498518583143294,1.2804661536622277,-48.252403259277344,-72.38861846923828,83.62355041503906,30005288.0,49947.0,0.12300235514206156,0.08695525462349997,0.23921870909699997,0.005786722476890557,0.002682709225767559,0.011215092708622912,30.00528830999974
1637,A,16621384064420.0,1.9383273698122325,13.524546,6.015282,189,1970-01-01 04:37:01.384064420,-0.02845854,-0.10878321,-0.48370144,15.208963958730072,0.49659919284560794,-48.215824127197266,-72.4102783203125,83.58369445800781,30055234.0,49946.0,0.11528693148854176,0.150211745918,0.28339902314099996,0.0059507983550260565,0.005922771504522879,0.013051332627179571,30.05523493000146
1637,A,16621434011040.0,2.407590869812233,12.684181,4.614674,189,1970-01-01 04:37:01.434011040,0.15476695,0.7114704,0.38555434,13.832543603499719,0.823890215976193,-47.681640625,-72.2421875,83.07795715332031,30105181.0,49947.0,0.10853278915726158,0.16504304373449996,0.265467206166,0.00558956179354797,0.007873015489386709,0.013707110777598362,30.105181549999543
1637,A,16621483957660.0,3.518500369812233,11.307515,2.2587798,189,1970-01-01 04:37:01.483957660,-1.0617651,1.4081533,1.343227,11.688835337310955,2.2168670725616137,-47.5604133605957,-72.22496032714844,82.90985870361328,30155128.0,49947.0,0.1479952395727616,0.10967602005599998,0.1716541984743,0.006406402725489233,0.00686069653957205,0.010916451398784532,30.155128170001262
1637,A,16621533904280.0,3.6286336698122326,8.420108,2.7328317,189,1970-01-01 04:37:01.533904280,-1.4580435,1.3367807,2.1869166,9.034589962634804,2.948809539990723,-47.297874450683594,-72.02693939208984,82.59803009033203,30205074.0,49946.0,0.17848537837154174,0.0031871291789999953,0.1246555139895,0.008153200471923087,0.0028185314258456543,0.0073997424493584775,30.205074789999344
1637,A,16621583850900.0,1.5959563698122325,7.7281837,-0.5208885,189,1970-01-01 04:37:01.583850900,-1.6700311,0.5942913,2.6673508,8.644201554786317,3.2026467670480834,-47.5911979675293,-71.90860748291016,82.81868743896484,30255021.0,49947.0,0.13047629935456156,-0.08620123723005002,0.05523996350520001,0.00771585445869284,-0.0020731528274128977,0.004492619707213891,30.255021410001063
1637,A,16621633797520.0,4.140992869812233,9.025841,1.3226469,189,1970-01-01 04:37:01.633797520,1.7952741,-0.18867804,2.7142224,9.213335445741711,3.2596950368969817,-47.75122833251953,-71.97758483886719,83.08676147460938,30304968.0,49947.0,0.14327170183576157,-0.07107396415455004,0.020022713402400003,0.006836445707726535,-0.003927712241778309,0.0018795724617519487,30.304968029999145
1637,A,16621683744140.0,4.291827469812232,7.4073606,1.9403509,189,1970-01-01 04:37:01.683744140,1.1795514,0.38336897,2.3509672,7.741909964540812,2.6580745000614,-47.492271423339844,-71.92337036132812,82.91669464111328,30354914.0,49946.0,0.21059282234144175,-0.07908445644320004,0.08148684405939999,0.008837058762277299,-0.0037499062375876127,0.002534998178493531,30.354914650000865
1637,A,16621733690760.0,3.0779672698122327,7.256526,1.8086698,189,1970-01-01 04:37:01.733690760,0.7225529,0.2981478,1.6585454,7.840700224384771,1.833506926031208,-47.74359130859375,-71.74949645996094,83.20381164550781,30404861.0,49947.0,0.1840495689300116,-0.12327202799490004,0.09362616845145,0.00985560175841764,-0.0050535496641148925,0.004373184817939712,30.404861269998946
1637,A,16621783637380.0,2.7308080698122326,8.317158,0.93478614,189,1970-01-01 04:37:01.783637380,0.5244137,0.17990345,0.70300317,8.795056283474434,0.8953147139970622,-48.353660583496094,-71.73400115966797,83.8133773803711,30454807.0,49946.0,0.14506254655644177,-0.10054918946800005,0.06851232518962,0.0082189168600432,-0.0055894872637010035,0.004049084601698441,30.454807890000666
1637,A,16621833584000.0,2.8409412698122325,8.2477255,1.5596727,189,1970-01-01 04:37:01.833584000,0.5968517,0.045680135,-0.030964041,8.785127423736213,0.5993975294923711,-48.60487365722656,-71.69451141357422,84.07938385009766,30504754.0,49947.0,0.13914608213311158,-0.07579748191275007,0.06229536784074,0.00709768418857856,-0.004403993597727163,0.0032667259218936953,30.504754509998747
1637,A,16621883530620.0,3.7267959698122324,10.792762,1.4758757,189,1970-01-01 04:37:01.883530620,0.453041,-0.18228646,-0.5561394,11.02608098618272,0.7401118384492249,-48.55576705932617,-71.88351440429688,84.05062103271484,30554701.0,49947.0,0.1640193859537616,-0.013972985418750052,0.07580826796739999,0.007571102817267527,-0.002241882765903218,0.003448931148854584,30.554701130000467
1637,A,16621933477240.0,3.7579205698122324,11.760019,1.1574469,189,1970-01-01 04:37:01.933477240,-0.43219376,-0.3548593,-1.017399,11.935032662462215,1.1609553368585837,-48.608795166015625,-72.1416015625,84.07418060302734,30604647.0,49946.0,0.18691582614404176,0.07373979991299995,0.0657619652898,0.008763905051718441,0.0014925566583649024,0.0035354334351320547,30.60464774999855
