Subject-id_accel,Activity_accel,Timestamp_accel,accel_x,accel_y,accel_z,Segment_accel,DateTime,gyro_x,gyro_y,gyro_z,accel_magnitude,gyro_magnitude,Roll,Pitch,Yaw,Time_Difference,Difference_Microseconds,vx,vy,vz,dx,dy,dz,Time_diff
1650,A,359622816894000.0,5.0502279452314625,9.298285942098058,-1.4087853221426965,253,1970-01-05 03:53:42.816894,0.55606806,1.2048141,0.5400891,8.812044279541048,1.4326496218021292,-125.42708587646484,66.42939758300781,175.981201171875,15032654.0,40338.0,0.14893805331942672,-0.039656814529648546,0.053404772963367916,0.003347004937830474,-0.001965538395258915,0.006779745218317478,15.032654000038747
1650,A,359622857177000.0,4.532903705231462,11.602294942098059,-0.48430762214269585,253,1970-01-05 03:53:42.857177,-1.2676647,-0.0777643,0.3270362,6.498498792140363,1.311477698663237,-125.50498962402344,66.44497680664062,175.96539306640625,15072937.0,40283.0,0.19301864613779898,0.02619564987903606,-0.03812973153732423,0.006887520862117712,-0.00027112804781031136,0.00030766224688265895,15.07293700001901
1650,A,359622897514000.0,3.941333865231462,12.581857742098059,0.7850525778573036,253,1970-01-05 03:53:42.897514,-2.247708,0.48469532,0.0010652645,5.1036525544259295,2.2993742499389604,-125.66264343261719,66.43092346191406,175.91600036621094,15113274.0,40337.0,0.17091266043988146,0.09245548341120936,0.006065574639330067,0.007339948556711948,0.0023930153817643147,-0.0006466859483971952,15.113274000003003
1650,A,359622937826000.0,3.9533089652314617,10.675421942098058,1.7813809778573035,253,1970-01-05 03:53:42.937826,-1.9803267,1.1899004,-0.56885123,6.259084548532976,2.379316818442967,-126.2521743774414,66.38470458984375,175.4537811279297,15153586.0,40312.0,0.1591244208908107,0.0737161293146569,0.051729034748983625,0.006652227411301431,0.0033493550261025607,0.0011649081468308507,15.153586000029463
1650,A,359622978185000.0,4.882576565231462,7.583451942098058,1.9394520778573037,253,1970-01-05 03:53:42.978185,-1.6809874,0.55606806,-0.6828345,9.026163128682038,1.897681027122623,-126.34125518798828,66.3407211303711,175.4482879638672,15193945.0,40359.0,0.17830375206197657,-0.027063254453864493,0.07508455064779292,0.006809131816100771,0.0009414316882533604,0.002559034746514252,15.193945000006352
1650,A,359623018459000.0,4.238316265231462,5.521339942098059,3.1633071778573036,253,1970-01-05 03:53:43.018459,-1.3550164,-0.09054748,-0.15659387,10.965198322158026,1.3670369162992224,-126.39010620117188,66.33712768554688,175.4689483642578,15234219.0,40274.0,0.1836674189270319,-0.1307940058279428,0.10275426313232504,0.007289013470205662,-0.003178771650294753,0.0035811401930902352,15.2342190000345
1650,A,359623058731000.0,2.659998365231462,4.228029942098059,4.001564067857304,253,1970-01-05 03:53:43.058731,-0.74781567,-0.21944448,0.10439592,12.496664593040071,0.7863095218885917,-126.4144058227539,66.34782409667969,175.48321533203125,15274491.0,40272.0,0.13890446339900145,-0.198352288011827,0.14427184740370935,0.006495307422517008,-0.006627689772757604,0.004974117761753589,15.274490999989212
1650,A,359623099020000.0,1.9151472652314618,4.642367942098058,1.0173695778573038,253,1970-01-05 03:53:43.099020,0.5581986,0.37284255,0.32277513,12.598633894626202,0.7448362428607911,-126.47247314453125,66.41313934326172,175.3946075439453,15314780.0,40289.0,0.09216402115286036,-0.21614246982181132,0.1011039088260979,0.00465475908705498,-0.008349789649179727,0.0049429719213713525,15.314780000015162
1650,A,359623139261000.0,2.691133465231462,3.8448259420980584,-1.2650842221426961,253,1970-01-05 03:53:43.139261,1.6053536,0.6870956,0.4293016,13.821358220188051,1.7982103348426401,-126.48470306396484,66.40998077392578,175.29368591308594,15355021.0,40241.0,0.09268067143727926,-0.22359521545303204,-0.004984142500344237,0.0037191676372599044,-0.008847742096572485,0.0019339777583573267,15.355021000024863
1650,A,359623179583000.0,3.289888665231462,7.482860942098059,0.43298487785730355,253,1970-01-05 03:53:43.179583,1.123854,-0.10013486,0.24181503,9.779390911142128,1.1539277760055524,-126.94366455078125,66.43682098388672,174.82025146484375,15395343.0,40322.0,0.120583387172263,-0.1667781047277221,-0.0167759548801378,0.004299616685626981,-0.007870316508164183,-0.00043870532328789825,15.395343000011053
1650,A,359623219842000.0,3.239592965231462,7.260124942098059,2.0831532778573036,253,1970-01-05 03:53:43.219842,0.4857606,0.20133498,0.15339808,9.565917791478896,0.5477500393716525,-126.95111846923828,66.59388732910156,174.78610229492188,15435602.0,40259.0,0.1314352004804034,-0.09776926564407427,0.05064860300545719,0.0050730081601543485,-0.005325206291899076,0.0006818394704386167,15.4356020000414
1650,A,359623260107000.0,3.5150203652314618,7.554711942098059,2.617242777857304,253,1970-01-05 03:53:43.260107,0.2247708,-0.05219796,0.025566347,9.13758985632354,0.2321641179418689,-126.83529663085938,66.81619262695312,174.88265991210938,15475867.0,40265.0,0.1359872528755448,-0.09633729642892168,0.09463072359167435,0.005383882542188628,-0.003907850360934591,0.0029248360427167512,15.475867000001017
1650,A,359623300392000.0,3.7521272652314623,10.08145744209806,2.5741323778573038,253,1970-01-05 03:53:43.300392,0.42717105,-0.10865697,0.20559604,6.6650515312750285,0.4863652688580518,-126.77786254882812,66.93994903564453,174.91514587402344,15516152.0,40285.0,0.14637852114659947,-0.039556458178829704,0.1045672740739815,0.005687552603241041,-0.0027372399521866323,0.0040123456679804735,15.51615199999651
1650,A,359623340646000.0,4.358067265231462,11.087365442098058,2.5693423778573035,253,1970-01-05 03:53:43.340646,0.93636745,0.4676511,0.24394555,5.56667739887984,1.0747050684329702,-126.98756408691406,67.07911682128906,174.66883850097656,15556405.999999998,40253.99999999814,0.16323388531461971,0.031575698190213775,0.1035227164082631,0.00623156890484467,-0.0001606287562908654,0.004188227238435944,15.556405999988783
1650,A,359623380945000.0,4.338907065231462,10.92929394209806,2.3801356778573037,253,1970-01-05 03:53:43.380945,1.2623384,0.5773733,0.16085494,5.764974164410892,1.3974020450070386,-127.26547241210938,67.18865966796875,174.34378051757812,15596705.0,40299.00000000186,0.17523968427167078,0.048694478261861886,0.09972950808362609,0.006820073190379275,0.001617403920421173,0.00409543069739951,15.59670500003267
1650,A,359623421240000.0,3.802422765231462,9.856325442098058,1.8484413778573037,253,1970-01-05 03:53:43.421240,1.4913702,0.46871635,0.15446335,7.031489584641541,1.570903885251604,-127.51922607421875,67.22087860107422,174.03207397460938,15637000.0,40295.0,0.16402744275925174,0.023887266543091243,0.08519525623001005,0.006835384441855511,0.0014623407034577932,0.0037257716890089837,15.636999999987893
1650,A,359623461506000.0,3.440774665231462,7.569081942098059,1.297586977857304,253,1970-01-05 03:53:43.461506,1.8546255,1.1323761,0.11504856,9.401822435043492,2.17603941790114,-127.82733917236328,67.26740264892578,173.6436767578125,15677266.0,40266.0,0.14582729386751006,-0.043781073133979616,0.0633389888856022,0.006238305412506595,-0.00040052200809435564,0.0029904399569126217,15.677266000013333
1650,A,359623501769000.0,3.325813665231462,4.395680942098059,-1.286639122142696,253,1970-01-05 03:53:43.501769,1.9920446,0.88843054,0.17150758,13.211976032710634,2.1879134724187126,-127.82400512695312,67.24695587158203,173.539306640625,15717529.0,40263.0,0.13622157297471435,-0.15370877599680588,0.00022039675731862853,0.005678066762834241,-0.003975766897776408,0.0012795457720704605,15.71752900001593
1650,A,359623542087000.0,2.585752665231462,3.9310469420980585,-5.9401626221426955,253,1970-01-05 03:53:43.542087,1.2197278,-1.3028184,0.5273059,16.08265973024953,1.8609468562122375,-127.6785888671875,67.30767822265625,173.63084411621094,15757847.0,40318.0,0.11917126565580209,-0.2272578925824905,-0.14568509636304922,0.0051484642339525806,-0.007679907071890036,-0.002932422879351923,15.75784700002987
1650,A,359623582394000.0,1.618164665231462,1.5480029420980586,-1.2842446221426966,253,1970-01-05 03:53:43.582394,-0.15339808,-0.98750013,0.6466155,16.166004312672133,1.1902936959162447,-128.01856994628906,67.36528778076172,173.33163452148438,15798154.0,40307.0,0.08472364791948454,-0.2845865681588536,-0.14559709139770566,0.00410919614073954,-0.010315457339550678,-0.005870355571036373,15.798154000018258
1650,A,359623622688000.0,2.154649265231462,6.053033942098059,2.085548377857304,253,1970-01-05 03:53:43.622688,-0.72651035,1.1004182,0.13635385,11.004619186273132,1.3256431933058703,-127.92640686035156,67.41114044189453,173.4319610595703,15838448.0,40294.0,0.07601088225703655,-0.24174310989410086,0.016143866766382194,0.0032383185794663707,-0.010603964023732875,-0.0026080941166472743,15.838448000024073
1650,A,359623662924000.0,-0.4870573347685383,7.154743942098058,6.358263377857304,253,1970-01-05 03:53:43.662924,-1.3965617,-0.068176925,-0.57311225,11.307198244719467,1.511122207536309,-127.94744110107422,67.39064025878906,173.4847869873047,15878684.0,40236.0,0.0335486144570531,-0.12859872452574253,0.16987260490146647,0.0022041179548940555,-0.007450537024858409,0.0037422793770137794,15.878683999995701
1650,A,359623703210000.0,-0.676264034768538,9.324630942098059,5.881654577857304,253,1970-01-05 03:53:43.703210,-1.5403724,-1.6149409,-0.5123922,9.620262391071323,2.2898312181895437,-127.83352661132812,67.42001342773438,173.6916046142578,15918970.0,40286.0,-0.02343278234658533,-0.06285875170763765,0.24654866738195935,0.00020376320620115235,-0.003856527943768977,0.008387973687605048,15.918969999998808
1650,A,359623743401000.0,3.366529165231462,11.137660942098059,-0.03164902214269638,253,1970-01-05 03:53:43.743401,-0.6327671,0.21198763,0.09054748,6.845349001092217,0.6734476997137768,-127.8919677734375,67.41705322265625,173.66256713867188,15959161.0,40191.0,0.05406222292921769,0.017328186558863052,0.1175587866448629,0.0006155139232282886,-0.0009149594719471999,0.007316921342396006,15.959161000035238
1650,A,359623783692000.0,4.393992565231462,12.32319594209806,0.13839737785730355,253,1970-01-05 03:53:43.783692,-1.7108147,0.5390238,0.36325517,5.584569786643623,1.830133304771611,-128.0554656982422,67.414794921875,173.57814025878906,15999452.0,40291.0,0.15633959052104085,0.07777889236057288,0.002150499000048619,0.004238649732862184,0.0019159796583714966,0.002411603413959565,15.99945200001821
1650,A,359623823945000.0,3.869483165231462,15.98518057209806,-4.895933622142696,253,1970-01-05 03:53:43.823945,-2.7526433,-1.1515509,-0.025566347,8.853597619535682,2.9839182714050034,-128.08213806152344,67.44929504394531,173.6983184814453,16039705.000000002,40253.00000000186,0.16631484428916976,0.1752691399129763,-0.09575255322061438,0.006493904482208004,0.005092971221553823,-0.001883881744270304,16.03970500000287
1650,A,359623864435000.0,4.587989125231462,11.226276642098059,-2.1464516221426964,253,1970-01-05 03:53:43.864435,-1.824798,0.20240025,-0.99921805,7.928569333697659,2.0902847445862167,-128.118408203125,67.40375518798828,173.7578582763672,16080195.0,40489.99999999814,0.17122152652041403,0.15409395130139333,-0.1425730892705512,0.006833423827039709,0.006667955781634607,-0.004824902632233425,16.080194999987725
1650,A,359623904691000.0,6.508794865231462,6.6925039420980585,2.7657338778573037,253,1970-01-05 03:53:43.904691,-2.1007016,0.19068234,-1.7907095,9.808201528477149,2.7669382863411838,-128.10887145996094,67.32740020751953,173.8819580078125,16120451.0,40256.0,0.22335606816003775,-0.03383958440130058,0.012464913243023618,0.007942057825728134,0.002420479896965067,-0.002618817367082075,16.120450999995228
1650,A,359623944979000.0,4.116170265231462,3.9023069420980594,4.997892177857304,253,1970-01-05 03:53:43.944979,-2.0176108,-0.6849651,-0.89801794,12.62678750580582,2.3122211721754673,-128.0789794921875,67.31319427490234,174.02371215820312,16160739.0,40288.0,0.21402929758804512,-0.1814005295487534,0.15639048326631505,0.00881069080762938,-0.004335796855409887,0.003401423107284118,16.160739000013564
1650,A,359627209846000.0,4.825096105231462,11.05383524209806,-4.637271622142697,253,1970-01-05 03:53:47.209846,1.5052186,-0.058589544,0.5091964,10.005048383352687,1.5900933124269936,-128.03575134277344,67.33503723144531,173.98899841308594,19425606.0,3264867.0,14.596022755567088,-7.580789067755087,0.5886890759371419,24.17642510831422,-12.6712583319903,1.2162928326089564,19.425606000004336
1650,A,359627250152000.0,4.652654665231462,9.767709542098059,-1.4902162221426964,253,1970-01-05 03:53:47.250152,-0.113983296,-0.53476274,0.013848438,8.519632121455675,0.5469507830640441,-127.99201202392578,67.35205841064453,174.04257202148438,19465912.0,40306.0,0.19100511127713932,0.02461779203590436,-0.12348726252588353,0.29800297260051173,-0.15227951971956868,0.009375212145677091,19.465912000043318
1650,A,359627290448000.0,4.683789965231462,7.3678999420980595,2.3011000778573036,253,1970-01-05 03:53:47.290448,-1.0982877,-0.1587244,-0.38456047,9.186511723345765,1.1744428731161303,-128.0035400390625,67.34178161621094,174.08953857421875,19506208.0,40296.0,0.188110686414567,-0.049652540112416634,0.016337687924937904,0.007638425091892499,-0.0005044001042455693,-0.0021588496290598524,19.506208000006154
1650,A,359627330899000.0,4.5592489052314615,6.124884942098058,3.146542077857304,253,1970-01-05 03:53:47.330899,-0.74461985,-0.07456851,-0.19707392,10.333728274889916,0.7738587168481137,-128.01922607421875,67.33631896972656,174.11289978027344,19546659.0,40451.0,0.18694508267454787,-0.12352147932469146,0.1101812864204058,0.007585690457711893,-0.0035025311301252297,0.002558909515621749,19.54665900004329
1650,A,359627371263000.0,3.711411965231462,4.960904942098059,1.769405677857304,253,1970-01-05 03:53:47.371263,0.28122982,0.26738137,0.029827405,11.749712009526487,0.38919491616585045,-128.18980407714844,67.56690216064453,173.93801879882812,19587023.0,40364.0,0.1669184776876827,-0.17183378855715398,0.09921365760583221,0.0071416743752305365,-0.005960860016391404,0.004226008760337535,19.587023000000045
1650,A,359627411525000.0,3.651536465231462,5.796767942098059,-4.172637822142696,253,1970-01-05 03:53:47.411525,0.80107886,0.13422333,0.19707392,13.388272522780378,0.835811804295294,-128.17727661132812,67.57048034667969,173.908203125,19627285.0,40262.0,0.1482235148536491,-0.17800488716824797,-0.048379466296609226,0.00634412345184955,-0.007042602381028066,0.0010233431052459679,19.627284999995027
1650,A,359627451843000.0,2.973745765231462,2.767066942098058,-3.897210622142696,253,1970-01-05 03:53:47.451843,-0.38136467,-0.7094661,0.23542345,15.852478153148226,0.8391694461688423,-128.14634704589844,67.60164642333984,173.96226501464844,19667603.0,40318.0,0.1335590644839021,-0.2224780525694905,-0.1626800747883492,0.005680455016865695,-0.00807333558217307,-0.004254749288731677,19.667603000008967
1650,A,359627492209000.0,2.940215665231462,6.136859942098059,3.2303677278573035,253,1970-01-05 03:53:47.492209,-2.2913837,-0.09161274,-0.20559604,10.5888110244014,2.3024121886447,-128.23675537109375,67.59638977050781,173.9884033203125,19707969.0,40366.0,0.1193614835510332,-0.21587884369626978,-0.013458890135362073,0.005104695420989099,-0.008847357237331838,-0.0035550127290552647,19.707969000039157
1650,A,359627532433000.0,1.522364165231462,6.340435942098059,5.388280477857304,253,1970-01-05 03:53:47.532433,-2.4586303,0.24394555,-0.69987875,10.931106756661782,2.567917959776841,-128.33035278320312,67.5613784790039,174.02015686035156,19748193.0,40224.0,0.08975140555027034,-0.1432518251770477,0.17333825271333217,0.004205678425605417,-0.007222836012380161,0.0032154937401681345,19.748193000035826
1650,A,359627572786000.0,2.494741865231462,7.542735942098059,4.827845877857303,253,1970-01-05 03:53:47.572786,-1.4231933,0.3472762,-0.49002165,9.406735738166311,1.54473335748279,-128.39767456054688,67.53138732910156,174.02432250976562,19788546.0,40353.0,0.08105113982363518,-0.11534558247851705,0.20612567341607577,0.0034461975567366045,-0.005217590595562502,0.00765625390555,19.788546000025235
1650,A,359627613031000.0,3.7162019652314617,9.61682344209806,3.117801777857304,253,1970-01-05 03:53:47.613031,-0.47191215,0.29507825,-0.09161274,7.0427415995002045,0.5640612954910065,-128.1316680908203,67.70258331298828,174.2887420654297,19828791.0,40245.0,0.12497971722849019,-0.049107766291513644,0.1598862949521172,0.004145855921031393,-0.003309212510624943,0.007365075833488963,19.828791000007186
1650,A,359627653345000.0,5.004722565231462,10.510165542098058,2.7274135778573037,253,1970-01-05 03:53:47.653345,-0.5603291,-0.27164245,-0.094808534,6.001637424068686,0.629878543108147,-128.12649536132812,67.707275390625,174.3246307373047,19869105.0,40314.0,0.17578767576054116,0.01062251695444111,0.11782200592513935,0.006062568340479905,-0.0007757471708873711,0.005597766220782861,19.869104999990668
1650,A,359627693603000.0,5.627427665231462,11.331657242098059,0.7754726778573038,253,1970-01-05 03:53:47.693603,-0.58269966,-0.47510794,-0.26418558,5.896671746585948,0.7969068133069861,-128.0901641845703,67.71153259277344,174.39540100097656,19909363.0,40258.0,0.2140145519889882,0.045125650823083605,0.07050959744127934,0.007846329042370277,0.001122154869193795,0.003790926844162642,19.9093630000134
1650,A,359627733872000.0,6.338748465231462,10.69697744209806,-1.7656430221426964,253,1970-01-05 03:53:47.733872,0.22264028,0.737163,-0.33768883,8.005396819437976,0.8408398948398247,-128.1243133544922,67.67549133300781,174.346435546875,19949632.0,40269.0,0.24093297329880572,0.048899345048946725,-0.019936584797014236,0.009160140947907087,0.0018931462793853949,0.0010182623230859556,19.949632000003476
1650,A,359627774162000.0,6.575855465231462,8.46002894209806,-1.162098322142696,253,1970-01-05 03:53:47.774162,0.16085494,0.6988135,-0.43249738,9.41723363988135,0.8374178187807553,-128.150634765625,67.63688659667969,174.30926513671875,19989922.0,40290.0,0.2601646961791756,-0.008924106390369205,-0.05897934938062923,0.010094612551633932,0.0008053011827770442,-0.0015897614940086275,19.98992200003704
1650,A,359627814415000.0,4.386807565231462,6.649393942098058,0.674881777857304,253,1970-01-05 03:53:47.814415,-0.57417756,-0.49641323,-0.28655612,10.293754087967526,0.8113078178077917,-128.1103973388672,67.6409683227539,174.38385009765625,20030175.0,40253.0,0.22064003748261202,-0.09037960032122686,-0.009805963778559941,0.009676916472043967,-0.0019986360531309383,-0.0013844076052984208,20.0301750000217
1650,A,359627854714000.0,3.170137665231462,4.735772942098059,0.7515223778573037,253,1970-01-05 03:53:47.854714,-0.19068234,-0.06924219,0.11824436,12.273977133577036,0.23481048600026638,-128.4163818359375,67.76398468017578,174.10919189453125,20070474.0,40299.0,0.15226866792121269,-0.16552477986689038,0.02874133053557149,0.0075139239595343665,-0.005156345308600469,0.0003815381724704042,20.07047400000738
1650,A,359627895025000.0,3.321023665231462,4.742957942098059,-2.771551622142696,253,1970-01-05 03:53:47.895025,0.67537767,0.5486112,0.24074976,13.552200218552743,0.9028121027324161,-128.45347595214844,67.75637817382812,174.0326385498047,20110785.0,40311.0,0.13083260219614548,-0.20399923966358519,-0.040714699433194224,0.005706047649850413,-0.0074479413756465,-0.00024132923681603502,20.110785000026226
1650,A,359627935276000.0,2.964165865231462,2.831732942098059,-0.9058312221426963,253,1970-01-05 03:53:47.935276,0.8447547,0.36964676,0.27057716,14.577911848809576,0.9609689016114169,-129.0140838623047,67.8120346069336,173.4658966064453,20151036.0,40251.0,0.12649258189533158,-0.2420153586101111,-0.07400916843266567,0.005178797992433023,-0.008976266797557276,-0.0023088752027343633,20.151035999995656
1650,A,359627975574000.0,1.309207165231462,6.36438694209806,2.672328177857304,253,1970-01-05 03:53:47.975574,0.19600865,-0.2759035,0.32490566,10.930531748708106,0.4691543670127223,-128.38841247558594,67.8471450805664,174.0364532470703,20191334.0,40298.0,0.08610419319079746,-0.20962778045333244,0.03559314716069363,0.004283612421210414,-0.009100157608989324,-0.0007740444126089646,20.19133400003193
1650,A,359628015826000.0,3.086311765231462,7.777447942098059,3.7716421808573037,253,1970-01-05 03:53:48.015826,0.22903186,0.9033443,0.28442562,8.950392216098876,0.9743636131085428,-128.4855194091797,67.83019256591797,173.91921997070312,20231586.0,40252.0,0.0884642139944968,-0.10985103112066896,0.1296913474394902,0.0035133637630112326,-0.006429830561738352,0.0033265157383233004,20.231586000008974
1650,A,359628056145000.0,3.292283465231462,9.123448942098058,4.231485947857304,253,1970-01-05 03:53:48.056145,0.30786142,0.38562572,0.029827405,7.613072774903086,0.4943435282664969,-128.50941467285156,67.81934356689453,173.8767547607422,20271905.0,40319.0,0.1285892905485173,-0.05441256926304842,0.16133906151082214,0.004375690124834893,-0.0033114720519355502,0.005867027529233822,20.27190500003053
1650,A,359628096447000.0,2.961770665231462,6.850575942098059,4.475777937857304,253,1970-01-05 03:53:48.096447,0.2790993,-0.5070659,-0.017044231,9.900654376886536,0.5790533239812041,-128.44546508789062,67.83447265625,173.93075561523438,20312207.0,40302.0,0.12602544478295838,-0.07306702455856406,0.17546007456103502,0.005130741531664567,-0.0025688412950993127,0.006786839390983994,20.312207000039052
1650,A,359628136696000.0,3.105472065231462,8.23489694209806,3.1824673778573036,253,1970-01-05 03:53:48.136696,1.180313,-0.330232,0.3334278,8.527477156234495,1.2701834708442084,-127.92565155029297,68.02246856689453,174.35877990722656,20352456.0,40249.0,0.12210022632920112,-0.09085260094199525,0.15411835785609862,0.004993405068296654,-0.0032988005033860062,0.006632601163178606,20.352455999993253
1650,A,359628177025000.0,3.5629207652314623,9.892250942098059,2.0232778778573035,253,1970-01-05 03:53:48.177025,2.1177456,0.29294774,0.6327671,7.0139920653821,2.2295871832096807,-128.00807189941406,68.03890228271484,174.17254638671875,20392785.0,40329.0,0.13446480722986962,-0.029699326489127403,0.10497125020885718,0.005173505619201882,-0.0024308693406848727,0.0052244124018258,20.392785000032745
1650,A,359628217340000.0,3.668301565231462,12.91716034209806,-1.2938241221426958,253,1970-01-05 03:53:48.217340,2.1092236,-0.24501082,0.71798825,6.431962341772083,2.241508782907641,-127.93346405029297,68.0747299194336,174.1392822265625,20433100.0,40315.0,0.1457633641263064,0.06469370796118322,0.014703964080817204,0.005648699364112117,0.000705399244522965,0.002412353132044111,20.433100000023842
1650,A,359628257645000.0,4.762825565231462,11.49451854209806,-4.1702426221426965,253,1970-01-05 03:53:48.257645,1.160073,-1.1739215,0.30360037,9.381781828198754,1.6781043585413236,-127.78337860107422,68.12275695800781,174.23854064941406,20473405.0,40305.0,0.16990828949665407,0.09696735871376226,-0.11011460506421138,0.0063615729996367104,0.003257874646166839,-0.0019227629424178512,20.473404999997
1650,A,359628297928000.0,3.857508165231462,9.26715064209806,-0.8315853221426961,253,1970-01-05 03:53:48.297928,-0.51771855,-1.1483551,-0.21518342,8.656113642813986,1.2779107312144338,-127.6797103881836,68.14939880371094,174.37815856933594,20513688.0,40283.0,0.173626451832119,0.023397759873486107,-0.10074431753982423,0.006919304992473482,0.002424334036025063,-0.004247014989629183,20.513688000035472
1650,A,359628338208000.0,2.698318665231462,5.9859739420980596,2.487911677857304,253,1970-01-05 03:53:48.338208,-1.490305,-0.5305017,-0.39521313,10.859615589262194,1.6305319576298671,-127.42863464355469,68.29084777832031,174.69276428222656,20553968.0,40280.0,0.1320343523655233,-0.0875460708742902,0.033358412804092206,0.006156008596540517,-0.0012919469835561946,-0.001357152121377643,20.553967999992892
1650,A,359628378535000.0,3.6539314652314623,1.7180479420980586,0.06894187785730388,253,1970-01-05 03:53:48.378535,-1.1227888,0.13635385,-0.67963874,15.255175734417199,1.3195286577880945,-127.44654083251953,68.25973510742188,174.7339324951172,20594295.0,40327.0,0.12808359550558918,-0.2398645547380116,0.0515551166706515,0.0052448882418991765,-0.006601744149533648,0.0017121539515639948,20.594295000017155
1650,A,359628418835000.0,3.627586265231462,2.6137859420980583,-4.048097022142696,253,1970-01-05 03:53:48.418835,-1.3230585,-0.5113269,-0.5273059,15.967579446744661,1.513271457888726,-127.4216079711914,68.25433349609375,174.83200073242188,20634595.0,40300.0,0.14672258226882795,-0.3076535472334483,-0.08017997615735066,0.005537344482154505,-0.011032489754724917,-0.0005767909186569881,20.63459500001045
1650,A,359628459125000.0,2.549827665231462,4.860314942098059,2.703463377857304,253,1970-01-05 03:53:48.459125,-2.433064,-0.6530071,-0.13848437,11.957013022580222,2.5229737655157467,-127.16474151611328,68.44530487060547,175.19491577148438,20674885.0,40290.0,0.1244440036291756,-0.24427623768786924,-0.027087644764129223,0.005462650872915282,-0.01111862551723994,-0.002160906223463212,20.674884999985807
1650,A,359628499427000.0,2.717478665231462,7.42298494209806,4.384767177857304,253,1970-01-05 03:53:48.499427,-2.5246768,-0.31638354,-0.6018744,9.41335024915678,2.6146403734006194,-127.21304321289062,68.4308853149414,175.27870178222656,20715187.0,40302.0,0.10614148986515838,-0.14743882403356404,0.14283493392820507,0.004646528279404324,-0.007893450208748602,0.0023324236239452923,20.71518699999433
1650,A,359628539640000.0,-0.26671583476853833,8.651630642098059,6.806132177857304,253,1970-01-05 03:53:48.539640,-1.9590213,0.12144015,-0.7978831,10.116070200965055,2.1187566177244905,-127.26219177246094,68.39542388916016,175.33116149902344,20755400.0,40213.0,0.04927626285070278,-0.07088314175636076,0.22500981789567576,0.0031249070449814627,-0.004389690605155123,0.007396070502546859,20.755400000023656
1650,A,359628579945000.0,-0.3816763347685379,6.247030942098059,5.927159877857304,253,1970-01-05 03:53:48.579945,-0.9821738,0.39521313,-0.5656554,11.923742248137716,1.2003436270835102,-127.30776977539062,68.36096954345703,175.33499145507812,20795705.0,40305.0,-0.01306672319659593,-0.09474372242448777,0.2566076681527886,0.0007297127478793883,-0.0033377953804045505,0.009705796387591678,20.795704999996815
1650,A,359628620252000.0,2.382176165231462,6.757169942098059,1.2185512778573035,253,1970-01-05 03:53:48.620252,0.294013,-0.22690132,-0.11824436,10.453586574649892,0.38975579772282026,-127.3195571899414,68.33478546142578,175.3150177001953,20836012.0,40307.0,0.040317073333234546,-0.13292843748035357,0.14401108977669436,0.0005491899314787464,-0.00458839087464222,0.008073870137931836,20.836011999985203
1650,A,359628660541000.0,5.093338285231462,9.006093342098058,-3.734349222142696,253,1970-01-05 03:53:48.660541,0.8852348,-0.060720075,-0.04580637,10.557540143296816,0.8884963715016637,-127.26571655273438,68.33479309082031,175.3253173828125,20876301.0,40289.0,0.15059050084735037,-0.07728914277151133,-0.05067949168865709,0.0038457376280807924,-0.004234728045383693,0.0018801183776844665,20.876301000011154
1650,A,359628700850000.0,6.745901765231462,9.918595942098058,-1.8566541221426967,253,1970-01-05 03:53:48.700850,0.3057309,1.0833739,-0.33662358,8.68489075135521,1.1749407751150849,-127.3331298828125,68.28858184814453,175.236328125,20916610.0,40309.0,0.23861396359705497,-0.013610549821669402,-0.11268387690239995,0.007844221378644768,-0.001832037854369261,-0.003292507012268459,20.91661000001477
1650,A,359628741147000.0,5.148423735231462,12.82375464209806,2.717833577857304,253,1970-01-05 03:53:48.741147,-1.176052,0.21411815,-0.41545314,3.747101421691414,1.2655221058516846,-127.38166809082031,68.26559448242188,175.24737548828125,20956907.0,40297.0,0.2396528173460772,0.06331365074567544,0.017351474263465765,0.009636358235832698,0.0010014429289673357,-0.0019208049145705652,20.95690699998522
1650,A,359628781433000.0,4.9951424952314625,11.837006342098059,3.5105850478573037,253,1970-01-05 03:53:48.781433,-1.2154667,-0.60080916,-0.55606806,4.595030625520659,1.4654496350611845,-127.34022521972656,68.2616958618164,175.35740661621094,20997193.0,40286.0,0.20432185458021468,0.10193890850466239,0.12545903637776934,0.008942981816611299,0.003328682300979555,0.0028766321158463985,20.99719299998833
1650,A,359628821863000.0,4.599964265231462,7.353529942098058,2.722623577857304,253,1970-01-05 03:53:48.821863,-0.13528858,-0.13102753,-0.5091964,9.14954321253893,0.5429108465201974,-127.29524993896484,68.24544525146484,175.4131317138672,21037623.0,40430.0,0.193965083162758,-0.008277309014975521,0.1260043123688208,0.008051370446474193,0.0018933692336840203,0.00508333159491232,21.037623000040185
1650,A,359628862161000.0,4.645469665231462,3.6125089420980583,0.3874793778573036,253,1970-01-05 03:53:48.862161,0.9321064,0.5230448,0.011717909,13.256683560548355,1.0688945285290463,-127.3016357421875,68.23005676269531,175.35604858398438,21077921.0,40298.0,0.18628624826489742,-0.1739656825223325,0.06266546445469362,0.0076616840769358294,-0.0036720140364852193,0.0038015073332169917,21.07792100001825
1650,A,359628902425000.0,1.563079365231462,5.997948942098059,-1.425550622142696,253,1970-01-05 03:53:48.902425,1.2314457,0.24927188,0.35899413,12.283905224682185,1.3067026316579,-127.2921142578125,68.23676300048828,175.29998779296875,21118185.0,40264.0,0.1249905090812796,-0.2011094618753638,-0.02089845028995352,0.006266623678893236,-0.007551012807014422,0.0008408535291645477,21.11818500002846
1650,A,359628942794000.0,1.8385066652314621,2.594625942098059,3.4842398278573037,253,1970-01-05 03:53:48.942794,1.3464943,0.55606806,0.16831179,14.28233251684141,1.4664881335822864,-127.29298400878906,68.22663116455078,175.22659301757812,21158554.0,40369.0,0.06865931323187889,-0.2221793722499435,0.0415536122727465,0.0039087248384799475,-0.008543873472402265,0.000416914117041685,21.158554000023287
1650,A,359628983042000.0,-3.2988103347685387,5.56684494209806,7.440812177857303,253,1970-01-05 03:53:48.983042,1.0610034,-0.47191215,0.3898868,14.423686604063194,1.2249248993074728,-127.22247314453125,68.25643920898438,175.24542236328125,21198802.0,40248.0,-0.02938715104576413,-0.23018895992643734,0.21985574656300075,0.0007903129918333734,-0.009103460316717488,0.0052606019372105775,21.19880200002808
1650,A,359629023399000.0,0.6984776652314624,5.257887942098058,3.831517672857304,253,1970-01-05 03:53:49.023399,1.9675435,0.38456047,0.535828,12.12995807002307,2.075144772073233,-127.203125,68.26612854003906,175.16030883789062,21239159.0,40357.0,-0.05247081277225389,-0.17707172749624864,0.2274587078926447,-0.0016517709229018766,-0.008217909781158668,0.00902613471923324,21.23915899998974
1650,A,359629063679000.0,2.940215665231462,9.20008994209806,0.11923727785730387,253,1970-01-05 03:53:49.063679,2.5715485,0.76485986,0.7052051,8.476908678638281,2.774019921766511,-127.20445251464844,68.27108001708984,175.02047729492188,21279439.0,40280.0,0.07328328367552331,-0.10356032541229021,0.0795682047073922,0.0004191631639918461,-0.005651929545577973,0.006183522019764744,21.279439000005368
1650,A,359629103981000.0,3.323418865231462,9.69346394209806,-0.45317262214269594,253,1970-01-05 03:53:49.103981,1.3464943,0.11824436,0.6359629,8.229184765423234,1.4938130534912022,-127.19725036621094,68.2928695678711,174.95578002929688,21319741.0,40302.0,0.12621849942335836,-0.01423559567956402,-0.006729131122694935,0.004020160431225564,-0.0023737056059219544,0.0014677801718052344,21.31974100001389
1650,A,359629144248000.0,4.092220065231462,10.251503942098058,1.7861707778573037,253,1970-01-05 03:53:49.144248,0.6412892,0.3334278,0.5134575,6.616171978762805,0.8866028085652166,-127.67507934570312,68.32365417480469,174.47134399414062,21360008.0,40267.0,0.14930276640647527,0.006945410896462499,0.026837918368080055,0.005547207405584955,-0.00014677693533057446,0.00040486026800496126,21.36000799998874
1650,A,359629184549000.0,3.855113165231462,11.175981342098058,3.132171937857304,253,1970-01-05 03:53:49.184549,0.25992453,-0.33768883,0.20559604,5.513484313127934,0.47314293703506916,-127.302490234375,68.42926788330078,174.80821228027344,21400309.0,40301.0,0.16014273826044315,0.03682474221919381,0.09910706489300719,0.00623548164179074,0.0008819904703570324,0.0025378543852025382,21.400308999989647
1650,A,359629224832000.0,3.103076865231462,10.605966342098059,3.989588977857304,253,1970-01-05 03:53:49.224832,0.406931,-0.27057716,-0.03834952,6.270406288360696,0.49017907335880423,-127.2519760131836,68.43594360351562,174.84066772460938,21440592.0,40283.0,0.140148384498569,0.04394769928123607,0.14344294748386577,0.0060483136490506436,0.0016268781304809084,0.004885321074288787,21.44059200002812
1650,A,359629265117000.0,3.016856165231462,8.845626942098058,3.690211517857304,253,1970-01-05 03:53:49.265117,0.8085357,0.19600865,-0.19068234,7.949358942776996,0.8535274593340205,-127.21670532226562,68.42241668701172,174.8351287841797,21480877.0,40285.0,0.12327075106609946,-0.0029892822730797556,0.15469038148493147,0.005305919938111334,0.0008250049145867885,0.006005150578753999,21.48087700002361
1650,A,359629305403000.0,3.220432965231462,6.996671942098059,2.8232144178573035,253,1970-01-05 03:53:49.305403,0.7765778,-0.10546118,-0.22264028,9.720572403631097,0.8147170270826005,-126.90452575683594,68.59586334228516,175.09353637695312,21521163.0,40286.0,0.1256377149549147,-0.07569137357563765,0.13119993862309937,0.005013763231061288,-0.0015848644507607148,0.005758688717936065,21.521163000026718
1650,A,359629345692000.0,2.727058865231462,5.921307942098059,2.602872577857304,253,1970-01-05 03:53:49.345692,0.44741106,-0.25246766,-0.16192019,10.901084803403416,0.5386415541766485,-126.5847396850586,68.73950958251953,175.3760223388672,21561452.0,40289.0,0.11980924917876037,-0.13460595422281132,0.1093058094851729,0.004944406368990817,-0.004236334519835855,0.004844868042767091,21.56145199999446
1650,A,359629385972000.0,3.091101865231462,4.592071942098059,-0.9369663221426965,253,1970-01-05 03:53:49.385972,0.35899413,-0.007456851,-0.24501082,12.943264202484732,0.434698391897607,-126.54724884033203,68.72990417480469,175.39697265625,21601732.0,40280.0,0.11717775711152331,-0.18300452913229023,0.033551351990092196,0.004772918306686314,-0.006396675134771746,0.0028771432321118397,21.601732000010088
1650,A,359629426311000.0,3.258753265231462,2.1611269420980594,-7.7028966221426955,253,1970-01-05 03:53:49.426311,0.007456851,-0.5656554,-0.058589544,18.43522619957595,0.5687304905156081,-126.48397827148438,68.7443618774414,175.46444702148438,21642071.0,40339.0,0.12807340305387194,-0.2591135551052064,-0.17426171565476423,0.004946593274955939,-0.00891730070002819,-0.0028380576799346027,21.64207100000931
1650,A,359629466619000.0,3.064756665231462,2.470084942098058,3.8842080978573037,253,1970-01-05 03:53:49.466619,-1.7704695,-0.21944448,0.0053263223,14.137175303015526,1.7840253641532016,-126.55025482177734,68.75111389160156,175.48834228515625,21682379.0,40308.0,0.12744401913854977,-0.30168095568591147,-0.07696184851844778,0.0051496981268660666,-0.011302252570484188,-0.005063159712346914,21.682379000005312
1650,A,359629506910000.0,0.8373882652314624,3.8975169420980595,6.976178377857304,253,1970-01-05 03:53:49.506910,-2.0165455,0.63702816,0.010652645,13.714432684952868,2.1147988341799158,-126.71758270263672,68.7325210571289,175.41697692871094,21722670.0,40291.0,0.07861066069664084,-0.2665732762419271,0.21878791574650863,0.004151074552619832,-0.01144776562930227,0.0028571570373429,21.722669999988284
1650,A,359629547223000.0,-1.2247236347685382,7.978629942098058,8.185663377857303,253,1970-01-05 03:53:49.547223,-0.56459016,0.86606,0.30466563,11.635996609696571,1.0777954900963924,-126.85832214355469,68.71879577636719,175.29624938964844,21762983.0,40313.0,-0.007807325376074069,-0.155685845328701,0.3056096633490615,0.0014271474283890043,-0.008511265983938365,0.01057001980303986,21.76298300002236
1650,A,359629587516000.0,0.7008721652314618,9.406061442098059,5.2996646778573036,253,1970-01-05 03:53:49.587516,0.99708754,0.7392935,0.49428272,8.613132853548342,1.3360590738646627,-126.92247772216797,68.71640014648438,175.17391967773438,21803276.0,40293.0,-0.01055377363102871,-0.04463071502829297,0.27168216167445436,-0.0003699118811465962,-0.004035677583232179,0.011630409752836263,21.80327600002056
1650,A,359629627796000.0,3.5820809652314622,11.274176942098059,1.8771815778573038,253,1970-01-05 03:53:49.627796,1.6021577,0.6668556,0.6870956,5.796469073042754,1.8664688720843996,-127.21894836425781,68.56336212158203,174.80596923828125,21843556.0,40280.0,0.0862586760475233,0.021756001057709785,0.1445416835900922,0.001524696734668201,-0.0004606967393675453,0.008382748243627969,21.843556000036187
1650,A,359629668069000.0,4.473028165231462,12.438156442098059,1.4676333778573039,253,1970-01-05 03:53:49.668069,0.9012137,0.15765914,0.6402239,4.705253058199898,1.1166598316517165,-127.2392578125,68.58411407470703,174.73577880859375,21883829.0,40273.0,0.1622017050055667,0.08280800119086511,0.06735286635574719,0.005003122463075547,0.0021055530312784287,0.004266814604984395,21.883828999998514
1650,A,359629708366000.0,4.195205865231462,13.156662542098058,-0.685489622142696,253,1970-01-05 03:53:49.708366,0.7307714,0.43995422,0.39414784,5.681678317476149,0.9396483781343072,-127.27779388427734,68.58647155761719,174.65513610839844,21924126.0,40297.0,0.17465191336278219,0.12078661030307543,0.015759023462015777,0.006787095129694677,0.004102126029685661,0.001674579911993197,21.924126000027172
1650,A,359629748693000.0,5.359185465231462,11.472963642098058,-2.383558222142696,253,1970-01-05 03:53:49.748693,1.2378373,1.5488945,0.10865697,7.901077135771988,1.9857295109181214,-127.38116455078125,68.54383850097656,174.4776153564453,21964453.0,40327.0,0.19264996959178918,0.10141486756503837,-0.061882746208248504,0.007406091516954499,0.004480359498993712,-0.0009300156835936636,21.964452999993227
1650,A,359629788981000.0,3.071941865231462,9.482701942098059,-1.3129846221426966,253,1970-01-05 03:53:49.788981,0.4048005,0.5816344,-0.11504856,8.932794568102528,0.7179123840843558,-127.41078186035156,68.52159118652344,174.42401123046875,22004741.0,40288.0,0.16983662894484514,0.02730852752804655,-0.07446315905528494,0.007301930040921962,0.0025930040707551026,-0.002746551915628618,22.004741000011563
1650,A,359629829274000.0,2.008552965231462,4.520221942098059,-0.22085562214269583,253,1970-01-05 03:53:49.829274,-0.29507825,0.0063915867,-0.28442562,13.013949540057265,0.40989017957983637,-127.72370910644531,68.4539794921875,174.149658203125,22045034.0,40293.0,0.1023541891019213,-0.11276149396704294,-0.030901512481495662,0.00548369231577918,-0.0017215781883632409,-0.002122729355115751,22.045034000009764
1650,A,359629869593000.0,2.427681465231462,4.445975942098059,-1.3896250221426962,253,1970-01-05 03:53:49.869593,-0.11824436,0.26738137,-0.4495416,13.383975520424109,0.5362482408600018,-127.7215805053711,68.42802429199219,174.15830993652344,22085353.0,40319.0,0.08943226800091733,-0.21437213375354838,-0.03246648454847136,0.003866319081964676,-0.00659485036803326,-0.0012774671361256203,22.08535300003132
1650,A,359629909915000.0,-0.4463423347685378,4.836363942098059,-2.8314270221426963,253,1970-01-05 03:53:49.909915,0.1257012,0.6924219,-0.30466563,14.592293028807275,0.7668572392462283,-127.76092529296875,68.39476776123047,174.10923767089844,22125675.0,40322.0,0.03994577820926301,-0.2080143455947221,-0.08510063026483779,0.0026083907896434456,-0.00851573381014048,-0.0023702706017511253,22.12567500001751
1650,A,359629950228000.0,1.690015265231462,3.3418719420980594,-2.0075401221426965,253,1970-01-05 03:53:49.950228,-0.45380265,-0.06391586,-0.9267801,14.785455027762055,1.033897207686805,-127.70570373535156,68.36007690429688,174.19305419921875,22165988.0,40313.0,0.025068093422875932,-0.230222788400201,-0.09753664124378852,0.0013104521035532087,-0.008833326791368667,-0.003681328163163626,22.165987999993376
1650,A,359629990583000.0,0.40867966523146215,7.96425944209806,2.0065126778573035,253,1970-01-05 03:53:49.990583,-1.4892397,-0.12463594,-0.53795856,10.01244096660681,1.5883225156979446,-127.72628021240234,68.34261322021484,174.2510223388672,22206343.0,40355.0,0.042346416959415656,-0.16734953399538285,-2.0731257068517886e-05,0.0013602562832386886,-0.008022015535136894,-0.001968463883636043,22.206342999998014
1650,A,359630030889000.0,2.444446565231462,9.954520942098059,2.095128477857304,253,1970-01-05 03:53:50.030889,-1.5052186,0.644485,-0.01917476,7.330523041902209,1.6375016398257494,-127.58613586425781,68.15785217285156,174.44195556640625,22246649.0,40306.0,0.05749905292251932,-0.03388161891729566,0.08266037421111648,0.0020121857545306356,-0.00405541142464921,0.0016654367244529286,22.246649000036996
1650,A,359630071206000.0,2.813279665231462,9.279125542098058,3.817147553857304,253,1970-01-05 03:53:50.071206,-1.5499598,-0.16831179,-0.3057309,7.607834852289312,1.588765440045778,-127.62374114990234,68.15087127685547,174.48492431640625,22286966.0,40317.0,0.10598787421678685,-0.007385137348332617,0.11918261638531892,0.0032956512207377034,-0.0008318759061806677,0.004068851925938243,22.28696600004332
1650,A,359630111537000.0,3.407244465231462,10.371254942098059,4.751205217857303,253,1970-01-05 03:53:50.111537,-1.2772521,-1.1994878,-0.101200126,6.449588748225169,1.7551026678817583,-127.56128692626953,68.18346405029297,174.6210174560547,22327297.0,40331.0,0.1254399793528501,0.001015947654056754,0.17278511781801092,0.004666858381158514,-0.0001284378947799199,0.005887675344077248,22.327297000039835
1650,A,359630151852000.0,3.493465165231462,11.010724942098058,5.460130977857304,253,1970-01-05 03:53:50.151852,-0.2609898,-1.845038,0.42290998,5.983777523653282,1.9107940099162024,-127.4233627319336,68.25637817382812,174.78359985351562,22367612.0,40315.0,0.13910105437605638,0.03592025951568319,0.2058350093651172,0.005332485887390432,0.0007445415960240328,0.007632035213693904,22.36761200003093
1650,A,359630192130000.0,3.919778665231462,11.44661834209806,4.344051877857304,253,1970-01-05 03:53:50.192130,0.9779128,-1.8013622,0.5752428,5.224789574325611,2.128878460350548,-127.23838806152344,68.33389282226562,174.93008422851562,22407890.0,40278.0,0.14929531750169284,0.057544036400425574,0.1974464385312365,0.005808014533245992,0.0018822774554545145,0.008121685079184668,22.40789000003133
1650,A,359630232704000.0,4.3844124652314616,10.08385194209806,3.0148159778573036,253,1970-01-05 03:53:50.232704,1.865278,-0.89588743,0.36645097,6.457021609026456,2.101466777736433,-127.04735565185547,68.61100769042969,175.0301513671875,22448464.0,40574.0,0.16846712546370132,0.039163450655486626,0.14928935218888223,0.006446446680438951,0.0019619047899032908,0.007034228986339049,22.44846400001552
1650,A,359630273002000.0,4.245501365231462,6.237450942098059,3.0267910478573037,253,1970-01-05 03:53:50.273002,2.0634172,0.36005938,0.07989483,10.263936781691607,2.09611938644786,-126.98700714111328,68.60334777832031,174.98416137695312,22488762.0,40298.0,0.17388413376999745,-0.06606246818633245,0.12173233996112362,0.0068980355222997974,-0.0005419883042290125,0.005460816075130467,22.488761999993585
1650,A,359630313310000.0,3.756917365231462,2.738326942098059,2.092733477857304,253,1970-01-05 03:53:50.313310,2.0655477,0.45486793,-0.05006743,13.87277267688142,2.115632029031651,-126.92628479003906,68.58769989013672,174.9384765625,22529070.0,40308.0,0.16128074709374976,-0.21412057252191144,0.10317889729125221,0.00675491300892796,-0.005646809002433947,0.004532861075584382,22.529069999989588
1650,A,359630353547000.0,2.300745465231462,3.028123942098059,0.8952236778573037,253,1970-01-05 03:53:50.353547,2.1273332,-0.0063915867,-0.096939065,14.04803616449912,2.129550323078996,-126.92184448242188,68.67296600341797,174.84471130371094,22569307.0,40237.0,0.12187108965466834,-0.2783102578863004,0.06011321603724434,0.005696590227623049,-0.009906969661567611,0.003285192381999358,22.569307000027038
1650,A,359630393803000.0,-0.1469648347685384,3.4113279420980582,-5.051609622142696,253,1970-01-05 03:53:50.393803,2.5449169,0.8181231,0.14168017,16.696993000308986,2.6769386816343865,-126.88922882080078,68.654052734375,174.74313354492188,22609563.0,40256.0,0.04335129652995772,-0.26489551247490056,-0.08365973628657636,0.0033255961891241535,-0.010933645745830254,-0.00047394435957855493,22.60956300003454
1650,A,359630434123000.0,1.359502665231462,2.2808779420980585,-6.517362622142697,253,1970-01-05 03:53:50.434123,2.0900488,0.76912093,0.6306366,17.965113815366355,2.314638959450278,-126.91187286376953,68.65618133544922,174.60662841796875,22649883.0,40320.0,0.024444762662132538,-0.28038112937460635,-0.23323048044479353,0.0013667685533125396,-0.01099277709968606,-0.006388506769304417,22.649883000005502
1650,A,359633698531000.0,4.535298765231462,13.151872442098059,-0.4028772221426964,253,1970-01-05 03:53:53.698531,1.257012,0.6775082,0.5432849,5.392970618129568,1.527826891954468,-126.96012115478516,68.6575698852539,174.4873809814453,25914291.0,3264408.0,9.621518474007306,-6.801801491913563,-11.295243154801996,15.744179778744806,-11.559566803197036,-18.81682078134435,25.914290999993682
1650,A,359633738866000.0,4.1856258652314615,13.149477242098058,0.5455506778573036,253,1970-01-05 03:53:53.738866,-0.35579833,0.3685815,0.20133498,4.778694495211576,0.5504366884071584,-127.03107452392578,68.65450286865234,174.4302978515625,25954626.0,40335.0,0.17587924748486106,0.13514946975602513,0.002877366918124341,0.1975890185481933,-0.13444970465686215,-0.227738787027148,25.954626000020653
1650,A,359633779190000.0,3.910198565231462,11.334052342098058,-2.304522622142696,253,1970-01-05 03:53:53.779190,-0.8042747,0.67005134,-0.07137272,8.084932947088564,1.0492476621160918,-127.1341323852539,68.63145446777344,174.36280822753906,25994950.0,40324.0,0.16322801216699345,0.09846172347656207,-0.03546439234068208,0.006837080569100691,0.004710068877955423,-0.0006570196065696091,25.994950000022072
1650,A,359633819662000.0,3.675486665231462,6.6637639420980594,-4.268438622142696,253,1970-01-05 03:53:53.819662,-0.35792887,1.3752564,-0.5592638,12.769824804679624,1.5271605153718704,-127.2486572265625,68.56761169433594,174.25900268554688,26035422.0,40472.0,0.15350392632364773,-0.03242178967300739,-0.1330104437393592,0.006409387507296615,0.0013363841004487324,-0.003409256782915715,26.035421999986283
1650,A,359633859978000.0,3.594055965231462,5.114186942098058,-0.5250229221426963,253,1970-01-05 03:53:53.859978,-0.30253512,1.9813919,-0.9853696,12.229927557459144,2.233471425566753,-127.38807678222656,68.46835327148438,174.12542724609375,26075738.0,40316.0,0.14653944034487162,-0.15767686607637468,-0.09662659780970494,0.006048274185304014,-0.0038320087025960434,-0.004629023483546034,26.075738000043202
1650,A,359633900231000.0,1.1415559652314622,2.3670989420980586,-0.30228612214269646,253,1970-01-05 03:53:53.900231,-0.28655612,1.0428939,-0.81918836,15.251528238261987,1.356765147594142,-127.5986099243164,68.36727905273438,173.9369354248047,26115991.0,40253.0,0.09531129351846203,-0.24390729965172686,-0.016650835479809955,0.004867608795100385,-0.008082483711526634,-0.0022798782611014212,26.11599100002786
1650,A,359633940539000.0,-2.585094334768537,4.582491942098059,2.3346304778573037,253,1970-01-05 03:53:53.940539,-0.07989483,-0.11504856,-0.26205507,14.39157866388523,0.29714005911607977,-127.57097625732422,68.36042022705078,173.97096252441406,26156299.0,40308.0,-0.029093072299650205,-0.25495634531991146,0.040959868145072194,0.0013345620304439335,-0.010054097900758398,0.0004899242443356951,26.156299000023864
1650,A,359633980859000.0,-0.041583834768538,4.431605942098059,0.8952236778573037,253,1970-01-05 03:53:53.980859,0.67324716,-0.42397526,-0.15659387,13.501709794842983,0.8108874149114105,-127.17350006103516,68.22676086425781,174.31690979003906,26196619.0,40320.0,-0.05295383189786744,-0.21341178665460628,0.06511385977920649,-0.0016540655886219558,-0.009442301540606279,0.0021384463549534586,26.196618999994826
1650,A,359634021136000.0,2.652813165231462,8.325907942098059,0.4018495778573037,253,1970-01-05 03:53:54.021136,0.96406436,0.644485,0.57098174,9.206516119905785,1.2925947365128163,-127.64065551757812,68.07025909423828,173.82261657714844,26236896.0,40277.0,0.05258624187152759,-0.1377974066431165,0.026121109760208622,-7.402711745445028e-06,-0.00707282633922619,0.0018373354340695113,26.23689599998761
1650,A,359634061513000.0,2.758194165231462,9.715018942098059,2.3945059778573037,253,1970-01-05 03:53:54.061513,-0.17896444,-0.6061355,0.37923414,7.357177347123094,0.7370529479530648,-127.32296752929688,68.04176330566406,174.1302490234375,26277273.0,40377.0,0.10924012149105075,-0.03147534759840671,0.056454224136544356,0.003267031536745413,-0.0034173629990049913,0.0016670721283745975,26.27727300004335
1650,A,359634101731000.0,2.873155065231462,11.168795942098058,4.013539157857304,253,1970-01-05 03:53:54.101731,-1.0663297,-1.293231,0.1555286,5.855422013640769,1.6833581300130553,-127.2602310180664,68.08711242675781,174.25534057617188,26317491.0,40218.0,0.11324080167537892,0.025816233506299673,0.12885937963408503,0.004473868883953734,-0.00011379912527818033,0.003726471258223586,26.317490999994334
1650,A,359634142050000.0,3.9820491652314622,11.38674294209806,4.169215447857304,253,1970-01-05 03:53:54.142050,-0.8085357,-1.2644689,0.08522116,5.247833383758336,1.503287804564863,-127.18180084228516,68.1287841796875,174.38345336914062,26357810.0,40319.0,0.13819748968401732,0.059582186135951606,0.16496024147390362,0.005068870234659748,0.0017215894407779648,0.005923256651726497,26.35781000001589
1650,A,359634182377000.0,4.724505265231462,11.35560794209806,3.920133397857304,253,1970-01-05 03:53:54.182377,-0.12144015,-1.0780476,0.13848437,5.100770795193664,1.0936691723881036,-127.09111022949219,68.16680145263672,174.4876708984375,26398137.0,40327.0,0.1755546102586392,0.06336079205348842,0.16310958545056647,0.006326340467193755,0.002478960740722774,0.006615035955191553,26.39813700004015
1650,A,359634222541000.0,4.573619065231462,10.58920124209806,2.9645205778573036,253,1970-01-05 03:53:54.222541,0.49321744,-1.0546118,0.2790993,5.938251208265047,1.1972326052525815,-127.04753875732422,68.451904296875,174.5177764892578,26438301.0,40164.0,0.18672493280435642,0.04708845803702643,0.13825762114030074,0.007275297783791077,0.002218041840317719,0.006052056242757796,26.438300999987405
1650,A,359634262842000.0,4.269451465231462,7.2792839420980595,1.5586440778573039,253,1970-01-05 03:53:54.262842,1.2740563,-0.34088463,0.12144015,9.466918798010783,1.324450639537748,-127.39061737060547,68.64469909667969,174.14288330078125,26478602.0,40301.0,0.17819229272409315,-0.03489088929585612,0.09114402939497719,0.007353264553011022,0.00024578710891895233,0.004622557959111118,26.478601999988314
1650,A,359634303098000.0,4.722110265231462,5.315367942098058,-0.8675106221426967,253,1970-01-05 03:53:54.303098,1.9590213,0.72651035,-0.07563378,12.04616649389788,2.090765938881706,-127.36058807373047,68.61965942382812,174.0699462890625,26518858.0,40256.0,0.18098215451075775,-0.14100364687490058,0.013911134196623614,0.007229463273943079,-0.003540405224044991,0.002114550332771741,26.518857999995816
1650,A,359634343379000.0,4.853836365231462,5.217171942098059,-3.221815022142696,253,1970-01-05 03:53:54.343379,1.5797871,0.6711166,-0.06391586,13.213862723848612,1.7176175387092172,-127.34474182128906,68.59675598144531,174.0021209716797,26559139.0,40281.0,0.19286435311083852,-0.18262318046234813,-0.08236106313872994,0.007529455586752759,-0.006518006115985857,-0.0013786157938584925,26.55913900001906
1650,A,359634383665000.0,2.092378665231462,5.653065942098058,-3.0733241221426963,253,1970-01-05 03:53:54.383665,0.1736381,-0.099069595,-0.017044231,13.198986505673467,0.20063768398647194,-127.32470703125,68.59907531738281,174.0143280029297,26599425.0,40286.0,0.1399176093586147,-0.17584359829863766,-0.12680298778334068,0.006703227070022197,-0.007220596324582536,-0.004213191477723269,26.599425000022165
1650,A,359634423884000.0,1.8337166652314618,2.3982349420980587,-0.9034361221426961,253,1970-01-05 03:53:54.423884,-0.9257148,-0.5091964,0.015978966,15.213911485383148,1.0566381556930589,-127.71018981933594,68.58992767333984,173.7057647705078,26639644.0,40219.0,0.07895181404794416,-0.2322385648692582,-0.0799706601324571,0.004401354669994195,-0.0082063282602248,-0.004158114672762735,26.63964400003897
1650,A,359634464155000.0,3.160557465231462,1.6557779420980587,3.189652377857304,253,1970-01-05 03:53:54.464155,-1.6341157,-0.08522116,-0.15020229,14.936584999191302,1.6432155960249037,-127.77156066894531,68.58660888671875,173.7275848388672,26679915.0,40271.0,0.1005622067539362,-0.3130262235702691,0.046034107416941486,0.003614604565856262,-0.010979179147624103,-0.0006833294572032647,26.679914999986067
1650,A,359634504418000.0,-0.5924383347685378,5.080655942098058,6.5067546778573035,253,1970-01-05 03:53:54.504418,-2.2583606,-0.41545314,-0.23435818,13.135480123111995,2.308184929268262,-127.82430267333984,68.59009552001953,173.79222106933594,26720178.0,40263.0,0.05170009027491436,-0.2589628812603059,0.19520321864211862,0.0030652684326363056,-0.01151499866389672,0.0048564692295579685,26.720177999988664
1650,A,359634544701000.0,-1.615111634768538,6.242240942098059,7.122274677857304,253,1970-01-05 03:53:54.544701,-1.0322412,0.47723848,0.013848438,12.838996396212679,1.1373083315465469,-127.92504119873047,68.57598114013672,173.73947143554688,26760461.0,40283.0,-0.04446336771143101,-0.16671327240696393,0.27450909476812574,0.00014575844751239992,-0.008573756249089315,0.009460710560552437,26.760461000027135
1650,A,359634585009000.0,0.8876836652314619,7.042177942098059,3.886603127857304,253,1970-01-05 03:53:54.585009,1.0652645,0.9416938,0.5550028,10.430757616483117,1.5263039592186514,-128.00985717773438,68.56887817382812,173.5911407470703,26800769.0,40308.0,-0.014660583298050228,-0.12728422180791146,0.22187292329637218,-0.0011915841086450848,-0.005925225498406599,0.01000408319207189,26.800769000023138
1650,A,359634625333000.0,3.376109065231462,9.839560342098059,1.453263077857304,253,1970-01-05 03:53:54.625333,1.5499598,0.19281286,1.0652645,7.279431151172131,1.8905926678049056,-128.322021484375,68.50436401367188,173.2136993408203,26841093.0,40324.0,0.08596658903159347,-0.054805592714037905,0.10766238243961791,0.001437671687599699,-0.003671294840391543,0.006644090834249032,26.841093000024557
1650,A,359634665647000.0,5.373555575231462,12.696818642098059,-2.0075401221426965,253,1970-01-05 03:53:54.665647,1.4487597,0.2727077,0.9757822,6.882458802069871,1.767887173950934,-128.35366821289062,68.5341567993164,173.1018524169922,26881407.0,40314.0,0.17636699015781118,0.059188591184441114,-0.011172562381660658,0.00528785795572083,8.834810016791747e-05,0.0019449453029082445,26.88140700000804
1650,A,359634705914000.0,6.041766065231462,14.646364642098058,-0.8531406221426963,253,1970-01-05 03:53:54.705914,1.1110709,1.3986923,0.624245,4.995529175397422,1.8922210534002364,-128.48670959472656,68.51517486572266,172.89920043945312,26921674.0,40267.0,0.22983037824826028,0.15589738065236253,-0.05759551576506995,0.008178174716803639,0.004330433413976285,-0.0013845421013672005,26.921674000041094
1650,A,359634746311000.0,4.4826082652314625,15.561262142098059,2.183744177857304,253,1970-01-05 03:53:54.746311,-0.18535602,1.0546118,0.23222765,2.0829264052320813,1.0956699248742765,-128.6190643310547,68.49139404296875,172.76690673828125,26962071.0,40397.0,0.2125765749138554,0.21425814960058528,0.026876195920101504,0.008935956843444993,0.007476586477814166,-0.0006204841818885953,26.962071000016294
1650,A,359634786641000.0,3.230013065231462,11.56636934209806,2.6866982778573036,253,1970-01-05 03:53:54.786641,-0.38775626,1.1973573,-0.37071204,5.451563973216579,1.3120391905859516,-128.33340454101562,68.30064392089844,173.03759765625,27002401.0,40330.0,0.15552500912878486,0.1517946888788147,0.09821247211948507,0.00742276844221984,0.0073814554879371,0.002522412991018263,27.002401000005193
1650,A,359634826947000.0,2.688738665231462,6.103329942098059,1.237711477857304,253,1970-01-05 03:53:54.826947,0.9257148,2.5182853,-0.73822826,10.972172189071534,2.782748588535759,-128.56857299804688,68.229736328125,172.7480926513672,27042707.0,40306.0,0.11928060362401932,-0.03890135032559565,0.07908862980691649,0.005538157513807263,0.002275139451863024,0.0035731491071227706,27.042706999985967
1650,A,359634867242000.0,0.6817116652314619,3.1885899420980586,-1.0447426221426959,253,1970-01-05 03:53:54.867242,2.0250678,1.9185413,-0.28016454,14.869357005077456,2.8036034819274893,-128.8321533203125,68.02310943603516,172.3848876953125,27083002.0,40295.0,0.06790614803300175,-0.20768204413315874,0.0038878400205100663,0.0037713450790098323,-0.004968038939857753,0.0016717684258480763,27.083001999999397
1650,A,359634907532000.0,0.4326302652314622,-0.09498105790193989,-11.254710622142696,253,1970-01-05 03:53:54.907532,1.9686087,-0.92784536,-0.10013486,22.894408673338365,2.178610615960649,-128.63626098632812,68.04825592041016,172.49000549316406,27123292.0,40290.0,0.022448418189175603,-0.3325212490278692,-0.24777248560612922,0.0018201927365457627,-0.010882395340728908,-0.004913056185322297,27.12329200003296
1650,A,359634947845000.0,2.425286465231462,6.726034442098058,-2.687725922142696,253,1970-01-05 03:53:54.947845,1.0002834,-0.8117315,0.38562572,12.041737413906192,1.3446866193776632,-128.53729248046875,68.088623046875,172.54275512695312,27163605.0,40313.0,0.05760559857757593,-0.261408572461451,-0.2810307222048885,0.0016136087889590273,-0.011971546446849484,-0.01065882185824278,27.16360500000883
1650,A,359634988158000.0,0.37993966523146216,8.517509242098058,4.025514257857304,253,1970-01-05 03:53:54.988158,-1.4636734,-1.5180018,0.3174488,9.400669385205227,2.1324734528927296,-128.48724365234375,68.14833068847656,172.6755828857422,27203918.0,40313.0,0.05654354049867594,-0.08781091172950103,0.026965130588831494,0.002300847121790471,-0.0070390425330949255,-0.005121073097409053,27.203918000042904
1650,A,359635028412000.0,0.794277665231462,8.08640594209806,6.837267277857304,253,1970-01-05 03:53:55.028412,-1.474326,-1.530785,-0.32277513,10.023650829794253,2.1496798959490495,-128.3862762451172,68.18325805664062,172.86375427246094,27244172.0,40254.0,0.023633472210227276,-0.060302199087684784,0.2186352039693279,0.0016137227347920947,-0.0029810725814174988,0.004943197933652074,27.244172000035178
1650,A,359635068679000.0,2.360620965231462,4.94892994209806,4.830240877857304,253,1970-01-05 03:53:55.068679,-0.29614353,-1.2836437,-0.30253512,11.914936138522847,1.3516544076589865,-128.25173950195312,68.21116638183594,173.0245819091797,27284439.0,40267.0,0.06351915157642528,-0.13216966497553745,0.23490777545308003,0.0017546873510085692,-0.0038751322751168845,0.00913140757620105,27.284439000010025
1650,A,359635108944000.0,2.808489565231462,7.712782942098059,4.408717377857304,253,1970-01-05 03:53:55.108944,0.098004326,-1.5723304,0.8681905,9.111794348160158,1.7987724922760868,-128.1593017578125,68.29393005371094,173.1188507080078,27324704.0,40265.0,0.1040671177545448,-0.13968506535892167,0.18600332708317432,0.0033739305673057556,-0.005473115358458499,0.00847399277181114,27.32470400002785
1650,A,359635149226000.0,4.171255665231462,10.229948342098059,2.9142251778573036,253,1970-01-05 03:53:55.149226,0.6263755,-1.7949706,0.8831042,6.368748178099696,2.096220110084399,-127.93689727783203,68.56375885009766,173.31259155273438,27364986.0,40282.0,0.14057904868675375,-0.03337904920500603,0.14749138601464792,0.004927418438294194,-0.0034856843314320677,0.006716917016503237,27.3649860000005
1650,A,359635189514000.0,4.580804065231462,11.978312942098059,2.6244277778573037,253,1970-01-05 03:53:55.189514,1.3230585,-0.35473305,0.2759035,4.6616537449976825,1.397298133004121,-128.15660095214844,68.66682434082031,173.0484161376953,27405274.0,40288.0,0.17630149121044514,0.05254081530884656,0.11157062513991503,0.006383241595689174,0.0003859946163957636,0.005218545152697516,27.405274000018835
1650,A,359635229771000.0,4.710135165231462,11.99986794209806,1.743060677857304,253,1970-01-05 03:53:55.229771,1.6437031,0.7914915,-0.05965481,4.915276955095016,1.8253156910184047,-128.14935302734375,68.6400375366211,172.96800231933594,27445531.0,40257.0,0.18701267030037297,0.08812621392754155,0.08791099138085147,0.007312969099970502,0.002831416297984638,0.004015265718138249,27.445531000033952
1650,A,359635270020000.0,3.893433465231462,10.364069242098058,1.1634657778573039,253,1970-01-05 03:53:55.270020,1.4434333,0.8341021,-0.28122982,6.774584967027493,1.6906555581875726,-128.13876342773438,68.60321044921875,172.90182495117188,27485780.0,40249.0,0.1731425169037511,0.05562285386335475,0.05849239165802862,0.007247943064889396,0.0028928781147578926,0.0029462948819659425,27.485779999988154
1650,A,359635310445000.0,3.723387065231462,6.812254942098059,-0.09391942214269644,253,1970-01-05 03:53:55.310445,1.0503508,0.8181231,-0.47297743,10.494153532730708,1.412894142922128,-128.13107299804688,68.55937957763672,172.8537139892578,27526205.0,40425.0,0.15395498497198187,-0.048988547426936015,0.021618205714881503,0.006611458256663253,0.00013409591884611368,0.001619235449399946,27.526205000001937
1650,A,359635350738000.0,3.002486165231462,5.09502594209806,-3.015843322142696,253,1970-01-05 03:53:55.350738,0.40053943,0.45060685,-0.39521313,13.429182011509997,0.7208826439692138,-128.12509155273438,68.52989196777344,172.83860778808594,27566498.0,40293.0,0.1355028050375213,-0.15498136566654291,-0.06265083512774566,0.005831561366426456,-0.004109279854137773,-0.0008266638684662678,27.566498000000138
1650,A,359635391033000.0,2.056453465231462,3.971761942098059,-5.305481622142697,253,1970-01-05 03:53:55.391033,-1.0460896,-0.9235843,-0.10652645,15.781447113293515,1.3995210948693315,-128.0766143798828,68.5542221069336,172.94692993164062,27606793.0,40295.0,0.10192498620475175,-0.21221789110315872,-0.16765389431498995,0.004783576424053695,-0.007398147025767564,-0.004640064536447515,27.606793000013568
1650,A,359635431435000.0,2.497137065231462,3.1885899420980586,1.9131069778573038,253,1970-01-05 03:53:55.431435,-2.3957798,-0.32384038,-0.13848437,13.674603924905588,2.4215307890962037,-128.04544067382812,68.72044372558594,173.0936737060547,27647195.0,40402.0,0.09198708230588153,-0.2512933315873543,-0.06852936018920923,0.003917217695983303,-0.009363390209571054,-0.004771137924239328,27.64719500002684
1650,A,359635471720000.0,2.343855865231462,3.8017159420980597,5.948715077857304,253,1970-01-05 03:53:55.471720,-3.0796795,0.19281286,-0.56245965,13.161098999260279,3.136552801975403,-128.17433166503906,68.6923599243164,173.12057495117188,27687480.0,40285.0,0.09750970010184946,-0.2539907637275797,0.1583567507572315,0.003816938939647722,-0.010177684889881059,0.0018093482145163885,27.687480000022333
1650,A,359635512043000.0,-1.7133076347685376,5.360873942098058,7.912631077857304,253,1970-01-05 03:53:55.512043,-2.5246768,-0.3323625,-0.46871635,13.813181939741373,2.5892378787245125,-128.22996520996094,68.68423461914062,173.19639587402344,27727803.0,40323.0,0.01271279814847825,-0.21043384404978,0.27946553051844003,0.002222250898473982,-0.009363496729703238,0.00882715392393945,27.727803000016138
1650,A,359635552378000.0,-2.228236934768538,6.371571942098059,7.455182377857303,253,1970-01-05 03:53:55.552378,-0.54648066,-0.004261058,0.4111921,13.178148016747079,0.6839138918546143,-128.28948974609375,68.70050048828125,173.1618194580078,27768138.0,40335.0,-0.07949110010613898,-0.15866889763047484,0.3099303778681244,-0.0013467514047311227,-0.007443879542836539,0.011886641982386039,27.76813800004311
1650,A,359635592683000.0,0.5739361652314621,7.863668942098059,3.5225601278573038,253,1970-01-05 03:53:55.592683,1.5201324,0.026631612,1.091896,9.857570683160752,1.8718302890763037,-128.3030548095703,68.74254608154297,173.06570434570312,27808443.0,40305.0,-0.03333829625809592,-0.10811330808123776,0.2212289558464136,-0.002273794410230244,-0.005376328400605289,0.010704188472682227,27.80844300001627
1650,A,359635632988000.0,3.431194665231462,10.92929394209806,-0.40766712214269596,253,1970-01-05 03:53:55.632988,2.194445,-0.28868666,1.3805827,7.200014378258855,2.6086275006651,-128.27426147460938,68.80564880371094,172.97886657714844,27848748.0,40305.0,0.08071339906090409,-0.016263815476237755,0.06277288129766363,0.0009547267592335916,-0.0025065099824920253,0.005723347023046017,27.848747999989428
1650,A,359635673267000.0,6.8608628652314625,12.835729942098059,-6.409585622142696,253,1970-01-05 03:53:55.673267,2.2125542,0.55074173,0.93849796,10.892645788947625,2.4656623779473934,-128.29441833496094,68.8254165649414,172.83859252929688,27889027.0,40279.0,0.2072768926347581,0.0838814985157677,-0.13729606164353567,0.00579998047960479,0.0013617863275746135,-0.00150085959057569,27.88902699999744
1650,A,359635713544000.0,6.803382265231462,13.939833942098058,-1.1597032221426966,253,1970-01-05 03:53:55.713544,0.42290998,1.3230585,0.36432046,5.680363466550774,1.4359895693146458,-128.43626403808594,68.79866027832031,172.66380310058594,27929304.0,40277.0,0.2751774005598276,0.1445050932818835,-0.15243412339064139,0.009715905783499163,0.004599363378916999,-0.005834731331310774,27.929303999990225
1650,A,359635753829000.0,4.362857365231462,14.05958494209806,3.778827239857304,253,1970-01-05 03:53:55.753829,-1.3688648,0.83729786,0.013848438,2.5996753358484304,1.6046963345987488,-128.5902099609375,68.77313232421875,172.57208251953125,27969589.0,40285.0,0.22491598175659944,0.1691852948749203,0.05275570552681648,0.010073130953308633,0.00631850864344842,-0.0020077725318220934,27.969588999985717
1650,A,359635794083000.0,3.797632665231462,9.65514354209806,2.9669155778573035,253,1970-01-05 03:53:55.794083,-0.71798825,0.6306366,-0.2876214,7.001769898386579,0.9979657900627569,-128.4296875,68.8882064819336,172.74954223632812,28009843.0,40254.0,0.16424618284312725,0.08281714020141526,0.13577156569214188,0.007832666886898699,0.005072053010781406,0.0037944883878239747,28.0098430000362
1650,A,359635834386000.0,3.203667865231462,3.3754019420980583,1.3430923778573036,253,1970-01-05 03:53:55.834386,0.54648066,0.6625945,-0.45486793,13.446748970189018,0.9718937271773959,-128.57904052734375,69.01860809326172,172.5803985595703,28050146.0,40303.0,0.1410867076396236,-0.13238436267522197,0.08685312531958289,0.0061529157425631534,-0.0009988538836809158,0.004486221460922772,28.05014599999413
1650,A,359635874671000.0,3.273123465231462,1.9359949420980591,-4.749837622142696,253,1970-01-05 03:53:55.874671,1.3102753,-0.0127831735,0.035153728,16.942900961685492,1.3108091226060028,-128.5150909423828,69.02040100097656,172.57875061035156,28090431.0,40285.0,0.13045876937384943,-0.28780818826007976,-0.06862036608301851,0.0054696047707438805,-0.008463728457214315,0.00036725335292249803,28.09043099998962
1650,A,359635914949000.0,1.963047665231462,5.5740299420980595,-5.7629306221426955,253,1970-01-05 03:53:55.914949,1.3923006,0.035153728,0.829841,14.866079190589762,1.6212257185949333,-128.51649475097656,69.05174255371094,172.502685546875,28130709.0,40278.0,0.10545125039639282,-0.2434800088571744,-0.21171663967166351,0.004750991888152908,-0.010699613001744383,-0.005645706958893541,28.13070899999002
1650,A,359635955247000.0,2.315115465231462,4.654342942098058,0.8952236778573037,253,1970-01-05 03:53:55.955247,-0.0053263223,0.2972088,0.6945524,12.507036515840118,0.7554895610479627,-128.69451904296875,69.09015655517578,172.3247833251953,28171007.0,40298.0,0.08620070891569745,-0.18882891475633246,-0.09807942722040636,0.0038615953281793073,-0.00871059250188855,-0.006242080951808315,28.171007000026293
1650,A,359635995533000.0,-0.5780680347685383,9.913805942098058,5.431390877857304,253,1970-01-05 03:53:55.995533,-1.0663297,-0.567786,0.6380934,9.037994425591407,1.366236860146018,-128.74208068847656,69.1327896118164,172.3309326171875,28211293.0,40286.0,0.03498934639181467,-0.10135657702563766,0.12743699699575936,0.0024411312840592167,-0.005845206360964224,0.0005913495279849356,28.2112930000294
1650,A,359636035859000.0,3.538970565231462,7.245753942098059,4.528468377857304,253,1970-01-05 03:53:56.035859,-0.34301516,0.17576863,0.21731395,9.386545164435326,0.4424696194616134,-128.79507446289062,69.13575744628906,172.29258728027344,28251619.0,40326.0,0.05970067772172393,-0.04920659405495372,0.20082064217297366,0.001909234956201279,-0.0030358052184979644,0.006618658778559164,28.25161899998784
1650,A,359636076155000.0,3.823977965231462,6.65897394209806,4.696119737857304,253,1970-01-05 03:53:56.076155,-0.2428803,-0.44528055,-0.23116238,9.920819375322145,0.5574061842710906,-128.74266052246094,69.14066314697266,172.3616485595703,28291915.0,40296.0,0.148348686991767,-0.11474834258921664,0.18585700135541788,0.004191778600247415,-0.003303364063506744,0.007790781161810032,28.291915000008885
1650,A,359636116453000.0,3.711411965231462,8.59414994209806,4.851795977857304,253,1970-01-05 03:53:56.116453,-0.47404268,-1.3646038,0.3291667,8.073572151190083,1.4816243484179492,-128.6534881591797,69.1961898803711,172.48243713378906,28332213.0,40298.0,0.15183057170889747,-0.08758520685733243,0.19238095375593361,0.006048311883559689,-0.004076818687798517,0.007621116557538621,28.33221299998695
1650,A,359636156784000.0,4.741270405231462,9.35816124209806,3.2112075778573037,253,1970-01-05 03:53:56.156784,0.50387007,-1.0237192,0.39627838,7.102007025944223,1.207858684758225,-128.55545043945312,69.24359130859375,172.5603485107422,28372544.0,40331.0,0.17045256634157008,-0.033226468815093176,0.1625944982027629,0.006499000620356703,-0.002436227845772298,0.007158257476473094,28.37254400004167
1650,A,359636197122000.0,5.2705697352314616,9.64795854209806,2.0975233778573035,253,1970-01-05 03:53:56.197122,1.4839134,0.35579833,0.14594123,6.961137755364527,1.5329351822383952,-128.52993774414062,69.23820495605469,172.5082550048828,28412882.0,40338.0,0.2019288037929967,-0.011977970072548492,0.1070717946458079,0.0075105598542440765,-0.0009117283279248448,0.005438899460462825,28.412882000033278
1650,A,359636237493000.0,5.304100015231462,11.458593642098059,-1.8255186221426962,253,1970-01-05 03:53:56.237493,1.4242586,-0.0479369,0.017044231,7.483501495324486,1.4251670119203401,-128.45523071289062,69.24039459228516,172.5120391845703,28453253.0,40371.0,0.21345499624796935,0.030410509114090722,0.005490551996477204,0.00838472969572692,0.00037207001682305066,0.0022721272481478457,28.453253000043333
1650,A,359636277822000.0,5.419060961231462,8.654025342098059,-1.1836533221426961,253,1970-01-05 03:53:56.277822,0.38242993,-0.777643,-0.16085494,9.204282371473601,0.8813941221333442,-128.3424835205078,69.25822448730469,172.61215209960938,28493582.0,40329.0,0.21622717950988662,0.010336705506822589,-0.06067844767054279,0.008664326233069286,0.0008216472092234064,-0.0011128363223196955,28.493582000024617
1650,A,359636318125000.0,4.920896865231462,6.532037942098059,2.7202284778573036,253,1970-01-05 03:53:56.318125,-0.8309063,-0.9321064,-0.1949434,9.938339241210034,1.263815868512581,-128.27146911621094,69.27949523925781,172.73251342773438,28533885.0,40303.0,0.20836566013996763,-0.08894744572852195,0.030964294250382912,0.008556182608204038,-0.0015841243315775748,-0.0005987847626463518,28.533885000040755
1650,A,359636358479000.0,4.959217165231462,5.202801942098059,2.3777407778573036,253,1970-01-05 03:53:56.358479,-0.8969527,-1.220793,0.20240025,11.294588065578656,1.5283407853245141,-128.2060089111328,69.32521057128906,172.85043334960938,28574239.0,40354.0,0.19935106079265041,-0.15869533565657495,0.10286172567255364,0.008226500278257434,-0.0049966884000071,0.0027002076039850907,28.574239000037778
1650,A,359636398795000.0,7.263226165231462,2.2257929420980584,-1.4710559221426962,253,1970-01-05 03:53:56.398795,-0.809601,-1.4860439,0.42184472,15.21797294494471,1.7440565414343907,-128.12599182128906,69.38768768310547,172.97915649414062,28614555.0,40316.0,0.24638001265547158,-0.24535118432437467,0.018276953321495055,0.008985046978567243,-0.008144769749775982,0.0024419134911620333,28.61455500003649
1650,A,359636439115000.0,6.144751865231462,-1.6948530579019412,1.8699965778573038,253,1970-01-05 03:53:56.439115,-1.7374463,-0.36964676,0.16405073,18.203016735046685,1.783892097234505,-128.18771362304688,69.40557861328125,173.0060577392578,28654875.0,40320.0,0.27030483709413256,-0.38443225193460634,0.008042643619206489,0.01041636657095202,-0.012696434074981057,0.0005306030743245432,28.65487500000745
1650,A,359636479463000.0,4.398782565231462,3.418512942098058,7.632413977857304,253,1970-01-05 03:53:56.479463,-2.6620958,0.27803403,-0.01917476,13.576734582630072,2.67664428746831,-128.3482666015625,69.39620208740234,172.97671508789062,28695223.0,40348.0,0.212705263600159,-0.3606372854962276,0.19170163055098652,0.009744245771406639,-0.015031032848129644,0.004029640987109474,28.695223000016995
1650,A,359636519761000.0,1.790606265231462,6.30930194209806,8.475460377857303,253,1970-01-05 03:53:56.519761,-1.3901701,0.7414241,-0.070307456,11.722449214951546,1.5770940813293328,-128.48916625976562,69.37039947509766,172.9004364013672,28735521.0,40298.0,0.12470999554499747,-0.19891465789833246,0.32455756039329364,0.006798580056515758,-0.01127441210745699,0.0104021064383363,28.73552099999506
1650,A,359636560066000.0,-0.29306103476853806,8.206156942098058,6.372633477857304,253,1970-01-05 03:53:56.560066,1.0226538,1.3347764,0.18642128,10.359277498789021,1.6918042813186869,-128.5919952392578,69.33612823486328,172.73593139648438,28775826.0,40305.0,0.030179280256904077,-0.10246621483623776,0.2992262114272886,0.003121406130597821,-0.006073578037783426,0.012570802461614286,28.775826000026427
1650,A,359636600369000.0,3.354553965231462,8.58935994209806,1.7215053778573037,253,1970-01-05 03:53:56.600369,2.6045716,1.5286545,0.38136467,8.35770612963134,3.04401327385756,-128.78700256347656,69.29817962646484,172.40635681152344,28816129.0,40303.0,0.06169367478822361,-0.05651454150812195,0.16310903915093292,0.0018513778535918905,-0.0032037007114733645,0.009316748802027031,28.816129000042565
1650,A,359636640656000.0,6.0992465652314625,10.191628242098059,-2.0386752221426967,253,1970-01-05 03:53:56.640656,1.7257284,0.47830373,0.42717105,8.536388640706459,1.8410290803397362,-128.7854766845703,69.29986572265625,172.31576538085938,28856416.0,40287.0,0.19043263098537994,-0.016497764511645516,-0.006388910758362814,0.005078706240350584,-0.001470723386309186,0.003156891906275736,28.85641599999508
1650,A,359636680962000.0,5.349605385231462,11.57834464209806,-2.0578356221426963,253,1970-01-05 03:53:56.680962,-0.1107875,0.046871636,0.12357068,7.581847544010967,0.17245443854313783,-128.80606079101562,69.30317687988281,172.29962158203125,28896722.0,40306.0,0.2307287133576793,0.043731463535204344,-0.08255698304488353,0.008487664572545673,0.0005488407364217811,-0.0017925265978168236,28.89672200003406
1650,A,359636721272000.0,4.784380765231462,11.82982134209806,1.6161243778573038,253,1970-01-05 03:53:56.721272,-0.6540724,1.325189,-0.27057716,5.109614493010463,1.5023809735471312,-128.95266723632812,69.25106811523438,172.1778564453125,28937032.0,40310.0,0.20425049086258024,0.07675358541147274,-0.008902690128572087,0.008767005861059331,0.0024283761615202766,-0.0018433697128109978,28.937031999987084
1650,A,359636761585000.0,5.454986252231462,11.348422942098058,3.2638980278573038,253,1970-01-05 03:53:56.761585,-0.6018744,1.0098706,-0.44101948,5.074488423085303,1.2556231934219717,-129.04965209960938,69.2021484375,172.10633850097656,28977345.0,40313.0,0.20638980128749146,0.072124880914399,0.09836417162078648,0.00827707104872292,0.0030008688064974342,0.0018032303516978194,28.97734500002116
1650,A,359636801882000.0,5.0286727652314624,7.6050069420980595,3.0675063778573035,253,1970-01-05 03:53:56.801882,-0.2034655,0.13954964,-0.13741912,8.83269370601286,0.282411625567989,-129.06268310546875,69.19242858886719,172.103271484375,29017642.0,40297.0,0.21123000371335174,-0.013027417978274563,0.12756830166854077,0.008414412641059488,0.0011907252319685033,0.00455220043807001,29.01764199999161
1650,A,359636842217000.0,4.389202565231462,5.267467942098058,2.1813490778573037,253,1970-01-05 03:53:56.842217,0.42717105,-0.314253,0.41971418,11.298997802954593,0.6763061783394965,-129.0440216064453,69.21862030029297,172.10040283203125,29057977.0,40335.0,0.18993500072711103,-0.13567736277297485,0.10585629240312434,0.008090495227053034,-0.0029990036658008225,0.004707590500940306,29.05797700001858
1650,A,359636882473000.0,4.928081905231462,3.349056942098059,-2.6446156221426964,253,1970-01-05 03:53:56.882473,1.1270498,-0.551807,0.6178534,14.560185320860173,1.3987405194747882,-128.98240661621094,69.25997924804688,172.10601806640625,29098233.0,40256.0,0.1875383018214777,-0.22107538713090058,-0.009324629003376385,0.007597782633697994,-0.007180719350065204,0.001942989320910127,29.098233000026084
1650,A,359636922761000.0,4.480213265231462,3.0712349420980587,-5.638389622142697,253,1970-01-05 03:53:56.922761,1.659682,0.33449304,0.5336975,16.35745316267293,1.7751796969430143,-128.9781036376953,69.27018737792969,172.02188110351562,29138521.0,40288.0,0.18952069791380513,-0.26549204028475343,-0.16685285764088495,0.007595476490667537,-0.009801414257860934,-0.003548919290962,29.138520999986213
1650,A,359640187135000.0,4.844256265231462,11.175981342098058,0.9550991778573037,253,1970-01-05 03:54:00.187135,1.587244,-0.29294774,0.1736381,5.9783511699462055,1.6233644334155894,-128.88304138183594,69.2861557006836,172.03866577148438,32402895.0,3264374.0,15.21927794951769,-8.736743994746794,-7.644005780386843,25.15004083795527,-14.693332627310037,-12.748781927826563,32.40289500000654
1650,A,359640227490000.0,4.817911005231462,9.17613964209806,0.7443373778573039,253,1970-01-05 03:54:00.227490,1.3699301,-0.44315,0.1470065,7.86706215695086,1.44730829902556,-128.78111267089844,69.3058090209961,172.07444763183594,32443250.0,40355.0,0.19495838009976565,0.015175921158617137,0.0342903811029315,0.31102075354085623,-0.17597943980482544,-0.15354503246905113,32.443250000011176
1650,A,359640267775000.0,6.288453065231462,6.759564942098059,-1.8566541221426967,253,1970-01-05 03:54:00.267775,1.0215886,-1.128115,0.083090626,11.198108467300905,1.524201683834535,-128.62026977539062,69.34432220458984,172.19175720214844,32483535.000000004,40285.000000003725,0.22370993828932015,-0.07380807041283655,-0.022404840021770595,0.00843302660315294,-0.0011809980663532239,0.00023940451122730566,32.48353500000667
1650,A,359640308227000.0,5.902854925231462,3.181404942098059,0.44016987785730377,253,1970-01-05 03:54:00.308227,0.11717909,-0.8277105,-0.20133498,13.63850636175198,0.8598670740963853,-128.51187133789062,69.36223602294922,172.30133056640625,32523987.0,40451.999999996275,0.2465813954150804,-0.19536354312223136,-0.02864981032491372,0.00951211251550433,-0.005444265055359782,-0.0010326313579119418,32.52398699999321
1650,A,359640348557000.0,4.4945833652314615,3.0975799420980596,-0.9920520221426958,253,1970-01-05 03:54:00.348557,-0.65513766,-0.40053943,-0.34194988,14.168882153602492,0.8405753440156419,-128.47476196289062,69.3613052368164,172.37599182128906,32564317.000000004,40330.000000003725,0.2096643431272042,-0.2686182698102101,-0.011128703439515959,0.009200195317706017,-0.009356193257783545,-0.0008021337300597984,32.56431700004032
1650,A,359640388832000.0,4.312561865231462,0.36486194209805944,4.3560269778573035,253,1970-01-05 03:54:00.388832,-1.0812434,-0.19068234,-0.084155895,16.083945520296883,1.1011490632492436,-128.50205993652344,69.36394500732422,172.4045867919922,32604591.999999996,40274.99999999255,0.17735388707841432,-0.3249700765569406,0.06774204567069039,0.007793579610764202,-0.011953385324966289,0.0011400511791800644,32.604592000017874
1650,A,359640429136000.0,3.493465165231462,4.091512942098058,7.249210677857304,253,1970-01-05 03:54:00.429136,-1.3592775,-0.56885123,0.1438107,12.936151241169963,1.4805095613717776,-128.5227813720703,69.38726806640625,172.45504760742188,32644896.000000004,40304.00000000745,0.15730705671791792,-0.3051743333337363,0.233868749238004,0.006744087339384934,-0.012698670148119269,0.006078060739001133,32.644896000041626
1650,A,359640469468000.0,0.7152426652314618,6.220684942098059,7.0719793778573035,253,1970-01-05 03:54:00.469468,-0.13209279,0.099069595,0.22370553,11.71282872363572,0.2780421802101779,-128.55824279785156,69.39295959472656,172.42425537109375,32685228.000000004,40332.0,0.08487280210911533,-0.18729781746730115,0.2888011186635408,0.004883799033105952,-0.009931193393053721,0.010540160556102553,32.685227999987546
1650,A,359640509702000.0,-0.8966057347685377,7.628956942098059,3.3932290778573035,253,1970-01-05 03:54:00.509702,1.4604776,0.89588743,0.43036684,10.86208162662432,1.7665856119377148,-128.6139678955078,69.38182067871094,172.2866668701172,32725462.0,40233.999999996275,-0.0036484808698770163,-0.11567995421561603,0.21052859850359124,0.0016339896703696057,-0.00609500383294468,0.010045015920250264,32.72546200000215
1650,A,359640549978000.0,3.950913865231462,8.682765942098058,-3.8732606221426966,253,1970-01-05 03:54:00.549978,1.8801918,0.63915867,0.28975195,10.986434312671916,2.0068884380433833,-128.6103515625,69.37321472167969,172.19009399414062,32765738.0,40276.0,0.06150765713126237,-0.06621932455805862,-0.009666875238819246,0.0011651680915517784,-0.00366308767594426,0.004044953383105979,32.76573799998732
1650,A,359640590216000.0,4.652654665231462,10.66344714209806,-1.8662342221426966,253,1970-01-05 03:54:00.590216,0.080960095,0.38775626,-0.008522116,8.101286584278315,0.3962096422510614,-128.6458282470703,69.36077880859375,172.1478729248047,32805976.0,40238.0,0.17309519526438358,-0.005105938959058345,-0.11547289677217784,0.004719974787348001,-0.0014349929767008766,-0.00251768707308925,32.80597600003239
1650,A,359640630529000.0,4.535298765231462,12.088483642098058,1.8388612778573037,253,1970-01-05 03:54:00.630529,-1.3944311,0.8586032,-0.15126756,4.828396421978182,1.6445423139602713,-128.79183959960938,69.3280258178711,172.0663299560547,32846289.0,40313.0,0.18519698332112594,0.06353189285164902,-0.0005517427514885228,0.007221916297658823,0.001177662739636004,-0.002338650646558781,32.846289000008255
1650,A,359640671011000.0,4.628704465231462,12.933925642098059,3.5848306478573035,253,1970-01-05 03:54:00.671011,-1.5020229,0.46658584,-0.3089267,3.5763064152395163,1.6028758043547247,-128.45004272460938,69.48477172851562,172.45355224609375,32886771.000000004,40482.000000003725,0.18548858938781712,0.10975498632142366,0.10978094826839946,0.007503046677202407,0.0035074997213424865,0.0022109083488679976,32.886770999990404
1650,A,359640711260000.0,4.2047860652314615,10.936479342098059,4.298546477857304,253,1970-01-05 03:54:00.711260,-1.055677,-0.18002969,-0.42717105,5.633537106314853,1.152969957791008,-128.44851684570312,69.47366333007812,172.51153564453125,32927020.0,40248.999999996275,0.17776958018028466,0.08593976510444677,0.15864902296642894,0.007310389033472587,0.003938259025069565,0.005402018956114803,32.92702000000281
1650,A,359640751607000.0,3.397664265231462,7.197852942098059,3.7309268478573037,253,1970-01-05 03:54:00.751607,-0.27377295,0.00958738,-0.34194988,9.435505333310397,0.43814753957882874,-128.43484497070312,69.45996856689453,172.540771484375,32967367.000000004,40347.000000003725,0.15336803174160796,-0.029567647664772375,0.1619825801363186,0.006680204614106918,0.0011372229111693765,0.006468261645193874,32.96736700000474
1650,A,359640791840000.0,3.6084260652314617,3.998106942098058,3.146542077857304,253,1970-01-05 03:54:00.791840,0.66579026,0.9012137,-0.4346279,12.557689455869877,1.2018170471569154,-128.4595947265625,69.41490173339844,172.47877502441406,33007599.999999996,40232.99999999255,0.1409380161327313,-0.16905987298953754,0.13835060364411228,0.0059204076120630495,-0.003995690519241686,0.00604165249151792,33.007600000011735
1650,A,359640832178000.0,3.7066218652314618,4.6639229420980595,-1.6458921221426959,253,1970-01-05 03:54:00.832178,1.2335763,0.6924219,-0.28229508,13.055908242995287,1.4425148483511379,-128.44667053222656,69.38231658935547,172.42665100097656,33047938.000000004,40338.00000000745,0.14753720170953397,-0.2206079192656893,0.03026660895681352,0.005818256668661723,-0.007859209701997123,0.0034008405609487007,33.04793800000334
1650,A,359640872490000.0,1.7930011652314621,4.498665942098059,-6.605977622142696,253,1970-01-05 03:54:00.872490,1.8418423,1.0887003,0.18535602,16.232375053440247,2.1475586733404097,-128.48313903808594,69.35572814941406,172.28932189941406,33088250.000000004,40312.0,0.11085040180201071,-0.21037645845014308,-0.16632468656581637,0.0052080605363786945,-0.008686921117240317,-0.0027423866122870616,33.0882500000298
1650,A,359640912746000.0,3.316233665231462,3.914280942098058,-1.3201694221426958,253,1970-01-05 03:54:00.912746,0.7094661,0.060720075,-0.28122982,13.664718519652984,0.7655842776693158,-128.4307403564453,69.34281921386719,172.30738830566406,33128506.0,40255.999999996275,0.10283867866754821,-0.22517300511487975,-0.1595374877073616,0.004301133811690884,-0.008766739602635968,-0.0065589538437699196,33.128506000037305
1650,A,359640953046000.0,0.7056626652314621,7.899594942098059,3.8794180628573036,253,1970-01-05 03:54:00.953046,-0.8948221,-0.8330368,0.25566345,9.757595552623748,1.2490078864717198,-128.4099578857422,69.37872314453125,172.37741088867188,33168806.000000004,40300.000000003725,0.08104121105883542,-0.1568904009334628,0.05156886011040412,0.0037051797779869733,-0.0076985776318748145,-0.0021755678460788942,33.1688060000306
1650,A,359640993306000.0,1.642115065231462,7.825348942098058,4.914066477857304,253,1970-01-05 03:54:00.993306,-0.76059884,-0.23435818,0.33981937,9.466219629615953,0.8653967622827432,-128.45166015625,69.39930725097656,172.3734893798828,33209066.0,40259.999999996275,0.047260765714214295,-0.07800487961112498,0.1770128438045687,0.0025827187924412523,-0.004728441997362115,0.004601349699807977,33.20906600001035
1650,A,359641033577000.0,3.534180465231462,6.65657894209806,3.6806314378573037,253,1970-01-05 03:54:01.033577,-0.2066613,-0.43675843,0.027696876,9.936298172904591,0.4839772061098686,-128.41876220703125,69.41397857666016,172.419677734375,33249336.999999996,40270.999999996275,0.10422729865362657,-0.10305494108775956,0.1730585398818555,0.0030502879200783773,-0.0036457300196820527,0.0070488623462173425,33.24933700001566
1650,A,359641073895000.0,3.9724690652314623,8.99411854209806,1.9681923778573038,253,1970-01-05 03:54:01.073895,0.07882957,-0.98110855,0.3888215,7.775470372865356,1.0582864672912233,-128.59674072265625,69.5360336303711,172.25856018066406,33289655.000000004,40318.00000000745,0.15132654788463007,-0.07961398941610519,0.11387463930101181,0.005151709992365668,-0.00368242297002809,0.005784285959148492,33.2896550000296
1650,A,359641114157000.0,4.707740105231462,10.481425542098059,2.052018077857304,253,1970-01-05 03:54:01.114157,0.5113269,-0.30999196,0.572047,6.216372011068779,0.8275191744831364,-129.1604766845703,69.6740951538086,171.70420837402344,33329917.0,40261.999999996275,0.17474129081057294,-0.0025054220410477487,0.08093085668398328,0.006564071660772524,-0.0016531458720437926,0.003921629439673573,33.32991700002458
1650,A,359641154429000.0,4.698160035231462,11.614269542098059,2.2124843778573036,253,1970-01-05 03:54:01.154429,0.6125271,0.007456851,0.15659387,5.100045915511567,0.632271059738482,-129.72557067871094,69.71723937988281,171.14369201660156,33370189.000000004,40272.000000003725,0.18939720522837897,0.05025331621537765,0.0858700214482773,0.007332292756241014,0.000961451597094396,0.0033587024820715097,33.3701890000375
1650,A,359641194680000.0,4.199995965231462,12.325590442098058,1.8723916778573038,253,1970-01-05 03:54:01.194680,0.61572284,-0.13315806,-0.14487597,4.686188197595913,0.6464013701440229,-129.66839599609375,69.71591186523438,171.17184448242188,33410440.0,40250.999999996275,0.1790798385873,0.08734185211193084,0.08221017305927673,0.007415784745311761,0.002769171560170991,0.0033826979545614655,33.41044000000693
1650,A,359641234937000.0,4.652654665231462,9.35097624209806,0.6533265778573036,253,1970-01-05 03:54:01.234937,0.48682585,-0.18535602,-0.23222765,7.759849177512145,0.570338446716496,-129.60470581054688,69.71290588378906,171.2137908935547,33450696.999999996,40256.999999996275,0.1781905782152565,0.04179817250283766,0.05083891991014677,0.007191317584609593,0.0025993949854581275,0.002678078667834793,33.450697000022046
1650,A,359641275199000.0,4.561643965231462,6.407496942098058,0.3539491778573036,253,1970-01-05 03:54:01.275199,-0.27057716,-0.83729786,-0.29507825,10.60566655363026,0.9280899091668369,-129.50546264648438,69.7281723022461,171.33401489257812,33490958.999999996,40262.0,0.18549304572984912,-0.07733377632894797,0.02027746823829076,0.007321315033638921,-0.0007153672406234266,0.001431644009816196,33.49095900001703
1650,A,359641315468000.0,5.924410115231462,2.019821442098058,-1.071087322142696,253,1970-01-05 03:54:01.315468,-0.92464954,-0.5613944,-0.4708469,15.182167354944674,1.17976152141574,-129.45252990722656,69.72785949707031,171.4397430419922,33531228.0,40269.000000003725,0.21113145588310028,-0.22495635799342414,-0.014439217966115568,0.007985836027726668,-0.006086460709514364,0.00011755025010512224,33.531228000007104
1650,A,359641355740000.0,3.622796265231462,0.9636179420980593,-0.9465466221426961,253,1970-01-05 03:54:01.355740,-1.8844528,-0.7094661,-0.4048005,16.2527173196009,2.0538665845855957,-130.0677490234375,69.83578491210938,170.96473693847656,33571500.0,40272.0,0.19224254767700147,-0.334591064559827,-0.040627077102130656,0.00812233893568621,-0.011267046900532266,-0.001108814917494206,33.57150000002002
1650,A,359641395988000.0,2.135488965231462,0.8558419420980581,5.608622277857304,253,1970-01-05 03:54:01.395988,-2.6035063,-0.350472,-0.09267801,16.003111867947318,2.628624144007897,-130.1532745361328,69.84351348876953,171.0122833251953,33611748.0,40248.0,0.11587973197783588,-0.35781558929043733,0.09381961049560077,0.006200652755773947,-0.013933991502082719,0.0010704465420101924,33.61174800002482
1650,A,359641436261000.0,1.7930011652314621,1.9886859420980585,7.354591377857304,253,1970-01-05 03:54:01.436261,-1.2090752,1.1568772,-0.21198763,15.296456299108309,1.6867621202789376,-130.31527709960938,69.7980728149414,170.9041290283203,33652021.0,40273.0,0.07910604151206668,-0.3373965642598849,0.26103375177829724,0.0039263310278794235,-0.013999139529966063,0.007145504729428348,33.652020999987144
1650,A,359641476545000.0,-2.206681334768538,7.8421139420980595,6.650455777857304,253,1970-01-05 03:54:01.476545,0.8607337,1.4082797,0.15339808,11.864730999236922,1.6576022401937887,-130.43138122558594,69.75830841064453,170.73455810546875,33692305.0,40284.0,-0.00833234597481578,-0.1967712287325218,0.2820896598104036,0.0014255237755113079,-0.010759207686453056,0.010939591756219613,33.69230500003323
1650,A,359641516785000.0,-0.04876873476853838,10.491005742098059,-0.7669200221426964,253,1970-01-05 03:54:01.516785,2.6716833,0.19281286,0.4889564,9.301502183417051,2.7228930966127245,-130.3606719970703,69.77067565917969,170.66751098632812,33732545.0,40240.0,-0.04537965539908597,-0.025489631953974124,0.1183767394049779,-0.0010806854676429032,-0.004471888517012299,0.008057383952213476,33.732545000035316
1650,A,359641557030000.0,4.264661565231462,11.25980694209806,-6.443116122142696,253,1970-01-05 03:54:01.557030,2.2370553,-0.68176925,0.21624869,11.52118543929314,2.348614319429729,-130.19717407226562,69.80098724365234,170.72254943847656,33772790.0,40245.0,0.08483430348099018,0.04327972823773636,-0.1450839523133828,0.0007939261560281174,0.0003579812124700057,-0.000537415891749378,33.77279000001727
1650,A,359641597310000.0,4.446683065231462,12.632153042098059,-0.5010726221426962,253,1970-01-05 03:54:01.597310,-0.40053943,0.015978966,-0.082025364,5.8085229207955935,0.40916417570272023,-130.21165466308594,69.79730224609375,170.7284393310547,33813070.0,40280.0,0.17544648085752332,0.0864400740817098,-0.1398559613099078,0.005242054996577662,0.0026125568187136457,-0.005738689860373074,33.813070000032894
1650,A,359641637606000.0,3.905408565231462,14.14820054209806,2.483121577857304,253,1970-01-05 03:54:01.637606,-1.5456988,1.2144015,0.03834952,3.0543515496685725,1.9660687854721464,-130.4180145263672,69.75950622558594,170.59091186523438,33853366.0,40296.0,0.168277942170567,0.14466976401438333,0.039934322359737914,0.006925359675169963,0.004656401017960085,-0.0020132211815680227,33.85336599999573
1650,A,359641677875000.0,4.013184365231462,11.837006342098059,1.3430923778573036,253,1970-01-05 03:54:01.677875,-1.1994878,0.81066626,-0.31638354,5.386459495922907,1.4819073222823884,-130.53370666503906,69.72113800048828,170.53152465820312,33893635.0,40269.0,0.15943690935840574,0.12856294800984674,0.07703890489133576,0.006598374678110102,0.00550140404025186,0.002355197444086743,33.89363499998581
1650,A,359641718213000.0,3.7425472652314618,6.98230194209806,1.1419105778573035,253,1970-01-05 03:54:01.718213,-0.5336975,1.5584819,-0.91612744,9.936953340482361,1.8849372245395373,-131.00180053710938,69.69097900390625,170.10728454589844,33933973.0,40338.0,0.1564253512548067,-0.015745771216048515,0.05012002461380791,0.0063706259343078815,0.0022754096387541164,0.0025646684491892426,33.93397300003562
1650,A,359641758499000.0,3.800027665231462,6.450607942098058,0.5287855778573038,253,1970-01-05 03:54:01.758499,-0.20985709,1.6724652,-0.5230448,10.60497337741511,1.7648670505852129,-131.65914916992188,69.64682006835938,169.48480224609375,33974259.0,40286.0,0.1519300868243147,-0.12422369620263764,0.03365283266455934,0.0062112035892277415,-0.0028194049822145954,0.0016874366641581517,33.97425900003873
1650,A,359641798893000.0,3.007276265231462,7.8971989420980595,-0.7908701221426959,253,1970-01-05 03:54:01.798893,-0.45593318,-0.8511463,0.082025364,9.974150858255323,0.9690475989175842,-131.60348510742188,69.67816925048828,169.56849670410156,34014653.0,40394.0,0.13748711748355966,-0.10607854435989104,-0.005293321540932064,0.005845359275406138,-0.004651414352641391,0.0005727770461639001,34.014652999991085
1650,A,359641839169000.0,1.3978230652314618,6.227869942098058,-3.5307726221426963,253,1970-01-05 03:54:01.839169,0.05965481,-1.619202,0.101200126,13.187564680024131,1.6234578154859929,-131.44566345214844,69.73562622070312,169.73358154296875,34054929.0,40276.0,0.08870989031686237,-0.1102541628100586,-0.08702924158441923,0.004555155343084898,-0.004356508056988446,-0.0018591917762183243,34.05492900003446
1650,A,359641879470000.0,1.4672786652314622,2.592230942098059,-1.2483191221426964,253,1970-01-05 03:54:01.879470,1.0301107,0.64555025,-0.2514024,15.239929871487114,1.2413969334001564,-131.73568725585938,69.59261322021484,169.40782165527344,34095230.0,40301.0,0.057733232419693144,-0.21722035713300614,-0.09630108819322279,0.002950902144702962,-0.006598775314112726,-0.003694197810184375,34.09523000003537
1650,A,359641919852000.0,1.0074346652314619,4.055587942098059,1.0676649778573037,253,1970-01-05 03:54:01.919852,0.23755397,-0.38029942,-0.098004326,13.413672731692866,0.45898190098282915,-131.38412475585938,69.54302978515625,169.732177734375,34135612.0,40382.0,0.049966936855376905,-0.26151748890919624,-0.0036475878272663625,0.0021745741178329395,-0.009666195849438109,-0.0020180637175296967,34.13561200001277
1650,A,359641960167000.0,3.146187265231462,7.942704942098059,1.6879749778573037,253,1970-01-05 03:54:01.960167,-0.44208476,-0.5049353,0.46019423,9.024637787161883,0.8137427858578167,-131.4061279296875,69.57544708251953,169.7335968017578,34175927.0,40315.0,0.08372663406330638,-0.15323141118681677,0.055546812407317195,0.002694928155793358,-0.008360300953685382,0.0010461586194723746,34.17592700000387
1650,A,359642000510000.0,3.433589665231462,8.651630642098059,3.2854532078573038,253,1970-01-05 03:54:02.000510,-0.91825795,-0.6498113,0.11717909,8.031669876127577,1.1310098706373524,-130.88742065429688,69.76630401611328,170.27017211914062,34216270.0,40343.0,0.13272397035283284,-0.060628759763388024,0.1003215066481422,0.004366133366980152,-0.004313880438322056,0.003144097797827199,34.216270000033546
1650,A,359642040805000.0,4.0778499652314615,8.04329494209806,5.251764377857304,253,1970-01-05 03:54:02.040805,-1.1675298,-0.5550028,-0.040480047,8.596769626325047,1.293364827147005,-130.88526916503906,69.78295135498047,170.33468627929688,34256565.0,40295.0,0.15133672995475175,-0.05852998679240873,0.17200359130818504,0.00572311295944706,-0.002400750846232915,0.005486669911075103,34.25656499998877
1650,A,359642081109000.0,3.208457965231462,8.515113942098058,6.528309877857303,253,1970-01-05 03:54:02.081109,-0.5113269,-0.4165184,0.28122982,8.650518862583501,0.7169609388658509,-130.89305114746094,69.80718994140625,170.35360717773438,34296869.0,40304.0,0.14683367741468883,-0.061294144165679874,0.23739205640116076,0.006008730049308966,-0.0024146958870674014,0.008250141092638736,34.29686900001252
1650,A,359642121434000.0,3.962889065231462,10.114987642098058,3.8243326128573036,253,1970-01-05 03:54:02.121434,1.4519554,0.7275756,0.7307714,6.466448154015334,1.7808895463679042,-130.96031188964844,69.81098175048828,170.20462036132812,34337194.0,40325.0,0.1445922845017087,-0.019555576808645853,0.20873515421903327,0.005875875957139365,-0.0016301324991448425,0.008995039884129662,34.337194000021555
1650,A,359642161742000.0,4.841861225231462,14.164965642098059,-4.091207622142696,253,1970-01-05 03:54:02.161742,2.718555,-0.04474111,1.019458,8.222748037866458,2.9037626743094953,-130.9106903076172,69.85093688964844,170.11265563964844,34377502.0,40308.0,0.17745093735398973,0.09431977848968849,-0.005378598937137803,0.0064904590932797455,0.0015067977206797332,0.004098448015151321,34.37750200001756
1650,A,359642202021000.0,4.439497965231462,10.091036942098059,-2.651800622142696,253,1970-01-05 03:54:02.202021,1.5595472,-0.91186637,0.47191215,9.079719391176068,1.8671874097375547,-130.78073120117188,69.89860534667969,170.16802978515625,34417781.0,40279.0,0.18692193341632807,0.09376956404441769,-0.13580081453578566,0.007338287430878815,0.003788025313965632,-0.002843282797637942,34.41778100002557
1650,A,359642242295000.0,4.365252365231462,6.055428942098059,1.8340713778573037,253,1970-01-05 03:54:02.242295,0.004261058,-0.25246766,-0.30040458,10.585289600587199,0.3924295957826465,-131.0215301513672,70.10367584228516,169.94821166992188,34458055.0,40274.0,0.17730125740453187,-0.06954381648994279,-0.01646661379217495,0.007334362393559657,0.0004878338785044611,-0.0030662092042401425,34.45805499999551
1650,A,359642282578000.0,3.814397765231462,5.214776942098059,2.269964877857304,253,1970-01-05 03:54:02.282578,-0.2428803,-0.13315806,-0.30040458,11.409555396874126,0.4086132899894838,-131.00753784179688,70.30558013916016,169.9778594970703,34498338.0,40283.0,0.16475042310271898,-0.1677745481834639,0.08266144624447577,0.006889433922936793,-0.004779947842069421,0.0013332632178380168,34.49833800003398
1650,A,359642322856000.0,4.0586897652314615,4.527406942098059,-2.6086902221426964,253,1970-01-05 03:54:02.322856,-0.36112466,-0.6402239,-0.34514567,13.562477472699904,0.8120487643676791,-130.92642211914062,70.31350708007812,170.0831756591797,34538616.0,40278.0,0.15855610977599283,-0.19852655875617442,-0.006821589708563517,0.006511070265644377,-0.007376937992657377,0.001527338870776737,34.53861600003438
1650,A,359642363150000.0,3.323418865231462,1.969525942098059,-2.3715836221426967,253,1970-01-05 03:54:02.363150,-1.4221281,-1.2623384,-0.20240025,15.839225570848114,1.912305527399906,-130.8455352783203,70.34718322753906,170.24461364746094,34578910.0,40294.0,0.14872734257793652,-0.26398749318210085,-0.10033757714081783,0.006190839714574615,-0.009318270604400433,-0.002158935734514486,34.578910000040196
1650,A,359642403448000.0,3.560525765231462,2.6449219420980583,6.736676477857303,253,1970-01-05 03:54:02.403448,-2.8229508,-0.23329292,-0.16724652,14.194690688109644,2.8375073928000396,-130.94664001464844,70.3485107421875,170.287109375,34619208.0,40298.0,0.13870460035919746,-0.30194388958133245,0.08795225594979361,0.005791466218240312,-0.011402951431300419,-0.0002495518366779469,34.61920800001826
1650,A,359642443749000.0,1.7834212652314618,4.668712942098059,8.164108377857303,253,1970-01-05 03:54:02.443749,-2.3829966,0.35792887,-0.48363006,13.05509969749753,2.4577802803600326,-131.05918884277344,70.31851196289062,170.2941131591797,34659509.0,40301.0,0.10768320463734314,-0.24757640026600614,0.30025826523507715,0.004964837464582791,-0.011073108600568796,0.007822636107135737,34.65950900001917
1650,A,359642483984000.0,0.03745196523146177,6.649393942098058,7.052819077857304,253,1970-01-05 03:54:02.483984,0.28016454,0.9257148,-0.06711166,11.639512088812829,0.9695071094738847,-131.13645935058594,70.2855453491211,170.19717407226562,34699744.0,40235.0,0.036631417213837864,-0.16661098475718464,0.30612653809033863,0.0029032494050911335,-0.00833241471820404,0.012198946280899053,34.69974400004139
1650,A,359642524287000.0,1.3163921652314619,7.736732942098058,2.6914883778573038,253,1970-01-05 03:54:02.524287,2.6908581,0.91825795,0.6583334,9.68125692366659,2.918444421713282,-131.15882873535156,70.28015899658203,170.03050231933594,34740047.0,40303.0,0.027281989995023605,-0.10506736409312199,0.19636241169383292,0.0012879510253693716,-0.005474726246856953,0.010125906071575734,34.74004699999932
1650,A,359642564620000.0,4.209575965231462,10.68021234209806,-0.8220056221426963,253,1970-01-05 03:54:02.564620,2.9561088,0.6530071,1.087635,7.46034613957637,3.2168225632311227,-131.17953491210938,70.29956817626953,169.85147094726562,34780380.0,40333.0,0.11143943630298056,-0.023858072926259025,0.03770092399311863,0.002797525643438701,-0.0025999748256513478,0.0047202382591309084,34.780380000011064
1650,A,359642604957000.0,5.881299745231462,11.748390942098059,-3.480477222142696,253,1970-01-05 03:54:02.604957,1.3092101,0.34834146,0.6625945,8.641240375708515,1.5081128373325356,-131.21170043945312,70.31304931640625,169.74783325195312,34820717.0,40337.0,0.20351782676647148,0.05704868533730938,-0.08677462524496993,0.006352215560216243,0.000669404866412269,-0.0009897429436979627,34.82071699999506
1650,A,359642645296000.0,4.195205865231462,12.72795394209806,-0.8028456221426961,253,1970-01-05 03:54:02.645296,-0.25885928,0.8767126,0.16937704,6.025543091059481,0.9296890294717045,-131.33224487304688,70.29048919677734,169.6334991455078,34861056.0,40339.0,0.20323807991023193,0.09835343814179358,-0.08639248010781421,0.008204063259715769,0.003134383129511767,-0.0034926939314129796,34.86105599999428
1650,A,359642685635000.0,3.895828465231462,13.27162344209806,2.7920791778573038,253,1970-01-05 03:54:02.685635,-0.8948221,1.0727214,-0.07137272,3.6539247816142475,1.3987608293866998,-131.4825897216797,70.25232696533203,169.52133178710938,34901395.0,40339.0,0.16319211692827196,0.1290762760505436,0.04012184620198578,0.007390713855134204,0.004587143620402344,-0.0009332555505636066,34.9013949999935
1650,A,359642725993000.0,3.903013565231462,10.77122294209806,1.9825624778573037,253,1970-01-05 03:54:02.725993,-0.37071204,0.35260254,-0.23009712,6.121940886239234,0.560981864633526,-131.7211151123047,70.14763641357422,169.31243896484375,34941753.0,40358.0,0.15737283333271135,0.08965219718669346,0.09634749397066505,0.0064686801313163815,0.004413721861454206,0.002753814815343921,34.94175300002098
1650,A,359642766329000.0,3.481490065231462,4.7261939420980585,0.12163217785730396,253,1970-01-05 03:54:02.766329,0.3930826,0.15765914,-0.33449304,12.399533258862593,0.5396813213895226,-132.16183471679688,70.15731811523438,168.8812255859375,34982089.0,40336.0,0.14893066921917625,-0.08274089627953271,0.042437397816452206,0.0061775290394664685,0.0001393871166956179,0.0027990136975625806,34.98208899999736
1650,A,359642806707000.0,4.587989125231462,2.9945939420980583,-4.8504286221426955,253,1970-01-05 03:54:02.806707,0.9491506,0.4878911,-0.21731395,15.973688451782376,1.0891051096217355,-132.14425659179688,70.13289642333984,168.8494415283203,35022467.0,40378.0,0.162914715376256,-0.23982941340596461,-0.09546967141367776,0.0062958464695971805,-0.006512371982240505,-0.0010706685716543867,35.02246700000251
1650,A,359642847033000.0,1.886407165231462,4.838758942098059,-3.370306622142696,253,1970-01-05 03:54:02.847033,0.76272935,0.7222493,0.17044231,14.070778363894844,1.0641666663357054,-132.1959991455078,70.11495971679688,168.75387573242188,35062793.0,40326.0,0.13054325240460393,-0.23725090579595373,-0.16575468473052635,0.005916993004365479,-0.00961937047606828,-0.005267066692935588,35.062793000019155
1650,A,359642887394000.0,2.537852265231462,4.462740942098058,0.8976185778573038,253,1970-01-05 03:54:02.887394,-0.3153183,-0.2790993,-0.34940675,12.632348436518637,0.5471810728825902,-132.2020263671875,70.12963104248047,168.7705535888672,35103154.0,40361.0,0.08928376743645704,-0.2078288815869803,-0.04990008107770136,0.00443621917390253,-0.0089819326492813,-0.004352021001392939,35.10315400001127
1650,A,359642927734000.0,0.4278399652314624,7.085286942098058,4.748810177857304,253,1970-01-05 03:54:02.927734,-0.73609775,-0.5699165,-0.004261058,10.646818714644283,0.9309472977255973,-132.17999267578125,70.14860534667969,168.83311462402344,35143494.0,40340.0,0.05981801228843719,-0.16240827757576437,0.11388846800276364,0.0030073828970511164,-0.007467683500312561,0.0012906457642785064,35.14349400001811
1650,A,359642968118000.0,3.134212265231462,6.819439942098059,3.4291543778573037,253,1970-01-05 03:54:02.968118,-0.25672874,0.098004326,0.24074976,9.871292029971627,0.36534222421827933,-132.22528076171875,70.15423583984375,168.79861450195312,35183878.0,40384.0,0.07192495863750738,-0.11499895475431203,0.16512946030898937,0.002660154068936673,-0.0056014068352089035,0.005633930008470916,35.183878000010736
1650,A,359643008379000.0,3.385689265231462,7.820558942098058,3.1800723178573036,253,1970-01-05 03:54:03.008379,-0.10226539,-0.8319715,0.27377295,8.853695729767326,0.8818086044918163,-131.70361328125,70.36066436767578,169.30172729492188,35224139.0,40261.0,0.1312488777589839,-0.09984730246169007,0.1330470379980829,0.004089990913579568,-0.00432496258088673,0.006002441999170518,35.224138999998104
1650,A,359643048671000.0,3.838347965231462,10.656261942098059,2.8639297778573036,253,1970-01-05 03:54:03.048671,0.38136467,-0.77231675,0.7105314,6.047864637252015,1.1165872309142404,-131.37725830078125,70.45354461669922,169.59300231933594,35264431.0,40292.0,0.1455354540449061,-0.022627566466985053,0.12176246622026647,0.005576097148521167,-0.002467378709437089,0.005133392271982866,35.26443099998869
1650,A,359643088940000.0,4.231131165231462,11.58073934209806,2.346605477857304,253,1970-01-05 03:54:03.088940,1.0833739,-0.3653857,0.45486793,5.1862817511132215,1.2304919953856606,-131.5288848876953,70.42931365966797,169.39862060546875,35304700.0,40269.0,0.16247492755230572,0.05309470235664672,0.10491152210618575,0.006201635028269061,0.0006134405475703928,0.0045639674179589525,35.30470000003697
1650,A,359643129237000.0,4.326932065231462,13.27880844209806,0.6676967778573037,253,1970-01-05 03:54:03.129237,1.4594123,-0.4282363,0.1438107,4.569595083444459,1.5277277596036116,-131.42417907714844,70.4488754272461,169.4322967529297,35344997.0,40297.0,0.17243213699898222,0.10597199852987547,0.06073366899926577,0.006747874990111625,0.0032049554228120924,0.0033375021329881895,35.344997000007425
1650,A,359643169538000.0,5.026277725231462,10.23234344209806,0.9263587778573039,253,1970-01-05 03:54:03.169538,1.2708606,-0.49960902,-0.14913702,6.814465589942819,1.3736585049539063,-131.29396057128906,70.45980834960938,169.50306701660156,35385298.0,40301.0,0.1884718538827231,0.07881166604249386,0.0321210164754272,0.007272395868261803,0.003723483232965528,0.0018710683396578006,35.38529800000833
1650,A,359643209773000.0,4.717320165231462,8.44326394209806,2.162188977857304,253,1970-01-05 03:54:03.209773,0.8021441,-0.8479505,-0.13741912,8.155653599733059,1.1753038850257556,-131.52525329589844,70.67314147949219,169.2593231201172,35425533.0,40235.0,0.19601683056138788,-0.018596468448434593,0.062133859475588624,0.007734951109304403,0.0012113792375984872,0.001896172466944561,35.425533000030555
1650,A,359643250074000.0,4.451472965231462,6.084169942098059,0.20066797785730373,253,1970-01-05 03:54:03.250074,0.73290193,-1.1899004,0.20879184,10.970032867334174,1.4130117598125185,-131.3810272216797,70.7203369140625,169.373291015625,35465834.0,40301.0,0.18475576597539312,-0.10221474351650611,0.0476127490861272,0.0076727582065144045,-0.0024344063266995377,0.0022114490358228545,35.465834000031464
1650,A,359643290375000.0,6.8560727652314615,-2.710343057901941,-2.163216622142696,253,1970-01-05 03:54:03.290375,0.5475459,-0.5251754,-0.06391586,20.058310432823205,0.7613809496773015,-131.29124450683594,70.73529815673828,169.43943786621094,35506135.0,40301.0,0.2278527002416931,-0.3269655013700061,-0.03954633645667279,0.008314266898507396,-0.008648196524585663,0.00016254224768982102,35.50613500003237
1650,A,359643330706000.0,7.418902365231462,-0.1644370579019423,-1.4926108221426961,253,1970-01-05 03:54:03.330706,-0.10652645,0.7222493,-0.5230448,17.48808210992603,0.898091197321927,-131.32476806640625,70.69181060791016,169.40956115722656,35546466.0,40331.0,0.28786201099335007,-0.4532151784252432,-0.07372158832773706,0.010399645009410263,-0.0157327334984111,-0.002284104337240017,35.546466000028886
1650,A,359643370962000.0,3.601241065231462,3.358636942098059,4.844610977857304,253,1970-01-05 03:54:03.370962,-1.9792614,0.07456851,-0.13209279,13.21610779549177,1.9850654038050142,-131.4192657470703,70.68439483642578,169.41429138183594,35586722.0,40256.0,0.22181344696835772,-0.3302159447309006,0.06746905913422363,0.010258747617853253,-0.015768901646886862,-0.0001258509076070384,35.58672200003639
1650,A,359643411250000.0,-1.442670334768538,5.7512619420980595,8.777233377857304,253,1970-01-05 03:54:03.411250,-1.9899141,-0.007456851,0.10759171,13.651892682967954,1.9928345907441416,-131.52809143066406,70.68864440917969,169.40435791015625,35627010.0,40288.0,0.043482248794445136,-0.2113125968767534,0.27439843270151504,0.005344116495445901,-0.010908550942144582,0.006886578755539119,35.62700999999652
1650,A,359646675999000.0,4.291006665231462,3.8448259420980584,1.8340713778573037,253,1970-01-05 03:54:06.675999,0.7318367,1.0578076,-0.35260254,12.760176084932176,1.3337430132147279,-131.79904174804688,70.87197875976562,169.1047821044922,38891759.0,3264749.0,4.6495515932712514,-16.33013103807931,17.321623294957256,7.6607887714250715,-27.00183078288958,28.72329716967612,38.8917590000201
1650,A,359646716364000.0,4.3724373652314625,3.535868942098059,-3.037398622142696,253,1970-01-05 03:54:06.716364,1.6373115,1.0982877,-0.10546118,14.605594226655876,1.9743725282961502,-131.82492065429688,70.83145141601562,168.99070739746094,38932124.0,40365.0,0.17484995914481796,-0.24661612549971187,-0.02428615210778993,0.09736848433163732,-0.3345601996289336,0.3491035068855593,38.93212400004268
1650,A,359646756728000.0,1.795396265231462,5.80634694209806,-5.221656622142696,253,1970-01-05 03:54:06.756728,2.0793962,1.3337111,0.5368933,14.394021765547603,2.528028534337091,-131.91525268554688,70.80693054199219,168.78501892089844,38972488.0,40364.0,0.12447921833000274,-0.20702259902515396,-0.16668425294016778,0.00604106145979683,-0.009155336738360843,-0.003854164714677882,38.97248799999943
1650,A,359646797185000.0,3.301863665231462,4.798043942098058,-1.1309626221426958,253,1970-01-05 03:54:06.797185,1.2538162,0.5901565,0.21624869,12.790977212080945,1.4025345820340425,-131.9363555908203,70.79524993896484,168.69627380371094,39012945.0,40457.0,0.10310992250336926,-0.18196767899903887,-0.12850395838302706,0.0046037869353478655,-0.007868689839012386,-0.005971214732751247,39.01294500002405
1650,A,359646837490000.0,-0.012843334768538384,7.77984394209806,3.412389227857304,253,1970-01-05 03:54:06.837490,0.11504856,-0.19707392,0.46978164,10.237811862552462,0.5222730036899568,-131.95465087890625,70.81932067871094,168.6708221435547,39053250.0,40305.0,0.06628198220965406,-0.14151311441373776,0.04597644967166364,0.0034136703597292023,-0.006518946689250981,-0.0016631356193057513,39.053249999997206
1650,A,359646877729000.0,2.600122865231462,8.194181942098059,2.861534727857304,253,1970-01-05 03:54:06.877729,0.45699844,0.47297743,0.33981937,8.749936139535532,0.7402921232047761,-131.3931884765625,70.8258056640625,169.17001342773438,39093489.0,40239.0,0.05205477051314879,-0.07295278622291622,0.12622821302700005,0.0023808762964064316,-0.0043149466878591594,0.0034646717111657638,39.09348899999168
1650,A,359646918048000.0,3.050386665231462,7.202643942098058,3.3189834778573037,253,1970-01-05 03:54:06.918048,0.56245965,-0.018109497,-0.037284255,9.526179305041934,0.5639848645403709,-130.7756805419922,70.97164154052734,169.72760009765625,39133808.0,40319.0,0.11391144687936731,-0.0847338885875484,0.12459615676810362,0.0033457959595244286,-0.003178884520841561,0.005056493882884393,39.13380800001323
1650,A,359646958363000.0,3.122237165231462,8.634865542098058,3.5680655178573035,253,1970-01-05 03:54:06.958363,0.47297743,-0.608266,0.35899413,8.120723462085214,0.8500423291930006,-130.71917724609375,71.00509643554688,169.76234436035156,39174123.0,40315.0,0.12442466486255638,-0.0758424025723168,0.1388256901311172,0.0048042601724378265,-0.0032368165890549827,0.005309925878871044,39.17412300000433
1650,A,359646998601000.0,3.639561365231462,10.23234344209806,2.703463377857304,253,1970-01-05 03:54:06.998601,1.139833,-0.8362326,0.5294364,6.530593620880367,1.509571836924868,-130.35714721679688,71.05107879638672,170.0555419921875,39214361.0,40238.0,0.13604062463438357,-0.01474302244695833,0.1261768898528822,0.0052403011593889345,-0.0018224881659627964,0.005331586906698084,39.214360999991186
1650,A,359647038943000.0,4.1856258652314615,12.280085342098058,0.5599208778573037,253,1970-01-05 03:54:07.038943,1.808819,-0.56245965,0.44208476,5.3982731906978225,1.9451544842668358,-130.24583435058594,71.08609771728516,170.07757568359375,39254703.0,40342.0,0.15784185162566763,0.05874660100601987,0.06582572382201936,0.005927903428641493,0.0008875961831148303,0.0038728847204364397,39.25470300001325
1650,A,359647079193000.0,4.360462265231462,12.184284442098058,-2.8817224221426967,253,1970-01-05 03:54:07.079193,1.6969663,-0.66365975,0.25566345,7.976527269714287,1.8399735559979264,-130.11102294921875,71.11729431152344,170.13038635253906,39294953.0,40250.0,0.17199002362556634,0.0978954419069468,-0.04672625607874353,0.006637866489431084,0.003152421113623454,0.00038437678833342596,39.294953000033274
1650,A,359647119504000.0,4.353277165231462,8.905502642098059,-1.420760622142696,253,1970-01-05 03:54:07.119504,0.61891866,-0.6860303,-0.24927188,9.199237118437644,0.9569923460368008,-129.97984313964844,71.12981414794922,170.23634338378906,39335264.0,40311.0,0.17562977509069544,0.03002740357551479,-0.08671869699909424,0.0070064508530256146,0.0025783489121217543,-0.002689649751760359,39.33526399999391
1650,A,359647159804000.0,3.421614665231462,7.463700942098059,0.21982797785730357,253,1970-01-05 03:54:07.159804,-0.39095205,-0.6178534,-0.49215218,9.84332364336256,0.8813626368127451,-130.51129150390625,71.01421356201172,169.764892578125,39375564.0,40300.0,0.15666407038382793,-0.06510054777844826,-0.02419879278235066,0.006695720986311646,-0.0007067238556891094,-0.0022349874190961145,39.37556399998721
1650,A,359647200071000.0,3.828767865231462,5.351293942098058,-0.43880222214269615,253,1970-01-05 03:54:07.200071,-0.6135923,-0.16192019,-0.55606806,11.94563739401647,0.8437566864334112,-130.47164916992188,70.99834442138672,169.83926391601562,39415831.0,40267.0,0.14597557667707525,-0.13660590049903748,-0.004408717947319951,0.006093195334100694,-0.004061056776394759,-0.0005759693172758232,39.41583100002026
1650,A,359647240341000.0,4.592779195231462,1.3348459420980596,-2.215907022142696,253,1970-01-05 03:54:07.240341,-1.4349113,-0.479369,-0.6828345,16.241024036914833,1.6598277113661346,-130.42611694335938,70.98787689208984,169.96328735351562,39456101.0,40270.0,0.16956785006242098,-0.2600205734317112,-0.05345257063368637,0.006353466897399756,-0.007986074052595625,-0.0011650370455785623,39.45610100001795
1650,A,359647280570000.0,1.627744865231462,0.5804139420980583,2.7944741778573037,253,1970-01-05 03:54:07.280570,-3.3704967,-1.4988271,-0.36645097,16.313494052622524,3.706887777343582,-129.91651916503906,71.17498016357422,170.62713623046875,39496330.0,40229.0,0.1251227312141815,-0.3557197050593372,0.011637589053621472,0.005927553697088221,-0.012385307831708194,-0.0008410874469922154,39.49632999999449
1650,A,359647320861000.0,-1.7803683347685384,4.057982942098059,7.778509877857304,253,1970-01-05 03:54:07.320861,-3.8072553,-1.6969663,0.05965481,14.870764257522955,4.1687463630053,-129.9213104248047,71.23173522949219,170.8231658935547,39536621.0,40291.0,-0.003074676105559175,-0.30140897556942714,0.21299805029439864,0.002458719094190751,-0.013238185835606773,0.004525397272485539,39.536621000035666
1650,A,359647361176000.0,-0.8247553347685379,5.444699942098058,6.909117977857304,253,1970-01-05 03:54:07.361176,-0.30466563,0.76272935,0.33768883,13.025611125166657,0.888037698164604,-130.05441284179688,71.22016143798828,170.6986541748047,39576936.0,40315.0,-0.05251278036869361,-0.20353666976181678,0.2960658585015672,-0.0011205041538797506,-0.01017844184576455,0.010261455741554681,39.57693600002676
1650,A,359647401458000.0,-0.33617133476853756,8.270822942098059,5.012262277857304,253,1970-01-05 03:54:07.401458,1.9718045,0.5954828,0.3749731,10.079717629656647,2.0936135214121303,-130.058349609375,71.21537017822266,170.5904083251953,39617218.0,40282.0,-0.023382224051146237,-0.11851925358940603,0.2401085197303479,-0.0015286012840199942,-0.006486528352216978,0.010799088151969,39.61721799999941
1650,A,359647441791000.0,6.056136165231462,10.30658894209806,-8.102865622142696,253,1970-01-05 03:54:07.441791,2.9188247,-0.29507825,0.39734364,13.376927603808516,2.960488265675377,-129.9167022705078,71.24005889892578,170.5858612060547,39657551.0,40333.0,0.11535167075353056,-0.020622023237359004,-0.06232665234253136,0.0018547018469236335,-0.0028059925591269567,0.003585238028676402,39.65755100001115
1650,A,359647482007000.0,5.689698185231462,11.82503154209806,-0.8794860221426966,253,1970-01-05 03:54:07.482007,1.1749867,1.0386329,0.07456851,6.540068946621452,1.570003983696513,-129.9821014404297,71.20957946777344,170.45474243164062,39697767.0,40216.0,0.2361852371191085,0.050905824696215546,-0.18061712686329068,0.007068704143503026,0.0006089466797346873,-0.00488511351227067,39.697767000005115
1650,A,359647522309000.0,4.604754305231462,12.474081842098059,5.440970877857303,253,1970-01-05 03:54:07.522309,-1.0205233,1.3369069,-0.257794,4.346227515571318,1.701542127467463,-130.15887451171875,71.15666198730469,170.32186889648438,39738069.0,40302.0,0.20744351213531836,0.09469183380493595,0.09191848132750503,0.008939562926225955,0.002933938416456704,-0.0017873664061916165,39.73806900001364
1650,A,359647562579000.0,5.031067765231462,12.866864942098058,3.575250577857304,253,1970-01-05 03:54:07.562579,-0.350472,0.68389976,-0.1587244,3.5664062772315286,0.7846928951299467,-130.23789978027344,71.12855529785156,170.2569122314453,39778339.0,40270.0,0.194017277388771,0.11559396349978879,0.18154161901081362,0.00808341299706754,0.004234104528730633,0.005506119120312045,39.77833900001133
1650,A,359647602772000.0,4.017974465231462,11.051439942098058,-0.6208236221426962,253,1970-01-05 03:54:07.602772,0.3291667,0.44315,0.024501082,7.089961236124556,0.5525694000829767,-130.27320861816406,71.11515045166016,170.20217895507812,39818532.0,40193.0,0.18185407718449814,0.08678281410524723,0.05937364131551861,0.007553698677181703,0.004067064911139607,0.004841553529148135,39.81853200000478
1650,A,359647643046000.0,2.425286465231462,5.310577942098059,-1.717742622142696,253,1970-01-05 03:54:07.643046,0.48682585,0.81066626,-0.24607609,12.75702303223793,0.9771042090792047,-130.31593322753906,71.07958221435547,170.13131713867188,39858806.0,40274.0,0.1297479453567319,-0.06520324586594281,-0.047091708461174935,0.006274729927912749,0.000434547765634873,0.00024732128188791855,39.85880600003293
