Subject-id_accel,Activity_accel,Timestamp_accel,accel_x,accel_y,accel_z,Segment_accel,DateTime,gyro_x,gyro_y,gyro_z,accel_magnitude,gyro_magnitude,Roll,Pitch,Yaw,Time_Difference,Difference_Microseconds,vx,vy,vz,dx,dy,dz,Time_diff
1605,A,182971849451368.0,-1.612460617791796,4.171298,2.1936872,26,1970-01-03 02:49:31.849451368,-0.018109497,0.60427123,0.79868203,5.411780449168596,1.0016809164260976,86.25041198730469,11.511394500732422,58.0379638671875,15004590.0,39910.0,-0.05496526198307058,-0.20787202322250004,0.11927351939750001,-0.002006115180007125,-0.008068542932904368,0.003032807175921377,15.00459056798718
1605,A,182971889345377.0,-1.883603817791796,3.5691562,2.3588872,26,1970-01-03 02:49:31.889345377,0.59841233,0.1123854,0.37603834,5.18599842201904,0.715634423416834,85.68285369873047,12.08091926574707,57.92265701293945,15044484.0,39894.0,-0.0697359972965859,-0.2365623600726,0.09081020155679999,-0.0024874160188513078,-0.00886513264358736,0.004190539981875422,15.044484576996183
1605,A,182971929255014.0,0.882896112208204,4.835689,4.2102036,26,1970-01-03 02:49:31.929255014,1.1006845,-0.12516858,-0.2282329,6.413797320556664,1.131045444976406,84.86132049560547,11.886246681213379,57.73362731933594,15084394.0,39910.0,-0.019969122264920577,-0.223399314034,0.131086206914,-0.0017900656608498618,-0.009178535206797204,0.004427942831034814,15.084394214005442
1605,A,182971969203501.0,3.881035282208204,14.725537,9.77373,26,1970-01-03 02:49:31.969203501,1.1177287,0.22077605,-0.80081254,17.89961380911046,1.3926091466303616,84.2315902709961,11.448352813720703,57.60200881958008,15124342.0,39948.0,0.09515476567207333,-0.0007744718760000371,0.2793150897264,0.001501758041414469,-0.004477647199766341,0.00819735549909535,15.124342700990383
1605,A,182972009061890.0,9.052510482208204,17.906235,5.667674,26,1970-01-03 02:49:32.009061890,0.1307612,-0.49694586,0.52144694,20.416562236960218,0.7320932935302326,83.95977783203125,10.613285064697266,57.52703857421875,15164201.0,39859.0,0.2577591003119368,0.25971670007399994,0.307739461018,0.007033396892128329,0.005160589136872039,0.011699703669060521,15.164201089995913
1605,A,182972049007826.0,5.335512882208204,5.9920883,4.721366,26,1970-01-03 02:49:32.049007826,-0.31265512,0.08894958,-0.0743022,8.751199641854255,0.33344575086396105,83.26993560791016,9.732317924499512,57.41204071044922,15204147.0,39946.0,0.287371990657489,0.08585041127089993,0.20750029592,0.010887903279932342,0.006902011914891685,0.010290883665322674,15.20414702600101
1605,A,182972088871523.0,-1.7309735177917962,7.7799582,1.3724761,26,1970-01-03 02:49:32.088871523,0.97764647,-0.76565886,-0.65487134,8.374445733101354,1.4038812564292453,83.23316955566406,10.000680923461914,57.356224060058594,15244010.0,39863.0,0.07184387634186563,-0.11615985518525003,0.12145941381615001,0.0071597110530976366,-0.0006041126813788691,0.006556660454606075,15.244010722992243
1605,A,182972128810952.0,-8.496388517791797,18.048092,0.18016368,26,1970-01-03 02:49:32.128810952,0.33742252,-1.3102753,-0.464189,20.41694991356572,1.430435858930501,83.37677001953125,10.456843376159668,57.31203079223633,15283950.0,39940.0,-0.20424041985060434,0.12437416249399998,0.031006216406600003,-0.002643958973869512,0.00016403971695573644,0.003044738635548318,15.28395015199203
1605,A,182972168670533.0,-1.0366552177917963,5.801151,1.8195933,26,1970-01-03 02:49:32.168670533,0.56432384,-0.664725,-0.03355583,6.42712728823097,0.8726091425972653,83.14064025878906,10.669710159301758,57.2309684753418,15323809.0,39859.0,-0.1899887951283132,0.08468528836849999,0.03985415673291,-0.007856791139922338,0.004166450325964193,0.0014122118064838645,15.323809733003145
1605,A,182972206632722.0,-3.696014517791796,7.856573,-1.8471266,26,1970-01-03 02:49:32.206632722,0.14088123,0.040746365,-0.81039995,9.361544855145468,0.8235629096717679,83.57954406738281,11.208401679992676,57.31017303466797,15361771.0,37962.0,-0.08983080425111216,-0.11279034075600003,-0.0005226095672999997,-0.005311255815820873,-0.0005334619993671382,0.0007465520967504434,15.361771922005573
1605,A,182972246773659.0,-1.7201995177917961,6.3913217,-2.734777,26,1970-01-03 02:49:32.246773659,-0.036485307,1.1667309,-1.293231,7.48252263587815,1.7421362145373978,84.25863647460938,11.572881698608398,57.49443054199219,15401912.0,40141.0,-0.1087061238011805,-0.10741942942365004,-0.0919610962038,-0.00398473541447354,-0.004419720192390667,-0.0018561942166788628,15.401912859000731
1605,A,182972288564232.0,-1.8213546177917959,9.624092,-2.0452468,26,1970-01-03 02:49:32.288564232,-0.24341293,2.901514,-1.0937603,10.248731319975592,3.1103609019763727,84.70314025878906,11.77099323272705,57.72285461425781,15443703.0,41791.0,-0.07400254444008696,-0.07490172303165006,-0.09988098731290002,-0.0038177889772354045,-0.0038096916411297236,-0.004008636256123205,15.443703431985341
1605,A,182972328336107.0,0.22927908220820392,10.976816,0.7763199,26,1970-01-03 02:49:32.328336107,1.206412,2.1334584,-0.74728304,11.034611159215832,2.5623244525520574,84.81657409667969,11.630578994750977,57.83415985107422,15483475.0,39772.0,-0.031660014100615315,0.019904056487999946,-0.025233880333400006,-0.0021012056391404056,-0.0010936835968870262,-0.0024880342580143227,15.483475307002664
1605,A,182972368258815.0,2.182349082208204,6.5128274,3.9378633,26,1970-01-03 02:49:32.368258815,4.2312303,-0.4791027,-0.47670585,7.694905864641894,4.284868459615721,84.39021301269531,11.187925338745117,57.68169403076172,15523398.0,39923.0,0.04813971560399813,-0.04212588327090004,0.0941021679468,0.00032895956155977604,-0.00044358099532686027,0.001374714323194884,15.523398015007842
1605,A,182972408136888.0,1.3725103822082039,8.441357,-0.7493851,26,1970-01-03 02:49:32.408136888,3.4663706,-2.2722092,-0.06338324,8.480785306486506,4.145199298009915,84.8115234375,10.8534517288208,57.61738204956055,15563276.0,39878.0,0.07088034286099876,-0.09263291724840002,0.06357506682979999,0.0023731409457335728,-0.0026869557235543236,0.0031439263842106273,15.563276087981649
1605,A,182972448189753.0,1.633478382208204,9.512163,-0.29029694,26,1970-01-03 02:49:32.448189753,1.3179984,-1.5797871,-0.74781567,9.534615402160025,2.189080935010517,85.03752136230469,10.529950141906738,57.56631851196289,15603328.0,40052.0,0.06019793099620298,-0.03297240848000004,-0.02082067253304,0.0026249735122643213,-0.002515372253036939,0.0008561995001869155,15.603328953002347
1605,A,182972487953190.0,0.11794868220820398,9.26556,-0.40462008,26,1970-01-03 02:49:32.487953190,0.87165266,1.3680658,-0.7613978,9.32085728322887,1.7919567524523454,85.2813720703125,10.455771446228027,57.666526794433594,15643092.0,39764.0,0.03482187289472702,-0.01634851131400003,-0.01381634019164,0.0018891837409594702,-0.0009805985273443093,-0.0006886530869920877,15.643092390004313
1605,A,182972525877254.0,0.37592388220820394,11.036672,-0.7649474,26,1970-01-03 02:49:32.525877254,0.61572284,0.6151902,-0.55340487,11.08351408446652,1.0314216150602151,85.53675079345703,10.314580917358398,57.73488235473633,15681016.0,37924.0,0.009364811566463927,0.013315723183999973,-0.02217733855576,0.0008378679107531027,-5.750772852106109e-05,-0.0006825121364081988,15.681016454007477
1605,A,182972567716367.0,-2.314560217791796,13.71698,-1.2791022,26,1970-01-03 02:49:32.567716367,0.37310886,-0.19627498,-0.07456851,14.18079950977991,0.4281291298990529,85.79413604736328,10.406038284301758,57.767906188964844,15722855.0,41839.0,-0.04055530282224095,0.10781182301399996,-0.0427604956072,-0.0006524894818252275,0.0025339277026890593,-0.001358467021772042,15.722855567000806
1605,A,182972607675585.0,-0.2453715177917961,13.248914,1.2814964,26,1970-01-03 02:49:32.607675585,-0.13102753,-0.41199103,-0.18162759,13.373386461692114,0.46892793035558233,85.75038146972656,10.292335510253906,57.74037551879883,15762814.0,39959.0,-0.051146156111092377,0.14716687917299995,4.783491889999804e-05,-0.0018321492987585333,0.005094346980345165,-0.0008533776042218899,15.762814785004593
1605,A,182972647542880.0,1.174390172208204,14.1108265,-2.4953568,26,1970-01-03 02:49:32.647542880,-1.0450244,-0.4892227,0.1768339,14.330329089981985,1.167341027712065,86.05262756347656,10.021113395690918,57.77965545654297,15802682.0,39868.0,0.018519057857136676,0.15468266712699993,-0.024197093213600005,-0.0006503885765943529,0.006017068855944198,-0.00048139131484654994,15.80268207998597
1605,A,182972685326836.0,0.9475395622082039,10.404602,-0.23882163,26,1970-01-03 02:49:32.685326836,-2.0192087,-0.5411543,1.0199907,10.407822545332458,2.326033701099507,86.08090209960938,9.733732223510742,57.7789421081543,15840466.0,37784.0,0.040087496542594775,0.09286227522199998,-0.05165409889956,0.0011071950257197265,0.004676619050857306,-0.0014329807214018189,15.840466035995632
1605,A,182972727304804.0,-1.1862927177917961,8.8884735,-0.16101007,26,1970-01-03 02:49:32.727304804,-3.6400087,0.33981937,1.412008,9.166280819419603,3.919044160553296,86.02444458007812,9.774529457092285,57.821617126464844,15882444.0,41978.0,-0.005011189982544018,-0.0064420383305000195,-0.0083920675513,0.0007362165983889054,0.001813874352115693,-0.0012603089876371005,15.882444004004356
1605,A,182972765004752.0,-0.045455617791795966,12.484565,-2.9694088,26,1970-01-03 02:49:32.765004752,-2.5369272,2.058091,1.4628744,12.879297276619639,3.579349059892902,86.34777069091797,9.59670639038086,58.00371170043945,15920143.0,37699.0,-0.02321784025158292,0.033420889205749975,-0.059006830490065006,-0.0005321031053981758,0.0005085378495730241,-0.0012704355286307098,15.920143951982027
1605,A,182972804996991.0,-1.7788577177917961,13.859435,-2.556409,26,1970-01-03 02:49:32.804996991,-1.7409084,0.22690132,0.67058396,14.373846013196086,1.879342734473301,86.61007690429688,9.614441871643066,58.075252532958984,15960136.0,39993.0,-0.0364798816149973,0.13485639599999993,-0.11049701563770001,-0.0011937454953050714,0.003364956733616778,-0.003389483659093853,15.960136190988123
1605,A,182972846699023.0,-2.9675785177917957,12.600085,7.1514807,26,1970-01-03 02:49:32.846699023,-1.5406387,-3.7875478,1.3062805,15.0341828343104,4.292488169570509,85.88348388671875,9.70650863647461,57.78360366821289,16001838.0,41702.0,-0.09896794194815348,0.14302785152,0.09581184001670001,-0.002824222569115257,0.005794164445039519,-0.00030620059687347097,16.001838222990045
1605,A,182972886396106.0,-2.443847217791796,6.716933,-3.4213142,26,1970-01-03 02:49:32.886396106,-0.65513766,-0.80587256,0.8362326,8.30735021507031,1.3333870022667798,86.52625274658203,10.067231178283691,57.86284637451172,16041535.0,39697.0,-0.10740868371273093,-0.00561676822700001,0.07403820977525,-0.004096266454430064,0.002727403886741111,0.00337126871329552,16.04153530599433
1605,A,182972926254231.0,-0.596720517791796,4.6160207,-2.3145945,26,1970-01-03 02:49:32.926254231,-1.1598067,2.3848608,0.74248934,5.419266337225246,2.7539068678434213,87.18568420410156,10.257497787475586,58.108734130859375,16081392.999999998,39857.99999999814,-0.060595474402442576,-0.16475396571269232,-0.11431092448229466,-0.003348154867077136,-0.0033953183566839697,-0.0008025949313966556,16.081393430999015
1605,A,182972966163606.0,0.700338242208204,4.596867,1.2533646,26,1970-01-03 02:49:32.966163606,-1.6634104,1.1110709,1.0897655,4.777303483570992,2.2779380036878134,86.80048370361328,10.059819221496582,58.11283874511719,16121302.0,39909.00000000186,0.0020676398818673084,-0.2072696323903597,-0.021176312039550987,-0.0011678936739408735,-0.007423544888347697,-0.0027035800611752946,16.12130280598649
1605,A,182973006109700.0,-0.861279917791796,3.0843303,2.7084408,26,1970-01-03 02:49:33.006109700,-0.23435818,1.2724584,0.7502125,4.526828484640598,1.4956245957524643,85.9859619140625,10.441502571105957,58.034542083740234,16161248.0,39946.0,-0.0032144880864310847,-0.23805424632710007,0.07912913925420001,-2.2905999189752305e-05,-0.008894453829623825,0.001157491817958185,16.16124889999628
1605,A,182973045013970.0,-1.1719275177917963,2.878429,1.4532804,26,1970-01-03 02:49:33.045013970,0.64102286,0.32597092,0.31984565,3.914489080287511,0.7870632678204138,85.55601501464844,11.027948379516602,57.965736389160156,16200153.0,38905.0,-0.039550967640689834,-0.26527842471675006,0.080955881643,-0.0008318950275318197,-0.009791078783480496,0.0031140538690027832,16.200153169978876
1605,A,182973086500377.0,-0.7254088177917961,4.2078094,3.359065,26,1970-01-03 02:49:33.086500377,1.5656724,0.27403927,-0.2548645,5.6685248847943726,1.6097774687776392,84.85796356201172,11.2652587890625,57.828250885009766,16241639.0,41486.0,-0.039356447609010456,-0.2595729568688,0.0998224806322,-0.0016367765145245334,-0.010886992208229064,0.003749885568674474,16.24163957699784
1605,A,182973126375690.0,0.7081193822082039,13.236942,8.384495,26,1970-01-03 02:49:33.126375690,1.5110776,0.25752768,-1.0319749,15.672637538434577,1.8478766770047055,84.2678451538086,11.0988130569458,57.707088470458984,16281514.000000002,39875.00000000186,-0.00034470812194788543,-0.04297026896250201,0.2341372275000109,-0.0007915417923860189,-0.006031955565011865,0.006658321680886265,16.281514889997197
1605,A,182973165992044.0,6.725346782208204,19.612701,5.3223104,26,1970-01-03 02:49:33.165992044,-0.48176584,-0.5773733,0.8966864,21.10030808265272,1.1702584125263769,84.0088882446289,10.410985946655273,57.63962173461914,16321131.000000002,39617.0,0.1472458145178424,0.2624555533655,0.2715112547659,0.0029098905660430766,0.004347674256096786,0.010016137960964296,16.321131243981654
1605,A,182973204306992.0,5.810761482208204,5.8262897,6.217143,26,1970-01-03 02:49:33.204306992,-0.66339344,0.0644485,0.3933489,9.761516413164047,0.7739301147509984,83.14720916748047,9.532449722290039,57.501564025878906,16359445.999999998,38314.999999996275,0.24016049407553403,0.11186046433523913,0.2210670785104785,0.007421736356876887,0.007170959109101214,0.009436569419741303,16.359446191985626
1605,A,182973246072825.0,-2.571338517791796,8.141483,5.3025584,26,1970-01-03 02:49:33.246072825,0.7661915,-0.5318333,-0.98590225,10.368068528882105,1.357165914770999,82.57798767089844,9.87120532989502,57.36745834350586,16401212.000000002,41766.000000003725,0.06764886976591389,-0.11761780270591053,0.24056592433622143,0.00642798294510153,-0.0001202304971947415,0.009640281998448495,16.40121202499722
1605,A,182973285997772.0,-8.330590517791796,18.778921,-3.0992942,26,1970-01-03 02:49:33.285997772,-0.67990506,-2.6336,-0.4596616,21.217964864664534,2.758515658307591,82.89749908447266,10.290024757385254,57.29764175415039,16441136.0,39923.99999999814,-0.2176243074083095,0.14612990464799316,0.04398155996039794,-0.002993809686217361,0.0005691585789678269,0.0056801368815288505,16.44113697198918
1605,A,182973325933710.0,1.556863882208204,3.9121256,6.066907,26,1970-01-03 02:49:33.325933710,0.28016454,-1.6974989,-0.41625208,7.236818457462735,1.77010182731925,81.78308868408203,10.03448486328125,57.013118743896484,16481072.000000002,39936.00000000186,-0.13525777345933948,0.06172201850880286,0.05925729239040276,-0.0070463493907655435,0.004150387201595097,0.0020614734037408848,16.481072909984505
1605,A,182973365800534.0,-3.473952517791796,9.038112,-3.6990416,26,1970-01-03 02:49:33.365800534,0.5616607,-0.11957593,-0.6016081,10.761686084697628,0.83168109930758,82.47968292236328,10.460152626037598,57.1220817565918,16520938.999999998,39866.999999996275,-0.03821428631740196,-0.13255303880038766,0.047199844950895575,-0.003457905303559352,-0.0014119101429821738,0.002122063347192572,16.520939734007698
1605,A,182973405777981.0,-2.098483517791796,9.467272,-2.5689783,26,1970-01-03 02:49:33.405777981,-0.5254417,0.8700547,-1.4471618,10.301751553993906,1.7684347419314685,82.99549865722656,10.73870849609375,57.25483322143555,16560917.0,39978.00000000186,-0.1113874239152856,-0.02188027922400106,-0.12529144978110585,-0.002990388585841331,-0.00308696759398965,-0.0015609730889511457,16.560917180991964
1605,A,182973443646523.0,-1.5424302177917961,9.152434,-1.7022774,26,1970-01-03 02:49:33.443646523,-0.33795515,2.2415826,-1.1467572,9.662945822166968,2.5404641921873496,83.42215728759766,10.940624237060547,57.440643310546875,16598785.0,37868.0,-0.06893706066953974,-0.018560886596000047,-0.0808719554238,-0.0034142637911290827,-0.000765713033635901,-0.003903497914149687,16.598785723006586
1605,A,182973483092825.0,-0.020316517791796107,9.360131,1.2054806,26,1970-01-03 02:49:33.483092825,1.278051,1.6117451,-0.73343456,9.497655634562319,2.1838184173088666,83.4814453125,10.87425708770752,57.51421356201172,16638231.999999998,39446.99999999814,-0.030822835239281525,-0.02144802422249901,-0.009798571684799537,-0.001967614306957543,-0.0007891157525286288,-0.0017883401414263787,16.638232024997706
1605,A,182973523475533.0,0.16523418220820396,8.132504,2.211644,26,1970-01-03 02:49:33.523475533,4.6062036,-0.48336375,-0.70147663,8.47392347282408,4.68431655440825,83.48711395263672,10.78714656829834,57.444332122802734,16678614.0,40382.00000000186,0.0029260325622318256,-0.042549806715001956,0.06899516279860318,-0.0005632643428523364,-0.0012921802044591417,0.0011952383711788645,16.678614732983988
1605,A,182973565302669.0,1.555068222208204,9.518747,1.9494787,26,1970-01-03 02:49:33.565302669,3.1068437,-1.8104169,0.040746365,9.729575515296997,3.5960738861007866,83.49725341796875,10.434782981872559,57.32900619506836,16720441.000000002,41827.00000000186,0.03597754433476415,-0.04075516221150184,0.08702363958645387,0.0008136099554353615,-0.0017421984676445148,0.003262899223680036,16.720441868994385
1605,A,182973605279023.0,1.925570932208204,8.926781,-0.4878186,26,1970-01-03 02:49:33.605279023,1.1840415,-2.241849,-0.6245113,8.983117442851444,2.6111023680336514,83.77786254882812,10.061050415039062,57.25520324707031,16760418.000000002,39977.0,0.06957275573805237,-0.023076163572000038,0.02921639290885,0.002109792173005493,-0.0012758924554235273,0.0023234638895323814,16.7604182229843
1605,A,182973645438502.0,1.4772566822082038,8.60117,-0.6027403,26,1970-01-03 02:49:33.645438502,0.9321064,1.099353,-0.7680557,8.632966709545954,1.633189798471828,84.09111785888672,9.788762092590332,57.35075378417969,16800577.0,40158.99999999814,0.0683270770836711,-0.041605707895498105,-0.021897877432548986,0.002768959693143668,-0.0012987796381315688,0.0001469521315063794,16.800577702000737
1605,A,182973684228970.0,0.09161243220820392,9.997588,-0.48123455,26,1970-01-03 02:49:33.684228970,0.8359663,1.3076121,-0.69002503,10.054703811583472,1.6984768473042549,84.36143493652344,9.72411823272705,57.450050354003906,16839368.0,38791.0,0.030429000908663437,-0.019419589211000024,-0.021024234203174997,0.0019154235107003243,-0.0011836161500290844,-0.0008324958162306845,16.839368169981753
1605,A,182973725164335.0,-0.5889393177917961,11.277887,-0.96306765,26,1970-01-03 02:49:33.725164335,0.44101948,-0.020240024,-0.35553202,11.43661487869727,0.5668428861300735,84.64558410644531,9.708194732666016,57.49155044555664,16880303.0,40935.0,-0.010179038030682172,0.03429278456249997,-0.029561255278500002,0.0004144661152050816,0.00030441712585682515,-0.0010353585059661831,16.880303534999257
1605,A,182973762678867.0,-2.172105317791796,12.801797,-0.9343372,26,1970-01-03 02:49:33.762678867,0.50120693,0.010386328,0.048469532,13.233474019405513,0.5036522193157175,84.9041976928711,9.818187713623047,57.531925201416016,16917818.0,37515.0,-0.051790294751959225,0.08402767262999998,-0.035590571473875,-0.001162389759670396,0.0022193959757883176,-0.0012220853903076741,16.917818066984182
1605,A,182973802585898.0,-0.028696217791795986,13.603854,1.1869255,26,1970-01-03 02:49:33.802585898,-0.3334278,-0.624245,-0.03542004,13.697876794444674,0.7085975564955341,84.88493347167969,9.68456745147705,57.50071716308594,16957725.0,39907.0,-0.0439136934402672,0.1357965572285,0.005040020644050002,-0.0019096295283935897,0.004386262770481579,-0.0006095904159829132,16.95772509800736
1605,A,182973842222044.0,2.381067882208204,12.983157,0.15322891,26,1970-01-03 02:49:33.842222044,-1.3313142,-0.84368944,0.29188246,13.052365869728941,1.6029362871757584,84.92334747314453,9.28303337097168,57.47810745239258,16997361.0,39636.0,0.04661930164540437,0.13846858399799997,0.026559180097379998,5.361974340940842e-05,0.005435386568826776,0.0006262329602936597,16.99736124399351
1605,A,182973884126418.0,1.777130482208204,9.415796,-2.8658595,26,1970-01-03 02:49:33.884126418,-2.851713,-0.44714475,1.015197,9.8692821067211,3.059874247519097,85.31974792480469,8.912108421325684,57.546234130859375,17039265.0,41904.0,0.08712257213125257,0.05864366325599998,-0.05683503612167999,0.002802159739368516,0.004129895804465806,-0.0006343397354211334,17.039265617990168
1605,A,182973923855951.0,-2.011095117791796,12.8688345,-0.4417302,26,1970-01-03 02:49:33.923855951,-3.7025928,1.303351,1.8192054,13.234689858502806,4.326364011407501,85.30926513671875,8.939364433288574,57.6447868347168,17078995.0,39730.0,-0.004647707485868056,0.053330184882499986,-0.0657052693905,0.0016383631861805635,0.0022243604932713017,-0.002434263168999456,17.07899515097961
1605,A,182973963758712.0,-0.629640817791796,12.457031,-2.468422,26,1970-01-03 02:49:33.963758712,-1.9307919,2.330266,1.4969629,12.80950902190915,3.376239759827199,85.23188781738281,8.87437915802002,57.76856994628906,17118897.0,39902.0,-0.052685322650828245,0.11423674259049998,-0.058060446542199995,-0.001143851284257228,0.0033431277700138227,-0.0024692497985732975,17.118897912005195
1605,A,182974003882667.0,-3.331497517791796,14.243106,-1.4700398,26,1970-01-03 02:49:34.003882667,-1.5291871,-1.8018948,0.8162589,14.973399171559041,2.5003033113809727,85.14197540283203,8.826148986816406,57.681175231933594,17159021.0,40124.0,-0.07946835728847802,0.142442948494,-0.0790134206316,-0.002651267126942362,0.005149507962537238,-0.0027499759232407755,17.159021867002593
1605,A,182974044297095.0,-1.5657737177917959,8.969278,3.152565,26,1970-01-03 02:49:34.044297095,-1.128914,-2.862898,1.1416972,9.859807314813937,3.2823930712649028,85.0642318725586,8.757054328918457,57.541786193847656,17199436.0,40415.0,-0.09896160849305542,0.07299724967999993,0.033999627979000004,-0.003605623533530337,0.004353507804601103,-0.0009096162150274143,17.199436294991756
1605,A,182974084108971.0,-1.9811675177917962,4.1162314,-2.9131448,26,1970-01-03 02:49:34.084108971,-0.49694586,1.1379688,0.77924097,5.882396216367782,1.4659961346712753,85.04862976074219,8.723142623901367,57.60255432128906,17239248.0,39812.0,-0.07060541223552698,-0.12967744988360005,0.004765898501200002,-0.0033754011146231613,-0.001128276065252864,0.0007716665701148613,17.239248170983046
1605,A,182974123977878.0,-0.2669193177917961,5.242703,-2.3469162,26,1970-01-03 02:49:34.123977878,-1.5443672,2.4080303,0.72171664,5.8925072694188225,2.9503482646302657,84.99024963378906,8.697643280029297,57.727054595947266,17279117.0,39869.0,-0.04481448702394113,-0.20415052220320007,-0.10485668600450002,-0.002300837981787867,-0.006654693709564318,-0.001995259803484534,17.27911707799649
1605,A,182974163906107.0,-0.9911652177917962,5.8215013,3.2148144,26,1970-01-03 02:49:34.163906107,-1.2090752,1.1462245,0.9515475,6.955649115411181,1.9186286999864095,84.93916320800781,8.655279159545898,57.789039611816406,17319045.0,39928.0,-0.025116399668390837,-0.17040862535480003,0.017326719664799997,-0.0013961002219257154,-0.007477698821847914,-0.001747448248005771,17.319045306998305
1605,A,182974203788137.0,-0.678721917791796,3.7104142,1.6873137,26,1970-01-03 02:49:34.203788137,0.32836777,0.66365975,0.515588,4.426514935556605,0.902275258382294,84.96095275878906,8.632516860961914,57.82476806640625,17358927.0,39882.0,-0.033299219370672414,-0.20076767301450002,0.09775333644209999,-0.0011648658592579603,-0.0074016265657822124,0.0022948113988276926,17.358927336987108
1605,A,182974243664491.0,-1.1270361177917962,3.3201592,1.1905168,26,1970-01-03 02:49:34.243664491,0.8902948,0.5475459,0.13448964,4.143595508969939,1.0538115613244996,85.00968933105469,8.628212928771973,57.85294723510742,17398803.0,39876.0,-0.036003203713465666,-0.2506092275508,0.057378184509,-0.0013817517114515453,-0.008999552643470951,0.0030930122647230317,17.398803691001376
1605,A,182974283761835.0,-0.36687721779179605,4.355053,3.9348705,26,1970-01-03 02:49:34.283761835,1.5393071,0.24261399,-0.6175871,6.037395819107717,1.6762284218866295,85.08809661865234,8.66002368927002,57.86247634887695,17438901.0,40098.0,-0.029951468465115445,-0.23908007060220002,0.1027588899777,-0.001322325222508373,-0.009817780738669497,0.0032105882063838487,17.438901034998707
1605,A,182974323524178.0,2.1763635822082037,19.3655,9.857527,26,1970-01-03 02:49:34.323524178,1.2524847,0.5028048,-1.2564794,21.759314499254295,1.8439823950519403,85.15372467041016,8.724759101867676,57.882415771484375,17478663.0,39762.0,0.0359743984109626,0.08192071419299998,0.2742066546975,0.00011974187025338733,-0.0031244851647713057,0.0074944519936876505,17.478663377987687
1605,A,182974363456107.0,7.426249282208204,15.699978,6.4547677,26,1970-01-03 02:49:34.363456107,-0.3898868,-0.5067996,1.1502193,18.133995968551734,1.3160022756313494,85.13111114501953,8.665304183959961,57.861785888671875,17518595.0,39932.0,0.191725768450938,0.30878373374800006,0.3256912759802,0.004546261531564707,0.007800805007590007,0.011977562083910957,17.518595306988573
1605,A,182974403341158.0,4.479585582208204,4.694431,6.181829,26,1970-01-03 02:49:34.403341158,-0.41971418,0.13768543,0.040480047,8.487162124359568,0.44357175826745265,85.11119079589844,8.663872718811035,57.86890411376953,17558480.0,39885.0,0.2374321117836242,0.015842501482499962,0.2520053296897499,0.008558481026577755,0.006473858696084246,0.011520714558572976,17.55848035798408
1605,A,182974443198970.0,-7.217885517791796,17.263391,-0.45669398,26,1970-01-03 02:49:34.443198970,0.85487473,-1.0942929,-1.5150723,19.145490182989263,2.0551719707144396,85.14461517333984,8.734703063964844,57.807247161865234,17598338.0,39858.0,-0.05457157941624541,0.04698903463799994,0.11409621581357998,0.0036442275495494917,0.0012521696833454423,0.007296037700335861,17.598338170006173
1605,A,182974483148398.0,-0.521303217791796,6.606201,-4.8362875,26,1970-01-03 02:49:34.483148398,-0.49348375,-1.9044266,-0.07882957,8.33622840806187,1.9689034987545753,85.1053237915039,8.73054027557373,57.710914611816406,17638287.0,39949.0,-0.15458642539891446,0.08528296540399995,-0.10572465857225999,-0.00417782656718041,0.0026420670648389264,0.0001672176701167462,17.638287598005263
1605,A,182974520811627.0,0.1873805222082039,4.4807487,4.214992,26,1970-01-03 02:49:34.520811627,0.20106867,-0.41172472,-0.520648,6.211526998854254,0.6935561945643967,85.11187744140625,8.754725456237793,57.68791961669922,17675950.0,37663.0,-0.0062882652418824155,-0.16031350672445,-0.011699926208250009,-0.0030295117368021665,-0.001412937638876055,-0.0022112810682941744,17.67595082698972
1605,A,182974562916575.0,-3.8205130177917956,10.268731,-1.822586,26,1970-01-03 02:49:34.562916575,0.42051315,-0.46152583,-0.42237735,11.509395392715781,0.7538169717332809,85.12908172607422,8.77380657196045,57.662845611572266,17718055.0,42105.0,-0.07648652186327357,-0.10211557861575,0.05036612731499998,-0.0017426162055312962,-0.005524788319124559,0.0008140201987998538,17.71805577498162
1605,A,182974602858865.0,-2.309173417791796,8.954314,-2.4839842,26,1970-01-03 02:49:34.602858865,-0.3850931,0.42264366,-1.4607439,9.880139485217425,1.5686609258832884,85.11213684082031,8.848372459411621,57.67786407470703,17757998.0,39943.0,-0.12241903264825771,-0.007528356782500012,-0.08600866674930001,-0.0039724422819270465,-0.00218975385580615,-0.000711834976312123,17.757998065004358
1605,A,182974642708137.0,-1.4640200177917961,8.1319065,-0.40940848,26,1970-01-03 02:49:34.642708137,-0.8341021,2.1624868,-1.0274476,8.52075341627983,2.535295652215814,85.0865707397461,8.908792495727539,57.78245544433594,17797847.0,39849.0,-0.07517899260728529,-0.05008579964775004,-0.05764940245266001,-0.0039370418542040665,-0.0011479332597945171,-0.002862315199814452,17.797847337002167
1605,A,182974682813294.0,0.46031948220820396,9.339781,4.0276456,26,1970-01-03 02:49:34.682813294,2.6349316,1.6993631,-1.0349044,10.188140959509951,3.3017762794380134,85.23095703125,8.967523574829102,57.863739013671875,17837952.0,40105.0,-0.02012670498978998,-0.042677986406250035,0.07255469984879999,-0.001911117501065352,-0.0018601458198478364,0.00029888847603609696,17.837952493980993
1605,A,182974721012147.0,0.8409975922082039,8.282741,-1.6370354,26,1970-01-03 02:49:34.721012147,3.7462687,0.7914915,0.0644485,8.44549143499087,3.8295093127350124,85.42452239990234,8.967534065246582,57.903934478759766,17876151.0,38199.0,0.024854505462816177,-0.03776884106100002,0.04565945951489998,9.02986251345638e-05,-0.0015364941812107424,0.0022578313367669876,17.876151346979896
1605,A,182974760166834.0,1.4323654222082038,10.0987425,3.7750576,26,1970-01-03 02:49:34.760166834,2.7763455,-2.0602214,-0.52863747,10.788131594296756,3.4974367938643596,85.54679107666016,8.985777854919434,57.7978630065918,17915306.0,39155.0,0.04450676441473723,-0.023855506778750032,0.041857129620500005,0.001357920261027802,-0.0012064506698327068,0.0017133560237982933,17.91530603400315
1605,A,182974800188867.0,1.624500082208204,8.417415,-1.6597804,26,1970-01-03 02:49:34.800188867,1.4556838,-2.0258667,-0.33955306,8.598876569579069,2.517627353741354,85.60337829589844,8.99488639831543,57.69428253173828,17955328.0,40022.0,0.06117093560887674,-0.021688772267500024,0.04232881204919999,0.0021147164551725394,-0.0009113865679945099,0.0016846448787523668,17.955328066978836
1605,A,182974840104492.0,0.653651302208204,9.056666,-0.6374562,26,1970-01-03 02:49:34.840104492,0.62104917,0.7499462,-0.5454154,9.087610481087701,1.1160642154505667,85.64004516601562,9.024944305419922,57.73004150390625,17995243.0,39915.0,0.045466206254490465,-0.04242802844250003,-0.0458470994445,0.002128210758738151,-0.0012796110501698261,-7.021622069169995e-05,17.995243691984797
1605,A,182974881730740.0,0.13889792220820396,10.316016,-0.4902128,26,1970-01-03 02:49:34.881730740,1.1456919,0.8114652,-0.5616607,10.367547822989389,1.5121337382854536,85.88143157958984,8.957751274108887,57.796627044677734,18036869.0,41626.0,0.016495327007778702,-0.004731169534000045,-0.023470174897000002,0.0012896053917876083,-0.000981524387484896,-0.0014427004308696398,18.036869939998724
1605,A,182974923892302.0,-1.2748780177917962,11.855488,-1.3587095,26,1970-01-03 02:49:34.923892302,0.45167214,-0.13528858,-0.44741106,12.15697804499681,0.6499902911128133,85.9026870727539,8.979575157165527,57.788169860839844,18079031.0,42162.0,-0.023947596394997706,0.05420987582399994,-0.03897713100629999,-0.00015710129095196381,0.0010430606072994878,-0.0013164516557474671,18.07903150198399
1605,A,182974963784388.0,-1.950641617791796,13.06037,-1.2743138,26,1970-01-03 02:49:34.963784388,0.42850262,-0.2444782,-0.19627498,13.460534100128394,0.53095004792928,85.92208862304688,8.988493919372559,57.77512741088867,18118923.0,39892.0,-0.06433621465135032,0.10603010366799996,-0.052518282741799996,-0.0017609088951304577,0.00319614663094743,-0.0018249675226196024,18.1189235879865
1605,A,182975001258814.0,1.535914632208204,13.403339,0.9283517,26,1970-01-03 02:49:35.001258814,-0.30999196,-0.5273059,-0.1041296,13.444325365752944,0.6204752219352612,85.9023666381836,8.991808891296387,57.74813461303711,18156398.0,37475.0,-0.007770946892372555,0.1286087473875,-0.006482464848750001,-0.0013511079394255075,0.004396545471652431,-0.0011055265079779307,18.156398013990838
1605,A,182975042291678.0,1.9243738322082038,13.769652,-0.670975,26,1970-01-03 02:49:35.042291678,-1.4109428,-0.5603291,0.32037827,13.813849419510781,1.5515703403541983,85.82758331298828,8.973814964294434,57.721012115478516,18197430.0,41032.0,0.07099127813596702,0.15536748335599995,0.0052803403772,0.0012970283157935842,0.005826056349933645,-2.466278565831982e-05,18.197430878004525
1605,A,182975081694334.0,0.3555731822082039,8.839393,-1.6226702,26,1970-01-03 02:49:35.081694334,-2.6972497,-0.042876896,1.0910971,9.013694382624003,2.9098947152756396,85.6930160522461,8.919249534606934,57.72291564941406,18236833.0,39403.0,0.04491837610452486,0.05928270006749997,-0.045188250907799994,0.002283594053019051,0.0042289305887180835,-0.0007862456993186158,18.236833533999743
1605,A,182975121579127.0,-2.373218117791796,10.373477,-0.2837129,26,1970-01-03 02:49:35.121579127,-3.4000578,1.0820423,1.7478327,10.92661032961452,3.9731760254888555,85.532470703125,8.836251258850098,57.784278869628906,18276718.0,39885.0,-0.04023688412787578,-0.007720340025000052,-0.038018044971749994,9.33606537443242e-05,0.0010282823651475547,-0.0016593415555779254,18.276718326989794
1605,A,182975161484492.0,-1.603482317791796,13.010691,-2.332551,26,1970-01-03 02:49:35.161484492,-1.8666097,1.0679276,1.2727247,13.481341489818067,2.498905619059259,85.44817352294922,8.77701473236084,57.84321594238281,18316623.0,39905.0,-0.07934511544098162,0.07550361201999996,-0.052201005464750004,-0.0023859598463976273,0.0013524457344802358,-0.0018000956038342663,18.3166236919933
1605,A,182975201417875.0,-2.750903417791796,14.078505,-0.4165911,26,1970-01-03 02:49:35.201417875,-1.5169365,-1.9406456,0.9257148,14.58786141203518,2.6313778863497825,85.51016235351562,8.882034301757812,57.7723388671875,18356557.0,39934.0,-0.08694401998239758,0.14953677653199993,-0.0548921203107,-0.003320295166998612,0.004493381438217781,-0.00213832844235841,18.356557074992452
1605,A,182975241277670.0,-0.8397319177917961,10.319608,3.6421793,26,1970-01-03 02:49:35.241277670,-0.9155948,-3.606719,0.9962886,11.105017520708234,3.8521846733039684,85.43699645996094,8.818146705627441,57.5943717956543,18396416.0,39859.0,-0.07155956692051318,0.09562399303349997,0.0642843600319,-0.0031588972351815603,0.00488593155705563,0.00018718264152365523,18.396416870004032
1605,A,182975281166679.0,-2.345684817791796,5.5150437,-3.763685,26,1970-01-03 02:49:35.281166679,-0.41438788,0.79255676,0.92305166,7.489640706547142,1.2852579118376777,85.42295837402344,8.775297164916992,57.6380729675293,18436305.0,39889.0,-0.06353154408284696,-0.07509798916935002,-0.0024233704336500033,-0.002694324663406516,0.00040938088406853863,0.001233786507042297,18.436305879004067
1605,A,182975321203031.0,0.037742982208203824,5.093664,-2.7820623,26,1970-01-03 02:49:35.321203031,-0.91319793,2.6493127,1.1257182,5.8910854463543085,3.019938692680501,85.39832305908203,8.729792594909668,57.77621841430664,18476342.0,40037.0,-0.04620153363563014,-0.17999218490755003,-0.13103604232505,-0.002196691616307334,-0.005106522649758424,-0.0026716572543100366,18.47634223100613
1605,A,182975360975065.0,-0.03528021779179613,5.309741,1.9560628,26,1970-01-03 02:49:35.360975065,-1.3803164,1.2199941,1.1345067,5.761244545429584,2.16350743481243,85.33931732177734,8.678178787231445,57.84236145019531,18516114.0,39772.0,4.897453318468337e-05,-0.18288348817000005,-0.016425826057000006,-0.0009177897903112304,-0.007216145634820161,-0.0029324267146454462,18.516114264988573
1605,A,182975400939127.0,-0.8648712177917961,3.8486793,1.122282,26,1970-01-03 02:49:35.400939127,0.18695392,1.1393003,0.58243334,4.44173426563456,1.2931301316290684,85.3576889038086,8.65377140045166,57.90218734741211,18556078.0,39964.0,-0.017986825985831338,-0.20864364556540005,0.061511485793599996,-0.0003584341477267854,-0.007823495186300765,0.000900901652856741,18.556078327004798
1605,A,182975440802980.0,-1.308995517791796,3.5140896,1.1372458,26,1970-01-03 02:49:35.440802980,0.63196814,1.154214,0.1818939,4.3812341851919765,1.3284122397163727,85.39814758300781,8.649356842041016,57.96111297607422,18595942.0,39864.0,-0.04332951177365216,-0.24391249028519998,0.045036908109599996,-0.001222157244222025,-0.009020348899774159,0.002123722587278582,18.595942179992562
1605,A,182975480706314.0,-1.106087017791796,4.3161473,3.6140475,26,1970-01-03 02:49:35.480706314,1.3486248,0.56459016,-0.4167847,6.027303961655973,1.5202829953985395,85.46961212158203,8.672377586364746,57.98790740966797,18635845.0,39903.0,-0.04818451920869604,-0.23482442848965004,0.09479542827495001,-0.00182584218914432,-0.00955151963493642,0.0027898648593763496,18.63584551398526
1605,A,182975519606470.0,0.3495876822082039,15.43482,8.74542,26,1970-01-03 02:49:35.519606470,1.6727315,0.27510455,-1.3017532,17.75396061440196,2.137352235414929,85.5545654296875,8.738340377807617,57.996620178222656,18674745.0,38900.0,-0.014713912077100866,0.002936313984999957,0.24039164287499998,-0.0012233744885087497,-0.004510223827115444,0.006519388533866527,18.6747456699959
1605,A,182975560504336.0,8.469522482208204,19.519327,6.055535,26,1970-01-03 02:49:35.560504336,0.18508969,-1.2748553,1.4982945,21.74304683731742,1.975955626529259,85.55498504638672,8.658709526062012,57.938201904296875,18715643.0,40898.0,0.1803419837521511,0.313976952003,0.30266472879499995,0.003386928437683102,0.006480559376188611,0.011104959744279826,18.715643535979325
1605,A,182975598618032.0,6.818720482208204,5.0906715,2.992752,26,1970-01-03 02:49:35.598618032,-0.48869008,-0.36005938,0.22050974,8.25702826506881,0.6458214125060103,85.5279541015625,8.646320343017578,57.92091751098633,18753757.0,38114.0,0.2913480461728835,0.09547554141449997,0.172433205359,0.008988996900281385,0.0078029361670572984,0.009053941331172778,18.75375723198522
1605,A,182975640350011.0,-1.8566692177917963,5.7808,1.9973627,26,1970-01-03 02:49:35.640350011,0.15313177,-0.4910869,-0.92757905,6.770619662685254,1.0606689287114266,85.53131866455078,8.690642356872559,57.892494201660156,18795489.0,41732.0,0.10353816168331276,-0.18212947568100002,0.10412373333019999,0.008239695613127391,-0.00180812099240479,0.005770637082688847,18.79548921098467
1605,A,182975680412720.0,-13.348239517791797,19.612701,2.2391772,26,1970-01-03 02:49:35.680412720,-0.6831008,-1.3009542,-0.83543366,24.43172525266216,1.6902833885828954,85.48672485351562,8.727190017700195,57.82357406616211,18835551.0,40062.0,-0.30456952688247496,0.11604961853099999,0.08486213073690001,-0.004026859276304418,-0.0013236456185716507,0.00378557584312808,18.83555191999767
1605,A,182975717890116.0,1.287516212208204,3.0502129,2.0991163,26,1970-01-03 02:49:35.717890116,0.7299725,-1.4583471,-0.551807,3.7104847347756214,1.7216640439074227,85.51171875,8.74897289276123,57.74784469604492,18873029.0,37478.0,-0.22600589402333093,0.05739594357209999,0.0812952818965,-0.009942452812353895,0.0032501963882499902,0.0031136237553372826,18.873029315989697
1605,A,182975758341627.0,-2.482752817791796,8.924985,-2.7748797,26,1970-01-03 02:49:35.758341627,0.76912093,0.5107943,-0.17150758,9.990894943915043,0.9390807589733757,85.55398559570312,8.759507179260254,57.772926330566406,18913480.0,40451.0,-0.024174257966230944,-0.15421543487355005,-0.013667652646700003,-0.005060018664064884,-0.0019582226213174783,0.0013678026153918297,18.913480827002786
1605,A,182975799142929.0,-1.8782170177917963,7.49445,-1.4814123,26,1970-01-03 02:49:35.799142929,-0.39787626,0.47643954,-1.1198592,8.180535956806347,1.2803846224364144,85.53710174560547,8.817183494567871,57.792564392089844,18954282.0,40802.0,-0.08896814561574086,-0.06488670656500005,-0.086832613092,-0.0023082181754758065,-0.004469902787487861,-0.0020503059213352187,18.954282128979685
1605,A,182975839006313.0,-2.1122501177917963,9.173384,-1.7890673,26,1970-01-03 02:49:35.839006313,-1.0929613,1.2405005,-1.0524813,9.86588773051321,1.959878256588309,85.49143981933594,8.874495506286621,57.85096740722656,18994145.0,39863.0,-0.07953599571288437,-0.05844246662900003,-0.0651855641474,-0.003358540292891494,-0.0024581354155162128,-0.003029950299647101,18.994145512988325
1605,A,182975878911886.0,-0.0029585177917961225,9.548077,1.7316064,26,1970-01-03 02:49:35.878911886,1.7134778,1.3020195,-0.63010395,9.760517042164617,2.2423853231054407,85.44192504882812,8.844768524169922,57.891807556152344,19034051.0,39906.0,-0.04220475790579942,-0.017529488667000034,-0.0011465173376999985,-0.0024290932569535975,-0.0015158684240210892,-0.0013235240218722,19.034051085996907
1605,A,182975919526366.0,1.112140922208204,8.011598,-0.5093664,26,1970-01-03 02:49:35.919526366,3.6879456,0.056459017,-0.18535602,8.028034343311441,3.693032253218242,85.62664794921875,8.854226112365723,57.893917083740234,19074665.0,40614.0,0.02252416708648399,-0.041432879775000056,0.02482002768,-0.0003996537577678383,-0.0011973488159516957,0.0004807379745210861,19.074665566004114
1605,A,182975959688398.0,1.5903827222082039,9.169792,0.43873745,26,1970-01-03 02:49:35.959688398,2.7710192,-0.72943985,-0.44900897,9.196319930119131,2.9003860013241556,85.75926971435547,8.873875617980957,57.85540771484375,19114827.0,40162.0,0.054269377303525886,-0.04856810741000006,-0.0014182999449500007,0.0015420911648957884,-0.0018073098236619876,0.000469930094647539,19.114827597979456
1605,A,182975999451262.0,2.026127432208204,9.314642,2.15538,26,1970-01-03 02:49:35.999451262,2.487126,-1.9859192,-0.7619304,9.610719801950372,3.2726455266723895,85.86769104003906,8.904619216918945,57.75235366821289,19154590.0,39763.0,0.07190164663502982,-0.02217912542900006,0.051574946082175,0.0025084692124343953,-0.0014065611096885807,0.0009971893601772388,19.154590461985208
1605,A,182976039399229.0,0.8523700422082039,9.919178,-0.15502456,26,1970-01-03 02:49:36.039399229,0.71319455,0.30466563,-0.6492787,9.92230817540597,1.011449673748867,86.0323257446289,8.745051383972168,57.78478240966797,19194538.0,39948.0,0.05749510855399333,-0.007314079320000034,0.03995509955856,0.0025845707881455484,-0.0005890972716565278,0.0018282211316280408,19.194538429001113
1605,A,182976079259648.0,0.8900787222082039,10.714052,-1.0336965,26,1970-01-03 02:49:36.079259648,0.53103435,-0.24900557,-0.40559945,10.764953291994175,0.7131003916779529,86.05675506591797,8.764425277709961,57.770809173583984,19234398.0,39860.0,0.03472700387481901,0.020592273899999992,-0.0236912107258,0.00183798670070623,0.00026463441797939917,0.00032413930443690676,19.23439884799882
1605,A,182976117230896.0,-2.073942917791796,13.800777,-2.207454,26,1970-01-03 02:49:36.117230896,0.75820196,-0.14354439,-0.35579833,14.320533828618162,0.8497456417535205,86.0933837890625,8.781682968139648,57.7623405456543,19272370.0,37972.0,-0.022476845617350083,0.09331294339399998,-0.061536483393,0.00023258150467630502,0.0021626044555438833,-0.0016181330005395366,19.272370096005034
1605,A,182976159106730.0,-0.12805561779179597,13.241133,1.5394717,26,1970-01-03 02:49:36.159106730,0.18482338,-0.06870956,-0.16937704,13.382058934622485,0.25994089156802475,86.03336334228516,8.696654319763184,57.74784469604492,19314245.0,41875.0,-0.04610434433878147,0.15581499062499993,-0.013985879406249997,-0.0014359186647065045,0.005216116118522811,-0.0015812494711092968,19.314245929999743
1605,A,182976198978346.0,0.693754182208204,12.333132,-0.80684596,26,1970-01-03 02:49:36.198978346,-0.42876893,-0.53076804,0.028229509,12.364557398260855,0.6829014663896744,86.00790405273438,8.693403244018555,57.721168518066406,19354117.0,39872.0,0.011277766580205508,0.11910294703999998,0.014605626752639999,-0.0006943026541949703,0.005480764005289437,1.2355283097631081e-05,19.354117545997724
1605,A,182976238862512.0,0.987642438208204,12.511499,-0.24779987,26,1970-01-03 02:49:36.238862512,-1.6389093,-0.80560625,0.38615838,12.514095837449275,1.8665860328711819,86.04952239990234,8.462482452392578,57.70136642456055,19394001.0,39884.0,0.033530411404344006,0.10458843140200001,-0.02103174714186,0.0008935646853678865,0.004460853468890364,-0.00012814969280182525,19.394001712003956
1605,A,182976278766053.0,0.7709671822082039,8.282143,-3.317765,26,1970-01-03 02:49:36.278766053,-3.072489,-0.046339005,1.2106731,8.926249283685285,3.3027360344976104,85.89620208740234,8.401938438415527,57.70334243774414,19433905.0,39904.0,0.03508777914654817,0.023815545183999975,-0.07114015028624,0.0013690701378714007,0.002561916140843872,-0.0018390136974854514,19.433905252983095
1605,A,182976318714803.0,-1.2491405177917962,13.065159,-0.18076223,26,1970-01-03 02:49:36.318714803,-3.2655683,1.0966897,1.751561,13.26671024716073,3.8645349729006178,85.86363220214844,8.358451843261719,57.78275680541992,19473854.0,39949.0,-0.009551273291614464,0.034901483798999954,-0.069881332155635,0.0005100789361993733,0.001172843295420932,-0.0028168336010352324,19.47385400297935
1605,A,182976356342564.0,-1.153971017791796,11.751341,-3.163339,26,1970-01-03 02:49:36.356342564,-1.7614148,0.6809703,1.1153319,12.367182075302937,2.193232293738796,85.78112030029297,8.305315971374512,57.82117462158203,19511481.0,37627.0,-0.045210938874701914,0.09814062274999996,-0.06291424849060501,-0.0010302688785909933,0.00250298767155961,-0.002498349656488036,19.511481763998745
1605,A,182976398598083.0,-2.870613517791796,12.937668,2.2637177,26,1970-01-03 02:49:36.398598083,-1.9920446,-1.7544906,0.773382,13.706176159375682,2.7648867376081645,85.5310287475586,8.467951774597168,57.715328216552734,19553737.0,42256.0,-0.08503142206781014,0.10752058215199999,-0.019007198826400003,-0.002751760601993395,0.004345209937169456,-0.001730836338913682,19.55373728298582
1605,A,182976438390740.0,-2.131403717791796,8.885481,-0.28191724,26,1970-01-03 02:49:36.438390740,-0.89109373,-2.0173445,1.0450244,9.441221466046205,2.440451364793186,85.47216796875,8.407949447631836,57.61781311035156,19593529.0,39792.0,-0.09952013491917115,0.04423177250399999,0.03942990195216,-0.0036718377778129797,0.0030192648482357757,0.0004063301013901209,19.593529940000735
1605,A,182976478331470.0,-0.831352217791796,5.829881,-3.5511997,26,1970-01-03 02:49:36.478331470,-0.81892204,0.41864893,1.0871024,7.080155928977213,1.4239704569525544,85.43494415283203,8.355429649353027,57.64327621459961,19633470.0,39941.0,-0.05916771741157212,-0.097548663179,-0.07654926185027,-0.0031690757549711086,-0.0010647649652250877,-0.0007412921768452057,19.63347066999995
1605,A,182976519637355.0,1.243822022208204,7.57286,0.789488,26,1970-01-03 02:49:36.519637355,-1.2639363,2.0426445,1.4471618,7.6164324461489326,2.804319667801298,85.3522720336914,8.046958923339844,57.74708938598633,19674776.0,41306.0,0.008518738870612073,-0.12799199012700002,-0.05703763174010001,-0.0010460533538064478,-0.004658091112728819,-0.002758970113321912,19.67477655498078
1605,A,182976556271262.0,-0.919937717791796,4.7901993,1.6502035,26,1970-01-03 02:49:36.556271262,-0.9571401,1.5478293,1.375789,5.435069658369779,2.2813785493616576,85.3160629272461,7.984697341918945,57.83063507080078,19711410.0,36634.0,0.005932588803995344,-0.1325590428019,0.0446878292055,0.0002647049690157841,-0.004772513270158662,-0.00022621133302626838,19.711410461983178
1605,A,182976598060635.0,-0.8068117177917962,2.2535424,1.0390835,26,1970-01-03 02:49:36.598060635,0.060453758,1.3283848,0.7803062,3.097839646878878,1.5417971979108676,85.32879638671875,7.951229572296143,57.90068435668945,19753199.0,41789.0,-0.036079566081801365,-0.26235673904935003,0.0561913072215,-0.0006299060167311179,-0.008251567803890943,0.0021078191160739516,19.753199834987754
1605,A,182976637938711.0,-1.5801389177917962,1.8267759,3.5811272,26,1970-01-03 02:49:36.637938711,0.7305051,0.7097325,0.1307612,4.802713322904628,1.0268672816424234,85.37033081054688,7.947591304779053,57.93693161010742,19793077.0,39878.0,-0.04759340872290125,-0.30944693341630003,0.0921223811473,-0.0016683554446309653,-0.011401193425292597,0.0029572266323855028,19.79307791098836
1605,A,182976677811263.0,-0.5602089177917962,5.9292407,4.7907977,26,1970-01-03 02:49:36.677811263,1.8461033,-0.12250541,-0.8809737,7.79053000440039,2.0491997535237623,85.4612808227539,7.991008281707764,57.927207946777344,19832950.0,39873.0,-0.04267104462411229,-0.23612757505410004,0.16690688076885,-0.0017995572741527353,-0.01087684618812013,0.005164136880191324,19.83295046299463
1605,A,182976715783293.0,3.626052782208204,19.612701,10.22384,26,1970-01-03 02:49:36.715783293,0.10333065,0.67697555,-0.95607483,22.267327911003584,1.1760323971246514,85.47067260742188,8.041339874267578,57.95746994018555,19870922.0,37972.0,0.05820811160980992,0.11281370511620002,0.28506791137219994,0.0002949867537904552,-0.0023412371346409697,0.008581193403589975,19.870922492991667
1605,A,182976757689647.0,6.326113882208204,8.544906,6.347627,26,1970-01-03 02:49:36.757689647,-0.5368933,-0.83729786,0.92012215,11.88156463511073,1.3549711778728328,85.43846130371094,7.992161750793457,57.919010162353516,19912828.0,41906.0,0.208527748119517,0.179307539471,0.34722194805099993,0.005588916468908587,0.006120816437835601,0.013248369424494305,19.91282884698012
1605,A,182976797545273.0,2.008769482208204,1.6837224,6.616975,26,1970-01-03 02:49:36.797545273,-0.08681905,-0.4889564,-0.40772998,6.895166649825859,0.6425415512903916,85.43046569824219,8.010540008544922,57.89276123046875,19952684.0,39856.0,0.1660975556860902,-0.18675269324480004,0.258358588656,0.007465533054238141,-0.00014836702440428707,0.012068008935497096,19.9526844729844
1605,A,182976837467406.0,-6.236262517791796,14.130578,-7.041347,26,1970-01-03 02:49:36.837467406,1.170193,-1.9363844,-2.1105552,17.386976790865425,3.0940878226158026,85.47412872314453,8.108061790466309,57.78683853149414,19992606.0,39922.0,-0.08438498848328407,-0.07556634971560001,-0.008470889491999999,0.0016310645539352128,-0.005236150416532545,0.004988008363012603,19.992606605985202
1605,A,182976877319022.0,0.46211514220820393,11.008539,5.9400144,26,1970-01-03 02:49:36.877319022,0.15632756,-3.0128343,-0.18588865,12.522554630374438,3.022608710281711,85.46044158935547,8.10542106628418,57.634403228759766,20032458.0,39852.0,-0.11505566060587864,0.11037244534199998,-0.021945153387600003,-0.003974054373750656,0.0006935462614516458,-0.0006060700704189096,20.032458222005516
1605,A,182976917252458.0,-1.036056517791796,5.6269727,-2.553416,26,1970-01-03 02:49:36.917252458,1.2106731,-0.2862898,-0.59867865,6.5210392044916645,1.380618459464262,85.51860809326172,8.134139060974121,57.61761474609375,20072391.0,39933.0,-0.011459600475589792,-0.059190455641950024,0.06761851695360001,-0.0025260669603831398,0.0010219251973460476,0.0009119372136405392,20.072391658002743
1605,A,182976957768917.0,-1.460428717791796,8.631097,-2.3780408,26,1970-01-03 02:49:36.957768917,-0.19893813,0.21571605,-0.97418433,9.29734409896289,1.0174207107254345,85.50965118408203,8.183547019958496,57.624629974365234,20112908.0,40517.0,-0.0505750461450702,-0.10821949498255003,-0.09990391758279998,-0.0012567288885646402,-0.0033914744847264337,-0.0006540537886466477,20.112908117007464
1605,A,182976997054542.0,-1.2940319177917963,9.518747,-1.6873137,26,1970-01-03 02:49:36.997054542,-1.0996193,0.8540758,-1.4831145,9.946674414259324,2.0342656407628725,85.4599838256836,8.260835647583008,57.66175079345703,20152193.0,39285.0,-0.05410449303445071,-0.02848468923000003,-0.07985372576625,-0.0020561678483337394,-0.0026852119383950148,-0.003530889509483714,20.152193741989322
1605,A,182977037013864.0,0.049115382208203884,10.511144,2.236783,26,1970-01-03 02:49:37.037013864,0.62344605,1.7094831,-0.94941694,10.792780605359559,2.052415643188576,85.3155288696289,8.242936134338379,57.71713638305664,20192153.0,39960.0,-0.02487343238096018,0.008589222179999956,0.010978396614,-0.0015779789497999098,-0.0003975114316590015,-0.0013761290764619548,20.192153063981095
1605,A,182977076910793.0,0.5602774322082039,8.243237,0.3597288,26,1970-01-03 02:49:37.076910793,3.6868804,1.1470236,-0.25752768,8.265454883116867,3.8697636528381554,85.56300354003906,8.139020919799805,57.781497955322266,20232049.0,39896.0,0.012156167861978503,-0.01686840781200002,0.0517952173864,-0.00025368399262464653,-0.0001651531949871373,0.0012522080520799793,20.232049993006513
1605,A,182977116771885.0,1.1594264122082039,7.20535,-0.43394905,26,1970-01-03 02:49:37.116771885,2.5545042,-0.44767737,-0.032490566,7.2192734042884705,2.5936388284236407,85.6875228881836,8.138936996459961,57.758827209472656,20271911.0,39862.0,0.034275417323063426,-0.08274181250300001,-0.0014792838027499998,0.0009254279243230707,-0.001985331301098266,0.001002846872255728,20.271911085001193
1605,A,182977156666783.0,0.454333982208204,9.621099,1.4377182,26,1970-01-03 02:49:37.156666783,1.9808593,-2.4820662,-0.30306774,9.74599520460299,3.1900323262637382,85.66340637207031,8.029111862182617,57.61777877807617,20311805.0,39894.0,0.03218967858742409,-0.05532402179700004,0.020022183235049996,0.0013257792681264946,-0.002753999196782101,0.000369875214976088,20.311805982986698
1605,A,182977196616364.0,1.2180843522082039,9.126099,-0.074818805,26,1970-01-03 02:49:37.196616364,2.3526366,-1.2162657,-0.6087986,9.127999818777333,2.7175056504114226,85.77214813232422,8.054923057556152,57.554237365722656,20351755.0,39950.0,0.03340655622996774,-0.017034719950000044,0.027223915415124998,0.0013102847904774017,-0.0014453658663963267,0.0009437408205372456,20.351755563984625
1605,A,182977236472824.0,0.174212422208204,10.314819,0.24061728,26,1970-01-03 02:49:37.236472824,0.56485647,0.91799164,-0.8149273,10.35451662194884,1.3512505271399677,85.87914276123047,8.018770217895508,57.60758972167969,20391612.0,39857.0,0.027746386268957382,-0.0031702656370000298,0.0033041149090374997,0.0012186864145898293,-0.00040265505527053096,0.0006083778523150723,20.391612023988273
1605,A,182977277094022.0,1.036723575208204,10.7912655,-1.6328455,26,1970-01-03 02:49:37.277094022,0.43995422,-0.3568636,-0.5318333,10.914106083204091,0.7770186636688069,85.89836120605469,8.04401683807373,57.58769989013672,20432233.0,40621.0,0.024594715575525953,0.030589329237249965,-0.02827685126231,0.0010630739490123785,0.0005568948912528762,-0.0005072087617031411,20.43223322200356
1605,A,182977316499906.0,-1.669323017791796,14.67885,-0.87448215,26,1970-01-03 02:49:37.316499906,0.40400153,0.33529198,-0.3121225,14.953744346563804,0.6107850711182382,86.10676574707031,8.122971534729004,57.62962341308594,20471639.0,39406.0,-0.012464106817224511,0.11565888569649997,-0.04940187668794999,0.0002390093843648133,0.0028815285788396745,-0.0015305039768039722,20.471639105991926
1605,A,182977356433397.0,-1.385609917791796,12.807782,1.1725603,26,1970-01-03 02:49:37.356433397,-0.19574234,-0.5968144,-0.032756884,13.08946863079609,0.6289479351786005,86.05949401855469,8.187336921691895,57.5947151184082,20511572.0,39933.0,-0.06099631845832979,0.157468437828,0.0059515773819750015,-0.001466747581264355,0.005453396705151929,-0.0008675504010927498,20.511572596995393
1605,A,182977396075271.0,1.186959732208204,12.887389,-0.91219085,26,1970-01-03 02:49:37.396075271,-0.95927066,-0.6468818,0.15739283,12.920384557098902,1.1676595245376473,86.00697326660156,8.177250862121582,57.56266784667969,20551214.0,39642.0,-0.003937445328452378,0.12081238439099996,0.0051607828684499995,-0.0012870521320178093,0.005515804177202798,0.00022025809252367395,20.551214470993727
1605,A,182977436034281.0,1.1324916422082039,10.171766,-0.17836803,26,1970-01-03 02:49:37.436034281,-2.308428,-0.8796421,0.85301054,10.17368481525333,2.6134722184533556,86.01178741455078,7.916835784912109,57.53926467895508,20591173.0,39959.0,0.046341478735152625,0.06911218732249999,-0.021788821142960005,0.0008472113854491677,0.003794597980549873,-0.0003322198907055727,20.59117348099244
1605,A,182977475905428.0,-0.04485701779179596,8.928576,-1.3706805,26,1970-01-03 02:49:37.475905428,-3.588077,0.16777915,1.4897723,9.098981963633431,3.888684598543705,85.83427429199219,7.843135833740234,57.553062438964844,20631044.0,39871.0,0.0216825400550533,-0.009960932059000038,-0.030881056969814996,0.00135609282659215,0.0011792098493055032,-0.001050000355117226,20.63104462798219
1605,A,182977515800375.0,0.058692182208203936,12.484565,-3.3195608,26,1970-01-03 02:49:37.515800375,-2.6312032,2.1100225,1.654622,12.956140747361065,3.756753810549806,85.71796417236328,7.7684006690979,57.66541290283203,20670939.0,39895.0,0.0002759769421962981,0.036167630097499966,-0.09355858833175,0.00043801751780263634,0.0005227581091229773,-0.0024822598246529676,20.67093957500765
1605,A,182977553596574.0,-1.0282753177917963,13.430274,-2.2900538,26,1970-01-03 02:49:37.553596574,-1.5464977,0.9552759,0.8700547,13.781343869129392,2.0152425070492606,85.64755249023438,7.728617191314697,57.716773986816406,20708735.0,37796.0,-0.01832318209625873,0.119337827422,-0.10601049671080001,-0.0003410560830014719,0.0029387421362035105,-0.0037714565691341104,20.708735773980152
1605,A,182977595664333.0,-1.865647317791796,14.274829,7.9607205,26,1970-01-03 02:49:37.595664333,-1.4221281,-4.9076734,1.3885722,16.60211512079495,5.294888033612232,85.5441665649414,7.640552997589111,57.47528839111328,20750803.0,42068.0,-0.06087076871686528,0.170482736502,0.1192768033678,-0.0016657655614032505,0.006096085741577417,0.00027904349422333774,20.75080353298108
1605,A,182977635498397.0,-3.3710020177917963,5.969343,-3.555988,26,1970-01-03 02:49:37.635498397,-0.35739622,-0.47271112,1.0764498,8.234151100100924,1.2287929170376848,85.52371215820312,7.585056781768799,57.455745697021484,20790637.0,39834.0,-0.10429834481681842,0.012829973723999986,0.0877290572025,-0.003289673234250378,0.0036510392495712417,0.004122935724978666,20.790637597005116
1605,A,182977673223291.0,-0.636823417791796,5.133168,-3.5936968,26,1970-01-03 02:49:37.673223291,-0.598146,2.1787322,1.0367687,6.4885289011247425,2.4858684546718335,85.50875091552734,7.541893482208252,57.56938552856445,20828362.0,37725.0,-0.07559760727869552,-0.16028388626250004,-0.13486092954,-0.003393287396401632,-0.002781349425257457,-0.0008890249419660939,20.828362490981817
1605,A,182977714731364.0,0.030560382208203896,5.2181625,0.7517793,26,1970-01-03 02:49:37.714731364,-1.6359799,1.8775285,1.1299793,5.369222761040107,2.734665741904255,85.34822845458984,7.577775955200195,57.65616989135742,20869870.0,41508.0,-0.01258238304050187,-0.19194688680300007,-0.058981155795000004,-0.0018300875190846227,-0.00731019746420139,-0.004022998639042591,20.86987056399812
1605,A,182977755270114.0,-0.836140617791796,3.3991678,3.280655,26,1970-01-03 02:49:37.755270114,-0.5613944,1.4788533,0.76725674,5.085777369621428,1.758082381558861,85.33036041259766,7.5455451011657715,57.733665466308594,20910409.0,40539.0,-0.01632870858516162,-0.22261322348415005,0.08173542704385,-0.0005860133717063862,-0.008402926155465389,0.0004612177010785651,20.910409314004937
1605,A,182977792989542.0,-1.1108754177917959,2.747945,1.4454993,26,1970-01-03 02:49:37.792989542,0.6317018,0.9712549,0.18082865,3.781434056648337,1.1726390090552474,85.36845397949219,7.540472984313965,57.783226013183594,20948128.0,37719.0,-0.036719748923088755,-0.2537147261484,0.08913290702085001,-0.0010004673843768482,-0.008983306966095079,0.0032224913462932103,20.94812874199124
1605,A,182977832877511.0,-0.3878265177917961,3.3848026,4.095282,26,1970-01-03 02:49:37.832877511,1.3611417,0.32810146,-0.42770368,5.503487829137697,1.463997176711268,85.43844604492188,7.563104629516602,57.79799270629883,20988016.0,39888.0,-0.029890111403279157,-0.26859088186560004,0.1105053422472,-0.0013284670543490817,-0.010416863046231217,0.00398158524340199,20.988016710994998
1605,A,182977874473969.0,1.1803756822082039,16.733675,8.690353,26,1970-01-03 02:49:37.874473969,1.1560782,0.059388492,-1.1715246,18.856186541458197,1.6469710640756363,85.49602508544922,7.621731758117676,57.79631423950195,21029613.0,41597.0,0.016483833796114657,0.010783556363600014,0.2659220295475,-0.00027883046481261086,-0.005362005659453348,0.007829124692272068,21.029613168997457
1605,A,182977914352353.0,6.300974482208204,16.335638,5.843648,26,1970-01-03 02:49:37.914352353,-0.3587278,-0.15180019,1.0282465,18.127336026136796,1.099554362884858,85.47763061523438,7.569882869720459,57.792755126953125,21069491.0,39878.0,0.14917064092829876,0.268564631907,0.28979344593899997,0.0033029845715300786,0.005569923525927493,0.01108041086572532,21.0694915530039
1605,A,182977954149126.0,5.603064782208204,3.7828386,7.5028296,26,1970-01-03 02:49:37.954149126,-0.34860778,-1.0221212,0.15233281,9.558007810475749,1.090625699664401,85.45350646972656,7.558246612548828,57.741973876953125,21109288.0,39797.0,0.23687252530298988,0.010316906625099957,0.2655748845236,0.007681679943253297,0.0055493242944809895,0.011050996723710047,21.109288325998932
1605,A,182977994095533.0,-4.023421517791796,12.264896,2.8652608,26,1970-01-03 02:49:37.994095533,1.1464908,-1.2106731,-1.7968348,13.577614401926194,2.4512824823017216,85.50183868408203,7.643035888671875,57.6739501953125,21149234.0,39946.0,0.03155021492018891,-0.07094939683420003,0.20708186955920002,0.00536120739047755,-0.0012110127269463558,0.009440373349295766,21.149234732991317
1605,A,182978033958188.0,-0.9223319177917961,11.121067,-4.4155064,26,1970-01-03 02:49:38.033958188,-1.0580739,-2.3497071,-0.2050634,12.126625905503737,2.5850908749348016,85.43311309814453,7.6439714431762695,57.554969787597656,21189097.0,39863.0,-0.09857628460133437,0.07545992153449999,-0.030898720176399996,-0.001335930107849751,8.990152306402863e-05,0.003511594441923279,21.189097388007212
1605,A,182978074606260.0,1.1749887222082038,4.1826706,5.79337,26,1970-01-03 02:49:38.074606260,0.34461305,-1.020257,-0.73343456,7.14661621477473,1.302923157397126,85.44312286376953,7.676470756530762,57.50071716308594,21229745.0,40648.0,0.00513499689295907,-0.08731723701760002,0.028003699806400006,-0.0018991007313850195,-0.00024098807987852519,-5.88383939998798e-05,21.22974546000478
1605,A,182978114404073.0,-3.678656817791796,10.757747,-3.2704794,26,1970-01-03 02:49:38.114404073,0.345412,-0.2910835,-0.6532734,12.196790171567349,0.7942324526634567,85.45807647705078,7.707882404327393,57.483463287353516,21269543.0,39798.0,-0.049820491434017906,-0.09272103017760003,0.0502030000494,-0.0008891966558725298,-0.0035825814789172857,0.0015562351204305644,21.26954327299609
1605,A,182978154262354.0,-1.5795403177917962,9.44333,-2.4007857,26,1970-01-03 02:49:38.154262354,-0.6199839,0.58909124,-1.3819143,10.091658984966413,1.6251448113471112,85.4303207397461,7.779095649719238,57.50755310058594,21309401.0,39858.0,-0.1047906107150454,0.011978863532999966,-0.11302264217789999,-0.0030812446547286826,-0.0016091106390602344,-0.0012519326479788764,21.309401553997304
1605,A,182978194161156.0,-0.5141206177917961,9.490616,-0.17956513,26,1970-01-03 02:49:38.194161156,-0.24580978,2.010953,-1.0197244,9.619910955181211,2.268081186401406,85.5718002319336,7.877793788909912,57.62376022338867,21349300.0,39899.0,-0.04176748883442487,-0.01328744427300005,-0.051476708883085,-0.002923760806962157,-2.6105531472631673e-05,-0.00328167980399112,21.34930035599973
1605,A,182978233585115.0,1.590981282208204,8.24563,4.8859673,26,1970-01-03 02:49:38.233585115,2.5036378,1.7896442,-0.78749675,9.599920061877167,3.176661726945921,85.70895385742188,7.923856735229492,57.710819244384766,21388724.0,39424.0,0.021227077416976232,-0.03673831884800004,0.09277259957504,-0.0004048925898607475,-0.0009861078426411536,0.000814024597319817,21.38872431498021
1605,A,182978271943814.0,0.9235975422082039,7.7027454,-1.1073183,26,1970-01-03 02:49:38.271943814,4.4163203,0.566987,-0.06471482,7.782916658288721,4.45303798078219,85.9336929321289,7.929152488708496,57.7391357421875,21427083.0,38359.0,0.04822836456289449,-0.07003633401570002,0.07247259849549999,0.0013321206494529305,-0.002047884454599335,0.003169320276393922,21.427083013986703
1605,A,182978313655739.0,-0.2884671177917961,9.759963,2.9981391,26,1970-01-03 02:49:38.313655739,2.3105586,-2.9079056,-0.30786142,10.29711208236421,3.726845137172959,86.02885437011719,7.934319496154785,57.59161376953125,21468794.0,41711.0,0.013245962566416391,-0.044574284963800004,0.0394340131944,0.001282077829445343,-0.0023902617641269625,0.002333868340098709,21.468794938991778
1605,A,182978353827041.0,2.047675182208204,8.702325,-2.082357,26,1970-01-03 02:49:38.353827041,0.96379805,-0.73290193,-0.66392606,9.003722925137762,1.3808872992857348,86.0716323852539,7.9649152755737305,57.552398681640625,21508966.0,40172.0,0.03533545318186797,-0.022852083232000008,0.0183943992606,0.0009758063167200397,-0.0013543260315808392,0.00116154149257113,21.50896624100278
1605,A,182978393755272.0,1.496410312208204,9.089587,-0.6841431,26,1970-01-03 02:49:38.393755272,0.659665,0.9177253,-0.7091998,9.126344631931516,1.3342945682288938,86.11068725585938,8.003416061401367,57.5961799621582,21548894.0,39928.0,0.07075412281052917,-0.03609666883200003,-0.0552304079964,0.0021179722951122164,-0.0011768528862056966,-0.0007353940784015112,21.548894471983658
1605,A,182978433634855.0,0.1981544222082039,10.4171715,-0.8451532,26,1970-01-03 02:49:38.433634855,1.0519487,0.928378,-0.5137238,10.48585378619465,1.494119781343561,86.38329315185547,7.950325965881348,57.67082214355469,21588774.0,39880.0,0.03378962080426317,-0.001859235510000026,-0.030494168221999997,0.0020846022476789594,-0.0007568407325794812,-0.0017093480497948957,21.588774054980604
1605,A,182978473491626.0,-1.7297765177917959,12.744934,-1.6292542,26,1970-01-03 02:49:38.473491626,0.36112466,0.17097494,-0.38748994,13.145381804407572,0.5565895289792314,86.4023666381836,7.970198631286621,57.67820358276367,21628630.0,39856.0,-0.030522165120789823,0.07098563840399999,-0.0493099906672,6.511385686025685e-05,0.0013775509568716314,-0.001590337278343978,21.628630825987784
1605,A,182978513437718.0,-1.9434590177917959,13.129204,-0.95588505,26,1970-01-03 02:49:38.513437718,0.4825648,-0.09241169,-0.051931642,13.4994642370474,0.4940704424356028,86.61637115478516,8.094852447509766,57.700035095214844,21668576.0,39946.0,-0.07336553335221108,0.12531335827399995,-0.051632986240250006,-0.0020749490016012473,0.003920679860649693,-0.002016134077772499,21.668576917989412
1605,A,182978551193449.0,0.5010209422082039,12.930485,1.1336545,26,1970-01-03 02:49:38.551193449,-0.47484162,-0.62983763,-0.18136127,12.99158387069743,0.8093589528165203,86.54711151123047,7.960239410400391,57.66205978393555,21706332.0,37756.0,-0.027230345990867048,0.12194600894199994,0.0033559316770999997,-0.0018990490102386286,0.004667762334303645,-0.0009113742360431457,21.706332648987882
1605,A,182978593203760.0,2.509157582208204,13.324929,-0.20829555,26,1970-01-03 02:49:38.593203760,-1.479386,-0.38136467,0.40613207,13.406474933371664,1.5808115658745332,86.47064971923828,7.938807010650635,57.64408874511719,21748342.0,42010.0,0.06322879990536664,0.13979697106999994,0.01943716474475,0.0007561475244740641,0.0054979112951520585,0.00047876899034095927,21.74834295999608
1605,A,182978633208344.0,0.529751382208204,7.9547353,-1.678934,26,1970-01-03 02:49:38.633208344,-2.7891288,-0.18322548,1.1227888,8.146452853450224,3.012219402519695,86.33041381835938,7.882207870483398,57.63841247558594,21788347.0,40005.0,0.0607857765607392,0.03359748516074998,-0.037749309073875,0.002480601565763282,0.0034683226107555753,-0.00036628866694332277,21.788347544003045
1605,A,182978673008552.0,-2.623412117791796,13.310564,-0.5758055,26,1970-01-03 02:49:38.673008552,-3.358246,1.1739215,1.6410398,13.81948780755996,3.9177697111829186,86.32068634033203,7.992692947387695,57.723323822021484,21828147.0,39800.0,-0.04166384863811348,0.03313945606999995,-0.044869316050000004,0.00038052636566025176,0.0013280651304919237,-0.0016441106399651124,21.82814775200677
1605,A,182978713760687.0,-1.293433217791796,12.060192,-2.131438,26,1970-01-03 02:49:38.713760687,-1.8466359,1.459146,1.0037454,12.468809709307079,2.558647303655971,86.23900604248047,7.947346210479736,57.800132751464844,21868899.0,40752.0,-0.07980964055785127,0.11758492425599996,-0.055162793556,-0.0024751438158569774,0.003071159973522574,-0.002038254265331856,21.86889988699113
1605,A,182978752867667.0,-3.3153365177917964,14.766837,4.091092,26,1970-01-03 02:49:38.752867667,-1.5803198,-3.4024546,1.3318468,15.932069208002739,3.980945098089578,86.13702392578125,7.869589805603027,57.63322067260742,21908006.0,39107.0,-0.09011757902473379,0.14131371155149997,0.038318094489,-0.0033226718881080772,0.00506237447526195,-0.00032937282320658453,21.908006866986398
1605,A,182978790649021.0,-1.0252826177917962,9.0794115,-0.29328972,26,1970-01-03 02:49:38.790649021,-0.7193198,-2.7097664,0.88124,9.317625737769571,2.938849920435033,86.22306060791016,7.941974639892578,57.519012451171875,21945788.0,37782.0,-0.08199863609030965,0.0802158804135,0.07174428287148,-0.003251447419738286,0.004184915521810815,0.002079188370716828,21.9457882209972
1605,A,182978830211209.0,-1.738156117791796,5.3318872,-4.329315,26,1970-01-03 02:49:38.830211209,-0.9893644,1.8801918,0.6660566,7.411602759318783,2.226565632353594,86.18696594238281,7.914967060089111,57.6159553527832,21985350.0,39562.0,-0.05466358162857903,-0.10263770041530001,-0.09143974396632,-0.0027033153286973367,-0.0004435260214556061,-0.00038959591591702995,21.985350408998784
1605,A,182978870334906.0,1.3120567822082039,5.8478374,0.6063316,26,1970-01-03 02:49:38.870334906,-1.128115,2.6860642,1.102815,5.885136522563756,3.1150899287133975,86.1496353149414,7.868923187255859,57.75495529174805,22025474.0,40124.0,-0.008548404870478024,-0.16892756507480003,-0.07469049297080001,-0.0012681588731440828,-0.005448142356262387,-0.0033329048134325017,22.025474105990725
1605,A,182978911878291.0,-1.232381117791796,4.8823757,3.1920695,26,1970-01-03 02:49:38.911878291,-1.0122676,1.1992215,0.8990832,6.262966278012257,1.8086371942969242,86.10769653320312,7.828121185302734,57.818416595458984,22067017.0,41543.0,0.0016549830634254152,-0.18423877859335,0.07889848844865,-0.00014318671106519325,-0.007335794707502978,8.740637806816102e-05,22.067017491004663
1605,A,182978951738969.0,-1.429304117791796,2.819771,1.3922282,26,1970-01-03 02:49:38.951738969,0.29880667,0.72464615,0.5238438,4.002993132529558,0.9427670950689525,86.12784576416016,7.804440975189209,57.856693267822266,22106878.0,39861.0,-0.053048717587798784,-0.23713016519565003,0.09136734530985001,-0.0010243028259380234,-0.008398093734186665,0.0033934831997237845,22.106878168997355
1605,A,182978991685375.0,-1.263505717791796,3.0496144,2.1164744,26,1970-01-03 02:49:38.991685375,0.93903065,0.44661212,0.12170646,4.372681976196412,1.0469256944865037,86.17790222167969,7.799867153167725,57.879600524902344,22146824.0,39946.0,-0.05378349084611109,-0.2742415654058001,0.0700793170298,-0.002133759699050482,-0.010213627575302765,0.0032245741869098296,22.14682457500021
1605,A,182979029907666.0,-0.29744531779179617,5.932832,4.50888,26,1970-01-03 02:49:39.029907666,1.7859159,0.025033714,-0.63196814,7.572144051052901,1.894599170981689,86.26708984375,7.831482410430908,57.878761291503906,22185046.0,38222.0,-0.02983133524103803,-0.2029120668496,0.1266171479384,-0.0015979629413515068,-0.009118883066032951,0.0037590661420072702,22.185046865983168
1605,A,182979072808552.0,4.925505582208205,19.612701,11.63582,26,1970-01-03 02:49:39.072808552,0.69322085,-0.19387813,-0.7185209,23.13199719893349,1.017062515238778,86.30009460449219,7.866703987121582,57.866641998291016,22227947.0,42901.0,0.09927420670186417,0.12753465561650001,0.34631188735,0.0014895843142704512,-0.0016168831596556114,0.010144564271453825,22.22794775199145
1605,A,182979111955271.0,7.915265482208204,11.128848,7.1568675,26,1970-01-03 02:49:39.111955271,-0.6069344,-1.0024139,0.97285277,14.907657345186205,1.5230382480138978,86.26329803466797,7.814915180206299,57.8193359375,22267094.0,39147.0,0.25133883242935456,0.21807910935150004,0.36783866878125,0.00686272432143491,0.00676487102860115,0.013978425910435022,22.267094470997108
1605,A,182979151221468.0,1.200127842208204,3.5571852,5.753267,26,1970-01-03 02:49:39.151221468,-0.124902256,0.19121496,-0.4775048,6.76586607517336,0.5293151882430082,86.2581558227539,7.839362621307373,57.8274040222168,22306360.0,39266.0,0.17896251713826733,-0.09647591018440003,0.25346467063850003,0.008448106396061122,0.0023874356092476747,0.012198048462827953,22.30636066797888
1605,A,182979191798708.0,-6.919807217791796,15.450981,-4.268862,26,1970-01-03 02:49:39.191798708,0.70014507,-1.3510216,-1.3717943,17.900668725498697,2.0487269423289076,86.2832260131836,7.903415679931641,57.754852294921875,22346937.0,40577.0,-0.11604371501152771,-0.012007420051299997,0.030116350842499997,0.0012765281169483567,-0.002200964045487,0.005753433554317269,22.346937908005202
1605,A,182979229406105.0,-1.411946317791796,7.0808516,-2.1308396,26,1970-01-03 02:49:39.229406105,-0.23622239,-1.3558153,-0.6087986,7.792804410962023,1.5048826800164063,86.26172637939453,7.929381370544434,57.68455123901367,22384545.0,37608.0,-0.15667029348311384,0.055130180210400004,-0.12033998888640002,-0.00512811421573324,0.0008108803820317166,-0.001696565289777496,22.384545304987114
1605,A,182979271570374.0,-0.5033467177917961,8.871715,3.3734303,26,1970-01-03 02:49:39.271570374,0.82211787,-1.3427658,-0.6956177,9.617300908407552,1.7212732991527717,86.29316711425781,7.959731101989746,57.6146240234375,22426709.0,42164.0,-0.040378207776173285,-0.07689519093880003,0.0261962971374,-0.0041541765035482915,-0.00045884995617612927,-0.0019847373094524184,22.426709574006964
1605,A,182979311520636.0,-1.6507678177917962,9.292496,-2.4690206,26,1970-01-03 02:49:39.311520636,0.40426785,-0.41172472,-0.56751966,9.986349696582053,0.8093381889477453,86.31025695800781,7.986721515655518,57.592037200927734,22466659.0,39950.0,-0.04302843784828226,-0.028679885275000032,0.0180655837575,-0.0016660477463484994,-0.002108862147370656,0.0008841310708756275,22.46665983600542
1605,A,182979351381260.0,-1.4885607177917959,8.043321,-2.0883424,26,1970-01-03 02:49:39.351381260,-0.8293084,0.9635317,-1.2655342,8.688370266192965,1.7938011513501406,86.27499389648438,8.052976608276367,57.636451721191406,22506520.0,39861.0,-0.06256838737844878,-0.04512629928150002,-0.09083052327150001,-0.002104597525181363,-0.0014709941613033242,-0.0014502416269837773,22.506520459981402
1605,A,182979391269177.0,-0.18791061779179596,9.474455,3.8726213,26,1970-01-03 02:49:39.391269177,-0.13768543,2.442119,-1.0295781,10.309642401838403,2.6538525866737386,86.2849349975586,8.112269401550293,57.75615310668945,22546408.0,39888.0,-0.03343554431687915,-0.041527875456,0.0355856583816,-0.00191470241373162,-0.0017282308609647004,-0.001101803585364166,22.54640837700572
1605,A,182979431402041.0,0.0838312822082039,9.009979,0.19393034,26,1970-01-03 02:49:39.431402041,3.1859398,1.5433019,-0.22743396,9.06344212218713,3.547353854625858,86.51736450195312,8.078423500061035,57.84190368652344,22586541.0,40133.0,-0.00208850798748815,-0.022385505139000023,0.08160145848406,-0.0007128433955655865,-0.001282517851709568,0.0023515352805847664,22.58654124100576
1605,A,182979471076156.0,1.651434882208204,6.9545574,-1.0324994,26,1970-01-03 02:49:39.471076156,2.3441145,-0.35952675,-0.10279802,7.056675139469995,2.373752241913998,86.63197326660156,8.082483291625977,57.82347106933594,22626215.0,39674.0,0.03442247490352828,-0.07211669143320004,-0.01663469444322,0.000641408901713488,-0.0018746400734027326,0.0012887456982781432,22.626215355994646
1605,A,182979511032406.0,0.724280242208204,9.693524,1.8375498,26,1970-01-03 02:49:39.511032406,2.624279,-2.412025,-0.50333744,9.871447016030084,3.5997296355381683,86.56069946289062,7.947236061096191,57.67442321777344,22666171.0,39956.0,0.04746203675559099,-0.05897342979080003,0.016083296891199996,0.001635888773925885,-0.002618918441813073,-1.1015820294255653e-05,22.666171605989803
1605,A,182979548794698.0,2.2475910822082037,8.696339,-1.043872,26,1970-01-03 02:49:39.548794698,1.9560919,-1.3371732,-0.53476274,8.840599832820505,2.429053082198114,86.64894104003906,7.969967365264893,57.605430603027344,22703933.0,37762.0,0.05611190247630619,-0.022848596697000022,0.014985430541799998,0.0019555795466374504,-0.0015448816821161527,0.0005866086426624729,22.703933897981187
1605,A,182979590847353.0,0.1718182322082039,9.691729,1.2485762,26,1970-01-03 02:49:39.590847353,0.850081,0.6383597,-0.6356966,9.810981993945765,1.238648852741022,86.59541320800781,7.932851791381836,57.621856689453125,22745986.0,42053.0,0.05087170994957659,-0.02548268819800002,0.004304212861300003,0.0022494909266728242,-0.0010162377618447183,0.00040559368701528217,22.745986552996328
1605,A,182979630696104.0,0.8954656722082039,10.367492,-1.7369933,26,1970-01-03 02:49:39.630696104,0.31451932,0.6431534,-0.72198296,10.51309420511206,1.0167733735278397,86.61532592773438,7.970793724060059,57.65211486816406,22785835.0,39849.0,0.021265098153544718,0.00914974881449999,-0.00973146650895,0.0014372898330506406,-0.00032542565074654634,-0.00010813531530260237,22.78583530400647
1605,A,182979670653604.0,-1.017501417791796,14.283209,-1.9405005,26,1970-01-03 02:49:39.670653604,0.12676647,-0.46818373,-0.27670243,14.561587206935322,0.5584173866570405,86.61827087402344,7.983222007751465,57.627689361572266,22825792.0,39957.0,-0.0024380911431417947,0.10090542992849996,-0.07347080988329999,0.00037613535955733485,0.0021987373885170246,-0.0016622566789025663,22.82579280398204
1605,A,182979710513916.0,-2.124819817791796,13.944429,-0.22864626,26,1970-01-03 02:49:39.710513916,0.6870956,0.37230992,0.01784318,14.30255139127744,0.7816862664408777,86.76155853271484,8.10458755493164,57.66142272949219,22865653.0,39861.0,-0.06262803338579878,0.17195313915899996,-0.04323217950018,-0.0012968003949240501,0.0054382077111984175,-0.002325948929907448,22.865653115994064
1605,A,182979750423344.0,0.35497468220820394,13.603255,-0.2801216,26,1970-01-03 02:49:39.750423344,-1.123854,-1.1771172,0.07057377,13.62375141193979,1.6289976589497766,86.80839538574219,7.968765735626221,57.617916107177734,22905562.0,39909.0,-0.03531637475800279,0.15859206037799997,-0.010152208262370002,-0.0019544316923054885,0.006595864184161065,-0.001065258765607804,22.905562543979613
1605,A,182979788182250.0,1.550878382208204,10.378265,-0.7445967,26,1970-01-03 02:49:39.788182250,-1.9675435,-0.66206187,0.6431534,10.417110971203135,2.1732923503366286,86.70565032958984,7.934790134429932,57.58638000488281,22943321.0,37759.0,0.03598155292964957,0.08272090684,-0.01934616914485,1.255823129160543e-05,0.004555868164592231,-0.00055691461625961,22.94332145000226
1605,A,182979828189594.0,0.34360218220820393,7.9152308,-1.050456,26,1970-01-03 02:49:39.828189594,-3.4993937,-0.14008227,1.194694,8.015597608323832,3.7003612071801917,86.53019714355469,7.874747276306152,57.582881927490234,22983328.0,40007.0,0.03789624197030362,-0.026134656764700018,-0.03590733668445,0.0014778144702812137,0.0011319230533812631,-0.0011052635038564026,22.983328793983674
1605,A,182979868307510.0,-0.9845812177917961,12.997522,-2.0590134,26,1970-01-03 02:49:39.868307510,-2.8120317,1.768339,1.5329156,13.31557201793664,3.658466254791651,86.40238952636719,7.8036980628967285,57.67672348022461,23023446.0,40118.0,-0.012857398474771275,0.02633250841519997,-0.062372846694600005,0.0005022541616768833,3.968706257378525e-06,-0.001971402198400364,23.02344670999446
1605,A,182979909503500.0,-0.47341911779179613,12.1523695,-2.4636335,26,1970-01-03 02:49:39.909503500,-1.8184065,1.3582122,0.6607303,12.492508226573559,2.3638754427442197,86.3210220336914,7.775038719177246,57.74725341796875,23064642.0,41196.0,-0.030031890912350836,0.11431666511699999,-0.0931574808462,-0.0008834335827959413,0.002897091676416255,-0.0032036136866853988,23.064642699988326
1605,A,182979949388187.0,-1.045633317791796,13.385982,6.3284736,26,1970-01-03 02:49:39.949388187,-1.8586202,-2.7997813,0.82398206,14.953771723419132,3.4600853762413974,86.2094497680664,7.724806785583496,57.60897445678711,23104527.0,39885.0,-0.030293703196625783,0.11842557478874999,0.07707457369425,-0.001203043160518266,0.004641462119320419,-0.0003207333758777629,23.104527386982227
1605,A,182979989248760.0,-1.511904017791796,8.485649,-1.8231846,26,1970-01-03 02:49:39.989248760,-0.6175871,-1.8255969,0.8519452,9.048799758812239,2.1071375112173056,86.1666488647461,7.676234722137451,57.519927978515625,23144387.0,39860.0,-0.05097171909818099,0.04527360582999999,0.08979040976999998,-0.0016196198663354989,0.003262524669731687,0.0033256191204425025,23.144387959997403
1605,A,182980029554958.0,-1.386208517791796,6.0399723,-2.5623944,26,1970-01-03 02:49:40.029554958,-0.29161614,1.4130733,1.0828413,6.997860768860341,1.8039848683586788,86.16202545166016,7.6269378662109375,57.5947151184082,23184694.0,40307.0,-0.05840711098588392,-0.10226649113045003,-0.0883847663765,-0.0022043662520992023,-0.00114860611390262,2.8328634130901862e-05,23.18469415800064
1605,A,182980068803083.0,1.291107502208204,6.175245,0.78888947,26,1970-01-03 02:49:40.068803083,-0.43303,1.6008261,1.6130767,6.230196084213263,2.313476955455597,86.15172576904297,7.55183219909668,57.68072509765625,23223942.0,39248.0,-0.0018662623298124107,-0.14491897570480003,-0.03480326074632,-0.0011828046779472248,-0.004850767601174947,-0.00241744184425822,23.22394228298799
1605,A,182980109589854.0,-0.17414391779179605,4.819528,1.0049661,26,1970-01-03 02:49:40.109589854,-0.20266657,1.9374497,1.3829796,5.072495905875841,2.389020228596195,86.15496826171875,7.489340305328369,57.78290557861328,23264729.0,40787.0,0.02277879685879601,-0.1754906968245,0.036582993566795,0.000426479772916827,-0.00653427465672628,3.6294981274356904e-05,23.26472905400442
1605,A,182980149459698.0,-1.4729985177917961,3.163339,1.364695,26,1970-01-03 02:49:40.149459698,0.19361182,1.4583471,0.7459514,4.268724183870633,1.649456059458415,86.17453002929688,7.457001209259033,57.858802795410156,23304598.0,39869.0,-0.03283496088214112,-0.23158173778850002,0.04723800919795,-0.0002004646017233731,-0.008114785447792849,0.001670929779613809,23.30459889798658
1605,A,182980189405896.0,-1.9302909177917962,2.992752,4.747702,26,1970-01-03 02:49:40.189405896,0.79202414,0.67670923,-0.1041296,6.353303280143531,1.0469386772424125,86.21851348876953,7.464444160461426,57.89250183105469,23344545.0,39947.0,-0.06797560154162889,-0.26852191641150003,0.12208596147950002,-0.0020135397685711706,-0.009988820337163702,0.0033819923283260485,23.34454509598436
1605,A,182980227333812.0,1.563447922208204,10.553641,6.339846,26,1970-01-03 02:49:40.227333812,1.0916297,0.47058058,-0.86020106,12.322304594398453,1.4673265988934943,86.27580261230469,7.508902072906494,57.913333892822266,23382473.0,37928.0,-0.006956810568247242,-0.11480060314800003,0.21026426027200001,-0.0014210182632516913,-0.007269328260926359,0.006302689605295447,23.3824730119959
1605,A,182980269160374.0,8.273198482208205,19.612701,9.9473095,26,1970-01-03 02:49:40.269160374,0.1667139,-0.2396845,0.381631,23.147737724140395,0.48050432272192933,86.2827377319336,7.489083290100098,57.902523040771484,23424299.0,41826.0,0.2057137862555604,0.22097391024600005,0.34061328297149995,0.00415660463254878,0.0022204023713404747,0.011520502061851316,23.424299573991448
1605,A,182980309121626.0,6.296186182208204,7.1287355,3.152565,26,1970-01-03 02:49:40.309121626,-0.022903185,-1.0812434,0.45007423,9.397141532279534,1.1714002981205003,86.27470397949219,7.463116645812988,57.84959030151367,23464260.0,39961.0,0.29110359028737204,0.14268947198825002,0.26174204244724997,0.009926659592016062,0.007266176208731435,0.012035360579529334,23.464260826003738
1605,A,182980348981729.0,0.19875298220820392,11.568783,2.4774003,26,1970-01-03 02:49:40.348981729,0.8245147,-0.68203557,-1.2487563,11.86147628138291,1.6445027534336951,86.10140228271484,7.441133975982666,57.783992767333984,23504120.0,39860.0,0.12944413754681902,-0.01798645629500001,0.112205208429,0.008381516215735426,0.0024853311027664728,0.007452768709963662,23.50412092899205
1605,A,182980388865583.0,-2.570739817791796,10.597934,-4.2024226,26,1970-01-03 02:49:40.388865583,-0.5030711,-1.7510284,-0.17576863,11.961112069387948,1.8303211741532814,86.06477355957031,7.4439239501953125,57.6953010559082,23544004.0,39884.0,-0.047302161475208,0.05118547041399998,-0.0344003947066,0.0016380752868200672,0.0006620547395610974,0.001551583595252101,23.54400478300522
1605,A,182980428824384.0,-2.081125517791796,4.7297454,7.2191167,26,1970-01-03 02:49:40.428824384,-0.89855057,-0.5946839,-0.13741912,9.180109985897175,1.086244025211697,86.01590728759766,7.448724746704102,57.6649055480957,23583963.0,39959.0,-0.09294194347229238,-0.08535882942770003,0.06027203977094999,-0.0028020070947985844,-0.0006827666264142201,0.0005169025325631806,23.58396358398022
1605,A,182980468676001.0,-5.192390517791796,9.879673,-1.1815386,26,1970-01-03 02:49:40.468676001,0.7616641,-0.050600063,-0.83063996,11.744793497663677,1.1281202554485117,86.05326843261719,7.489979267120361,57.65945053100586,23623815.0,39852.0,-0.14493208052503864,-0.09944232896160002,0.12030478122059998,-0.0047398778021708185,-0.003682347882065193,0.0035981737350776247,23.623815200990066
1605,A,182980508623448.0,-2.567148517791796,7.9691005,-2.5354595,26,1970-01-03 02:49:40.508623448,0.42530683,-0.10226539,-1.2407668,9.110476571538753,1.3156163428670005,86.07331848144531,7.551520824432373,57.6500244140625,23663762.0,39947.0,-0.15498515292722886,-0.03497812249775003,-0.07424146155035001,-0.005990396862358865,-0.0026848468872233285,0.000920045715433738,23.663762648007832
1605,A,182980546382197.0,-2.067359017791796,7.9972324,-3.2261868,26,1970-01-03 02:49:40.546382197,-0.16591494,1.1733888,-1.0306433,9.168769729014697,1.570539606350484,86.07234191894531,7.606948375701904,57.70551300048828,23701521.0,37759.0,-0.08749718501805044,-0.06860181801445003,-0.10877700132085,-0.004577945299237901,-0.0019555374869000813,-0.0034552970697768206,23.70152139698621
1605,A,182980588387510.0,0.08083853220820392,10.788273,0.49200845,26,1970-01-03 02:49:40.588387510,0.7307714,1.6314526,-1.0439591,10.84266278010229,2.070148552055511,86.1523208618164,7.602325439453125,57.78837585449219,23743526.0,42005.0,-0.0417218964984694,-0.017106422836500032,-0.057424580795874994,-0.002713923759550708,-0.0018000873284720789,-0.0034906487284065164,23.743526709993603
1605,A,182980628350322.0,1.7681521822082038,8.675988,3.0280666,26,1970-01-03 02:49:40.628350322,3.4461305,-0.25699505,-0.87138635,9.21744532431908,3.563870936176151,86.3225326538086,7.644955158233643,57.77255630493164,23783489.0,39963.0,0.03694560796011145,-0.002712268828500019,0.070336379611575,-9.543740942919942e-05,-0.0003960071875041985,0.00025799710803590974,23.78348952200031
1605,A,182980668196938.0,2.367301182208204,9.381081,1.1833342,26,1970-01-03 02:49:40.668196938,3.6253612,-1.6492957,-0.21278657,9.547085542927974,3.98857095472505,86.49266052246094,7.6504082679748535,57.688838958740234,23823336.0,39847.0,0.08239270510595031,-0.030740585778500022,0.0839058438388,0.0023776368803716816,-0.0006664979487625653,0.0030730449389135463,23.82333613798255
1605,A,182980708105999.0,0.8002961622082039,8.383896,-1.3682863,26,1970-01-03 02:49:40.708105999,2.183792,-4.4645233,-0.53076804,8.498413265439227,4.998262748975121,86.5716781616211,7.663396835327148,57.462398529052734,23863245.0,39909.0,0.06320782120915722,-0.03661696645350003,-0.0036906266794500013,0.002905385702354813,-0.001344086276013445,0.0016006545508062495,23.8632451989979
1605,A,182980746978811.0,1.222274202208204,9.533711,-1.2318168,26,1970-01-03 02:49:40.746978811,0.4135889,0.99042964,-0.4956143,9.614549649470701,1.182218331932909,86.59883117675781,7.691085338592529,57.510799407958984,23902118.0,38873.0,0.039311688887979514,-0.03269983154450002,-0.05053690390315,0.001992620458002998,-0.001347275944288128,-0.0010539933981687049,23.902118010999402
1605,A,182980787129228.0,0.6338991522082039,10.14124,-0.6206968,26,1970-01-03 02:49:40.787129228,1.0032128,0.46152583,-0.37390783,10.168632004046023,1.16586837986813,86.8254623413086,7.578609466552734,57.555912017822266,23942268.0,40150.0,0.037262680089909385,0.001504641324999973,-0.037189210519999995,0.0015372304572311196,-0.0006262434436564634,-0.0017611017470447361,23.942268427985255
1605,A,182980827123655.0,-0.9959535177917962,12.466608,-1.6053122,26,1970-01-03 02:49:40.827123655,0.6628608,-0.09773801,-0.28229508,12.734560623536797,0.7270678585714035,86.85785675048828,7.592433452606201,57.55021286010742,23982262.0,39994.0,-0.007240001148575095,0.06014793645599999,-0.044513501973,0.0006003635107898618,0.0012328665978866562,-0.0016338091417225208,23.98226285498822
1605,A,182980865320895.0,-1.501728817791796,13.229161,-1.903989,26,1970-01-03 02:49:40.865320895,0.07962852,-0.67724186,-0.006657903,13.606411341887826,0.6819395616959082,86.85731506347656,7.590908527374268,57.51607894897461,24020460.0,38198.0,-0.04770323492731103,0.11642309213099998,-0.0670241436188,-0.0010493608658133492,0.003372330074983113,-0.0021302574931577885,24.020460094994633
1605,A,182980905466728.0,-0.9582450177917963,14.389153,0.33518824,26,1970-01-03 02:49:40.905466728,-0.07057377,-0.018908445,-0.02263687,14.53213949113996,0.07648930766929339,86.8988265991211,7.600640296936035,57.52104187011719,24060605.0,40145.0,-0.049377824814751656,0.160947607765,-0.0314897532551,-0.0019486595716725532,0.00556752337366246,-0.0019774201950013576,24.06060592798167
1605,A,182980947074124.0,0.25621381220820394,13.300987,-1.3946224,26,1970-01-03 02:49:40.947074124,-1.3768543,-0.41731736,0.61439127,13.397289153375747,1.564403456605128,87.05520629882812,7.465926647186279,57.53164291381836,24102213.0,41608.0,-0.014605057200961055,0.16830727255999997,-0.022040468264639998,-0.0013310998774548873,0.006849818530281299,-0.001113642728496671,24.102213323989417
1605,A,182980985029540.0,1.0672496452082039,9.416395,0.25677812,26,1970-01-03 02:49:40.985029540,-2.6351979,-0.55979645,1.2367721,9.419916132688172,2.964328805132019,86.95512390136719,7.213669776916504,57.51140594482422,24140168.0,37955.0,0.02511602776311988,0.059160116904999956,-0.0215934398237,0.0001994719438433691,0.004316762383572036,-0.0008280624907464724,24.14016874000663
1605,A,182981024938967.0,-0.7098465177917961,10.128072,0.0664391,26,1970-01-03 02:49:41.024938967,-3.5744948,0.7259777,1.5374429,10.279616458094573,3.9582555964571995,86.84774780273438,7.204788684844971,57.56038284301758,24180078.0,39910.0,0.0071319794075944175,-0.0011081610150000453,0.0064497996250999995,0.0006435089830916039,0.0011584267797849481,-0.000302191340163063,24.180078167002648
1605,A,182981065106363.0,-0.832549317791796,11.507132,-2.9813797,26,1970-01-03 02:49:41.065106363,-2.1025658,1.0447581,1.1307782,12.034836423948034,2.605947384050662,86.74959564208984,7.151256084442139,57.61613845825195,24220245.0,40167.0,-0.03097670676394307,0.040874019533999974,-0.058542209540100004,-0.0004788855818612282,0.000798637619566335,-0.0010461979145279026,24.220245562988566
1605,A,182981105023447.0,-1.912334517791796,11.125257,-1.8938135,26,1970-01-03 02:49:41.105023447,-1.9909793,-0.72970617,0.6676545,11.666982401506193,2.223113177266243,86.6457290649414,7.115828514099121,57.58136749267578,24260162.0,39917.0,-0.05478376403249513,0.060521935856499974,-0.0973015434822,-0.0017116503563907118,0.0020237111756612933,-0.003110407544695575,24.26016264699865
1605,A,182981146261311.0,-2.671296417791796,11.659163,6.2105594,26,1970-01-03 02:49:41.146261311,-1.4732608,-2.4636903,0.9933591,13.723576720089211,3.037602604140894,86.55712890625,7.058941841125488,57.460411071777344,24301400.0,41238.0,-0.09450988626079808,0.06565955597999995,0.08900698371209999,-0.0030782857753974126,0.0026017361801767918,-0.00017102552789969227,24.301400511001702
1605,A,182981185855895.0,-1.924903917791796,5.7017913,-1.8447324,26,1970-01-03 02:49:41.185855895,-0.9539443,-1.1206582,0.84022737,6.689441810725871,1.6946582434304702,86.50284576416016,7.013612270355225,57.40662384033203,24340995.0,39595.0,-0.09099327614371618,-0.044327507245750034,0.0864324600325,-0.0036724988577033707,0.00042232123481631274,0.003473262387533718,24.340995095000835
1605,A,182981224411728.0,1.545491432208204,5.4486046,-1.0474633,26,1970-01-03 02:49:41.224411728,-0.9337043,2.4301345,1.171791,5.570679440268005,2.8548995701442355,86.47147369384766,6.962582111358643,57.53242874145508,24379550.0,38555.0,-0.007314124190837692,-0.16288724303775004,-0.05575430260675,-0.0018951209099493623,-0.003994582348590172,0.0005913981797748956,24.37955092798802
1605,A,182981264299853.0,-0.9720115177917963,4.8416743,1.5861586,26,1970-01-03 02:49:41.264299853,-1.2658005,1.3073457,0.7909589,5.480522395968787,1.9841924469662588,86.41643524169922,6.927165508270264,57.60062789916992,24419439.0,39889.0,0.011437770153078045,-0.18567773247895003,0.010744008410850003,8.224405689390272e-05,-0.006951954154192825,-0.0008977078125901275,24.41943905298831
1605,A,182981304191832.0,-0.5512307177917961,3.4386723,1.6867151,26,1970-01-03 02:49:41.304191832,-0.1933455,0.7661915,0.47297743,4.150350210865408,0.9209449203572952,86.41159057617188,6.905960559844971,57.64064025878906,24459331.0,39892.0,-0.03038258963095033,-0.22578180671640002,0.0652807388202,-0.00037787336930564057,-0.008206971968790451,0.0015163896082705233,24.45933103200514
1605,A,182981343965009.0,-0.814592817791796,3.2632968,2.2110453,26,1970-01-03 02:49:41.343965009,0.7419567,0.58429754,0.20905815,4.359496256323249,0.9672686648529271,86.45228576660156,6.897343158721924,57.670650482177734,24499104.0,39773.0,-0.027161449740383106,-0.25649669149285004,0.0775128121946,-0.0011443495389580225,-0.009590831354638252,0.0028396639522558207,24.499104208982317
1605,A,182981384070426.0,0.41722388220820394,4.063559,4.7758336,26,1970-01-03 02:49:41.384070426,1.2961606,0.1603223,-0.396811,6.302249053490898,1.3649888316724978,86.51792907714844,6.91763973236084,57.677494049072266,24539209.0,40105.0,-0.00796824058078998,-0.24610722407050004,0.14010438914225,-0.0007044381151653233,-0.010078465016834078,0.004363768929807186,24.539209626003867
1605,A,182981424135270.0,1.401240782208204,15.921441,10.198701,26,1970-01-03 02:49:41.424135270,1.3611417,-0.7930894,-0.995756,18.911132169338167,1.8636597155616283,86.580810546875,6.964949131011963,57.63460159301758,24579274.0,40065.0,0.036428393389921696,0.007712512499999961,0.2999773643745,0.0005701280111489311,-0.004775642059536043,0.008815937727324296,24.579274469986558
1605,A,182981463843134.0,7.692005882208204,18.257584,6.8569937,26,1970-01-03 02:49:41.463843134,-0.31638354,-1.1177287,0.7704525,20.603573185167818,1.393920028532079,86.5584716796875,6.923152446746826,57.580726623535156,24618982.0,39708.0,0.18053731927532338,0.28945196235,0.3386237625738,0.004307637259255775,0.005899903483671898,0.01267878677443155,24.618982333980966
1605,A,182981503587353.0,4.043840882208205,6.8348475,6.9348054,26,1970-01-03 02:49:41.503587353,-0.42797,0.28708878,0.077231675,10.187479573223643,0.5210978987917664,86.5388412475586,6.920162677764893,57.59539031982422,24658726.0,39744.0,0.23321474690248287,0.10914559876800001,0.2740706317152,0.008222081059085366,0.007920930734536896,0.012175463003311007,24.658726552996086
1605,A,182981543525165.0,-2.3265312177917963,10.851121,3.079542,26,1970-01-03 02:49:41.543525165,0.42850262,-0.38748994,-0.8556737,11.773464891646329,1.0324439112221826,86.55760192871094,6.961704730987549,57.57332229614258,24698664.0,39938.0,0.03429295668873126,-0.03822129502350004,0.1999765032306,0.005341861333012955,0.00141628742147392,0.009466247237732681,24.698664364987053
1605,A,182981583371051.0,-4.924239917791796,14.903307,-2.885013,26,1970-01-03 02:49:41.583371051,-1.0378339,-2.2876554,-0.76059884,16.312372823135718,2.624686081905361,86.49144744873047,6.992732048034668,57.455963134765625,24738510.0,39846.0,-0.14445711333423192,0.12261466904399995,0.0038756012670000035,-0.0021948004928483097,0.0016813691906104199,0.004061345477905686,24.73851025098702
1605,A,182981623243811.0,-0.1944946177917961,4.185065,2.1960814,26,1970-01-03 02:49:41.623243811,1.0141318,-1.9955066,-0.7305051,4.8867255853089775,2.354601367437981,86.5296401977539,7.023115634918213,57.353389739990234,24778383.0,39873.0,-0.10204965106866229,-0.010200071622000035,-0.013734884843399993,-0.0049144821085183,0.002241153621503701,-0.0001965596070208984,24.77838301099837
1605,A,182981663190842.0,-0.816388517791796,7.8583684,-3.072958,26,1970-01-03 02:49:41.663190842,-0.050866377,0.30786142,-0.6926882,8.641243880418985,0.7597255982608211,86.52873992919922,7.058619022369385,57.366764068603516,24818330.0,39947.0,-0.02019087430857888,-0.15093108298510005,-0.017514294770099994,-0.0024415711336223268,-0.003218353116544914,-0.0006241554890102421,24.818330042005982
1605,A,182981703389957.0,-1.062991517791796,11.1096945,-1.6663644,26,1970-01-03 02:49:41.703389957,-0.98403805,1.0921624,-1.3355753,11.430496315385374,1.9861799953155437,86.48582458496094,7.128600120544434,57.41758728027344,24858529.0,40199.0,-0.03777459902521241,-0.012701619741450036,-0.0952580105788,-0.001165077031272538,-0.0032889355084522935,-0.0022666669513602155,24.85852915700525
1605,A,182981743707613.0,1.242624922208204,9.7563715,0.6434417,26,1970-01-03 02:49:41.743707613,0.52810484,1.8684739,-0.79415464,9.77951311595583,2.0978014751749425,86.51690673828125,6.967856407165527,57.50822830200195,24898846.0,40317.0,0.003621139982928162,0.02552199146099997,-0.02062058724795,-0.0006884825041038869,0.00025843946330854735,-0.00233593871429054,24.89884681298281
1605,A,182981783233082.0,2.424761982208204,6.367978,3.5452142,26,1970-01-03 02:49:41.783233082,2.9166942,2.1132183,-0.5336975,7.417313869274098,3.641102808391268,86.67546844482422,7.000767707824707,57.6129035949707,24938372.0,39526.0,0.07247856739198147,-0.06868928083150003,0.0827804065517,0.0015039585168503391,-0.0008531151398291926,0.0012284645089000112,24.938372281991178
1605,A,182981823590270.0,-0.37106711779179613,8.6017685,0.63087213,26,1970-01-03 02:49:41.823590270,4.429902,0.29481193,-0.09081379,8.740752055537106,4.440629791834542,86.87713623046875,7.064621925354004,57.624942779541016,24978729.0,40357.0,0.04144048182162648,-0.09343157024975002,0.084267158009905,0.002298715534556788,-0.003271355593543004,0.003370769281506347,24.978729469992686
1605,A,182981863315061.0,-0.5129235177917961,8.519168,2.1930888,26,1970-01-03 02:49:41.863315061,2.3611586,-2.7848675,-0.2314287,8.934247343461589,3.658430834400713,86.97787475585938,7.068717002868652,57.48420715332031,25018454.0,39725.0,-0.0175582639992791,-0.04924039876875001,0.056090923972125006,0.00047436055149637494,-0.0028338219846299573,0.0027878624033680715,25.01845426100772
1605,A,182981902838134.0,1.555666782208204,8.514978,-2.3942018,26,1970-01-03 02:49:41.902838134,0.99229383,-0.8900285,-0.95128113,8.859756691753432,1.637599940205909,87.02166748046875,7.113885879516602,57.43692398071289,25057977.0,39523.0,0.020606171019764846,-0.05070512382100004,-0.003974294549499998,6.023121458532903e-05,-0.0019750734446573456,0.0010299027723352041,25.057977333985036
1605,A,182981943166624.0,0.6135484322082039,9.794679,-0.076015905,26,1970-01-03 02:49:41.943166624,0.3821636,1.1768509,-0.768322,9.804581934424837,1.4564840382509414,87.13390350341797,7.041253089904785,57.50471115112305,25098305.0,40328.0,0.04374005558349245,-0.026018476252000038,-0.04980946980361999,0.0012974773132280802,-0.0015470546718719738,-0.0010844958244163115,25.0983058239799
1605,A,182981985047822.0,-0.30881781779179596,11.298837,-1.2174516,26,1970-01-03 02:49:41.985047822,0.89588743,0.21331921,-0.5499428,11.444889564514185,1.0726399469807513,87.40442657470703,7.065433979034424,57.54164123535156,25140187.0,41882.0,0.0063813637964939985,0.031275718556,-0.027086503022205,0.0010495926432362963,0.00011009191108806316,-0.0016102785669456013,25.140187021985184
1605,A,182982024947822.0,-1.4245157177917962,13.748703,-1.8441339,26,1970-01-03 02:49:42.024947822,0.8578042,0.08175905,-0.360592,14.09036952263185,0.9340980560190363,87.4477310180664,7.083628177642822,57.54494857788086,25180087.0,39900.0,-0.03458000403489266,0.108678423,-0.061078630725,-0.0005625628727560534,0.0027920851240422,-0.0017588944182567396,25.180087021988584
1605,A,182982064964488.0,-1.055210117791796,12.341511,0.23104046,26,1970-01-03 02:49:42.064964488,0.48389637,-0.094009586,-0.22929817,12.521487639588827,0.5436645564356916,87.5080337524414,7.1595025062561035,57.544273376464844,25220103.0,40016.0,-0.04961435451835652,0.12985620171199996,-0.03227477354752,-0.0016845607259334096,0.004772600771237695,-0.0018678149126845804,25.2201036879851
1605,A,182982104741989.0,1.955498482208204,13.10586,-0.23343466,26,1970-01-03 02:49:42.104741989,-0.6982809,-0.6516755,-0.2759035,13.139350208289995,0.9941830384377466,87.46896362304688,7.171854496002197,57.5108528137207,25259881.0,39778.0,0.01790583527987794,0.11629836181899998,-4.761824379999971e-05,-0.0006306507391341003,0.004895768114068058,-0.0006428600503375635,25.259881189005682
1605,A,182982144709748.0,1.2019234922082038,12.040441,0.12689269,26,1970-01-03 02:49:42.144709748,-1.6002935,0.008788432,0.42583945,12.042099842711028,1.65600596612922,87.43765258789062,6.9536662101745605,57.51836013793945,25299848.0,39967.0,0.06309634202575029,0.11083450603349997,-0.002129081457495,0.0016187070101870218,0.004538909664730433,-4.349807848082863e-05,25.299848947994178
1605,A,182982184566780.0,-0.05203961779179611,8.004415,-1.6801311,26,1970-01-03 02:49:42.184566780,-3.085272,0.2330266,1.2245215,8.252422786048266,3.327560309634344,87.28515625,6.893044948577881,57.53293228149414,25339705.0,39857.0,0.02291546079130738,0.008865312795999957,-0.030953711653685,0.0017140862124397336,0.002385437839543689,-0.0006592904425161507,25.33970598000451
1605,A,182982223915478.0,-1.575949017791796,13.591285,-1.0378864,26,1970-01-03 02:49:42.223915478,-3.2762208,1.1108046,1.8290591,13.88101969125079,3.9131786032618816,87.3032455444336,6.905545711517334,57.614139556884766,25379054.0,39349.0,-0.03202986241078939,0.039264399649999955,-0.053475635303750005,-0.00017932129466249877,0.0009469280275188252,-0.0016611051867140552,25.379054677992826
1605,A,182982264404175.0,-1.2688925177917962,12.346299,-2.1643584,26,1970-01-03 02:49:42.264404175,-1.8050907,0.80400836,1.2066783,12.746811715607615,2.315351895040421,87.21817779541016,6.847202777862549,57.65748977661133,25419543.0,40489.0,-0.057592394467122034,0.12830121928799992,-0.06482784485359999,-0.0018143577793648777,0.0033922821725903382,-0.002394994804045472,25.419543374999193
1605,A,182982304276676.0,-4.920050517791796,14.765042,2.337938,26,1970-01-03 02:49:42.304276676,-1.9411782,-3.0692933,1.2511531,16.096087987020695,3.8411089863761663,87.10317993164062,6.777116775512695,57.50623321533203,25459415.0,39872.0,-0.12338276835739449,0.14974609417599996,0.0034604829056000008,-0.0036079208460695613,0.005543151241218302,-0.0012234197277953278,25.45941587598645
1605,A,182982344404956.0,-1.1761175177917962,9.327211,1.8231846,26,1970-01-03 02:49:42.344404956,-0.42797,-2.1353226,0.89855057,9.760396036658715,2.355876493753033,87.06941986083984,6.726822376251221,57.40116500854492,25499544.0,40129.0,-0.12231656354996696,0.09013481031849996,0.0834908444077,-0.004929834245055254,0.004813090408229893,0.0017446349068777076,25.499544155987678
1605,A,182982382614230.0,-1.407756317791796,5.4821234,-5.192425,26,1970-01-03 02:49:42.382614230,-0.69694924,0.9286443,0.94275904,7.939976421619084,1.4956313337720593,87.04031372070312,6.682130813598633,57.450294494628906,25537753.0,38209.0,-0.04936361769190674,-0.09152327095520002,-0.06436765322179999,-0.0032798640225353763,-2.6525846233836332e-05,0.0003653390060110266,25.537753429991426
1605,A,182982422037978.0,1.0822134062082038,6.291962,-0.83976626,26,1970-01-03 02:49:42.422037978,-1.2700615,2.441586,1.1302456,6.347849901837437,2.9752064677090244,86.99137878417969,6.632053852081299,57.575992584228516,25577177.0,39424.0,-0.006417101873135769,-0.15426442859520004,-0.11890655411712,-0.001099549544066118,-0.004844967133537486,-0.003612701175064791,25.577177177998237
1605,A,182982463930322.0,-0.6601669177917961,4.3718123,3.1262288,26,1970-01-03 02:49:42.463930322,-1.3528858,1.4199976,1.0442255,5.63934100754761,2.2219586104825737,86.93226623535156,6.583680629730225,57.65015411376953,25619069.0,41892.0,0.008840185746370076,-0.18717818351220003,0.04789224436283999,5.075391480876578e-05,-0.007151856953201602,-0.0014874657321131493,25.619069521984784
1605,A,182982503791103.0,-1.451450517791796,3.1747115,1.5676036,26,1970-01-03 02:49:42.503791103,0.29667616,1.0620687,0.50147325,4.333695335584772,1.2113967508201424,86.95337677001953,6.5614752769470215,57.70488357543945,25658930.0,39861.0,-0.042085591299898785,-0.24023180740410005,0.0935504266482,-0.0006625975553846039,-0.008518494823957319,0.0028190231545855327,25.658930303005036
1605,A,182982541760374.0,-1.005530417791796,3.0107086,1.8261774,26,1970-01-03 02:49:42.541760374,0.81892204,0.67937243,0.09427591,4.076053695495575,1.0682079167691068,86.99825286865234,6.558559894561768,57.739280700683594,25696899.0,37969.0,-0.046644554571586706,-0.25466909211155003,0.0644292353945,-0.0016844974542972165,-0.00939544612685486,0.0029991648940496385,25.69689957398805
1605,A,182982583641363.0,0.11914578220820393,5.279215,3.6535518,26,1970-01-03 02:49:42.583641363,1.6375778,0.33635727,-0.61439127,6.4869398525345625,1.7810878408396669,87.08187866210938,6.590104103088379,57.75458908081055,25738780.0,41881.0,-0.01856133746143821,-0.23683865485420005,0.11474826931259999,-0.0013654439821175583,-0.010292417975336289,0.003752066537319027,25.738780562998727
1605,A,182982623561050.0,4.110279982208204,19.612701,12.699445,26,1970-01-03 02:49:42.623561050,0.92038846,-0.36139098,-0.98403805,23.56511363150478,1.3950086887092619,87.12551879882812,6.638329029083252,57.73391342163086,25778700.0,39920.0,0.08441933825775148,0.10562664336000001,0.32640581612799996,0.0013145256958944126,-0.0026189917494242325,0.008805435545394374,25.7787002499972
1605,A,182982663450165.0,9.064481482208205,11.975199,7.050924,26,1970-01-03 02:49:42.663450165,-0.6828345,-1.2144015,1.6370451,16.04347072174949,2.149639648179785,87.0848388671875,6.553513526916504,57.677024841308594,25818589.0,39889.0,0.26276403002705306,0.23909267155,0.3939112345205,0.006924398688756285,0.006875254376222496,0.014366363416659008,25.818589364993386
1605,A,182982703312978.0,3.600913482208204,2.7976246,5.7736173,26,1970-01-03 02:49:42.703312978,-0.38456047,0.4146542,-0.1965413,6.905164255717632,0.5987097320655067,87.06793975830078,6.564383029937744,57.697364807128906,25858452.0,39863.0,0.2524403197332657,-0.09621286641660004,0.25561234492095003,0.010268795497247792,0.0028478088360163615,0.012945979223637261,25.858452177984873
1605,A,182982740806467.0,-8.318620017791796,19.437925,-7.7907324,26,1970-01-03 02:49:42.740806467,0.5944176,-0.0727043,-1.6322515,22.94019609022209,1.7386383055944958,87.09677124023438,6.6457037925720215,57.68952941894531,25895945.0,37493.0,-0.08844048556931779,0.04940733057639995,-0.03781384822215,0.0030744228911544495,-0.000877439977628311,0.0040829595183640545,25.89594566699816
1605,A,182982780763811.0,-2.152951717791796,7.021595,-1.5149311,26,1970-01-03 02:49:42.780763811,-0.6926882,-0.479369,-1.034638,7.863885023546113,1.3341991499113766,87.05902862548828,6.69614315032959,57.66276931762695,25935903.0,39958.0,-0.20921153170522458,0.13704635008,-0.1859178510665,-0.005946789653128082,0.0037251580858342144,-0.004469935620087938,25.935903011006303
1605,A,182982820503759.0,-1.2144246177917961,6.818088,1.8058267,26,1970-01-03 02:49:42.820503759,0.84422207,-0.7483483,-0.48070058,7.406998422616635,1.2262989558832347,87.0967025756836,6.718241214752197,57.62392044067383,25975642.0,39739.0,-0.06690808409987818,-0.11445461863150001,0.005779950124199996,-0.005486358706239489,0.00044888640801597025,-0.0035792500227730295,25.9756429590052
1605,A,182982860356103.0,-2.1044691177917962,8.932168,-1.9482816,26,1970-01-03 02:49:42.860356103,0.4314321,0.10519487,-0.51718587,9.67028023485556,0.6816750264696396,87.11873626708984,6.744332790374756,57.62788772583008,26015495.0,39853.0,-0.06613393602210645,-0.076711923816,-0.0028386275648500034,-0.0026510618139607266,-0.0038092801080801095,5.861026397888762e-05,26.015495302999625
1605,A,182982900236103.0,-2.071548717791796,8.256405,-1.7322049,26,1970-01-03 02:49:42.900236103,-0.54914385,1.1451592,-0.9643307,8.994287439110641,1.5946417341522052,87.0977783203125,6.795377254486084,57.683021545410156,26055375.0,39880.0,-0.08326979564153683,-0.04808385437999999,-0.07338890080999999,-0.0029791104093730473,-0.0024884278172282396,-0.001519976915794509,26.055375302996254
1605,A,182982940144645.0,-0.6440060177917961,8.955511,4.138976,26,1970-01-03 02:49:42.940144645,-0.09134643,2.4477115,-0.85061365,10.009669509539727,2.592909435185178,87.10757446289062,6.8440399169921875,57.80397033691406,26095283.0,39908.0,-0.054186179193835,-0.04765182813600002,0.0480247105294,-0.0027427965218650096,-0.0019103098089242642,-0.0005061170528590922,26.095283845002996
1605,A,182982980030426.0,-1.001939117791796,9.100361,0.2765303,26,1970-01-03 02:49:42.980030426,3.9020636,1.3515543,-0.16644756,9.332375352211175,4.132856657872785,87.33916473388672,7.001445770263672,57.87522888183594,26135169.0,39886.0,-0.03282508383894358,-0.030794544704000046,0.0880584421409,-0.001735265618662703,-0.001564456013548121,0.002713906313703793,26.13516962598078
1605,A,182983019964488.0,2.075208482208204,7.299921,-0.3890578,26,1970-01-03 02:49:43.019964488,2.273008,-0.29614353,-0.1949434,7.382167871127209,2.300493270502746,87.45093536376953,7.0105085372924805,57.8598747253418,26175103.0,39934.0,0.021429969399302418,-0.06388876930600003,-0.0022468365925,-0.00022752625001631505,-0.0018905417308376713,0.0017134003279849028,26.1751036880014
1605,A,182983059840999.0,2.3780750822082037,9.728839,0.24241292,26,1970-01-03 02:49:43.059840999,2.346245,-2.7281423,-0.7094661,9.82239833550471,3.6675561558241343,87.55126190185547,7.0400004386901855,57.721012115478516,26214980.0,39877.0,0.08879179434911655,-0.051266668740000014,-0.00292387893988,0.002197656636497852,-0.0022960267014801717,-0.00010309631164235865,26.21498019900173
1605,A,182983099737509.0,3.173548682208204,8.6095495,-0.8643068,26,1970-01-03 02:49:43.099737509,1.9909793,-0.7209177,-0.5789712,8.910188692867168,2.195205811223909,87.64620208740234,7.067414283752441,57.68349075317383,26254876.0,39896.0,0.1107437908525785,-0.025166626202000015,-0.012405539118240001,0.003980335853603413,-0.0015246913675030166,-0.0003057912314233778,26.254876708990196
1605,A,182983139649801.0,0.23885588220820397,10.161591,0.6135142,26,1970-01-03 02:49:43.139649801,0.97897804,0.9669938,-0.4910869,10.212161013327846,1.4610411888075887,87.67335510253906,7.030838966369629,57.727752685546875,26294789.0,39913.0,0.06809965168977604,-0.016541134611750035,-0.0050049425219,0.0035690891610964982,-0.0008323409286796028,-0.0003474522768514539,26.29478900099639
1605,A,182983179539124.0,0.7907193622082039,12.320562,-1.0971429,26,1970-01-03 02:49:43.179539124,0.51798487,-0.33955306,-0.17150758,12.371980663651845,0.6426658977273783,87.88330841064453,6.894384860992432,57.732845306396484,26334678.0,39889.0,0.020534363462263047,0.05748310050849998,-0.00964573260715,0.0017677611151998437,0.0008165670388277294,-0.0002922003901113377,26.33467832399765
1605,A,182983219436832.0,-0.9552522177917959,13.571532,-1.7848774,26,1970-01-03 02:49:43.219436832,0.32170987,-0.45886266,-0.27031085,13.834134397240213,0.6221897916435265,88.1348876953125,6.945158004760742,57.73797607421875,26374576.0,39898.0,-0.0032822659360370768,0.125520983206,-0.0574934229647,0.0003441620935506819,0.0036507484660205603,-0.0013393590145028358,26.37457603198709
1605,A,182983259375426.0,-0.4859887177917961,13.828909,0.664391,26,1970-01-03 02:49:43.259375426,0.017576864,0.25672874,-0.3334278,13.929526892782555,0.4211801157496661,88.1150894165039,6.946644306182861,57.7476692199707,26414514.0,39938.0,-0.02878014024266875,0.15576700632899992,-0.022374992921600004,-0.0006402541889825766,0.005617039863024413,-0.001594892396833525,26.41451462599798
1605,A,182983299252926.0,2.1458374822082042,13.489531,-0.5847838,26,1970-01-03 02:49:43.299252926,-1.3885722,-0.64768076,0.007989483,13.546799232597472,1.5322163533018518,88.04171752929688,6.945156097412109,57.71508026123047,26454392.0,39878.0,0.03309572451369876,0.15389797515999995,0.0015872879607999996,8.604843478006732e-05,0.006174410065909169,-0.00041448604921339127,26.454392126004677
1605,A,182983339325634.0,1.674778312208204,10.000581,-2.3995886,26,1970-01-03 02:49:43.339325634,-2.6037726,0.24021713,0.9920275,10.30354924414381,2.7966863576047363,87.91320037841797,6.8960065841674805,57.728939056396484,26494464.0,40072.0,0.07654985805692717,0.07794228403199997,-0.0597948854064,0.002196858892385061,0.004645151433170911,-0.0011662474224200417,26.494464833987877
1605,A,182983379247822.0,-1.4873635177917959,9.339781,-0.44232875,26,1970-01-03 02:49:43.379247822,-3.8008635,1.0045444,1.7811222,9.687759500542866,4.316024685811755,87.84617614746094,7.015552997589111,57.796688079833984,26534387.0,39923.0,0.003741080418743132,-0.005182763937000014,-0.056728933182025,0.0016027275683820927,0.0014523891603763417,-0.0023259902047528458,26.534387021994917
1605,A,182983419192822.0,-0.43930171779179616,11.280281,-1.1953052,26,1970-01-03 02:49:43.419192822,-2.396845,1.1909657,1.3747238,11.440457413111972,3.0088420993611362,87.93807983398438,6.962103843688965,57.88413619995117,26574332.0,39945.0,-0.038480321417693295,0.020373188294999987,-0.032707644066375,-0.0006938294908515321,0.00030339075049015446,-0.001786272039093669,26.574332021991722
1605,A,182983459055947.0,-2.066161917791796,14.610018,-2.622848,26,1970-01-03 02:49:43.459055947,-1.8588865,-1.5164039,0.5699165,15.166635502003613,2.4657138164818946,87.8360366821289,6.930834770202637,57.80887222290039,26614195.0,39863.0,-0.04993764845263437,0.12537509451850004,-0.0761015205058,-0.0017623027664704358,0.002904981898897276,-0.002168729863670306,26.614195147005375
1605,A,182983498782457.0,-1.376631717791796,10.922947,4.561553,26,1970-01-03 02:49:43.498782457,-1.5403724,-2.4256072,0.59202075,12.082836559140848,2.9337358415174606,87.74445343017578,6.896575927734375,57.687923431396484,26653921.0,39726.0,-0.06838420998359689,0.11784648379499998,0.038508497415,-0.002350227074118861,0.004831110210041051,-0.0007467102176525604,26.653921656979946
1605,A,182983538862561.0,-0.750548017791796,6.0507464,-1.2084733,26,1970-01-03 02:49:43.538862561,-0.43329632,0.15579493,0.9504822,6.426889397989987,1.0561411712721398,87.72395324707031,6.849395751953125,57.69766616821289,26694001.0,40080.0,-0.042628681901095186,-0.05263118426400001,0.06719571718799999,-0.002224698353369229,0.0013069146026012393,0.00211831246064412,26.694001761003165
1605,A,182983578761520.0,-0.464440817791796,5.100847,-3.9743748,26,1970-01-03 02:49:43.578761520,-1.0253171,2.582201,0.98856544,6.6408021045119945,2.9489487600017408,87.68836975097656,6.805173873901367,57.82958221435547,26733900.0,39899.0,-0.02423841977547487,-0.16854148746670003,-0.10339522817095,-0.0013339652448967343,-0.0044122842146916,-0.0007221621443543611,26.733900719991652
1605,A,182983618918759.0,-0.30881781779179596,5.2289367,1.0803835,26,1970-01-03 02:49:43.618918759,-1.169394,1.6658072,1.1467572,5.508956227153491,2.3361181542378544,87.64006805419922,6.751279830932617,57.91574478149414,26774057.0,40157.0,-0.015525873514565152,-0.18613203797955002,-0.05810700431705,-0.0007984073628240685,-0.007121312380672532,-0.003242722575010308,26.774057959002675
1605,A,182983659900790.0,-1.452647717791796,4.07553,3.3333273,26,1970-01-03 02:49:43.659900790,0.092944324,1.464206,0.86632633,5.828528261140057,1.7038366024508,87.65354919433594,6.711004734039307,57.99118423461914,26815039.0,40982.0,-0.036094190289643384,-0.21096577285030005,0.0904413480028,-0.001057746727412037,-0.008136931241714458,0.0006625630364647032,26.815039990004152
1605,A,182983698899645.0,-2.139185017791796,3.2369606,1.857302,26,1970-01-03 02:49:43.698899645,0.7736483,0.8727179,0.5699165,4.907385250921576,1.2980651147171123,87.69749450683594,6.684304237365723,58.036251068115234,26854038.0,38999.0,-0.07003894242751225,-0.23960028954530002,0.10121467603535,-0.0020695430214181763,-0.008785812933683003,0.0037371966407319063,26.85403884499101
1605,A,182983739705895.0,0.3112804822082039,3.4422636,3.8881836,26,1970-01-03 02:49:43.739705895,1.5456988,0.39388153,-0.1257012,5.244918099482862,1.6000400718975825,87.77706146240234,6.691359519958496,58.05581283569336,26894845.0,40807.0,-0.03729565019177982,-0.26362904903530004,0.11722801543960001,-0.0021900013605077257,-0.010267639809729273,0.004456995455509143,26.894845094997436
1605,A,182983778511624.0,1.6759754122082038,13.508086,7.03177,26,1970-01-03 02:49:43.778511624,1.6407735,0.06231797,-1.0567423,15.241691547357632,1.9526201618073242,87.85922241210938,6.74428129196167,58.05692672729492,26933650.0,38805.0,0.03855773249141435,-0.05140984188600001,0.211874399724,2.448755181865897e-05,-0.006112542081100524,0.006385409610211749,26.933650823979406
1605,A,182983818649852.0,5.246927482208204,19.612701,9.069236,26,1970-01-03 02:49:43.818649852,-0.5523396,0.15126756,0.71505874,22.012366852839726,0.9161167557068811,87.83267211914062,6.708841323852539,58.06589889526367,26973789.0,40139.0,0.1389391996394901,0.27135543469650003,0.323139139917,0.003562274679401187,0.00441419807491033,0.010737454233825048,26.973789051990025
1605,A,182983860544280.0,7.598632082208204,5.221754,1.9961656,26,1970-01-03 02:49:43.860544280,-0.34674358,-0.42397526,0.89349055,8.612128452737833,1.0480035755199437,87.81304931640625,6.663394927978516,58.0462760925293,27015683.0,41894.0,0.26907593619583053,0.10964612888500001,0.2317869673152,0.008546693050342462,0.007980839752341682,0.011624037168192894,27.015683479985455
1605,A,182983898004332.0,1.249208972208204,5.0062757,2.2948422,26,1970-01-03 02:49:43.898004332,0.36272255,0.9653959,-0.7861652,5.510878753203462,1.2967700697141158,87.83666229248047,6.704506874084473,58.093345642089844,27053143.0,37460.0,0.16572006294921932,-0.17553700371900002,0.080370576094,0.008143729063986783,-0.0012341360856408202,0.005846710788054316,27.05314353198628
1605,A,182983940378132.0,-9.820981517791797,19.612701,-4.1946416,26,1970-01-03 02:49:43.940378132,-0.36432046,-1.4226607,-0.8644621,22.811770962406506,1.704109030325088,87.80986022949219,6.744998455047607,58.020111083984375,27095517.0,42374.0,-0.18161014492327957,0.1063370593429,-0.04025104988779999,-0.0003366631667844145,-0.0014661392214964312,0.0008500124017307597,27.095517331996234
1605,A,182983980239957.0,-0.11488741779179601,5.5743003,6.75943,26,1970-01-03 02:49:43.980239957,-0.5203817,-3.559315,0.29987195,8.838204366002639,3.609632054561336,87.76290893554688,6.723143100738525,57.841617584228516,27135379.0,39862.0,-0.1980318037551166,0.11135452291030001,0.05111879760040001,-0.007566643679109115,0.004338810925888529,0.00021660507965983095,27.13537915699999
1605,A,182984022294176.0,-3.6253855177917957,6.4619503,-1.9566613,26,1970-01-03 02:49:44.022294176,1.4050838,0.669785,-0.6202502,8.211038950965753,1.6755842986395761,87.83698272705078,6.755418300628662,57.874122619628906,27177433.0,42054.0,-0.0786467190165162,-0.15904295863380002,0.1009878174549,-0.005817719298319123,-0.0010027447379580348,0.0031983457947677937,27.17743337599677
1605,A,182984060229174.0,-2.356458717791796,7.1460934,-1.8854338,26,1970-01-03 02:49:44.060229174,0.7621967,-0.41225734,-0.8223842,8.136856229971404,1.1946613312083076,87.8724594116211,6.795740127563477,57.851837158203125,27215368.0,37935.0,-0.11346063053843179,-0.11365243112025004,-0.07287493880925,-0.0036437961526834765,-0.0051723498051599445,0.0005332310257113664,27.215368373988895
1605,A,182984099998707.0,-2.415715217791796,7.591415,-4.401141,26,1970-01-03 02:49:44.099998707,0.2130529,0.5592638,-1.1147993,9.433634824899006,1.2652845590891166,87.8862075805664,6.852474212646484,57.877899169921875,27255137.0,39769.0,-0.09489229262211193,-0.09668821422020003,-0.1250053966106,-0.004142993700585832,-0.00418251856227218,-0.003934751529656008,27.255137906991877
1605,A,182984139850374.0,-1.595102517791796,10.254366,-1.9369092,26,1970-01-03 02:49:44.139850374,0.27643612,1.8439728,-1.1587414,10.765081238476588,2.1952982138321104,87.910888671875,6.913753986358643,57.968563079833984,27294989.0,39852.0,-0.07991955419923864,-0.03495456779400005,-0.1262919882852,-0.003483300859762232,-0.002623114074414951,-0.005007351691433711,27.294989574002102
1605,A,182984179790684.0,2.4026156822082037,9.60853,7.4429746,26,1970-01-03 02:49:44.179790684,2.6567695,-0.063116916,-0.97258645,12.229393484270446,2.8298997020988574,88.04314422607422,6.9622416496276855,57.963661193847656,27334929.0,39940.0,0.016126037893395662,0.0052500331199999565,0.10995612603800002,-0.0012739565206276845,-0.0005931995574397819,-0.0003262271690765835,27.33492988400394
