Subject-id_accel,Activity_accel,Timestamp_accel,accel_x,accel_y,accel_z,Segment_accel,DateTime,gyro_x,gyro_y,gyro_z,accel_magnitude,gyro_magnitude,Roll,Pitch,Yaw,Time_Difference,Difference_Microseconds,vx,vy,vz,dx,dy,dz,Time_diff
1620,A,938050091736798.0,2.824829,9.085403,3.5548639491555933,99,1970-01-11 20:34:10.091736798,0.042785645,0.042800903,-0.1870575,9.53045929493415,0.19660375637797828,100.2557144165039,-22.260025024414062,121.80963897705078,15005469.0,50354.0,0.1945781458399,-0.04249834799100007,0.16026792821366076,0.010999866372384289,-0.0022305035221291906,0.007283853789211071,15.00546951405704
1620,A,938050142090802.0,4.7456665,10.667175,1.3519830891555933,99,1970-01-11 20:34:10.142090802,0.11972046,-0.28938293,0.17266846,11.99595981816315,0.35761692604904494,100.37300109863281,-22.293338775634766,121.75285339355469,15055823.0,50354.0,0.19060236520350002,0.003841456305999958,0.12353968788356075,0.009697689726539683,-0.0009732645619532479,0.007145424350479746,15.055823518079706
1620,A,938050192444806.0,2.840088,10.106476,-1.3292607108444061,99,1970-01-11 20:34:10.192444806,0.01222229,-0.03842163,0.6442261,11.822255684898884,0.6454865404839291,100.37677764892578,-22.32468032836914,121.74455261230469,15106177.0,50354.0,0.1909865410465,0.029549011226999992,0.0005720813187407595,0.00960726389265625,0.0008406718010783398,0.003124762013206345,15.10617752210237
1620,A,938050242798810.0,1.0911865,11.976776,2.4084710891555936,99,1970-01-11 20:34:10.242798810,-0.3283081,0.061798096,0.6344147,12.145809041967551,0.7169987620428121,100.36144256591797,-22.356435775756836,121.74165344238281,15156531.0,50354.0,0.09897769808650002,0.06252083560399996,0.027171279694740768,0.007300429648651542,0.0023180425336640858,0.0006984946002364244,15.15653152600862
1620,A,938050293152814.0,5.727997,11.07428,1.1702202891555933,99,1970-01-11 20:34:10.293152814,-0.3227539,-0.21273804,-0.0001373291,12.809272356730416,0.38655862749075115,100.4582290649414,-22.461040496826172,121.6889419555664,15206885.0,50354.0,0.1716865829795,0.08688723691199994,0.09010071283174076,0.006814514604398684,0.00376164704173533,0.0029525569558392258,15.206885530031286
1620,A,938050343506818.0,3.177765,7.908539,3.1123285491555936,99,1970-01-11 20:34:10.343506818,-0.56185913,-0.04988098,-0.23187256,8.58100343467583,0.609867754690368,100.34777069091797,-22.431859970092773,121.72005462646484,15257239.0,50354.0,0.224220369874,-0.015538766037000057,0.10782173210216076,0.00996774935199257,0.0017963404512198722,0.004983093396100839,15.257239534053952
1620,A,938050393860822.0,0.8825836,6.076538,3.6473627291555935,99,1970-01-11 20:34:10.393860822,-0.38946533,0.22097778,-0.49086,6.1575180472414495,0.6644230294968239,100.3219985961914,-22.409696578979492,121.73658752441406,15307593.0,50354.0,0.1022273967022,-0.14136691637100005,0.17018874731404077,0.008218975419088987,-0.003950414365986219,0.006999469840261705,15.307593538076617
1620,A,938050444214826.0,1.4223938,6.987335,3.4735193491555933,99,1970-01-11 20:34:10.444214826,-0.094818115,0.13517761,-0.3633728,7.158773168130507,0.3991281159694282,100.31317138671875,-22.39303207397461,121.74729919433594,15357947.0,50354.0,0.05803241599980001,-0.16456006947900004,0.17928244808564076,0.004034861304398255,-0.007702323722745453,0.008798636286577783,15.357947542099282
1620,A,938050494568830.0,2.085846,8.461884,4.5600671891555935,99,1970-01-11 20:34:10.494568830,0.06689453,0.024383545,-0.07009888,8.726913410568825,0.09991640700076401,100.31576538085938,-22.38980484008789,121.74927520751953,15408301.0,50354.0,0.08832695344460001,-0.10450421323700006,0.20226160827506076,0.00368488984450166,-0.006774231445940734,0.009606134706993383,15.408301546005532
1620,A,938050544922834.0,4.091385,8.772232,5.388741489155594,99,1970-01-11 20:34:10.544922834,0.18766785,0.0048828125,0.15925598,9.76386038829656,0.24618190621427288,100.32563781738281,-22.397680282592773,121.74799346923828,15458655.0,50354.0,0.155524144887,-0.05956586146800003,0.2504811560938408,0.006139439102694694,-0.004130792270847788,0.011398704578515837,15.458655550028197
1620,A,938050595276838.0,4.6456757,11.614471,3.8049554891555935,99,1970-01-11 20:34:10.595276838,0.13294983,0.27807617,0.12876892,12.512785264085,0.3340410878572638,100.1062240600586,-22.397258758544922,121.845703125,15509009.0,50354.0,0.21997297724390003,0.01980682143099998,0.2314697088229408,0.00945389104388967,-0.0010010133510115504,0.012134076926009811,15.509009554050863
1620,A,938050645630841.0,3.9117584,12.080505,4.200234429155594,99,1970-01-11 20:34:10.645630841,0.13104248,0.034179688,-0.23330688,12.698387598225208,0.2697637538507761,100.11124420166016,-22.386077880859375,121.84974670410156,15559363.0,50354.0,0.2154505183357,0.10309921075199999,0.20154666657332077,0.01096265734820759,0.0030944051722713905,0.010902053283351679,15.55936355702579
1620,A,938050695984845.0,2.7184143,12.289825,-0.2625951108444067,99,1970-01-11 20:34:10.695984845,-0.33932495,0.14614868,-0.21569824,13.32394956574811,0.42781606923693566,100.09053802490234,-22.376739501953125,121.85957336425781,15609717.0,50354.0,0.1669278580679,0.12010259841,0.09913794511712076,0.009627140382713438,0.005619551949271675,0.007570336468530247,15.609717561048456
1620,A,938050746338849.0,0.78518677,6.364609,2.0505456891555935,99,1970-01-11 20:34:10.746338849,-0.33865356,0.16307068,-0.4238739,6.734684879720401,0.5665221650364142,100.06877136230469,-22.357297897338867,121.87226104736328,15660071.0,50354.0,0.08821016413939001,-0.023806515182000033,0.045015231710140755,0.00642360998511294,0.002424446487431355,0.0036293445329799636,15.66007156507112
1620,A,938050796692853.0,2.5249023,9.430847,1.5687799891555936,99,1970-01-11 20:34:10.796692853,0.05470276,0.54655457,-0.15280151,10.087680377086576,0.5701426061940842,100.1904067993164,-22.160606384277344,121.85335540771484,15710425.0,50354.0,0.08333811251539,-0.09578700428800005,0.09112376260284076,0.004319070961337396,-0.003011006039696192,0.003427571459817936,15.710425569093786
1620,A,938050847046857.0,0.819046,9.12645,2.421395289155593,99,1970-01-11 20:34:10.847046857,0.28663635,-0.10412598,0.20648193,9.316973800369945,0.3682898373140478,100.20757293701172,-22.169841766357422,121.84584045410156,15760779.0,50354.0,0.08419058634910001,-0.026252133431000035,0.10046064298204076,0.004217870051311265,-0.0030725793703512655,0.0048235205794105625,15.760779573000036
1620,A,938050897400861.0,2.2829742,7.1930695,2.9077081891555934,99,1970-01-11 20:34:10.897400861,0.10777283,-0.36584473,0.45921326,7.641453389172946,0.5969373229366793,100.20292663574219,-22.069713592529297,121.82917785644531,15811133.0,50354.0,0.0780995625754,-0.08259265754850004,0.13417083827344073,0.004085979079472136,-0.0027403853024908736,0.005907316803569258,15.811133577022702
1620,A,938050947754865.0,3.656662,7.8664703,2.8110742891555933,99,1970-01-11 20:34:10.947754865,0.29229736,-0.7044678,0.29406738,8.771165730585365,0.8174278267100246,100.21197509765625,-22.14219856262207,121.79672241210938,15861487.0,50354.0,0.1495422206074,-0.11431516645540005,0.14398178645644077,0.005731337175193356,-0.0049575482849461925,0.007003048632824227,15.861487581045367
1620,A,938050998108869.0,3.8214874,8.316071,2.3108148891555933,99,1970-01-11 20:34:10.998108869,0.39646912,-0.88446045,0.023254395,9.326790134234903,0.969535361714359,100.29838562011719,-22.18689727783203,121.73110961914062,15911841.0,50354.0,0.1882773674438,-0.08604135768990002,0.12895380384234076,0.008505283768365063,-0.005044376208406221,0.0068716993569524236,15.911841585068032
1620,A,938051048462873.0,4.103073,8.608551,2.7700891891555934,99,1970-01-11 20:34:11.048462873,0.33042908,-0.75979614,-0.104660034,9.629700191756939,0.8351211133634612,100.2939453125,-22.25088882446289,121.70529174804688,15962195.0,50354.0,0.19951665719080003,-0.06735799190600002,0.12792192197964078,0.009763490158225325,-0.0038621354247759757,0.00646736014902003,15.962195589090697
1620,A,938051098816877.0,4.544815,9.812897,3.4139642891555937,99,1970-01-11 20:34:11.098816877,0.23757935,-0.61628723,-0.10812378,10.836481644111386,0.6692866719194278,100.1648178100586,-22.306591033935547,121.73158264160156,16012549.0,50354.0,0.217727876176,-0.029672403704000042,0.15569591442344075,0.010504965616575924,-0.0024429342702729714,0.007140646267120384,16.012549593113363
1620,A,938051149170881.0,4.9172363,10.812546,2.3322992891555936,99,1970-01-11 20:34:11.149170881,0.12754822,-0.46948242,-0.10600281,12.010072180832124,0.4979145376890706,100.1595458984375,-22.343826293945312,121.7154769897461,16062902.999999998,50353.99999999814,0.23822606558009116,0.02581757841099898,0.1446736781111354,0.011479552391592682,-9.705293640188419e-05,0.007562405231242745,16.062903597019613
1620,A,938051199524884.0,2.8647614,11.144989,1.7535180891555933,99,1970-01-11 20:34:11.199524884,-0.072052,-0.4243927,-0.058120728,11.745596795523827,0.4343715846375543,100.21050262451172,-22.132490158081055,121.67596435546875,16113257.0,50354.00000000186,0.19592735609290723,0.05935565869500216,0.10286862413374456,0.010930680697461486,0.00214440659061787,0.006232372543619574,16.113257600110956
1620,A,938051249878888.0,2.9095154,8.4449005,0.10434828915559358,99,1970-01-11 20:34:11.249878888,-0.2875061,-0.49765015,0.34742737,9.788112508929308,0.6715811244796487,100.20734405517578,-22.145177841186523,121.64620971679688,16163611.0,50354.0,0.1453789669936,-0.0002545520585000369,0.046775501806740755,0.008593069296348992,0.001487988561787214,0.003767590158803599,16.163611604017206
1620,A,938051300232892.0,1.9410706,11.816193,0.06652168915559376,99,1970-01-11 20:34:11.300232892,-0.023864746,-0.19140625,0.47839355,12.63803699816062,0.5158161177418844,100.21172332763672,-22.16701889038086,121.63145446777344,16213965.000000002,50354.00000000186,0.12212320372200451,0.016644351049500565,0.004301993443940923,0.006734902152107024,0.00041264596919643557,0.0012859780979264602,16.21396560803987
1620,A,938051350586896.0,4.481781,10.85701,1.5097436891555933,99,1970-01-11 20:34:11.350586896,-0.41246033,0.102264404,-0.054855347,12.029528613385564,0.4284747848399886,100.27009582519531,-22.158687591552734,121.60677337646484,16264319.0,50353.99999999814,0.161708134733194,0.07737403193099712,0.03968563342973929,0.007146021608286269,0.0023671008282999026,0.0011074764817986058,16.264319612062536
1620,A,938051400940900.0,3.522049,7.8454437,2.9506768891555932,99,1970-01-11 20:34:11.400940900,-0.4350586,0.26023865,-0.28045654,8.677219715632354,0.5793582753500239,100.19567108154297,-22.192161560058594,121.64083862304688,16314673.0,50354.0,0.20151242791000004,-0.02259752319510005,0.11230000890014075,0.009144804105667696,0.0013791081604436807,0.00382654251693939,16.3146736160852
1620,A,938051451294904.0,0.4153595,6.456299,2.329323789155594,99,1970-01-11 20:34:11.451294904,-0.14543152,0.45729065,-0.5462189,6.709572530588181,0.7270626880153753,100.17725372314453,-22.169321060180664,121.67035675048828,16365027.000000002,50354.00000000186,0.09913213380450367,-0.133394224042105,0.13293457707784567,0.00756932813028634,-0.0039274042201912565,0.006174271171167992,16.365027620107867
1620,A,938051501648908.0,0.8029938,6.6114044,3.1277856891555933,99,1970-01-11 20:34:11.501648908,-0.22814941,0.37208557,-0.43527222,6.73166995483887,0.6164103585999358,100.15682983398438,-22.15118408203125,121.69428253173828,16415381.0,50353.99999999814,0.030674481034098863,-0.16446363149819396,0.13739364533543566,0.003268141141791375,-0.00749916722893783,0.006806053655698933,16.415381624014117
1620,A,938051552002912.0,1.6923828,8.241394,4.0227136791555935,99,1970-01-11 20:34:11.552002912,-0.06829834,0.30740356,-0.16235352,8.413794010420345,0.35428840992025074,100.14666748046875,-22.145896911621094,121.71215057373047,16465734.999999998,50353.99999999814,0.06282609665819767,-0.11952029468319562,0.1800281225959641,0.002354064044558863,-0.00714986330946858,0.007991727851208556,16.465735628036782
1620,A,938051602356916.0,3.2894135,9.771027,4.469017989155594,99,1970-01-11 20:34:11.602356916,0.071777344,0.15202332,0.16001892,10.316194943155336,0.23209724619969782,100.14779663085938,-22.155113220214844,121.71871948242188,16516089.0,50354.00000000186,0.12542668544510463,-0.03997047648300152,0.21379632821307867,0.0047396402950150174,-0.004015499145651494,0.009915318198019637,16.516089632059447
1620,A,938051652710920.0,4.856186,11.72908,3.6660547491555935,99,1970-01-11 20:34:11.652710920,-0.0960083,-0.011047363,0.21733093,12.70231344858569,0.23784947137382642,99.94526672363281,-22.17848014831543,121.7910385131836,16566443.0,50354.0,0.2050817586115,0.047838993938999964,0.20481672633246079,0.008321211096013135,0.00019810566398967288,0.010539420874293047,16.566443636082113
1620,A,938051703064923.0,4.608902,12.7686,1.7989434891555933,99,1970-01-11 20:34:11.703064923,-0.20376587,0.16017151,-0.15458679,13.769848544519377,0.30178223611578114,99.93904113769531,-22.106693267822266,121.798095703125,16616796.999999998,50353.99999999814,0.23830252057599116,0.12330888935999537,0.13759226064595567,0.01116308599710305,0.004308990257818646,0.008620831065155272,16.61679763905704
1620,A,938051753418927.0,0.4767456,9.623108,0.7654657891555936,99,1970-01-11 20:34:11.753418927,-0.6595764,0.06889343,-0.28295898,10.198084911290728,0.7210084025146761,99.9036865234375,-22.093345642089844,121.80438232421875,16667151.0,50354.00000000186,0.12804134962520472,0.07028683231600255,0.06456413240004315,0.009223439620055849,0.00487415948463678,0.0050896915077193,16.667151643079706
1620,A,938051803772931.0,3.366867,7.9236603,1.5123224891555935,99,1970-01-11 20:34:11.803772931,-0.3003235,0.6569977,-0.21455383,8.991958952509966,0.7535738374075954,100.08000946044922,-22.090909957885742,121.76411437988281,16717505.0,50354.0,0.09677063443020001,-0.05169421451090004,0.05734787548304076,0.005660091322562925,0.00046810633847906594,0.0030693786224724037,16.71750564710237
1620,A,938051854126935.0,0.50497437,9.668015,1.4188928891555936,99,1970-01-11 20:34:11.854126935,0.3732605,0.6654968,-0.18441772,10.047602791921726,0.7849963612148074,100.08472442626953,-22.087656021118164,121.80121612548828,16767859.000000002,50354.00000000186,0.09748135017249361,-0.0505635909719019,0.0737992095797435,0.004890682216342198,-0.0025745447686405997,0.0033018901606258412,16.76785965100862
1620,A,938051904480939.0,1.0299072,7.1023865,3.4675683891555935,99,1970-01-11 20:34:11.904480939,0.13865662,0.1007843,0.29014587,7.205148369670211,0.33699815915576053,100.09068298339844,-22.102821350097656,121.80382537841797,16818213.0,50353.99999999814,0.03864371328788857,-0.07124080143449739,0.1230264356040362,0.003427220722741915,-0.0030666691876158015,0.004955479268791838,16.818213655031286
1620,A,938051954834943.0,2.2183228,7.235077,2.5938806891555934,99,1970-01-11 20:34:11.954834943,0.52334595,-0.34732056,0.2772522,7.717412231030062,0.686579447103506,100.16929626464844,-21.9788875579834,121.76607513427734,16868567.0,50354.0,0.08178068671000001,-0.13249488146050004,0.15260910344464076,0.003031925118746841,-0.00512945328824735,0.006939675966628541,16.86856765905395
1620,A,938052005188947.0,3.7743835,9.005417,2.2091150891555937,99,1970-01-11 20:34:12.005188947,0.5031128,-0.7201233,0.091415405,9.94723645031192,0.8832082613959428,100.25233459472656,-21.985219955444336,121.71076965332031,16918921.0,50354.0,0.1508783665151,-0.08458228256200004,0.12092502471054077,0.005857656983048343,-0.005465351758594484,0.006886768744563006,16.918921663076617
1620,A,938052055542951.0,4.95166,8.656067,2.664147389155594,99,1970-01-11 20:34:12.055542951,0.1521759,-0.5128021,0.009567261,10.076200031138278,0.5349906828985549,100.25176239013672,-22.1668701171875,121.69037628173828,16969275.0,50354.0,0.2196955971995,-0.048806017332000046,0.12269412941644077,0.009329940684442485,-0.0033583172264312405,0.006133599443455015,16.969275667099282
1620,A,938052105896955.0,5.036682,9.708618,2.8920068891555935,99,1970-01-11 20:34:12.105896955,0.062576294,-0.2617798,-0.11314392,11.004678241201427,0.29196918140752603,100.18495178222656,-22.286285400390625,121.7058334350586,17019629.0,50354.0,0.251476486534,-0.031101525755000047,0.13988729626504076,0.01186269955215833,-0.0020118322123014016,0.006611012554382661,17.019629671005532
1620,A,938052156250959.0,5.0606384,9.594711,3.5045557191555936,99,1970-01-11 20:34:12.156250959,-0.15126038,-0.21110535,-0.075424194,10.864259153887817,0.27043294990980027,100.0240478515625,-22.42051124572754,121.75516510009766,17069983.0,50354.0,0.25422023571080005,-0.0074692857670000425,0.16104625678945078,0.012731926375957334,-0.0009710973216893963,0.007576604065252934,17.069983675028197
1620,A,938052206604963.0,4.519226,10.694351,0.4470758891555935,99,1970-01-11 20:34:12.206604963,0.20864868,0.023086548,0.23638916,12.17339412863836,0.31614410532193116,100.25674438476562,-22.42254066467285,121.66954040527344,17120337.0,50354.0,0.24119224599880001,0.017348513973999953,0.09949022900245076,0.012473000052002602,0.00024872932856763674,0.006559527102782705,17.120337679050863
1620,A,938052256958966.0,-1.3383636,11.358231,0.09961798915559328,99,1970-01-11 20:34:12.256958966,0.25863647,0.22880554,0.44380188,12.11874769481065,0.5623210003550346,100.26666259765625,-22.446414947509766,121.67743682861328,17170691.0,50354.0,0.0800845726448,0.061748657013999945,0.01376411177424075,0.008088786462989918,0.0019914294739648737,0.002851404537734762,17.17069168202579
1620,A,938052307312970.0,0.7770233,10.724365,1.5907830891555936,99,1970-01-11 20:34:12.307312970,-0.26460266,-0.26965332,0.3564911,11.043089312560392,0.5194356409078106,100.2602310180664,-22.4615535736084,121.65965270996094,17221045.0,50354.0,-0.014132864733100005,0.06250431949199999,0.042559227948640754,0.0016604661500928708,0.0031283171894915603,0.0014180527242029877,17.221045686048456
1620,A,938052357666974.0,4.198593,9.800171,2.4054193891555933,99,1970-01-11 20:34:12.357666974,-0.7766266,-0.44161987,0.10585022,10.79670042903805,0.8996561868182896,100.22062683105469,-22.473426818847656,121.63899993896484,17271399.0,50354.0,0.1252710915851,0.023277042871999998,0.10061238979644076,0.002798127137452804,0.002159717360238428,0.003604631819967918,17.27139969007112
1620,A,938052408020978.0,2.0424652,8.188858,3.2266016191555935,99,1970-01-11 20:34:12.408020978,-0.5059204,-0.31278992,-0.14083862,8.48558230718749,0.6112515865609437,100.09426879882812,-22.2521915435791,121.66433715820312,17321753.0,50354.0,0.1571311223014,-0.04055941686700003,0.14179739292625074,0.0071100405390204105,-0.0004351183300721158,0.006103151099609204,17.321753694093786
1620,A,938052458374982.0,1.5707397,7.3290405,3.8711023491555934,99,1970-01-11 20:34:12.458374982,-0.23295593,-0.0023040771,-0.2549591,7.499197246149026,0.345366351525822,100.08174896240234,-22.23961639404297,121.66661834716797,17372107.0,50354.0,0.09096965976730001,-0.10277506946550005,0.17869889281017076,0.0062464333901436605,-0.0036087323623933544,0.008069134985985885,17.372107698000036
1620,A,938052508728986.0,1.9245148,8.213593,3.3159723491555937,99,1970-01-11 20:34:12.508728986,0.21627808,-0.029251099,-0.15841675,8.47310109932044,0.2696807396937288,100.09258270263672,-22.231563568115234,121.66656494140625,17422461.0,50354.0,0.08800002254650001,-0.10215231637050007,0.18094897967938078,0.004505919691614543,-0.0051594567931929755,0.00905485448566944,17.4224617020227
1620,A,938052559082990.0,2.8944855,8.563736,4.761727349155594,99,1970-01-11 20:34:12.559082990,0.23057556,-0.021392822,-0.0029754639,9.063309838133586,0.2315849630003155,100.10453796386719,-22.23122787475586,121.66545867919922,17472815.0,50354.0,0.1213279705531,-0.07106638776700004,0.20337224530438078,0.0052702508822686294,-0.004361127314069841,0.009676055481416165,17.472815706045367
1620,A,938052609436994.0,4.807419,8.809891,4.582924859155593,99,1970-01-11 20:34:12.609436994,0.18164063,0.27876282,0.13824463,10.047459888705827,0.3602965528630356,100.1084976196289,-22.240480422973633,121.6789779663086,17523169.0,50354.0,0.1939108495965,-0.05605339302100002,0.23527030864865076,0.00793676777490648,-0.003200494720899478,0.011043703580875476,17.523169710068032
1620,A,938052659790998.0,4.4136353,10.2595825,3.7429590391555934,99,1970-01-11 20:34:12.659790998,0.119628906,0.5746918,0.031829834,11.174619766957862,0.5878731823024966,99.90330505371094,-22.27743911743164,121.7848892211914,17573523.0,50354.0,0.23215848411110002,-0.013357065690500014,0.20962077890778075,0.010727147614756247,-0.0017475471189794364,0.011201022911408277,17.573523714090697
1620,A,938052710145002.0,2.9290771,13.625656,0.07013798915559377,99,1970-01-11 20:34:12.710145002,0.03337097,0.7969818,-0.11593628,14.509947870193086,0.8060613079600205,99.88847351074219,-22.278575897216797,121.82839965820312,17623877.0,50354.0,0.1848674700948,0.10788944971449997,0.09600234388179077,0.010499462449041947,0.002380041832572247,0.007694673362473042,17.623877718113363
1620,A,938052760499006.0,0.16098022,7.7187805,1.1437768891555935,99,1970-01-11 20:34:12.760499006,-0.20370483,0.13049316,-0.31495667,8.26978613671597,0.3971420735072065,99.87454986572266,-22.26418113708496,121.8382568359375,17674231.0,50354.0,0.07779837314564,0.04391967776049998,0.030562734891240763,0.006613137935264558,0.0038220984024380737,0.003186528988268615,17.674231722019613
1620,A,938052810853009.0,2.526535,9.091782,2.1071557891555934,99,1970-01-11 20:34:12.810853009,-0.10618591,0.7500763,-0.03289795,9.646004623018342,0.7582691991756098,99.9200439453125,-22.092967987060547,121.85354614257812,17724585.0,50354.0,0.06766357069394,-0.07022966793750003,0.08184873204184076,0.003662295360049106,-0.0006624066226863304,0.0028301835029741935,17.724585725110956
1620,A,938052861207013.0,1.1209412,9.662811,2.2554101891555938,99,1970-01-11 20:34:12.861207013,0.25613403,0.2146759,0.18218994,9.90236337396951,0.3806357282258912,99.92919921875,-22.103788375854492,121.8632583618164,17774939.0,50354.0,0.0918325082874,-0.02128481203900004,0.10983632363594076,0.004015632780513197,-0.0023040600623683424,0.004826054646799505,17.774939729017206
1620,A,938052911561017.0,2.5617676,7.2045593,2.5736169891555933,99,1970-01-11 20:34:12.911561017,0.06719971,-0.19258118,0.5476074,7.79879730666071,0.5843604850167715,99.99156188964844,-22.056272506713867,121.82791900634766,17825293.0,50354.0,0.09271955945760002,-0.06879941795690006,0.12158041726834076,0.004646467409615866,-0.002268050658606777,0.005826379285747097,17.82529373303987
1620,A,938052961915021.0,2.7454681,8.534378,1.7709588891555934,99,1970-01-11 20:34:12.961915021,0.3263092,-0.5213623,0.2780304,9.264599373656056,0.6749794405684443,100.15596008300781,-21.947223663330078,121.74642181396484,17875647.0,50354.0,0.1336202732189,-0.09720997559790004,0.10938338688824074,0.005698557967296241,-0.004179618501529202,0.005814975697250253,17.875647737062536
1620,A,938053012269025.0,3.9050446,9.047119,2.386239089155594,99,1970-01-11 20:34:13.012269025,0.09790039,-0.8827362,0.019729614,10.003129661334667,0.8883675719099505,100.19374084472656,-21.96619415283203,121.69366455078125,17926001.0,50354.0,0.1674399582479,-0.05081985003100002,0.10466577349994076,0.007579793447639624,-0.003726946919858817,0.005389115711093246,17.9260017410852
1620,A,938053062623029.0,5.0270996,8.780106,2.6841974891555935,99,1970-01-11 20:34:13.062623029,0.0599823,-1.0486298,-0.12527466,10.217039098771238,1.0577882936577838,100.19404602050781,-22.137983322143555,121.6478500366211,17976355.0,50354.0,0.2248845945234,-0.04463315617500003,0.12765838173214078,0.00987755526512302,-0.0024032203372484637,0.005849225256278117,17.976355745107867
1620,A,938053112977033.0,4.56781,9.202484,3.9935083591555935,99,1970-01-11 20:34:13.112977033,-0.13667297,-0.7179718,-0.16386414,10.274414949924543,0.7490089870634401,99.97264099121094,-22.236454010009766,121.69750213623047,18026709.0,50354.0,0.2415710389992,-0.04072153157000004,0.16812460014293076,0.0117439534851985,-0.002148974973355867,0.0074469281346686775,18.026709749014117
1620,A,938053163331037.0,5.798935,8.942627,2.7701501891555935,99,1970-01-11 20:34:13.163331037,-0.091308594,-0.41726685,0.14437866,10.74182615064126,0.4508814488427917,99.97697448730469,-22.239948272705078,121.6739501953125,18077063.0,50354.0,0.261003538865,-0.03662974035300004,0.17028863127083077,0.012653320146886965,-0.001947472973205373,0.008520229927304276,18.077063753036782
1620,A,938053213685041.0,2.1679382,10.394745,0.23119448915559326,99,1970-01-11 20:34:13.213685041,0.002319336,-0.47477722,0.3028717,11.303836214186585,0.5631607715486754,99.98774719238281,-22.250751495361328,121.64586639404297,18127417.0,50354.0,0.2005819665564,-0.00661218515600003,0.07556485496584076,0.011621338269994588,-0.0010887019585400948,0.006189853222980679,18.127417757059447
1620,A,938053264039045.0,0.69215393,11.658646,0.018044289155593418,99,1970-01-11 20:34:13.264039045,0.04486084,-0.3005371,0.67796326,12.37445177020701,0.74294631390952,99.99845123291016,-22.28152847290039,121.62351989746094,18177771.0,50354.0,0.07200853955701,0.06176902520699996,0.0062750847215407475,0.006863011172417324,0.0013886837619640252,0.002060484161509204,18.177771761082113
1620,A,938053314393048.0,2.6767578,11.343903,1.2882012891555936,99,1970-01-11 20:34:13.314393048,-0.16714478,-0.52168274,0.3972931,11.991573002494953,0.6767067799296576,100.00202178955078,-22.296560287475586,121.5920181274414,18228125.0,50354.0,0.08481909062621,0.08566597617299992,0.032887344925140755,0.00394844924512293,0.003711971029744257,0.0009859924912145,18.22812576405704
1620,A,938053364747052.0,5.0746307,9.733139,2.7306604891555937,99,1970-01-11 20:34:13.364747052,-0.7194214,-0.37727356,-0.13394165,11.062624519393294,0.8233121251735311,99.92635345458984,-22.412010192871094,121.59104919433594,18278479.0,50354.0,0.19515670826450002,0.03718748643399993,0.10118288299254077,0.007048950688671406,0.0030930816280564355,0.003375486128283468,18.278479768079706
1620,A,938053415101056.0,2.6011963,7.1649475,3.6695947891555933,99,1970-01-11 20:34:13.415101056,-0.47853088,-0.17076111,-0.44161987,7.635082743637831,0.6731859099690244,99.74131774902344,-22.329620361328125,121.6480941772461,18328833.0,50354.0,0.19325429637900002,-0.06802607618950005,0.16113922714204076,0.0097790238639094,-0.0007764231742742264,0.006604483766858359,18.32883377210237
1620,A,938053465455060.0,1.039154,6.357361,3.6383295291555937,99,1970-01-11 20:34:13.465455060,-0.19850159,-0.06399536,-0.48249817,6.458795231471672,0.5256451002220097,99.73101806640625,-22.3053035736084,121.64910125732422,18379187.0,50354.0,0.0916530995031,-0.15301803889550003,0.18399161056212077,0.007173113506123633,-0.005565227685495047,0.008689359100877675,18.37918777600862
1620,A,938053515809064.0,1.7854767,7.70697,4.303231259155593,99,1970-01-11 20:34:13.515809064,-0.05718994,-0.14601135,-0.29832458,7.9135080562944555,0.3370275338873703,99.73007202148438,-22.289365768432617,121.64405059814453,18429541.0,50354.0,0.0711157271339,-0.13937153841300004,0.19994467596731078,0.004098030748239749,-0.007361492387896107,0.009666363885951499,18.429541780031286
1620,A,938053566163068.0,3.6062317,8.903168,4.973000549155594,99,1970-01-11 20:34:13.566163068,0.18481445,-0.020401001,-0.12513733,9.64470498069893,0.22412481596229678,99.73928833007812,-22.28302764892578,121.64410400390625,18479895.0,50354.0,0.1357470423868,-0.07527575557400001,0.2335476882378508,0.0052081839482226635,-0.005404174920710701,0.010914037253593354,18.47989578405395
1620,A,938053616517072.0,5.0964355,11.722351,3.6115808691555933,99,1970-01-11 20:34:13.616517072,0.09030151,0.3538208,0.06744385,12.79191700033269,0.3713383822388181,99.5560073852539,-22.32316017150879,121.73095703125,18530249.0,50354.0,0.2191070520944,0.02581949186299998,0.21613400636882077,0.008934161536753173,-0.001245160351451848,0.01132163602511217,18.530249788076617
1620,A,938053666871076.0,3.966034,11.963959,2.8187494891555938,99,1970-01-11 20:34:13.666871076,-0.03955078,0.26670837,-0.041885376,12.66991375804373,0.2728589444187723,99.4611587524414,-22.222244262695312,121.7786636352539,18580603.0,50354.0,0.22816579460150002,0.10288102686999995,0.16189642743120075,0.011260988461262677,0.003240292960140739,0.009517672231783143,18.580603792099282
1620,A,938053717225080.0,0.08164978,10.987473,-0.21701711084440678,99,1970-01-11 20:34:13.717225080,-0.5018158,-0.0184021,-0.31251526,11.808175149906203,0.5914588084955009,99.43539428710938,-22.206676483154297,121.78044891357422,18630957.0,50354.0,0.10190853452906,0.08437900346399994,0.06550381608874076,0.00831028138452011,0.004714645783719116,0.005725255931101568,18.630957796005532
1620,A,938053767579084.0,2.5698853,7.4407654,1.9317407891555933,99,1970-01-11 20:34:13.767579084,-0.31007385,0.08660889,-0.22975159,8.167214372257257,0.39551572078538505,99.59278106689453,-22.103078842163086,121.72093200683594,18681311.0,50354.0,0.06675769870916001,-0.029501441803200044,0.04317159804884075,0.004246509754238665,0.001381652369933959,0.0027361209017418894,18.681311800028197
1620,A,938053817933088.0,1.8982849,9.326553,1.3960352891555936,99,1970-01-11 20:34:13.817933088,0.12321472,0.38619995,-0.03703308,9.896480158085552,0.40706721511191163,99.5910873413086,-22.104467391967773,121.7418212890625,18731665.0,50354.0,0.11249512112540001,-0.07131842464320003,0.08378341832364075,0.004513048244974718,-0.0025383417775210145,0.0031963464472099666,18.731665804050863
1620,A,938053868287091.0,1.1269836,7.712799,3.1038293891555933,99,1970-01-11 20:34:13.868287091,0.11552429,-0.059768677,0.26365662,7.859057831419259,0.2939948462136009,99.59893035888672,-22.116966247558594,121.73625946044922,18782019.0,50354.0,0.07616718502450001,-0.06446943469600001,0.11329309300584077,0.004749950881936034,-0.0034187309345830395,0.0049617953257423564,18.78201980702579
1620,A,938053918641095.0,3.2662354,6.9055786,2.0239496891555935,99,1970-01-11 20:34:13.918641095,0.3874054,-0.25987244,0.41297913,7.918121417095401,0.6230316130312094,99.80133819580078,-22.19500160217285,121.65216827392578,18832373.0,50354.0,0.11060807476300001,-0.12542230716480002,0.12910209385464078,0.004702440715669888,-0.004780904384829363,0.0061027836195863445,18.832373811048456
1620,A,938053968995099.0,2.694931,8.794464,1.8667077891555937,99,1970-01-11 20:34:13.968995099,0.40278625,-0.52388,0.08721924,9.467130874247342,0.6665539838717043,99.9483413696289,-22.055171966552734,121.579833984375,18882727.0,50354.0,0.1500842864528,-0.09818922745980005,0.09795508333144076,0.006563451578330198,-0.005629867607243556,0.005716618550013975,18.88272781507112
1620,A,938054019349103.0,4.608673,9.315857,2.4274835891555933,99,1970-01-11 20:34:14.019349103,0.104537964,-0.68544006,0.0075683594,10.528420532077053,0.6934071977085877,99.97396087646484,-22.14714813232422,121.5407943725586,18933081.0,50354.0,0.183882837908,-0.03750564818300006,0.10811485633174074,0.008408290290031862,-0.0034163898840587786,0.005188222870899921,18.933081819093786
1620,A,938054069703107.0,5.413315,9.296951,3.0872583891555934,99,1970-01-11 20:34:14.069703107,-0.073654175,-0.6259918,-0.14698792,10.806398392591827,0.6472218474279874,99.89562225341797,-22.33270835876465,121.54169464111328,18983435.0,50354.0,0.252323591876,-0.024854532984000054,0.13884465878794075,0.01098236928267177,-0.001570042281241562,0.006217699712168221,18.983435823000036
1620,A,938054120057111.0,5.0488586,9.30542,3.9161157791555934,99,1970-01-11 20:34:14.120057111,-0.28796387,-0.16447449,-0.08641052,10.588600319857418,0.3426978643832019,99.677734375,-22.485780715942383,121.61248016357422,19033789.0,50354.0,0.26340614472720003,-0.025117305333000044,0.17632395143557075,0.01298452757845877,-0.0012581409733071116,0.007935000099597349,19.0337898270227
1620,A,938054170411115.0,4.0038147,9.040649,1.3866052891555936,99,1970-01-11 20:34:14.170411115,-0.037399292,-0.0745697,0.30336,10.255112746418789,0.31462141821591116,99.85419464111328,-22.516216278076172,121.53846740722656,19084143.0,50354.0,0.2279191556741,-0.03157022078700004,0.13350660833687075,0.012370097088203533,-0.0014272218451232422,0.00780060400339076,19.084143831045367
1620,A,938054220765119.0,1.1711578,11.8272705,-0.6551733108444067,99,1970-01-11 20:34:14.220765119,0.2945099,0.5798645,0.50860596,12.803880284196016,0.8256263937797662,99.85888671875,-22.546234130859375,121.564697265625,19134497.0,50354.0,0.13029028263250003,0.03192240925149995,0.018415262917940753,0.00901863902824527,8.867048970714336e-06,0.003824936952582389,19.134497835068032
1620,A,938054271119123.0,2.2761688,13.160812,0.022515289155593088,99,1970-01-11 20:34:14.271119123,0.12976074,0.5062561,0.3297882,13.96693673093429,0.6179751979584599,99.8561782836914,-22.56681251525879,121.5886459350586,19184851.0,50354.0,0.08679334180820002,0.13565575310249994,-0.01592843101205926,0.005465514412543506,0.004219115393586655,6.261096689437836e-05,19.184851839090697
1620,A,938054321473127.0,4.912552,9.659439,2.6624231891555934,99,1970-01-11 20:34:14.321473127,-0.6333008,0.37231445,-0.09667969,10.93280767732808,0.7409689031382751,99.78389739990234,-22.668622970581055,121.62198638916016,19235205.0,50354.0,0.18099042358160003,0.08107625942699999,0.06759869606844075,0.0067419918612189956,0.005456661879455219,0.0013009022633245168,19.235205843113363
1620,A,938054371827131.0,2.1741638,6.5310516,3.1757745891555933,99,1970-01-11 20:34:14.371827131,-0.2896576,0.6040039,-0.48970032,6.946207955439017,0.829776258916265,99.71253204345703,-22.53922462463379,121.67515563964844,19285559.0,50354.0,0.1784222436966,-0.08584121816380003,0.14698830546454078,0.009048932724063243,-0.00011996736611641454,0.005402656937595876,19.285559847019613
1620,A,938054422181134.0,0.2546997,5.3438873,3.0434808891555933,99,1970-01-11 20:34:14.422181134,-0.055541992,0.71307373,-0.5740509,5.454742838545401,0.9171114943572842,99.69315338134766,-22.516931533813477,121.71841430664062,19335913.0,50354.0,0.06115149633950001,-0.19449386331470006,0.15658219517744076,0.00603174805288889,-0.007057996346384196,0.00764299449466317,19.335913850110956
1620,A,938054472535138.0,1.0831757,7.2996063,3.8020105591555935,99,1970-01-11 20:34:14.472535138,0.028015137,0.628952,-0.31991577,7.385855963584361,0.7061951331606736,99.68059539794922,-22.506458282470703,121.75489044189453,19386267.0,50354.0,0.0336836889458,-0.17514396163280005,0.17234893819413075,0.0023876654599279987,-0.00930637151870321,0.008281499144896056,19.386267854017206
1620,A,938054522889142.0,2.8748932,9.327637,5.256432589155594,99,1970-01-11 20:34:14.522889142,0.027282715,0.4143982,0.012924194,9.82801014069162,0.4154963892641678,99.67355346679688,-22.510576248168945,121.77688598632812,19436621.0,50354.0,0.0996523006953,-0.07484509543590007,0.22806442314503078,0.003357000211193975,-0.006293974489818663,0.01008120719843607,19.43662185803987
1620,A,938054573243146.0,4.9075623,11.757782,4.207222959155594,99,1970-01-11 20:34:14.573243146,0.035980225,0.43885803,0.16241455,12.741253569437688,0.4693287047882688,99.41452026367188,-22.533550262451172,121.89552307128906,19486975.0,50354.0,0.19593888212350002,0.03739839416299996,0.2382664557398308,0.007442099209828929,-0.000942795597947806,0.01174081253768416,19.486975862062536
1620,A,938054623597150.0,3.7719574,10.429977,5.075585389155593,99,1970-01-11 20:34:14.623597150,-0.013092041,0.10160828,-0.1589508,11.133247503395285,0.18910579293809082,99.41124725341797,-22.526538848876953,121.90235137939453,19537329.0,50354.0,0.21852426748690001,0.06515200834299996,0.23371326578543078,0.010434938717741043,0.0025819114838935603,0.011883033448841512,19.5373298660852
1620,A,938054673951154.0,2.9887695,12.836868,0.23465828915559328,99,1970-01-11 20:34:14.673951154,-0.4981842,0.42668152,-0.031295776,13.737434801381053,0.6566765126259599,99.37749481201172,-22.528472900390625,121.9254150390625,19587683.0,50354.0,0.17021482116130002,0.09232015656499996,0.13369600508884075,0.009787284034895734,0.003964676695888714,0.009250263212801535,19.587683870107867
1620,A,938054724305158.0,1.5157471,8.619064,-0.44191641084440647,99,1970-01-11 20:34:14.724305158,-0.20353699,-0.050247192,-0.4360199,9.863228805806854,0.48380310023619627,99.36687469482422,-22.506555557250977,121.92657470703125,19638037.0,50354.0,0.11341021443820001,0.04672679996399998,-0.00521813772975925,0.007140827521288613,0.003500785224530632,0.0032346872664995954,19.638037874014117
1620,A,938054774659162.0,2.884674,8.8517,2.3991022891555938,99,1970-01-11 20:34:14.774659162,-0.25453186,0.76348877,0.006149292,9.465341363389964,0.8048225788726816,99.37871551513672,-22.39433479309082,121.9519271850586,19688391.0,50354.0,0.1107894020347,-0.053607774772000065,0.04927606885824076,0.005644673743938204,-0.00017324230274101806,0.001109246532021779,19.688391878036782
1620,A,938054825013166.0,0.8226013,8.082199,3.3434686891555936,99,1970-01-11 20:34:14.825013166,0.3375244,0.09806824,0.27497864,8.159804801578812,0.4462660111954609,99.39452362060547,-22.408700942993164,121.95474243164062,19738745.0,50354.0,0.0933380702281,-0.06712442487700007,0.14458070952094076,0.005139317369160516,-0.003039674590562877,0.004880732109252653,19.738745882059447
1620,A,938054875367170.0,2.4067993,6.63739,2.4507837891555937,99,1970-01-11 20:34:14.875367170,0.36825562,-0.29553223,0.48764038,7.252065984417318,0.6787817328397264,99.53828430175781,-22.35633087158203,121.8898696899414,19789099.0,50354.0,0.0813066189062,-0.12287410774700007,0.14588189464644077,0.004397029338334271,-0.004783593055874452,0.007312976985122166,19.789099886082113
1620,A,938054925721173.0,3.1039581,7.1922913,2.6536950891555935,99,1970-01-11 20:34:14.925721173,0.525589,-0.6435089,0.15992737,7.967262213151526,0.846123079093891,99.62519073486328,-22.373428344726562,121.83621215820312,19839453.0,50354.0,0.1387443390598,-0.14527931390990004,0.12851546471924077,0.005540222968709982,-0.006751298697055774,0.006908502316749765,19.83945388905704
1620,A,938054976075177.0,4.772064,8.990311,3.0332574891555932,99,1970-01-11 20:34:14.976075177,0.44151306,-0.78178406,-0.122558594,10.234860223056545,0.9061681453151529,99.59551239013672,-22.496688842773438,121.82125091552734,19889807.0,50354.0,0.19829460841170002,-0.08603982189290003,0.14318040506414076,0.008485629580489956,-0.005823921882107098,0.006840486913536198,19.889807893079706
1620,A,938055026429181.0,5.0229187,9.434265,3.1308374891555935,99,1970-01-11 20:34:15.026429181,0.23789978,-0.6205902,-0.2530365,10.732614353285722,0.7111652213039796,99.53111267089844,-22.615049362182617,121.82417297363281,19940161.0,50354.0,0.2466082794379,-0.029593650048000037,0.15519341926894076,0.01120132000738938,-0.002911303923056041,0.0075121577752339935,19.94016189710237
1620,A,938055076783185.0,5.1027985,10.496567,4.056405087155594,99,1970-01-11 20:34:15.076783185,-0.054641724,-0.3413849,-0.29891968,11.671293236791398,0.45703647889528964,99.30988311767578,-22.686527252197266,121.89507293701172,19990515.0,50354.0,0.2549351819444,0.008329357263999979,0.18095320634378675,0.012627359727222167,-0.0005353710994227695,0.008463163593051642,19.99051590100862
1620,A,938055127137189.0,5.7825775,10.546875,1.5693597891555933,99,1970-01-11 20:34:15.127137189,0.10513306,-0.18443298,0.11180115,12.292970342054742,0.23993328563991806,99.42030334472656,-22.82597541809082,121.84516906738281,20040869.0,50354.0,0.274061111552,0.036341539233999985,0.14163988229088678,0.013318539681358866,0.0011246791611301452,0.008121926192555175,20.040869905031286
1620,A,938055177491193.0,2.8513947,8.501434,0.03235728915559388,99,1970-01-11 20:34:15.177491193,0.21406555,0.53215027,0.39556885,9.849463123639993,0.6967658750600505,99.42131042480469,-22.84984016418457,121.8701400756836,20091223.0,50354.0,0.21737751807940003,-0.013889924307000043,0.04032643088064076,0.01237295037822976,0.0005652643090170777,0.004581365866719549,20.09122390905395
1620,A,938055227845197.0,1.6523285,12.908081,0.4241723891555935,99,1970-01-11 20:34:15.227845197,0.4880066,0.7764435,0.37890625,13.524641272914605,0.9922625139673837,99.43086242675781,-22.874887466430664,121.9083251953125,20141577.0,50354.0,0.11339023900640002,0.04555815915499994,0.011494047710840767,0.008327739820149189,0.0007973111487680934,0.0013046841894977304,20.141577913076617
1620,A,938055278199201.0,4.153,11.291458,0.7630242891555934,99,1970-01-11 20:34:15.278199201,-0.14001465,0.49346924,0.03552246,12.487201446798759,0.5141768549879037,99.59405517578125,-22.798433303833008,121.86443328857422,20191931.0,50354.0,0.1461607556445,0.11580259340299996,0.029890050769840755,0.006534715392325711,0.004062579667152764,0.0010419274474481187,20.191931917099282
1620,A,938055328553205.0,3.1416473,6.463196,2.788643889155593,99,1970-01-11 20:34:15.328553205,-0.34555054,0.62542725,-0.21368408,7.306321242087351,0.7458051399543318,99.61054229736328,-22.86009407043457,121.88141632080078,20242285.0,50354.0,0.1836573350721,-0.046460276242000026,0.08942034972534074,0.008303830069971839,0.0017458315191624955,0.0030038779532671847,20.242285921005532
1620,A,938055378907209.0,0.5114136,5.318878,3.2944116891555932,99,1970-01-11 20:34:15.378907209,-0.010803223,0.9305115,-0.6064911,5.404921857948024,1.110765418816524,99.58854675292969,-22.837949752807617,121.93668365478516,20292639.0,50354.0,0.0919731142793,-0.19683192290200005,0.15315309029514074,0.006939547823320198,-0.00612536769784849,0.006107271499395663,20.292639925028197
1620,A,938055429261213.0,0.7638092,6.9973755,2.7372674891555935,99,1970-01-11 20:34:15.429261213,0.26667786,0.8650055,-0.43258667,7.171074376046935,1.0032361751382963,99.5823974609375,-22.823816299438477,121.98685455322266,20342993.0,50354.0,0.0321062844356,-0.18338288563050004,0.15185958667234076,0.0031239470214450373,-0.009572668234422757,0.0076793041680102815,20.342993929050863
1620,A,938055479615216.0,2.5348663,8.786072,4.538811689155594,99,1970-01-11 20:34:15.479615216,0.2216034,0.8344574,-0.14930725,9.154594800216723,0.87619625324974,99.57564544677734,-22.823400497436523,122.0328369140625,20393347.0,50354.0,0.0830507530635,-0.09608934229250002,0.18318984547234077,0.0028993087331148407,-0.007036272282417374,0.008435539553106648,20.39334793202579
1620,A,938055529969220.0,4.681671,10.604767,3.9208765191555934,99,1970-01-11 20:34:15.529969220,0.3786621,0.6593323,-0.031021118,11.593703839566846,0.7609641105608529,99.36894226074219,-22.857662200927734,122.150634765625,20443701.0,50354.0,0.18169075960210002,-0.005266046496999998,0.21298957002065078,0.006665397064381812,-0.002551824623553242,0.009974609143867047,20.443701936048456
1620,A,938055580323224.0,4.4087067,11.30217,3.7478571091555937,99,1970-01-11 20:34:15.580323224,0.14595032,0.53279114,0.012771606,12.136931708937384,0.5525676507817131,99.17504119873047,-22.82801628112793,122.25285339355469,20494055.0,50354.0,0.2288684393529,0.058081752848999996,0.1930757065599908,0.010336648952090037,0.001329741038824304,0.010223505468470813,20.49405594007112
1620,A,938055630677228.0,3.7796173,14.076279,-0.22203731084440648,99,1970-01-11 20:34:15.630677228,-0.17530823,0.5742035,0.0053100586,15.20435311472558,0.6003922314956435,99.15437316894531,-22.83285140991211,122.28356170654297,20544409.0,50354.0,0.206157433348,0.14548401047299997,0.08876956506208077,0.01095264639699056,0.005125175223157993,0.007096018403628897,20.544409944093786
1620,A,938055681031232.0,1.8756714,7.4513397,1.7569665891555935,99,1970-01-11 20:34:15.681031232,-0.5169525,0.43611145,-0.44519043,8.035284011238964,0.8097083444308434,99.11796569824219,-22.814332962036133,122.31076049804688,20594763.0,50354.0,0.1423832035999,0.048531656009899955,0.038644914440040756,0.008775207616437278,0.004884732435039971,0.003207914350424914,20.594763948000036
1620,A,938055731385236.0,3.1536713,8.847931,1.8759088891555935,99,1970-01-11 20:34:15.731385236,0.04899597,1.1869049,-0.11231995,9.654620187500452,1.1932139866294953,99.22434997558594,-22.726581573486328,122.32536315917969,20645117.0,50354.0,0.1266237611579,-0.08310246158610002,0.09146490591744076,0.006772788351707131,-0.0008703891719919891,0.0032757749471403128,20.6451179520227
1620,A,938055781739240.0,-0.43904114,7.952545,2.2042322891555934,99,1970-01-11 20:34:15.781739240,0.62150574,0.5326843,0.13871765,8.188913177135444,0.8302195701987277,99.244873046875,-22.737699508666992,122.35265350341797,20695471.0,50354.0,0.06834624353832,-0.07048361574800002,0.10272571444634077,0.004908759808236731,-0.003866836669040637,0.004889137248898928,20.695471956045367
1620,A,938055832093244.0,0.39881897,6.051712,2.465783089155593,99,1970-01-11 20:34:15.832093244,0.46200562,-0.032546997,0.50094604,6.283122755047326,0.6822429442046168,99.27033996582031,-22.76215934753418,122.3465347290039,20745825.0,50354.0,-0.00101267357409,-0.14088402151100005,0.11757697717974074,0.0016952572909894187,-0.005321603003269845,0.005546560867069855,20.745825960068032
1620,A,938055882447248.0,4.289734,8.408112,2.2401056891555937,99,1970-01-11 20:34:15.882447248,0.61712646,-0.6706085,0.3065796,9.62213416950619,0.9615362078676714,99.39510345458984,-22.86539077758789,122.2773208618164,20796179.0,50354.0,0.11804369812569,-0.12941421115200005,0.11848016177154076,0.0029464901051356332,-0.006805298603756354,0.005943210587376415,20.796179964090697
1620,A,938055932801252.0,5.480057,8.916229,2.5996789891555934,99,1970-01-11 20:34:15.932801252,0.34536743,-0.65896606,0.11373901,10.57373164765254,0.752629717944029,99.43128967285156,-23.073644638061523,122.23908233642578,20846533.0,50354.0,0.24597402800700005,-0.05729426664300007,0.12185125884584075,0.009164874290842739,-0.0047007593454447185,0.006050824176883815,20.846533968113363
1620,A,938055983155256.0,4.581009,8.73793,3.149071689155593,99,1970-01-11 20:34:15.983155256,0.23031616,-0.2277832,0.050476074,9.912402355098605,0.32783921944428657,99.37135314941406,-23.186220169067383,122.2564468383789,20896887.0,50354.0,0.253307458682,-0.04899043885700004,0.14473629582784076,0.012570409990368956,-0.0026759300303735027,0.006711874864019279,20.896887972019613
1620,A,938056033509259.0,4.7012787,10.614655,2.9492425891555936,99,1970-01-11 20:34:16.033509259,0.08747864,-0.23710632,-0.07757568,11.666814852227098,0.2643669903139467,99.30224609375,-23.19565773010254,122.27519989013672,20947241.0,50354.0,0.2337001574229,-0.0062291674550000046,0.15353725858504075,0.012261390750673068,-0.0013902640281172251,0.007509633279453118,20.947241975110956
1620,A,938056083863263.0,5.203537,11.161163,0.24459168915559326,99,1970-01-11 20:34:16.083863263,0.2137146,-0.24482727,0.35134888,12.906227393452253,0.4786025050770914,99.56185913085938,-23.232830047607422,122.16336059570312,20997595.0,50354.0,0.2493735448789,0.054780569785999995,0.08041116562504076,0.01216234660285242,0.0012223786564875868,0.005890119476337222,20.997595979017206
1620,A,938056134217267.0,1.6972809,11.242264,-1.5404272108444061,99,1970-01-11 20:34:16.134217267,0.11122131,0.1589508,0.54107666,12.695226082762806,0.5748038696942738,99.56598663330078,-23.260833740234375,122.16700744628906,21047949.0,50354.0,0.1737418922683,0.07058188157899999,-0.032625250929559244,0.010652777361055056,0.003156250438016605,0.0012031059742881383,21.04794998303987
1620,A,938056184571271.0,0.7581482,11.67308,1.2775812891555933,99,1970-01-11 20:34:16.184571271,-0.30911255,-0.09580994,0.35424805,12.035125107014853,0.47981433294463866,99.55381774902344,-23.27750015258789,122.15866088867188,21098303.0,50354.0,0.0618203384507,0.083470415888,-0.006617671770359241,0.0059307502828122634,0.003878574693326659,-0.0009880190648158477,21.098303987062536
1620,A,938056234925275.0,4.002411,8.672867,1.7900476891555934,99,1970-01-11 20:34:16.234925275,-0.64398193,-0.48757935,-0.11433411,9.828971149551624,0.815793256543862,99.66576385498047,-23.288848876953125,122.08047485351562,21148657.0,50354.0,0.11985659897840001,0.018780707618999984,0.07723369478694075,0.004574080253652451,0.0025743765365357388,0.0017778996114884728,21.1486579910852
1620,A,938056285279279.0,2.6233063,6.726883,2.4400262891555933,99,1970-01-11 20:34:16.285279279,-0.5804291,-0.3795166,-0.4045868,7.410349774094991,0.8028830976777441,99.75150299072266,-23.203250885009766,122.02110290527344,21199011.0,50354.0,0.16681568446210002,-0.10574969425000004,0.10650057255194076,0.007217548080181469,-0.0021896181764086884,0.0046258776487910205,21.199011995107867
1620,A,938056335633283.0,1.0865784,6.7218933,3.5669946891555933,99,1970-01-11 20:34:16.335633283,-0.52775574,-0.11038208,-0.55366516,6.830570141528906,0.772823028956759,99.72543334960938,-23.175033569335938,122.02027130126953,21249365.0,50354.0,0.0934037670919,-0.15486935909490004,0.15123876717094076,0.0065515451317750585,-0.0065616059060645505,0.006489103356202989,21.249365999014117
1620,A,938056385987287.0,1.1603241,8.522278,4.175530453155593,99,1970-01-11 20:34:16.385987287,-0.2060852,-0.4081421,-0.27798462,8.601174187090711,0.5350948816873456,99.72274017333984,-23.157888412475586,122.00093841552734,21299720.0,50355.0,0.056571387693749996,-0.10966887709425004,0.19493742677053988,0.003775999459615702,-0.006660411441652326,0.008715851122961629,21.299720003036782
1620,A,938056436341291.0,3.7150726,9.563171,5.720314989155593,99,1970-01-11 20:34:16.436341291,-0.033096313,-0.43695068,0.1583252,10.385425167422326,0.4659271741825071,99.73086547851562,-23.16200065612793,121.97606658935547,21350074.0,50354.0,0.12274786271589999,-0.03813185052700002,0.24914770070106876,0.004514720767563758,-0.003721178919320213,0.011180731254352693,21.350074007059447
1620,A,938056486695295.0,5.367737,10.209,5.342278489155594,99,1970-01-11 20:34:16.486695295,-0.18273926,0.0063934326,0.14982605,11.60003738494607,0.2363944973648093,99.72215270996094,-23.1694393157959,121.97504425048828,21400428.0,50354.0,0.22867789729920004,0.004334749266999969,0.27852291600344076,0.008847846359900175,-0.0008509096184230214,0.013285163116769437,21.400428011082113
1620,A,938056537049298.0,3.0435944,9.790131,4.632164989155593,99,1970-01-11 20:34:16.537049298,-0.30885315,0.16331482,-0.060180664,10.265737484101162,0.354518985409859,99.70303344726562,-23.167850494384766,121.98434448242188,21450782.0,50354.0,0.2117720906578,0.01004892118699997,0.25112656345344075,0.011089209346793392,0.0003621376710203565,0.013334984944285908,21.45078201405704
1620,A,938056587403302.0,1.5670776,14.065338,-2.0121067108444066,99,1970-01-11 20:34:16.587403302,-0.35438538,0.25704956,-0.22000122,15.418803713174436,0.4899632748027411,99.67910766601562,-23.15916633605957,122.00015258789062,21501136.0,50354.0,0.11608288894400001,0.107139943013,0.06596520727304075,0.00825440482143452,0.0029504640339633997,0.007983419511580625,21.501136018079706
1620,A,938056637757306.0,3.6089172,7.846298,-0.1024387108444067,99,1970-01-11 20:34:16.637757306,-0.41392517,-0.27693176,-0.40263367,9.607943254507482,0.6404210476506026,99.66278839111328,-23.136995315551758,121.98897552490234,21551490.0,50354.0,0.1303160210796,0.058200059572,-0.053237910081859255,0.006203585357664178,0.004162765245082545,0.00032043516138237664,21.55149002210237
1620,A,938056688111310.0,2.1351776,8.311035,3.9866419031555935,99,1970-01-11 20:34:16.688111310,-0.24435425,1.0834198,0.08091736,8.581777312953468,1.113577604693302,99.62804412841797,-23.150054931640625,122.04631805419922,21601844.0,50354.0,0.1446190747796,-0.08667602705900003,0.09779258377281876,0.006922040908447079,-0.0007169394334201998,0.0011217530195172874,21.60184402600862
1620,A,938056738465314.0,0.512619,7.970169,2.6477441891555937,99,1970-01-11 20:34:16.738465314,0.6001129,0.19055176,0.3307953,8.11895116517704,0.7112460871509928,99.65522766113281,-23.167959213256836,122.05352020263672,21652198.0,50354.0,0.0666635749982,-0.08355732689200002,0.16703393864611876,0.005319463273455671,-0.0042859651524243285,0.00666753735494159,21.652198030031286
1620,A,938056788819318.0,2.5962677,6.6019135,2.2572717891555936,99,1970-01-11 20:34:16.788819318,0.43614197,-0.24491882,0.4660492,7.331394836730306,0.6836716340512551,99.83613586425781,-23.130971908569336,121.97627258300781,21702552.0,50354.0,0.0782724404459,-0.12658787889750003,0.12349358728594077,0.0036490540608361062,-0.0052908258461622434,0.007314611520391464,21.70255203405395
1620,A,938056839173322.0,2.988327,7.529312,2.3152856891555933,99,1970-01-11 20:34:16.839173322,0.6121826,-0.7156372,0.16490173,8.296553697167008,0.9560840540055006,99.97240447998047,-23.083446502685547,121.90110778808594,21752906.0,50354.0,0.1406033407619,-0.13768733558650004,0.11512327963144076,0.005510635543468781,-0.006653657075063669,0.006007656858378916,21.752906038076617
1620,A,938056889527326.0,4.6596375,9.473251,2.3166131891555937,99,1970-01-11 20:34:16.889527326,0.3512268,-0.99568176,-0.11857605,10.708039749289693,1.0624512750561976,100.02841186523438,-23.13676643371582,121.84186553955078,21803260.0,50354.0,0.1925528022165,-0.06539567134900005,0.11661731805924076,0.008387872211767178,-0.005113020865615086,0.005834533028058289,21.803260042099282
1620,A,938056939881330.0,5.0457306,9.527206,3.2509088891555935,99,1970-01-11 20:34:16.939881330,-0.07312012,-0.87638855,-0.14112854,10.814844597584326,0.8906855266155663,99.92516326904297,-23.240718841552734,121.84252166748047,21853614.0,50354.0,0.2443520526537,-0.01509469411100006,0.14017350336564077,0.010999953531067027,-0.002026505931186423,0.006465222511014243,21.853614046005532
1620,A,938056990235334.0,6.4446564,9.426331,3.2914056891555936,99,1970-01-11 20:34:16.990235334,-0.17437744,-0.40742493,-0.047561646,11.447942305241607,0.44571815683982163,99.92488098144531,-23.234867095947266,121.82112884521484,21903968.0,50354.0,0.28929347349900003,-0.016275998951000063,0.16471585413814074,0.013435593411946528,-0.0007898199392219772,0.007676199353872709,21.903968050028197
1620,A,938057040589338.0,3.4852905,10.3520355,0.39067928915559325,99,1970-01-11 20:34:17.040589338,0.061782837,-0.20043945,0.23945618,11.538064060093205,0.3183274323778324,99.93309783935547,-23.244937896728516,121.80813598632812,21954322.0,50354.0,0.2500062731013,0.004490733370499936,0.09270385349894075,0.013577949720155753,-0.0002967176315202517,0.006481055979178801,21.954322054050863
1620,A,938057090943341.0,1.2112427,9.543198,-0.018866710844406498,99,1970-01-11 20:34:17.090943341,-0.029571533,0.33947754,0.58714294,10.467423126859986,0.6788639832251121,99.92662048339844,-23.276779174804688,121.82084655761719,22004676.0,50354.0,0.1182446163764,0.007433093829499959,0.009361125284140749,0.009271452644380054,0.00030020619741439735,0.002569689970821643,22.00467605702579
1620,A,938057141297345.0,2.1017456,13.850433,0.012703889155593728,99,1970-01-11 20:34:17.141297345,0.3184967,0.26887512,0.45951843,14.595187200867413,0.6203959748221851,99.93853759765625,-23.30172348022461,121.83092498779297,22055030.0,50354.0,0.0834111064291,0.095512247687,-0.0001551613616592391,0.005077086133074074,0.0025918548633609194,0.00023177855367631696,22.055030061048456
1620,A,938057191651349.0,5.109741,10.608856,1.6720208891555934,99,1970-01-11 20:34:17.191651349,-0.47607422,0.029556274,0.02720642,12.024517406136761,0.47776607829625983,99.98789978027344,-23.350133895874023,121.8031005859375,22105384.0,50354.0,0.1815635981282,0.12234231915299998,0.04241631574354076,0.006671268136639142,0.00548492442933068,0.0010640090838726312,22.10538406507112
1620,A,938057242005353.0,3.3495026,6.823929,3.064812689155594,99,1970-01-11 20:34:17.242005353,-0.4347229,0.450531,-0.40335083,7.672838409343241,0.7447510146398587,99.9231948852539,-23.397598266601562,121.8437271118164,22155738.0,50354.0,0.21297837611720002,-0.05456397205500006,0.11925925900114077,0.009933383285576438,0.001706455444886344,0.004070505945346847,22.155738069093786
1620,A,938057292359357.0,0.6216736,5.8917847,4.104973812555594,99,1970-01-11 20:34:17.292359357,-0.21321106,0.60076904,-0.63549805,5.924492517296593,0.9001334162681929,99.89738464355469,-23.371471405029297,121.8819351196289,22206092.0,50354.0,0.09998230318740002,-0.17332567617510006,0.18051371475358258,0.007879411022851916,-0.00573757767348923,0.00754738416022267,22.206092073000036
1620,A,938057342713361.0,0.6996155,5.9582214,3.5506067491555937,99,1970-01-11 20:34:17.342713361,0.14910889,0.32936096,-0.47114563,6.024951097365265,0.5938773507360342,99.89608764648438,-23.351097106933594,121.90400695800781,22256446.0,50354.0,0.033266095670700005,-0.19512159642030005,0.19274455180220257,0.0033547949380503847,-0.009276396982134389,0.009397523377075003,22.2564460770227
1620,A,938057393067365.0,2.4400024,7.855789,4.627709389155593,99,1970-01-11 20:34:17.393067365,0.2566681,0.23893738,-0.14582825,8.242427527018068,0.3797834430526651,99.90328979492188,-23.34596061706543,121.9181900024414,22306800.0,50354.0,0.0790461598683,-0.14567386015920006,0.20590546541426077,0.0028276856577054035,-0.008580207210302076,0.010036811483458898,22.306800081045367
1620,A,938057443421369.0,4.66481,11.739456,3.032448789155594,99,1970-01-11 20:34:17.443421369,0.29852295,0.29074097,0.09666443,12.677976762672673,0.42777362627968113,99.79430389404297,-23.311006546020508,121.97966003417969,22357154.0,50354.0,0.1788778617948,-0.00011971663500002959,0.19285980245534076,0.00649375309341187,-0.0036706448829475755,0.010039713149152958,22.357154085068032
1620,A,938057493775373.0,4.074478,12.072937,4.808999089155593,99,1970-01-11 20:34:17.493775373,0.050369263,0.0438385,-0.04272461,12.761239259386693,0.07927338164267543,99.79573059082031,-23.30927085876465,121.98239135742188,22407508.0,50354.0,0.220029053976,0.10605541856099997,0.19742413323224076,0.010043279418361433,0.0026671431673909005,0.009826178648806241,22.407508089090697
1620,A,938057544129377.0,3.4397278,11.603256,1.9993676891555934,99,1970-01-11 20:34:17.544129377,-0.4564209,0.29180908,0.06951904,12.284610543358426,0.5461734834736834,99.78011322021484,-23.139423370361328,121.99219512939453,22457862.0,50354.0,0.18918515942660002,0.10262631116099996,0.17141425037754077,0.01030278625083726,0.005253979909210793,0.00928624398414347,22.457862093113363
1620,A,938057594483381.0,0.031051636,10.091187,-0.9768897108444063,99,1970-01-11 20:34:17.594483381,-0.31549072,-0.20285034,-0.5138855,11.29975297037047,0.6362082693226204,99.76673889160156,-23.112375259399414,121.98606872558594,22508216.0,50354.0,0.08738381386017201,0.052731791410999956,0.02574292805994076,0.00696317704044106,0.003911450948455242,0.004963826281520473,22.508216097019613
1620,A,938057644837384.0,3.5401,8.400482,1.7277307891555935,99,1970-01-11 20:34:17.644837384,-0.35960388,0.18603516,-0.100128174,9.421458741605052,0.4170727544396232,99.8965835571289,-23.085832595825195,121.93728637695312,22558570.0,50354.0,0.089910884739572,-0.02790444958700004,0.018903925828640762,0.004463748626645755,0.0006250779851028459,0.001124073840352817,22.558570100110956
1620,A,938057695191388.0,0.034744263,8.752762,2.9193963891555934,99,1970-01-11 20:34:17.695191388,0.08657837,0.2920227,0.09553528,8.833104131091641,0.31921788983674665,99.89513397216797,-23.093046188354492,121.9520263671875,22608924.0,50354.0,0.090003854009551,-0.06160197581200002,0.11700072096834077,0.00452971337748667,-0.0022535032722706245,0.003421671292407604,22.608924104017206
1620,A,938057745545392.0,1.91362,6.942169,2.8101892891555935,99,1970-01-11 20:34:17.745545392,0.2796631,-0.2908783,0.45121765,7.317018775571442,0.6053255343895733,99.93490600585938,-22.915128707885742,121.92520904541016,22659278.0,50354.0,0.049053967049551006,-0.09831792221300004,0.14425377862284075,0.003501058760805011,-0.004026303272575427,0.0065776045362071775,22.65927810803987
1620,A,938057795899396.0,2.8680115,7.068634,1.8546380891555936,99,1970-01-11 20:34:17.795899396,0.44361877,-0.7663574,0.38813782,7.954032398440988,0.9668258607140301,100.16983795166016,-22.887664794921875,121.8045883178711,22709632.0,50354.0,0.12038713627550002,-0.14071921286900005,0.11744635890374078,0.0042660186584148095,-0.0060182379499595165,0.006588824362506743,22.709632112062536
1620,A,938057846253400.0,3.5144958,8.772293,2.0339746891555937,99,1970-01-11 20:34:17.846253400,0.20446777,-1.0240784,0.083496094,9.674940158067407,1.047623613722309,100.28067779541016,-22.84375762939453,121.71839141845703,22759986.0,50354.0,0.16069238629210003,-0.09464218092100005,0.09790360391954077,0.0070767391396844665,-0.005925693811450833,0.00542186601400176,22.7599861160852
1620,A,938057896607404.0,4.3996124,9.592712,2.4655237891555934,99,1970-01-11 20:34:17.896607404,-0.13699341,-1.2758026,-0.09602356,10.680492550409836,1.2867245208766567,100.28589630126953,-22.864727020263672,121.65666198730469,22810340.0,50354.0,0.1992535021514,-0.031093469115000036,0.11328387318844077,0.009062357633342002,-0.003165646460956374,0.005317067111147651,22.810340120107867
1620,A,938057946961408.0,7.2699127,9.349457,3.8706445891555936,99,1970-01-11 20:34:17.946961408,-0.45619202,-0.9001465,-0.0056762695,11.845678326367958,1.009161583003122,100.28172302246094,-22.856414794921875,121.608642578125,22860694.0,50354.0,0.2938036334427,-0.016562211087000043,0.15952571126074078,0.012413699502852657,-0.001199827060445756,0.006868526907677045,22.860694124014117
1620,A,938057997315412.0,7.1050415,9.509033,2.3066186891555933,99,1970-01-11 20:34:17.997315412,-0.16543579,-0.32073975,0.28756714,12.006108075293891,0.4614518911552603,100.28119659423828,-22.867698669433594,121.58873748779297,22911048.0,50354.0,0.3619182218934,-0.018668997270000043,0.15552495755804077,0.01650910915179699,-0.0008870161328041912,0.007932030688850462,22.911048128036782
1620,A,938058047669416.0,0.36405945,9.99765,-0.4477757108444065,99,1970-01-11 20:34:18.047669416,0.19485474,0.3771057,0.3547516,10.99256209141451,0.5531959656175356,100.2844467163086,-22.888517379760742,121.60543060302734,22961402.0,50354.0,0.18804955461815,-0.0023494421090000193,0.04680008966494075,0.013846538709231295,-0.0005291812482450845,0.005093937713933006,22.961402132059447
1620,A,938058098023420.0,-0.80410767,13.459595,0.6942834891555933,99,1970-01-11 20:34:18.098023420,0.3479004,0.36827087,0.577713,13.90890319946876,0.7683816970618944,100.2963638305664,-22.92022705078125,121.61949920654297,23011756.0,50354.0,-0.011079094034940002,0.09711385736499997,0.006206326334540752,0.004455585286103478,0.0023858836829003106,0.0013345425356189459,23.011756136082113
1620,A,938058148377423.0,3.6256866,11.781006,0.8525322891555933,99,1970-01-11 20:34:18.148377423,-0.29516602,-0.35112,0.22657776,12.748833799351239,0.5116109020430057,100.42338562011719,-22.770706176757812,121.5466537475586,23062110.0,50354.0,0.07103889272061,0.14201341137699997,0.03894418085054075,0.0015096078515091135,0.006020507245117333,0.0011367543193987971,23.06211013905704
1620,A,938058198731427.0,3.968689,7.1493225,4.125130673155594,99,1970-01-11 20:34:18.198731427,-0.8832855,-0.21626282,-0.1894989,8.177017433935665,0.9289094223474172,100.38296508789062,-22.75943374633789,121.53697967529297,23112464.0,50354.0,0.1912035944812,-0.01686031935550004,0.1253226204021088,0.006602479100279971,0.003150979397825304,0.004135745255137957,23.112464143079706
1620,A,938058249085431.0,1.32724,5.376877,4.105172176855594,99,1970-01-11 20:34:18.249085431,-0.2821045,0.1423645,-0.5402527,5.5382648803109085,0.6258782466564803,100.36388397216797,-22.73414421081543,121.54985046386719,23162818.0,50354.0,0.13333560443300002,-0.17809707518850004,0.2072143348547317,0.008170923411062814,-0.00490844232243429,0.008372282922501473,23.16281814710237
1620,A,938058299439435.0,0.72257996,6.841797,3.7413568691555934,99,1970-01-11 20:34:18.299439435,0.007446289,0.113861084,-0.3993683,6.889586060700162,0.41534904925185107,100.36041259765625,-22.71552848815918,121.55982208251953,23213172.0,50354.0,0.051608317132919995,-0.18583964470200004,0.19755206179142368,0.004656333113265168,-0.00916283479668312,0.010190803568360255,23.21317215100862
1620,A,938058349793439.0,2.8630219,8.47435,5.260262489155593,99,1970-01-11 20:34:18.349793439,0.11026001,-0.0017852783,-0.05644226,9.018884504698718,0.12387972286744975,100.36573028564453,-22.712732315063477,121.56025695800781,23263526.0,50354.0,0.09027469802922,-0.10785456698100007,0.22663377058420076,0.003572188672737199,-0.007394339167542895,0.010679726701721098,23.263526155031286
1620,A,938058400147443.0,5.8628235,10.98996,5.159447689155593,99,1970-01-11 20:34:18.400147443,0.23970032,0.39485168,0.15052795,12.500337422781051,0.4858217330854264,100.37016296386719,-22.72369384765625,121.57984924316406,23313880.0,50354.0,0.21969060963580003,-0.0034162671300000526,0.26233704315934075,0.007803996551082211,-0.00280146579041265,0.012310818177621145,23.31388015905395
1620,A,938058450501447.0,3.4322052,12.248093,3.028283089155593,99,1970-01-11 20:34:18.450501447,0.25527954,0.42230225,-0.020431519,12.765602386874413,0.4938869110093134,100.23529815673828,-22.550989151000977,121.65601348876953,23364234.0,50354.0,0.2340209375799,0.091595260381,0.20614249780554075,0.011423095624249681,0.0022200825130804258,0.011794909402872823,23.364234163076617
1620,A,938058500855451.0,2.5699615,12.163162,0.9922876891555936,99,1970-01-11 20:34:18.500855451,-0.33843994,0.45030212,-0.18951416,12.816083333843707,0.5943308919315935,100.20848083496094,-22.54566192626953,121.68182373046875,23414588.0,50354.0,0.15111655100590002,0.12113296713499999,0.10122591048554076,0.009696606550124687,0.005355858584170332,0.00773861441554456,23.414588167099282
1620,A,938058551209455.0,0.11567688,9.587173,-1.4086217108444066,99,1970-01-11 20:34:18.551209455,-0.26652527,-0.52627563,-0.7359314,11.061431977179833,0.9431843848296206,100.20320129394531,-22.50478744506836,121.66085052490234,23464942.0,50354.0,0.06761631749326,0.05413898429499996,-0.010482041664059244,0.005507037430203352,0.0044128219211531095,0.00228465838531844,23.464942171005532
1620,A,938058601563459.0,2.559204,8.888306,1.4185572891555935,99,1970-01-11 20:34:18.601563459,-0.47720337,0.34449768,-0.2372284,9.632347694287827,0.6345699501483657,100.34382629394531,-22.32267951965332,121.61570739746094,23515296.0,50354.0,0.06734547591576,-0.028312065217000037,0.00025014805514075427,0.0033979330726588964,0.0006502443416268042,-0.00025760838539174086,23.515296175028197
1620,A,938058651917463.0,0.5858002,7.6862946,3.182549489155593,99,1970-01-11 20:34:18.651917463,0.0554657,0.058258057,0.20796204,7.76388362757055,0.2229768040915172,100.34618377685547,-22.333433151245117,121.61678314208984,23565650.0,50354.0,0.07918177074339999,-0.07617048069380003,0.11584206535754075,0.0036891164891376714,-0.0026305570583962136,0.0029228536570910825,23.565650179050863
1620,A,938058702271466.0,1.5788574,6.321228,2.4852685891555932,99,1970-01-11 20:34:18.702271466,0.4112854,-0.51368713,0.47914124,6.714348058636702,0.8140064346487285,100.48489379882812,-22.136138916015625,121.54475402832031,23616004.0,50354.0,0.0544995843952,-0.14080180349980004,0.14269865575764076,0.003365695478324532,-0.005462711199142269,0.006509279735516925,23.61600418202579
1620,A,938058752625470.0,2.679596,7.988922,1.0954828891555937,99,1970-01-11 20:34:18.752625470,0.62631226,-1.0806427,0.18621826,8.948496027481902,1.2628273565484023,100.53852081298828,-22.13543701171875,121.4855728149414,23666358.0,50354.0,0.10721508125180002,-0.13318255345000007,0.09015257996944076,0.0040714901369945196,-0.006898104154925117,0.005862495561900732,23.666358186048456
1620,A,938058802979474.0,5.0523224,9.056686,2.4916009891555935,99,1970-01-11 20:34:18.802979474,0.022842407,-1.1235657,0.049835205,10.495750238158083,1.1249023092835375,100.55242156982422,-22.293231964111328,121.42916107177734,23716712.0,50354.0,0.19466650955680004,-0.06431192738400007,0.09031201080424077,0.007600472811788124,-0.004972318543957622,0.00454355700190898,23.71671219007112
1620,A,938058853333478.0,5.6619263,8.5634,3.8980035991555937,99,1970-01-11 20:34:18.853333478,-0.32876587,-0.73075867,0.018737793,10.268063758755918,0.8015275016763533,100.55076599121094,-22.28746223449707,121.3901596069336,23767066.0,50354.0,0.26975263951990003,-0.04984829477800007,0.16087107471991074,0.011692680916304078,-0.0028742119133726776,0.006324036544241563,23.767066194093786
1620,A,938058903687482.0,5.3507233,10.363571,3.1514978891555936,99,1970-01-11 20:34:18.903687482,-0.19284058,-0.4006958,-0.19732666,11.702472176405987,0.48650017901243575,100.42167663574219,-22.39898681640625,121.41902160644531,23817420.0,50354.0,0.2772654789792,-0.01694485113300004,0.17748529897121076,0.013772275169451844,-0.0016816510346012498,0.008518798420421365,23.817420198000036
1620,A,938058954041486.0,5.9482117,10.242004,2.2994470891555934,99,1970-01-11 20:34:18.954041486,-0.12974548,-0.07852173,0.056167603,11.981196039434833,0.16172306975007897,100.40735626220703,-22.584728240966797,121.41798400878906,23867774.0,50354.0,0.28447328649500003,0.025317361774999964,0.13723844171894076,0.014142896898343936,0.00021079470043363212,0.007923799619355945,23.8677742020227
1620,A,938059004395490.0,1.6903687,7.8603516,1.0880517891555934,99,1970-01-11 20:34:19.004395490,-0.08538818,0.43832397,0.36825562,8.588350615937411,0.5788188366163093,100.39550018310547,-22.606794357299805,121.43773651123047,23918128.0,50354.0,0.1923165387308,-0.03770619305880006,0.08528705925924075,0.012004137429709969,-0.0003119136052322351,0.005602524538127676,23.918128206045367
1620,A,938059054749494.0,1.3313141,14.105209,0.39429568915559354,99,1970-01-11 20:34:19.054749494,0.31687927,0.94880676,0.44396973,14.64641530704733,1.0944203309212157,100.39358520507812,-22.637189865112305,121.48394775390625,23968482.0,50354.0,0.07607690785559999,0.059557719226199964,0.037321062461440756,0.006757341804705793,0.0005501558743166274,0.0030869046805615985,23.968482210068032
1620,A,938059105125504.0,4.747635,12.63797,0.28229628915559335,99,1970-01-11 20:34:19.105125504,-0.016784668,0.43203735,0.25550842,14.031777952996762,0.5022176316755408,100.54875946044922,-22.585384368896484,121.44145202636719,24018858.0,50376.0,0.1531165699308,0.179922392652,0.017041998749702175,0.0057729253184838425,0.0060320250579881,0.001369296785786268,24.018858220078982
1620,A,938059155479508.0,4.3124695,6.92334,4.012383479155593,99,1970-01-11 20:34:19.155479508,-0.6075897,0.82321167,-0.045532227,8.157149268683746,1.0241659440080297,100.50137329101562,-22.59066390991211,121.48572540283203,24069212.0,50354.0,0.2281062509965,-0.0009740981300000644,0.10812715252677076,0.009598046962486633,0.004505381211180393,0.0031513837216877593,24.069212224101648
1620,A,938059205833512.0,1.0772095,5.3131104,3.4288721291555935,99,1970-01-11 20:34:19.205833512,0.0896759,1.3888092,-0.56489563,5.46352531145196,1.5019786396079495,100.47531127929688,-22.57553482055664,121.56525421142578,24119566.0,50354.0,0.135695948183,-0.18539208827920006,0.18734849245045074,0.009159447968742272,-0.004692141475224432,0.007439190313591506,24.119566228007898
1620,A,938059256187515.0,0.18136597,5.149124,3.0226678891555934,99,1970-01-11 20:34:19.256187515,0.43621826,1.185379,-0.5059509,5.265293267948747,1.3606601549282016,100.47098541259766,-22.561429977416992,121.63335418701172,24169920.0,50354.0,0.03168715460819,-0.23006152451120004,0.16243042304102076,0.004214204378973791,-0.010459875609223904,0.008806383755328778,24.16992023109924
1620,A,938059306541519.0,1.7961273,8.301392,3.4197626291555934,99,1970-01-11 20:34:19.306541519,0.45921326,0.9493103,-0.28053284,8.521280208889237,1.0912220388923528,100.4734878540039,-22.556264877319336,121.68666076660156,24220274.0,50354.0,0.04978734805879,-0.15482555866800005,0.16220107315952076,0.002051283553646556,-0.009690302093202721,0.008173247179841034,24.22027423500549
1620,A,938059356895523.0,3.2522736,11.572815,3.9515466891555935,99,1970-01-11 20:34:19.356895523,0.19288635,0.77394104,-0.0066223145,12.022132242691823,0.7976426094824304,100.46729278564453,-22.562965393066406,121.7279281616211,24270628.0,50354.0,0.1271035894593,0.006903709638999969,0.18558745470712076,0.004453583133892953,-0.0037242283930031352,0.008756271766098434,24.270628239028156
1620,A,938059407249527.0,4.678955,11.340851,3.9216241991555933,99,1970-01-11 20:34:19.407249527,0.36026,0.110061646,0.07928467,12.26955928194894,0.38495050645146345,100.2459945678711,-22.571060180664062,121.82410430908203,24320982.0,50354.0,0.19968454246220002,0.083428168882,0.19822282345501074,0.008227544797387607,0.0022742857055232163,0.009663191373287985,24.32098224305082
1620,A,938059457603531.0,5.0599976,9.847733,4.3094720991555935,99,1970-01-11 20:34:19.457603531,-0.1349945,0.45681763,0.110687256,11.073490805468007,0.4890373510785004,100.23030090332031,-22.580562591552734,121.84737396240234,24371336.0,50354.0,0.24519760961020004,0.03999577936799998,0.20723431150258076,0.011200797942726817,0.0031074447450902495,0.010208194286827283,24.371336247073486
1620,A,938059507957535.0,0.16584778,13.465363,-0.9573127108444064,99,1970-01-11 20:34:19.507957535,-0.11453247,0.12973022,-0.35585022,14.387362917866495,0.39569811187267206,100.22061157226562,-22.564208984375,121.85771179199219,24421690.0,50354.0,0.13157110913226,0.09348461799199996,0.08439731691951076,0.009485906031778917,0.003360635964332719,0.007342409508782999,24.42169025109615
1620,A,938059558311539.0,2.219757,7.554062,0.15982918915559363,99,1970-01-11 20:34:19.558311539,-0.24455261,-0.30326843,-0.25476074,8.807699647563977,0.46548980046594424,100.21365356445312,-22.54898452758789,121.84400939941406,24472044.0,50354.0,0.060062371546060006,0.035736863224999964,-0.02007824262555924,0.004824756143038063,0.003253409232600407,0.0016193613334988175,24.4720442550024
1620,A,938059608665543.0,1.5127869,8.863937,2.0666436891555935,99,1970-01-11 20:34:19.608665543,-0.031921387,0.41044617,0.015426636,9.220799858542726,0.41197453138992607,100.20372772216797,-22.553380966186523,121.86573028564453,24522398.0,50354.0,0.09397425777030001,-0.08011323917700004,0.056055907657240764,0.0038781802162979966,-0.001117264017343506,0.0009058096725026458,24.522398259025067
1620,A,938059659019547.0,1.2768555,7.283142,2.8565149891555937,99,1970-01-11 20:34:19.659019547,0.13916016,-0.3083954,0.36909485,7.499304911466231,0.5007037858543792,100.21834564208984,-22.56880760192871,121.84575653076172,24572752.0,50354.0,0.0702348267048,-0.08693419201700005,0.12395036604384077,0.004134292119829594,-0.0042057531751713405,0.004532017952972129,24.572752263047732
1620,A,938059709373551.0,2.7845612,6.7485657,2.4059839891555934,99,1970-01-11 20:34:19.709373551,0.38676453,-0.72776794,0.4232483,7.49614592417349,0.9264837287350786,100.3529052734375,-22.565223693847656,121.76499938964844,24623106.0,50354.0,0.10225428825590002,-0.14019289523710005,0.13249393677694077,0.004342758447365544,-0.005718378675796478,0.006456498212118818,24.623106267070398
1620,A,938059759727554.0,3.8993835,8.334747,2.4936303891555935,99,1970-01-11 20:34:19.759727554,0.39109802,-1.1473389,0.13450623,9.342263896719514,1.2196049108666065,100.41136932373047,-22.614137649536133,121.69682312011719,24673460.0,50354.0,0.1682816757119,-0.11371663615210004,0.12335759120274074,0.006811283964817301,-0.006392680271785891,0.006441573919944442,24.673460270045325
1620,A,938059810081558.0,5.141464,8.896225,3.2469110891555935,99,1970-01-11 20:34:19.810081558,-0.014511108,-1.1132202,-0.011627197,10.311069235052562,1.1133754881680773,100.3188247680664,-22.787145614624023,121.68182373046875,24723814.0,50354.0,0.2276214175075,-0.05964501795600005,0.14452961279944077,0.009967652177984834,-0.004364726365479636,0.0067445961351629245,24.72381427406799
1620,A,938059860435562.0,5.283432,9.576248,3.7140436391555935,99,1970-01-11 20:34:19.860435562,-0.15156555,-0.7367859,-0.11302185,10.944131610535315,0.7606572927166576,100.13733673095703,-22.931310653686523,121.71690368652344,24774168.0,50354.0,0.262467606592,-0.02838774727900006,0.17525595719469075,0.012338971359753113,-0.002216400930321598,0.00805124129574225,24.774168278090656
1620,A,938059910789566.0,6.9834595,10.073242,4.034813899155593,99,1970-01-11 20:34:19.910789566,-0.23834229,-0.27633667,-0.027999878,12.257414069458425,0.3659958955468598,100.13106536865234,-22.927501678466797,121.70240783691406,24824522.0,50354.0,0.3088435272955,0.0012460097299999673,0.19509298624206076,0.01438390041788559,-0.0006833475262711755,0.009324275348907094,24.82452228211332
1620,A,938059961143570.0,3.1790009,9.483124,1.6322870891555934,99,1970-01-11 20:34:19.961143570,0.08430481,-0.09950256,0.30451965,10.303521294886368,0.3312707014992606,100.25439453125,-22.819438934326172,121.64913177490234,24874876.0,50354.0,0.25586026549080004,-0.0010985732180000213,0.14268060158271076,0.014217547390980679,3.712009062622642e-06,0.008504125620664273,24.87487628601957
1620,A,938060011497574.0,1.9896545,11.028381,0.3202905891555936,99,1970-01-11 20:34:20.011497574,0.31472778,0.6441803,0.6086426,11.829080694508434,0.9404614021567173,100.2590560913086,-22.85511589050293,121.67764282226562,24925230.0,50354.0,0.1301312370058,0.022948961384999956,0.04916004820684076,0.0097181080583569,0.0005501272228805573,0.004829972039751539,24.925230290042236
1620,A,938060061851578.0,2.7662659,14.23735,-1.2320167108444062,99,1970-01-11 20:34:20.061851578,0.5089569,0.49201965,0.38064575,15.455264441960182,0.8037484986217983,100.27572631835938,-22.87823486328125,121.70023345947266,24975584.0,50354.0,0.11973980791080001,0.14264610938699995,-0.022954528565759236,0.006291003297865238,0.004169187096826643,0.0006597763680035095,24.9755842940649
1620,A,938060112205582.0,4.4409485,9.01503,2.9254083891555935,99,1970-01-11 20:34:20.112205582,-0.8614502,0.47045898,0.086517334,10.118805177330348,0.9853493532880345,100.1547622680664,-22.96605110168457,121.75121307373047,25025938.0,50354.0,0.1814560369488,0.09195597125999994,0.04263452228484076,0.00758320778603015,0.005906576584449517,0.0004954832018653156,25.025938298087567
1620,A,938060162559586.0,2.5836334,5.907852,3.5962305291555934,99,1970-01-11 20:34:20.162559586,-0.37335205,0.8153076,-0.36053467,6.468331423351872,0.9664902917924068,99.98825073242188,-22.971887588500977,121.84876251220703,25076292.0,50354.0,0.17685789849630001,-0.11775579988600006,0.16419530304632074,0.009021269952701284,-0.0006495622853168051,0.005207354512362654,25.076292302110232
1620,A,938060212913590.0,-0.26182556,5.4227295,3.6514368291555934,99,1970-01-11 20:34:20.212913590,0.03477478,0.76724243,-0.6008301,5.448171756071184,0.9751241155783008,99.97179412841797,-22.94895362854004,121.89545440673828,25126646.0,50354.0,0.05845615598768,-0.20819914957450003,0.18247452108020076,0.005924501949743166,-0.008206567762567011,0.008728106162033431,25.126646306016482
1620,A,938060263267594.0,1.2979889,6.8881073,3.8875513291555936,99,1970-01-11 20:34:20.263267594,0.2972107,0.56243896,-0.2801361,7.012787689887212,0.6950884968430866,99.9738998413086,-22.940025329589844,121.92816162109375,25177000.0,50354.0,0.026087484411179997,-0.18351926188640005,0.18980910486180078,0.0021285552343220985,-0.009862294445351081,0.009372984850341774,25.177000310039148
1620,A,938060313621597.0,3.3050995,8.930725,5.171868289155594,99,1970-01-11 20:34:20.313621597,0.3084259,0.35308838,0.04849243,9.581979555816547,0.4713273338659018,99.98214721679688,-22.945478439331055,121.94660186767578,25227354.0,50354.0,0.1158919566468,-0.09519845918290003,0.22808900773022078,0.0035746163875167627,-0.007017276063361769,0.010521420780729328,25.227354313014075
1620,A,938060363975601.0,5.5007935,12.011368,3.5943079191555936,99,1970-01-11 20:34:20.363975601,0.2957306,0.51524353,0.19828796,13.221009596369592,0.6262991282639491,99.80132293701172,-23.00495719909668,122.04470825195312,25277708.0,50354.0,0.22170596806100004,0.033789875460999964,0.22070601839665077,0.008499702950368282,-0.001546083912366278,0.011299312372796246,25.27770831703674
1620,A,938060414329605.0,3.8070984,11.3638,4.595864319155593,99,1970-01-11 20:34:20.414329605,0.19894409,0.16816711,-0.19470215,11.994515911678603,0.32521970273386375,99.80707550048828,-22.996807098388672,122.05552673339844,25328062.0,50354.0,0.23434479436630004,0.09504740473599993,0.20620396644396075,0.011481990045632134,0.0032437362035198664,0.010748312688332077,25.328062321059406
1620,A,938060464683609.0,2.3752594,13.734665,-1.431677710844407,99,1970-01-11 20:34:20.464683609,-0.3499298,0.22244263,-0.20872498,14.998859379824133,0.46421730455182014,99.78416442871094,-22.98841094970703,122.06935119628906,25378416.0,50354.0,0.1556532223306,0.13843485330499994,0.07966472623745074,0.009818980066377853,0.005878382810698254,0.007197316075639897,25.37841632508207
1620,A,938060515037613.0,1.0225372,7.3046722,0.6245965891555936,99,1970-01-11 20:34:20.515037613,-0.3424225,-0.23246765,-0.3184204,8.156880175321517,0.5221933817456255,99.770751953125,-22.97074317932129,122.05984497070312,25428770.0,50354.0,0.0855463249982,0.03623819268439993,-0.020319881400759257,0.006072681003097198,0.004397743278875121,0.0014941251584533817,25.428770329104736
1620,A,938060565391617.0,3.4492188,8.73938,2.2871332891555936,99,1970-01-11 20:34:20.565391617,-0.20292664,0.54389954,0.17906189,9.570148579718575,0.6075105688663147,99.80042266845703,-22.938379287719727,122.06758880615234,25479124.0,50354.0,0.11258540081200001,-0.08952809776060003,0.07330862314624076,0.004988362460723405,-0.00134167994010349,0.0013340975509259878,25.479124333010986
1620,A,938060615745621.0,0.5162201,9.094803,1.6124200891555933,99,1970-01-11 20:34:20.615745621,0.4402771,-0.20568848,0.30645752,9.444974041371891,0.5745153497981327,99.82783508300781,-22.95172691345215,122.05374908447266,25529478.0,50354.0,0.09983785518530001,-0.04445797460900001,0.09817905540574076,0.005348180316244023,-0.00337336734404942,0.004317545282903239,25.52947833703365
1620,A,938060666099625.0,2.2813568,6.44516,2.4826593891555935,99,1970-01-11 20:34:20.666099625,-0.05770874,-0.58729553,0.61257935,7.027439395997282,0.8505879133145444,99.95021057128906,-22.878192901611328,121.97352600097656,25579832.0,50354.0,0.07043459361130001,-0.10221955154900003,0.10310181602544075,0.004286949443351999,-0.0036929000760799672,0.0050676485000228574,25.579832341056317
1620,A,938060716453629.0,3.8239899,6.7951355,2.4250116891555935,99,1970-01-11 20:34:20.716453629,0.16226196,-1.0302582,0.42468262,7.976694654637196,1.126106669041768,100.07565307617188,-23.03522491455078,121.87763214111328,25630186.0,50354.0,0.1537143138659,-0.16011828019650007,0.12356043473864077,0.005643397043553465,-0.0066048795898564555,0.005706675487487281,25.630186345078982
1620,A,938060766807633.0,4.49115,8.128265,2.6941308891555935,99,1970-01-11 20:34:20.766807633,0.22332764,-1.408844,-0.022232056,9.393446539172189,1.4266081856760657,100.11128234863281,-23.159744262695312,121.80436706542969,25680540.0,50354.0,0.20935027726230002,-0.11774274561150003,0.12888465269414076,0.009140877210834692,-0.006995707046768019,0.006355809966295142,25.680540349101648
1620,A,938060817161637.0,5.2550354,9.261963,3.8181085891555933,99,1970-01-11 20:34:20.817161637,0.0013122559,-1.1291962,-0.17538452,10.652845847049784,1.1427359756153725,99.9382095336914,-23.305946350097656,121.8229751586914,25730894.0,50354.0,0.2453797098158,-0.05563542964400003,0.16395865334544077,0.011448736884665325,-0.004365142318407725,0.007372915916158545,25.730894353007898
1620,A,938060867515640.0,5.8612213,10.579666,4.485634819155593,99,1970-01-11 20:34:20.867515640,-0.29016113,-0.7601929,-0.09701538,12.100669631938631,0.8194502489656289,99.9394760131836,-23.294612884521484,121.78312683105469,25781248.0,50354.0,0.27987399493590004,0.006083493332999947,0.20906334779105076,0.013224312524533554,-0.001247569100502049,0.009391574922613447,25.78124835609924
1620,A,938060917869644.0,5.5551147,9.933594,2.1459131891555936,99,1970-01-11 20:34:20.917869644,-0.1496582,-0.5119934,0.23692322,11.549179979405157,0.5836672259481155,99.97318267822266,-23.438161849975586,121.74176025390625,25831602.0,50354.0,0.287429091472,0.022993147019999938,0.16696248420525076,0.014282989806491701,0.0007320625741674781,0.009467202372170884,25.83160236000549
1620,A,938060968223648.0,2.3824463,8.741867,0.4696892891555935,99,1970-01-11 20:34:20.968223648,-0.08312988,0.0013427734,0.46383667,9.763719941148285,0.47122907001362624,99.97074127197266,-23.461017608642578,121.73745727539062,25881956.0,50354.0,0.19984397329700002,-0.023277118403000074,0.06585302359644075,0.012268073951689114,-7.149547509794425e-06,0.005861596039923188,25.881956364028156
1620,A,938061018577652.0,3.589096,14.865173,-0.5755527108444065,99,1970-01-11 20:34:21.018577652,0.23220825,0.28608704,0.4927826,15.99332080479989,0.6153057424458057,99.97808074951172,-23.487754821777344,121.74815368652344,25932310.0,50354.0,0.15034552048709998,0.10088524607999996,-0.0026653233678592455,0.008816720885002287,0.0019539398305238264,0.001590876728654997,25.93231036805082
1620,A,938061068931656.0,4.8780823,10.530472,1.8109216891555935,99,1970-01-11 20:34:21.068931656,-0.7086334,-0.2157898,0.08137512,11.830510161549274,0.7452170445813853,100.00531005859375,-23.511903762817383,121.71280670166016,25982664.0,50354.0,0.21317814805910001,0.14591695416499997,0.031102884766940755,0.009152435402987678,0.006213738995568364,0.0007159724833446752,25.982664372073486
1620,A,938061119285660.0,3.5778809,6.2760468,3.4624719891555937,99,1970-01-11 20:34:21.119285660,-0.6328583,0.14334106,-0.31048584,7.253006577388382,0.7193453580870034,99.87126159667969,-23.64995765686035,121.76273345947266,26033018.0,50354.0,0.2128957854864,-0.07033147617240006,0.13276823263884077,0.010727263424875056,0.0019030155794196883,0.004125783122925362,26.03301837609615
1620,A,938061169639664.0,0.72335815,5.0607605,3.2472467891555934,99,1970-01-11 20:34:21.169639664,-0.24772644,0.45606995,-0.64212036,5.184075963556275,0.825643231120201,99.84663391113281,-23.622230529785156,121.79326629638672,26083372.0,50354.0,0.10829229556185,-0.20804240260790005,0.16893058968154076,0.008086552316551792,-0.007008619146051617,0.007595871249560246,26.0833723800024
1620,A,938061219993668.0,1.1498413,5.609741,4.159310359155594,99,1970-01-11 20:34:21.219993668,-0.053604126,0.46099854,-0.48005676,5.726605412724358,0.6677181658664478,99.83223724365234,-23.602519989013672,121.82252502441406,26133726.0,50354.0,0.04716154255265,-0.22481798373450004,0.18647488932303075,0.003913861282208767,-0.010898125946942607,0.008948043744898097,26.133726384025067
1620,A,938061270347672.0,3.8102112,9.158585,5.832436589155593,99,1970-01-11 20:34:21.270347672,0.08079529,0.6496124,-0.06478882,10.068399385501696,0.6578158863366987,99.82205200195312,-23.604875564575195,121.8580551147461,26184080.0,50354.0,0.1248792417925,-0.12164705629800004,0.25156221291763076,0.004331470827457841,-0.008722950312898256,0.011028460123113135,26.184080388047732
1620,A,938061320701676.0,5.190201,11.682587,3.3371057891555935,99,1970-01-11 20:34:21.320701676,0.30389404,0.81573486,0.03527832,12.8068181110361,0.8712172571917774,99.66920471191406,-23.623933792114258,121.96192932128906,26234434.0,50354.0,0.2266033779594,0.03124898744399997,0.23086156845874076,0.008849277917493587,-0.0022759521795371602,0.012145983543712907,26.234434392070398
1620,A,938061371055679.0,2.768341,10.393875,4.472222349155594,99,1970-01-11 20:34:21.371055679,0.07235718,0.38905334,-0.12413025,10.762404220288941,0.4147365209717737,99.66397857666016,-23.621082305908203,121.9839859008789,26284788.0,50354.0,0.200372211934,0.06234988377399995,0.19661545453826076,0.010749964426746132,0.002356538780655584,0.010762589007995508,26.284788395045325
1620,A,938061421409683.0,2.683609,13.588379,-0.5600957108444069,99,1970-01-11 20:34:21.421409683,-0.5795288,0.6887512,-0.24595642,14.616175934053716,0.933127218588171,99.6192398071289,-23.614721298217773,122.0232925415039,26335142.0,50354.0,0.13726374515,0.11033200895799995,0.09849561237276075,0.008500660491503869,0.004347612013313562,0.007430011331618789,26.33514239906799
1620,A,938061471763687.0,3.0332031,8.270294,-0.9612493108444067,99,1970-01-11 20:34:21.471763687,-0.11395264,-0.09036255,-0.45362854,10.163202324495225,0.47637112308367696,99.61384582519531,-23.59160614013672,122.02256774902344,26385496.0,50354.0,0.14393217824170002,0.05686661012099996,-0.038302903611059265,0.007079669763232832,0.004209559632551981,0.0015154718284933583,26.385496403090656
1620,A,938061522117691.0,2.765976,8.681442,1.7695702891555936,99,1970-01-11 20:34:21.522117691,-0.018051147,0.7821655,-0.06199646,9.406601305733597,0.7848262701711743,99.7378921508789,-23.435619354248047,122.0085220336914,26435850.0,50354.0,0.14600593220070002,-0.06667534272800003,0.020351097270940754,0.007299771806608306,-0.00024695446084644094,-0.00045197262822516376,26.43585040711332
1620,A,938061572471695.0,-0.40275574,8.516296,2.493401589155593,99,1970-01-11 20:34:21.572471695,0.46003723,0.17248535,0.24424744,8.677265917541853,0.5486731822289559,99.75811004638672,-23.449113845825195,122.01553344726562,26486204.0,50354.0,0.05949879648602001,-0.06048175037400001,0.10732884298024076,0.005173992554145551,-0.003201434133029055,0.0032145978557039973,26.48620441101957
1620,A,938061622825699.0,2.2266693,6.4836426,3.0326165891555936,99,1970-01-11 20:34:21.622825699,0.19360352,-0.3601532,0.6789551,6.939101674380174,0.7925734529005122,99.76905822753906,-23.361345291137695,121.99346923828125,26536558.0,50354.0,0.04592067170012001,-0.11581574586780004,0.13912855967534077,0.0026541459505224473,-0.0044386420628798,0.006205058026659577,26.536558415042236
1620,A,938061673179703.0,3.7046509,7.1312714,2.2825860891555934,99,1970-01-11 20:34:21.673179703,0.5836792,-1.1336517,0.34519958,8.240747354075976,1.320988393384933,99.93522644042969,-23.454011917114258,121.88506317138672,26586912.0,50354.0,0.1493328486754,-0.15068651022200005,0.13382085783184075,0.004915897882494468,-0.006709727301572897,0.006872047484578309,26.5869124190649
1620,A,938061723533707.0,4.999176,8.761368,2.7983178891555935,99,1970-01-11 20:34:21.723533707,0.30158997,-1.2811584,-0.120162964,10.1718919256811,1.321651426743234,99.9432144165039,-23.586503982543945,121.83094024658203,26637266.0,50354.0,0.21913624986129998,-0.09334021782620006,0.12792191946194076,0.009276946493858495,-0.0061438609320695345,0.006589897903925537,26.637266423087567
1620,A,938061773887711.0,5.7453003,8.745926,3.6511011291555935,99,1970-01-11 20:34:21.773887711,0.008132935,-0.91044617,-0.08711243,10.474160162171078,0.9146403383625107,99.9628677368164,-23.574344635009766,121.7828369140625,26687620.0,50354.0,0.27051367980510005,-0.05268805896200004,0.16237702262402076,0.012327916279210954,-0.003676553924696514,0.0073088564648982534,26.687620427110232
1620,A,938061824241715.0,5.59494,9.992493,4.071862239155593,99,1970-01-11 20:34:21.824241715,-0.07728577,-0.5094452,-0.21183777,11.452272380093023,0.5571200434790565,99.96914672851562,-23.559505462646484,121.7574691772461,26737974.0,50354.0,0.28551323003310003,-0.02169202483700003,0.19444104872397078,0.013999089508996363,-0.0018726673698074249,0.008983608582328384,26.737974431016482
1620,A,938061874595719.0,5.3684235,10.744003,1.3035516891555936,99,1970-01-11 20:34:21.874595719,0.1824646,-0.26286316,0.23472595,12.333527742879106,0.39684586773928754,100.09911346435547,-23.626483917236328,121.69537353515625,26788328.0,50354.0,0.27602460283950003,0.028613559791999938,0.13533679647309077,0.014137838018233453,0.00017426348556203272,0.008302816808526419,26.788328435039148
1620,A,938061924949722.0,2.1044006,9.107574,0.4394769891555934,99,1970-01-11 20:34:21.924949722,0.07727051,0.12591553,0.5814514,10.041467642490934,0.5999259812450207,100.10250091552734,-23.65620994567871,121.69657135009766,26838682.0,50354.0,0.1881432923657,0.006333954128999938,0.04388423303384076,0.011686355097581322,0.0008798735579890138,0.004512247859896015,26.838682438014075
1620,A,938061975303726.0,2.2114868,13.605347,0.42423348915559345,99,1970-01-11 20:34:21.975303726,0.2916565,0.41461182,0.6201935,14.267545960678651,0.8010034036870333,100.11051177978516,-23.69037437438965,121.7129135131836,26889036.0,50354.0,0.1086610970698,0.07837401201699996,0.021745638712440753,0.007472644112817583,0.00213269246365784,0.00165236328095613,26.88903644203674
1620,A,938062025657730.0,4.9181213,10.905594,1.0799798891555934,99,1970-01-11 20:34:22.025657730,-0.19390869,-0.07008362,0.07888794,12.34042144436909,0.220761411771315,100.23777770996094,-23.690839767456055,121.65409088134766,26939390.0,50354.0,0.17950214313370003,0.12364276155699999,0.037871580225740754,0.007255085898603521,0.005086176308272597,0.0015009827212065958,26.939390446059406
1620,A,938062076011734.0,3.562851,7.0026855,3.1074762891555934,99,1970-01-11 20:34:22.076011734,-0.47546387,0.23291016,-0.43821716,7.920330388552756,0.6872752822741904,100.15577697753906,-23.74769401550293,121.69157409667969,26989744.0,50354.0,0.21352543959710005,-0.04259244702850002,0.10542758420134077,0.009895255450413355,0.002040603768884044,0.0036078430627806317,26.98974445008207
1620,A,938062126365738.0,0.92137146,4.9429626,3.2875146891555933,99,1970-01-11 20:34:22.126365738,-0.16358948,0.48579407,-0.8128357,5.094530566873856,0.9609678827142588,100.13394165039062,-23.711965560913086,121.72551727294922,27040098.0,50354.0,0.11289926887542,-0.19271361778630003,0.16100668786094074,0.008218394885212638,-0.005924300793842221,0.006708015667712063,27.040098454104736
1620,A,938062176719742.0,0.6540222,6.0978546,3.4416284891555935,99,1970-01-11 20:34:22.176719742,-0.031311035,0.26158142,-0.6380768,6.1688743130940376,0.6903239984965232,100.124267578125,-23.682859420776367,121.74571228027344,27090452.0,50354.0,0.039663686177820005,-0.21549454535560006,0.16941963780034075,0.0038410775193754238,-0.01027745692342362,0.008319143601174086,27.090452458010986
1620,A,938062227073746.0,2.4865112,8.124542,5.0070886891555935,99,1970-01-11 20:34:22.227073746,0.09841919,0.2164917,-0.11172485,8.54401038030335,0.2627497578241864,100.12408447265625,-23.67926025390625,121.75841522216797,27140806.0,50354.0,0.0790692094118,-0.13539192080180004,0.21271335239834074,0.0029893381122598627,-0.008834268558444863,0.009620962294232205,27.14080646203365
1620,A,938062277427750.0,5.7768707,12.093933,3.7838068191555934,99,1970-01-11 20:34:22.277427750,0.17669678,0.57014465,0.20527649,13.40672413045834,0.6312092452845657,99.91043853759766,-23.746124267578125,121.87191772460938,27191160.0,50354.0,0.20804716609629997,0.01557134507499996,0.22132837621275078,0.0072287289861674335,-0.003016722635073646,0.010927868601241453,27.191160466056317
1620,A,938062327781754.0,2.082611,12.430359,3.7816095591555934,99,1970-01-11 20:34:22.327781754,0.039916992,0.12557983,-0.0770874,12.607827819707285,0.15266344418988118,99.909423828125,-23.7434139251709,121.87940216064453,27241514.0,50354.0,0.1978781707609,0.12397889968399994,0.19047448815674076,0.010219982206053725,0.0035134565122973407,0.010367960716230688,27.241514470078982
1620,A,938062378135758.0,1.8609619,13.6289215,-1.117804710844407,99,1970-01-11 20:34:22.378135758,-0.60414124,0.07095337,-0.29232788,14.714444585623266,0.6748900710548267,99.87657165527344,-23.7296199798584,121.8859634399414,27291868.0,50354.0,0.09928733490330001,0.16262530514849996,0.06706661466593075,0.0074817359361075645,0.007215834065067851,0.006484112345766401,27.291868474101648
1620,A,938062428489762.0,3.1841125,8.062607,-0.5724247108444063,99,1970-01-11 20:34:22.428489762,-0.5328522,-0.6030731,-0.4464264,9.851205427283974,0.9202853696573743,99.8613052368164,-23.702463150024414,121.85769653320312,27342222.0,50354.0,0.1270198381688,0.05265841304449998,-0.04255490614985925,0.005697735696436263,0.005420198172945159,0.0006171312853091322,27.342222478007898
1620,A,938062478843765.0,2.7416534,8.69783,2.4200525891555937,99,1970-01-11 20:34:22.478843765,-0.33184814,0.66337585,0.054367065,9.274508865021675,0.7437381825221805,99.85977935791016,-23.54857063293457,121.88114166259766,27392576.0,50354.0,0.1491930080643,-0.07149167765100005,0.04651772709224077,0.006954210829610759,-0.00047416510299785224,9.97719428663395e-05,27.39257648109924
1620,A,938062529197769.0,0.89079285,7.6176453,2.441216489155593,99,1970-01-11 20:34:22.529197769,0.470932,0.07647705,0.3924713,7.8484811796127705,0.6177858926233203,99.88314056396484,-23.56855583190918,121.88157653808594,27442930.0,50354.0,0.09145409923625,-0.08269447837190004,0.12239217158464076,0.006058772220505947,-0.003881944850188556,0.0042526445189878465,27.44293048500549
1620,A,938062579551773.0,1.9970245,6.746994,2.2301111891555934,99,1970-01-11 20:34:22.579551773,0.23356628,-0.24220276,0.46871948,7.282497075220659,0.5769864253482281,100.0499496459961,-23.401405334472656,121.80516052246094,27493284.0,50354.0,0.07270657742094999,-0.13181067634390004,0.11761001695684076,0.0041330733561983244,-0.0054005962802796985,0.006042535100908881,27.493284489028156
1620,A,938062629905777.0,2.9957733,7.2762146,2.1812524891555936,99,1970-01-11 20:34:22.629905777,0.29803467,-0.75271606,0.2605133,8.1011437279533,0.8504547671574441,100.20262908935547,-23.366933822631836,121.71438598632812,27543638.0,50354.0,0.1257036702106,-0.14040687707780003,0.11106490332884075,0.0049953748046195345,-0.0068536213424981425,0.005757348468032604,27.54363849305082
1620,A,938062680259781.0,4.8569946,8.36618,2.7471246891555934,99,1970-01-11 20:34:22.680259781,0.1055603,-1.0959625,-0.041381836,9.769037146979631,1.1018117964031202,100.2082748413086,-23.516094207763672,121.6650619506836,27593992.0,50354.0,0.1977091374183,-0.09964063115580003,0.12408175221834077,0.008142564257672817,-0.006043676114797349,0.005920287346711389,27.593992497073486
1620,A,938062730613785.0,5.766876,8.793106,3.4271936891555934,99,1970-01-11 20:34:22.730613785,0.013687134,-0.876297,-0.17106628,10.537477845322995,0.8929431348071233,100.22704315185547,-23.499902725219727,121.61968231201172,27644346.0,50354.0,0.2674771900962,-0.061449856378000045,0.15545081381074075,0.01171199616783257,-0.004055775204638484,0.007037791414914185,27.64434650109615
1620,A,938062780967789.0,5.5833282,10.450806,4.014763849155593,99,1970-01-11 20:34:22.780967789,-0.1465149,-0.39907837,-0.19064331,11.849114175739919,0.4659131174066931,99.99479675292969,-23.60926055908203,121.693115234375,27694700.0,50354.0,0.2857640911434,-0.008965227576000039,0.18736616494206074,0.013928955737769411,-0.0017728405687098604,0.008631103074059284,27.6947005050024
1620,A,938062831321793.0,5.5518646,10.3550415,1.3247002891555937,99,1970-01-11 20:34:22.831321793,0.10411072,-0.24435425,0.28588867,12.074529670841198,0.39023117910586,100.12860107421875,-23.717178344726562,121.62820434570312,27745054.0,50354.0,0.28035074912560004,0.03035962250749998,0.13443168861026075,0.014253073333452616,0.000538646681190374,0.008101904558886798,27.745054509025067
1620,A,938062881675797.0,1.8975525,8.786591,0.6420678891555935,99,1970-01-11 20:34:22.881675797,0.04399109,0.40733337,0.45936584,9.634021229677336,0.6155263319094079,100.12376403808594,-23.743371963500977,121.64569091796875,27795408.0,50354.0,0.1875539743267,-0.011540318547500036,0.049517322425340765,0.01178043722235856,0.00047381361580091857,0.004631284250843339,27.795408513047732
1620,A,938062932029801.0,2.4727325,14.023956,-0.10828301084440639,99,1970-01-11 20:34:22.932029801,0.53544617,0.5445862,0.59194946,14.85122515849734,0.9662716457562027,100.14102935791016,-23.777297973632812,121.66929626464844,27845762.0,50354.0,0.11003066544500001,0.08083194181899996,0.01343910188124076,0.007492288475532092,0.0017445551991065536,0.001585053894766803,27.845762517070398
1620,A,938062982383804.0,4.5269165,10.80069,0.7685174891555935,99,1970-01-11 20:34:22.982383804,-0.16268921,-0.0031433105,0.06565857,12.177722722203207,0.17546711163568063,100.31121826171875,-23.735591888427734,121.5968017578125,27896116.0,50354.0,0.176230162873,0.13154091234199997,0.016622723460440757,0.007207188874562287,0.005346911349211496,0.0007568665766275156,27.896116520045325
1620,A,938063032737808.0,3.1147614,6.3824463,3.5007257891555934,99,1970-01-11 20:34:23.032737808,-0.4744873,0.29959106,-0.36186218,7.127803276455229,0.6677104450340476,100.15980529785156,-23.776660919189453,121.66468811035156,27946470.0,50354.0,0.1923945244883,-0.06084937737490006,0.10748673801804076,0.00928086375369545,0.0017798007758666743,0.0031247039116437296,27.94647052406799
1620,A,938063083091812.0,1.3040619,4.923584,3.1222620191555936,99,1970-01-11 20:34:23.083091812,-0.06324768,0.5324249,-0.6709442,5.187776421720695,0.8588612592724348,100.173095703125,-23.518999099731445,121.6874771118164,27996824.0,50354.0,0.1112527142241,-0.20881727513690004,0.16674696404985076,0.007644926529062096,-0.006789397310289592,0.006904381916963306,27.996824528090656
1620,A,938063133445816.0,1.054718,5.8810425,3.5165643891555933,99,1970-01-11 20:34:23.133445816,0.122787476,0.59687805,-0.5578613,6.004026974861511,0.8261654803197379,100.16431427001953,-23.496810913085938,121.7248764038086,28047178.0,50354.0,0.059387001542300005,-0.22144111860950003,0.16714573248205078,0.004296196123850654,-0.010832615579353114,0.008406416420583686,28.04717853211332
1620,A,938063183799820.0,3.3329315,9.288834,5.114083289155594,99,1970-01-11 20:34:23.183799820,0.24258423,0.8122864,-0.1270752,9.919879248930616,0.8572073324025483,100.15857696533203,-23.497718811035156,121.76968383789062,28097532.0,50354.0,0.11046785146150001,-0.11153721935950005,0.21729381659684074,0.004276435634076673,-0.008383395615045515,0.009679034527159253,28.09753253601957
1620,A,938063234153824.0,5.44252,12.375153,2.3544549891555935,99,1970-01-11 20:34:23.234153824,0.32614136,0.8348541,0.05718994,13.6322680898808,0.8981203951735331,100.10487365722656,-23.50904083251953,121.83483123779297,28147886.0,50354.0,0.22093954241549998,0.05196500069899994,0.18803538823304078,0.00834384395564123,-0.0014998497492154114,0.01020497339000193,28.147886540042236
1620,A,938063284507828.0,2.7614594,12.0060425,3.2687311391555935,99,1970-01-11 20:34:23.284507828,-0.018096924,0.2725067,-0.13615417,12.34804884534121,0.30516447730943497,100.09761810302734,-23.504730224609375,121.85077667236328,28198240.0,50354.0,0.2065515893538,0.12037615910349994,0.14157495715249077,0.010762944224555666,0.004339033380347539,0.008298599665771528,28.1982405440649
1620,A,938063334861832.0,1.610321,12.151627,-1.134802710844407,99,1970-01-11 20:34:23.334861832,-0.6907959,0.2531433,-0.21554565,13.331815373225432,0.7666423110066536,100.05683135986328,-23.496328353881836,121.86641693115234,28248594.0,50354.0,0.11006831513080002,0.11474844500149994,0.053725916039590746,0.007971539335208775,0.0059197321575515825,0.004917090084357036,28.248594548087567
1620,A,938063385215836.0,2.7829742,8.086853,0.8430414891555933,99,1970-01-11 20:34:23.385215836,-0.4104309,0.007583618,-0.3759613,9.154183178727214,0.5566488426597777,100.03472900390625,-23.47788429260254,121.87039947509766,28298948.0,50354.0,0.1106099932504,0.016075010959999945,-0.007345672278459263,0.005556017770113473,0.0032937421507426828,0.0011677153971740074,28.298948552110232
1620,A,938063435569840.0,2.1279297,8.599197,2.442330389155593,99,1970-01-11 20:34:23.435569840,0.04244995,0.53718567,0.016571045,9.013722198556971,0.5391150543629285,100.04993438720703,-23.239084243774414,121.88932037353516,28349302.0,50354.0,0.1236418274903,-0.07336451915000004,0.08271580778024075,0.005897758090788604,-0.0014423779476996326,0.0018975939015283526,28.349302556016482
1620,A,938063485923844.0,0.6943207,7.261017,2.0239342891555934,99,1970-01-11 20:34:23.485923844,0.4603119,-0.0209198,0.33598328,7.585898138674582,0.5702713807944498,100.07466125488281,-23.25543975830078,121.88500213623047,28399656.0,50354.0,0.07105579832080001,-0.09415659212200005,0.11244714580584075,0.004901902125046065,-0.004217679018495147,0.004913617682436774,28.399656560039148
1620,A,938063536277847.0,1.5696564,6.4496613,1.7898340891555935,99,1970-01-11 20:34:23.536277847,0.3078308,-0.25987244,0.44006348,7.030910340920931,0.5966149117562384,100.09721374511719,-23.27482795715332,121.86688995361328,28450010.0,50354.0,0.0570001514467,-0.14827545244090004,0.09601924646074075,0.003224064647296348,-0.006103711585960136,0.005248558358095723,28.450010563014075
1620,A,938063586631851.0,3.7865295,7.857132,2.3478479891555937,99,1970-01-11 20:34:23.586631851,0.26533508,-0.79000854,0.301651,8.897687078804735,0.8862897515781947,100.19058990478516,-23.330974578857422,121.79703521728516,28500364.0,50354.0,0.1348526924043,-0.13326706508590005,0.10417442168564076,0.004830279049636628,-0.007088395963772247,0.005040275982921448,28.50036456703674
1620,A,938063636985855.0,5.9127502,9.061478,3.0288934891555934,99,1970-01-11 20:34:23.636985855,0.054031372,-1.13031,0.026641846,10.873567534133517,1.1319142517074736,100.2173843383789,-23.3222713470459,121.7362060546875,28550718.0,50354.0,0.24419876500690002,-0.06750935603000006,0.13537022019944076,0.009543378543241785,-0.005054947954435017,0.006031015448740697,28.550718571059406
1620,A,938063687339859.0,5.2402954,9.035217,3.5715265491555934,99,1970-01-11 20:34:23.687339859,-0.11579895,-0.83592224,-0.109954834,10.458639951243446,0.8510378685274163,100.06843566894531,-23.481191635131836,121.7562026977539,28601072.0,50354.0,0.2808002290712,-0.03784870998500007,0.16617877530456077,0.013217899673904325,-0.0026526000280596585,0.007592099059804246,28.60107257508207
1620,A,938063737693863.0,5.816986,9.417969,3.9225244691555936,99,1970-01-11 20:34:23.737693863,-0.29312134,-0.3760376,-0.06440735,11.071119905082833,0.4811161016960232,100.06157684326172,-23.474733352661133,121.73662567138672,28651426.0,50354.0,0.27838917380780004,-0.028873336078000068,0.18867772248802075,0.014078711596284587,-0.0016798609537281546,0.008934222044923825,28.651426579104736
1620,A,938063788047867.0,3.4882813,9.783127,1.2015162891555935,99,1970-01-11 20:34:23.788047867,0.035583496,-0.38078308,0.38806152,10.785297324529338,0.544842805317808,100.23965454101562,-23.37885284423828,121.64623260498047,28701780.0,50354.0,0.23427871481210003,-0.010043206008000044,0.12900797417200077,0.012907439431783225,-0.0009798017800992248,0.007998372784809363,28.701780583010986
1620,A,938063838401871.0,1.8173676,10.635025,-0.5877905108444068,99,1970-01-11 20:34:23.838401871,0.2375946,0.41722107,0.6930237,11.766591897979959,0.8430933898227377,100.24531555175781,-23.416664123535156,121.6618881225586,28752134.0,50354.0,0.1335803223553,0.020598612903999988,0.015451773920540748,0.009261586978763631,0.0002657534794205906,0.0036370630777259184,28.75213458703365
1620,A,938063888755875.0,3.050644,14.512665,0.07666878915559305,99,1970-01-11 20:34:23.888755875,0.21292114,0.23466492,0.44737244,15.367881281466657,0.548219971005307,100.252685546875,-23.440759658813477,121.6701431274414,28802488.0,50354.0,0.1225619280532,0.13967419112999999,-0.012868511586959265,0.0064488934385348055,0.004035188387164017,6.5038795772581e-05,28.802488591056317
1620,A,938063939109879.0,5.7437286,10.183975,2.7938012891555934,99,1970-01-11 20:34:23.939109879,-0.6788788,-0.068237305,-0.032989502,11.765613766768777,0.6830966711420214,100.15098571777344,-23.583410263061523,121.69438934326172,28852842.0,50354.0,0.2214159189502,0.12831810527999998,0.07226982516164075,0.008660330254004603,0.00674724204671457,0.0014955468718697558,28.852842595078982
1620,A,938063989463883.0,2.9153137,5.6946716,3.8879480591555935,99,1970-01-11 20:34:23.989463883,-0.34796143,0.35888672,-0.3874054,6.401293465479164,0.632423733353804,99.93196868896484,-23.659889221191406,121.79450225830078,28903196.0,50354.0,0.2180087079871,-0.09369251455180003,0.16822640334243077,0.011063393832400403,0.0008717684977638903,0.006054973545047009,28.903196599101648
1620,A,938064039817887.0,0.576416,4.4858704,3.1681451891555934,99,1970-01-11 20:34:24.039817887,0.14537048,0.46174622,-0.62757874,4.619279832202696,0.7925889369904846,99.92691802978516,-23.632965087890625,121.82524108886719,28953550.0,50354.0,0.0879112786569,-0.23715369406600006,0.17765125971273077,0.007702147503735988,-0.008329714994370354,0.008708161922739802,28.953550603007898
1620,A,938064090171890.0,1.3586426,6.555496,4.041298889155594,99,1970-01-11 20:34:24.090171890,0.2107544,0.541214,-0.4876709,6.695134430777721,0.7583883685963083,99.9239501953125,-23.613605499267578,121.85891723632812,29003904.0,50354.0,0.04871897037220001,-0.21548071814720007,0.18151217355964078,0.003439939779805651,-0.01139597659629174,0.0090426577594985,29.00390460609924
1620,A,938064140525894.0,3.9023285,9.456741,4.934029589155593,99,1970-01-11 20:34:24.140525894,0.33746338,0.6540985,-0.084732056,10.263586487429846,0.7408818406853157,99.92643737792969,-23.61507797241211,121.89488220214844,29054258.0,50354.0,0.13245546938470001,-0.09032910905100007,0.2259718450984408,0.004561428869759472,-0.0076993740193690855,0.010259225137754522,29.05425861000549
1620,A,938064190879898.0,4.432968,12.379547,2.4563531891555934,99,1970-01-11 20:34:24.190879898,0.41184998,0.6849365,0.11038208,13.252577037932125,0.8068101503100817,99.87289428710938,-23.525096893310547,121.95457458496094,29104612.0,50354.0,0.20985775998050002,0.05630302297599996,0.18606766720954077,0.008618420175727642,-0.0008566747691102777,0.010373918801378052,29.104612614028156
1620,A,938064241233902.0,3.958435,11.918991,3.7944879691555933,99,1970-01-11 20:34:24.241233902,0.0059814453,0.3653717,-0.07635498,12.56302328199938,0.37331265692388105,99.64952087402344,-23.401256561279297,122.06072998046875,29154966.0,50354.0,0.21127035333100003,0.11829509122599999,0.15737742784280076,0.010602742508843637,0.004395856721263753,0.008646917158132804,29.15496661805082
1620,A,938064291587906.0,1.2945862,12.518951,-1.6800451108444063,99,1970-01-11 20:34:24.291587906,-0.45503235,0.14079285,-0.44702148,13.852660307912744,0.65322681339565,99.62213897705078,-23.380393981933594,122.07235717773438,29205320.0,50354.0,0.13225531475240002,0.12180486573399996,0.053235327843700754,0.008648945745335763,0.006044996616381919,0.005302597349919049,29.205320622073486
1620,A,938064341941910.0,2.2511444,7.899109,0.28611088915559346,99,1970-01-11 20:34:24.341941910,-0.30400085,0.079559326,-0.47331238,9.059076875385777,0.5681292214061526,99.60354614257812,-23.357725143432617,122.08094787597656,29255674.0,50354.0,0.0892708593162,0.02059629661999998,-0.03509508189945924,0.0055773644845251436,0.003585234064586657,0.00045671697213816854,29.25567462609615
1620,A,938064392295914.0,1.3060303,8.396744,2.2212152891555936,99,1970-01-11 20:34:24.392295914,-0.0065307617,0.4558258,-0.044052124,8.704552580904897,0.4579960703138549,99.59335327148438,-23.35935401916504,122.10582733154297,29306028.0,50354.0,0.08955898742190001,-0.08318850901900003,0.06312695119134076,0.0045023990513251445,-0.0015758841315696244,0.0007057583731617011,29.3060286300024
1620,A,938064442649918.0,0.29229736,7.838318,2.0497369891555937,99,1970-01-11 20:34:24.442649918,0.28826904,-0.30334473,0.4262848,8.109205194744247,0.5973573430973579,99.61575317382812,-23.37783432006836,122.08564758300781,29356382.0,50354.0,0.04024109549582,-0.08471904402600004,0.10752976551104075,0.0032679766876194363,-0.004227408463013967,0.00429662415641586,29.356382634025067
1620,A,938064493003922.0,1.9077454,6.72229,1.7703790891555933,99,1970-01-11 20:34:24.493003922,0.17782593,-0.7538452,0.56121826,7.368241568186293,0.9564886733782227,99.64276123046875,-23.399198532104492,122.0400619506836,29406736.0,50354.0,0.05539047656852,-0.12687677238400002,0.09617906250364076,0.0024077160898638883,-0.005327347869754573,0.005128777162925637,29.406736638047732
1620,A,938064543357926.0,3.914505,8.06282,2.249245689155593,99,1970-01-11 20:34:24.543357926,0.10423279,-1.309021,0.34825134,9.153450902149176,1.3585578562446208,99.75933074951172,-23.454153060913086,121.93388366699219,29457090.0,50354.0,0.1465867983208,-0.12122448553000004,0.10120209304354075,0.00508518184988841,-0.00624644537050078,0.004969465353211389,29.457090642070398
1620,A,938064593711929.0,5.6234436,8.858429,3.1554498891555935,99,1970-01-11 20:34:24.593711929,-0.041519165,-1.4102478,0.09408569,10.535717948372607,1.4139925090077081,99.70431518554688,-23.667078018188477,121.89056396484375,29507444.0,50354.0,0.2401369319022,-0.06744291392700005,0.13607402057514076,0.00973654335582447,-0.004750079116128891,0.005973900712577545,29.507444645045325
1620,A,938064644065933.0,5.9257813,9.090012,4.179085749155593,99,1970-01-11 20:34:24.644065933,-0.29197693,-0.8113098,-0.048446655,10.851189859075458,0.8636094010656403,99.7070541381836,-23.657846450805664,121.84735870361328,29557798.0,50354.0,0.2907748353073,-0.04158130094300006,0.18466160376576077,0.01336676556303358,-0.002744902657781993,0.008075160814030879,29.55779864906799
1620,A,938064694419937.0,5.699463,9.352386,3.756096859155593,99,1970-01-11 20:34:24.694419937,-0.32954407,-0.41786194,-0.11685181,10.95785164880432,0.5448506588717725,99.69916534423828,-23.648571014404297,121.8259506225586,29608152.0,50354.0,0.29268877574109997,-0.029144945554000063,0.19978409252945076,0.014689863335365566,-0.0017806747080549724,0.009679189295624542,29.608152653090656
1620,A,938064744773941.0,3.1442719,8.971344,2.1002130891555937,99,1970-01-11 20:34:24.744773941,-0.14958191,-0.2848053,0.26158142,9.716007893747888,0.4146247050002623,99.77391815185547,-23.54071044921875,121.77815246582031,29658506.0,50354.0,0.2226587135773,-0.03213264979000005,0.14744431556863077,0.012974903738569358,-0.001542786017975891,0.008742169630685399,29.65850665711332
1620,A,938064795127945.0,2.2987518,11.370636,-0.5905827108444068,99,1970-01-11 20:34:24.795127945,0.22702026,0.39169312,0.599823,12.51590805402865,0.7514980572395393,99.77906036376953,-23.573585510253906,121.79365539550781,29708860.0,50354.0,0.1370390076949,0.018680830459999954,0.03800796403474075,0.00905610952847018,-0.00033867645527141247,0.004669132043574085,29.70886066101957
1620,A,938064845481949.0,4.6578827,15.324982,-0.8659887108444062,99,1970-01-11 20:34:24.845481949,0.20455933,0.2527771,0.33151245,16.771610102192316,0.464371926670273,99.78507995605469,-23.592071533203125,121.8041763305664,29759214.0,50354.0,0.17514718680650002,0.17864637438599998,-0.03667209868385925,0.007859911818961748,0.004968107036407741,3.36330819391436e-05,29.759214665042236
1620,A,938064895835953.0,5.968155,9.54509,3.6634912691555934,99,1970-01-11 20:34:24.895835953,-0.87008667,0.332489,0.00819397,11.266090452326523,0.9314863872204734,99.73445892333984,-23.595298767089844,121.82199096679688,29809568.0,50354.0,0.26753175117290007,0.13268460274399999,0.07043272191060077,0.011145327621507356,0.007838380011202009,0.0008499912109796713,29.8095686690649
1620,A,938064946189957.0,2.2303467,5.0802,3.482766189155593,99,1970-01-11 20:34:24.946189957,-0.26190186,0.78300476,-0.5013733,5.583298072787812,0.9659524959370452,99.63458251953125,-23.57647705078125,121.89593505859375,29859922.0,50354.0,0.20641367730090004,-0.12524827367000005,0.17992132402790076,0.011932524052684867,0.0001872244570960964,0.0063031638145936535,29.859922673087567
1620,A,938064996543961.0,-0.4718933,4.096298,3.2377405391555936,99,1970-01-11 20:34:24.996543961,0.124801636,0.7837982,-0.68081665,4.214129444820063,1.0456703006152268,99.6214828491211,-23.549468994140625,121.94430541992188,29910276.0,50354.0,0.0442725812518,-0.2624325098540001,0.16920219789869076,0.006311527931581329,-0.009760639086783752,0.008789882911545794,29.910276677110232
1620,A,938065046897965.0,0.7241821,6.0159607,3.7407159891555937,99,1970-01-11 20:34:25.046897965,0.32392883,0.58096313,-0.36964417,6.070484389572103,0.7609762530720356,99.62387084960938,-23.536104202270508,121.9789047241211,29960630.0,50354.0,0.006351875117600002,-0.23887286271010005,0.17569660001329077,0.0012745719380123839,-0.01262136536504635,0.00868351703502996,29.960630681016482
1620,A,938065097251969.0,3.8776398,9.924133,5.617012989155594,99,1970-01-11 20:34:25.097251969,0.27020264,0.6358948,0.050735474,10.761181306395851,0.6927811715484293,99.6239013671875,-23.543912887573242,122.01264953613281,30010984.0,50354.0,0.11586006997630001,-0.09214546091510006,0.23559954248694076,0.003076930141629121,-0.008334048333911664,0.010355202979728329,30.010984685039148
1620,A,938065147605972.0,5.5308533,12.504791,2.0704432891555933,99,1970-01-11 20:34:25.147605972,0.57395935,0.5080261,0.14399719,13.824250002970793,0.7799070742476495,99.63292694091797,-23.55626678466797,122.0423583984375,30061338.0,50354.0,0.23687763077870005,0.07122381954799997,0.19354708671904075,0.008880877091908638,-0.000526744164699479,0.010804624683518997,30.061338688014075
1620,A,938065197959976.0,4.3794403,11.674011,4.935006189155594,99,1970-01-11 20:34:25.197959976,0.061340332,0.1199646,-0.03314209,12.49586871529356,0.1387535214421541,99.63330078125,-23.555635452270508,122.04911804199219,30111692.0,50354.0,0.2495114619672,0.115280497954,0.17637620151544076,0.012245818188063525,0.0046956192017478535,0.009313558627879541,30.11169269203674
1620,A,938065248313980.0,2.3835754,12.794495,-0.8457707108444064,99,1970-01-11 20:34:25.248313980,-0.3834381,0.3930664,-0.19334412,13.925365134723547,0.5821579854980471,99.60498809814453,-23.549386978149414,122.07201385498047,30162046.0,50354.0,0.1702724462789,0.12257437556199996,0.10295468163744077,0.01056889945791206,0.005988472150512332,0.007032713645140098,30.162046696059406
1620,A,938065298667984.0,0.26057434,7.622177,0.18268678915559367,99,1970-01-11 20:34:25.298667984,-0.2348175,-0.04421997,-0.45462036,8.57729168522009,0.5135896570021445,99.59253692626953,-23.52660369873047,122.07376861572266,30212400.0,50354.0,0.06657175800397999,0.020561350943999926,-0.016694463896359236,0.00596302653123007,0.003603728186241559,0.00217177350206721,30.21240070008207
1620,A,938065349021988.0,3.441269,8.7977295,2.4576501891555935,99,1970-01-11 20:34:25.349021988,-0.2956848,0.645874,0.04586792,9.589812517889893,0.7118192122387301,99.59025573730469,-23.471920013427734,122.0976333618164,30262754.0,50354.0,0.09320130977118,-0.08006521404950002,0.06647576410294076,0.004022606527375203,-0.001498128761407176,0.001253343795301103,30.262754704104736
1620,A,938065399375992.0,0.85661316,8.2314,2.2170343891555935,99,1970-01-11 20:34:25.399375992,0.38467407,0.0032043457,0.3468628,8.489036063110676,0.5179751055654799,99.61067962646484,-23.48904800415039,122.09463500976562,30313108.0,50354.0,0.10820777914232002,-0.0647268065785,0.11769453362814075,0.00507087663157519,-0.0036454287033511564,0.00463685558597544,30.313108708010986
1620,A,938065449729996.0,1.8849792,6.5283203,2.7000055891555936,99,1970-01-11 20:34:25.449729996,0.08181763,-0.23516846,0.50968933,6.93925485987722,0.5672579151263007,99.6885757446289,-23.32013511657715,122.05078887939453,30363462.0,50354.0,0.06902507084772001,-0.12186372200690003,0.12379631553394077,0.004462191464199238,-0.004697789738194617,0.006080015109353727,30.36346271203365
1620,A,938065500084000.0,3.4222412,7.584015,2.1085138891555935,99,1970-01-11 20:34:25.500084000,0.24118042,-0.90774536,0.24771118,8.557167341179555,0.9713549620452342,99.8473892211914,-23.33295249938965,121.9496841430664,30413816.0,50354.0,0.13361988801080002,-0.13816293415190004,0.12106409490544075,0.005101992129180959,-0.00654669112211011,0.006164850553632309,30.413816716056317
1620,A,938065550438004.0,4.6271057,8.426529,2.8433770891555934,99,1970-01-11 20:34:25.550438004,0.11402893,-1.6362152,-0.09875488,9.69611257969283,1.6431540718726896,99.85610961914062,-23.44331169128418,121.87525177001953,30464170.0,50354.0,0.2026584069013,-0.09037173371200004,0.12467375916094077,0.008466478631001943,-0.0057538173328094125,0.006186941951829288,30.464170720078982
1620,A,938065600792008.0,5.3296356,9.389313,3.2431573891555936,99,1970-01-11 20:34:25.600792008,-0.14405823,-1.4672089,-0.20475769,10.831037201130847,1.48841541294226,99.77056121826172,-23.572843551635742,121.841796875,30514524.0,50354.0,0.25068087571010006,-0.04491974596600004,0.15324067856044074,0.01141372311830722,-0.0034062335838530087,0.006997051798511223,30.514524724101648
1620,A,938065651146012.0,6.9005127,9.2948,4.870247889155594,99,1970-01-11 20:34:25.651146012,-0.39175415,-0.81733704,-0.22085571,11.601383970122429,0.9328924887883856,99.76771545410156,-23.55502700805664,121.7999038696289,30564878.0,50354.0,0.3079184437491,-0.023059286999000037,0.20427120469204077,0.01406385506602428,-0.001711508112959807,0.009001076684647728,30.564878728007898
1620,A,938065701500015.0,5.352539,10.619141,1.3520746891555935,99,1970-01-11 20:34:25.701500015,0.1993103,-0.4481964,0.11607361,12.206899830194429,0.5040611982661253,99.90480041503906,-23.61994171142578,121.72786712646484,30615232.0,50354.0,0.30849508265090003,0.007904092556999996,0.15665941555414079,0.015519443354172801,-0.00038156233046623506,0.009087150225938114,30.61523273109924
