Subject-id_accel,Activity_accel,Timestamp_accel,accel_x,accel_y,accel_z,Segment_accel,DateTime,gyro_x,gyro_y,gyro_z,accel_magnitude,gyro_magnitude,Roll,Pitch,Yaw,Time_Difference,Difference_Microseconds,vx,vy,vz,dx,dy,dz,Time_diff
1611,A,3218329804351.0,2.8056041992341463,15.891740317446367,-0.008087158,55,1970-01-01 00:53:38.329804351,-1.1137543,0.22772217,0.48825073,4.702070227503392,1.237212513201969,-84.04747772216797,21.594356536865234,131.37257385253906,15005485.0,50354.0,0.10644334070303621,0.14922550489669428,-0.10057430907256601,0.0066805082545242,0.001978965636404716,-0.012122061769679999,15.005485430000135
1611,A,3218380158355.0,-1.2918080007658537,10.917481817446367,2.6663513,55,1970-01-01 00:53:38.380158355,-0.98210144,-0.12693787,0.7357788,11.460649896583599,1.2336964390885021,-83.85604858398438,22.03742027282715,131.47120666503906,15055839.0,50354.0,0.038112846888836205,0.1815065856901943,0.06692711630313401,0.003639491135000572,0.008326841844706095,-0.0008471353723559894,15.055839434000063
1611,A,3218430512359.0,0.5437786992341458,10.481690817446367,1.4056854,55,1970-01-01 00:53:38.430512359,-0.17614746,-0.043136597,0.9402466,10.561163641927779,0.957576295903753,-83.79973602294922,22.26826286315918,131.50241088867188,15106193.0,50354.0,-0.01883313372466381,0.04529776942869433,0.1025216679959,0.0004854053383343684,0.005710253248828259,0.00426621204229678,15.106193437999991
1611,A,3218480866363.0,4.093354499234146,11.705460817446365,1.0626373,55,1970-01-01 00:53:38.480866363,0.67259216,-1.7760162,1.061676,8.106597600961303,2.175722796068448,-83.68848419189453,22.04754066467285,131.6186065673828,15156547.0,50354.0,0.1167491025378362,0.06513671671169428,0.0621449606179,0.002465230346809241,0.0027804090575565643,0.004145811708609642,15.156547441999919
1611,A,3218531220367.0,3.971085799234146,11.185410817446366,4.772476,55,1970-01-01 00:53:38.531220367,2.3495026,-2.7686157,0.5676575,9.80987414786134,3.675272833273674,-82.91349792480469,21.810497283935547,131.99436950683594,15206901.0,50354.0,0.20303841339453618,0.08285427515169426,0.1469106475541,0.00805129028862934,0.0037259692021445337,0.005263393046946444,15.206901445999847
1611,A,3218581574371.0,3.043854999234146,9.740128817446367,2.945694,55,1970-01-01 00:53:38.581574371,3.0714417,0.22953796,0.04901123,10.610922470977535,3.080396710205678,-82.51608276367188,21.64310073852539,132.07412719726562,15257255.0,50354.0,0.17661516448303619,0.0333731113876943,0.19432036609000003,0.00955853813022364,0.0029262569109021856,0.008591173230517507,15.257255449999775
1611,A,3218631928374.0,3.302918699234146,8.195847817446367,0.9708252,55,1970-01-01 00:53:38.631928374,3.5192719,2.8051453,0.21809387,11.67427338572316,4.505738540613877,-82.4629898071289,21.43284797668457,131.90078735351562,15307609.0,50354.0,0.15979272140633619,-0.04189511626330567,0.09860620389840001,0.008469741343036729,-0.0002145585167532676,0.007375012252597949,15.307609453000168
1611,A,3218682282378.0,3.627396799234146,8.123688817446366,-2.2646484,55,1970-01-01 00:53:38.682282378,0.46600342,3.4125214,0.30332947,11.859686371330374,3.457523717963499,-82.9903793334961,21.217283248901367,131.54489135742188,15357963.0,50354.0,0.1744845533049362,-0.08259222614330569,-0.0325745867064,0.008416098945405705,-0.0031342178197712543,0.0016624780260429844,15.357963457000096
1611,A,3218732636382.0,6.898255599234146,7.518571317446366,1.1827545,55,1970-01-01 00:53:38.732636382,-1.7697449,-0.81448364,0.5595703,12.169177263826429,2.0269433962362515,-83.09935760498047,20.596101760864258,131.57888793945312,15408317.0,50354.0,0.2650043504362362,-0.09964401658380573,-0.027238842720300003,0.0110650121294915,-0.004588161883140485,-0.0015059227126760259,15.408317461000024
1611,A,3218782990386.0,6.730546199234146,6.2974408174463665,3.425949,55,1970-01-01 00:53:38.782990386,0.8842163,-1.4983063,-0.21162415,13.747591212499769,1.752582384559597,-82.82804107666016,19.980531692504883,131.72584533691406,15458671.0,50354.0,0.3431323428800362,-0.14562346247980573,0.1160333280195,0.015311057527623791,-0.006175099320384546,0.0022355787563779587,15.458671464999952
1611,A,3218833344390.0,4.538407599234146,5.042771817446367,-8.722015,55,1970-01-01 00:53:38.833344390,-1.4728088,1.7852783,-2.0921478,16.989430463359152,3.1198504430265834,-83.87489318847656,19.594680786132812,131.30108642578125,15509025.0,50354.0,0.2837184497840362,-0.2079566664913057,-0.13333905368200002,0.015782222406903353,-0.008902086907105674,-0.0004357062550047631,15.50902546899988
1611,A,3218883698394.0,-0.16172670076585405,2.8674638174463674,2.6486359,55,1970-01-01 00:53:38.883698394,-3.2740479,0.15287781,-3.0961761,17.911629468315446,4.5087767430308645,-83.97489166259766,19.43238639831543,131.2998809814453,15559379.0,50354.0,0.1101916949807362,-0.2943131974203057,-0.1529094656007,0.009917475714742675,-0.012645648363702642,-0.0072068789699805385,15.559379472999808
1611,A,3218934052398.0,-3.9913620007658546,5.201508817446367,-7.619293,55,1970-01-01 00:53:38.934052398,0.48594666,2.316742,-2.9410553,18.95045802104672,3.775346862023044,-84.7261734008789,19.64958381652832,130.9172821044922,15609733.0,50354.0,-0.10456231423846384,-0.29031667597130567,-0.1251462338067,0.00014173091894819116,-0.0147192263223806,-0.007000608343980111,15.60973347700019
1611,A,3218984406402.0,7.414109499234146,10.292573817446366,0.28201294,55,1970-01-01 00:53:38.984406402,-0.1477356,-0.13212585,-1.2817688,9.436848882218403,1.2970020448707946,-84.82510375976562,18.871389389038086,130.88780212402344,15660087.0,50354.0,0.08617451376893619,-0.10337468150130572,-0.18473070007062,-0.00046294965242129764,-0.009911967307087937,-0.0078017715642292864,15.660087481000119
1611,A,3219034760406.0,4.2925579992341465,14.001771417446367,0.3270874,55,1970-01-01 00:53:39.034760406,-0.80366516,-1.1766052,-1.004364,5.763647345186911,1.7432798199258963,-84.8932876586914,18.70572280883789,130.92999267578125,15710441.0,50354.0,0.2947387676089362,0.1181895299788943,0.015335319260179999,0.009590253685250693,0.0003729934401202478,-0.004264867502664449,15.710441485000047
1611,A,3219085114410.0,0.038514399234146346,18.022813317446367,4.3306427,55,1970-01-01 00:53:39.085114410,-0.20747375,-1.1062927,-0.61408997,7.318059039329397,1.2821994331097457,-84.01795959472656,19.601783752441406,131.27012634277344,15760795.0,50354.0,0.10904340977623622,0.31281376987039433,0.11726767072770002,0.010166023880026487,0.01085137008030554,0.003338545478924855,15.760795488999975
1611,A,3219135468414.0,-2.2072894007658537,19.886689617446365,3.620926,55,1970-01-01 00:53:39.135468414,0.89575195,-0.43515015,0.50379944,8.729921991347918,1.116038119742394,-83.32609558105469,20.846370697021484,131.5171356201172,15811149.0,50354.0,-0.0546032482135638,0.4609783553917943,0.20019664515990002,0.0013706399476634036,0.019481764337726123,0.007992799081102106,15.811149492999903
1611,A,3219185822417.0,-2.8889760007658536,5.8085798174463665,-14.563034,55,1970-01-01 00:53:39.185822417,1.7875061,-1.9421844,2.3518524,21.81395168561767,3.5353172435477878,-84.32562255859375,21.198535919189453,131.22967529296875,15861503.0,50354.0,-0.1283086740143638,0.15346059856229427,-0.27548945311600004,-0.004605173465932534,0.01546972954370209,-0.0018956470259107305,15.861503495999841
1611,A,3219236176421.0,11.484284599234147,0.4728868174463656,-12.088516,55,1970-01-01 00:53:39.236176421,2.2527618,4.2302704,0.35403442,23.325578026045473,4.80577400167758,-85.20502471923828,20.50815773010254,130.68125915527344,15911857.0,50354.0,0.21640408458363622,-0.33532071453330575,-0.67100607435,0.002217978151902572,-0.0045786921398021565,-0.023829917895011484,15.911857499999769
1611,A,3219286530425.0,4.514435999234146,10.370621817446366,3.0167694,55,1970-01-01 00:53:39.286530425,0.08439636,0.74957275,-0.020309448,9.760885905780599,0.7545823525645673,-84.86492156982422,20.19268226623535,130.7630157470703,15962211.0,50354.0,0.4027997885076362,-0.22046218309930574,-0.22839936414820003,0.015589695912818967,-0.01399294601369626,-0.022644330725069186,15.962211504000152
1611,A,3219336884429.0,2.4988109992341463,3.9950118174463665,-3.0254517,55,1970-01-01 00:53:39.336884429,0.27926636,0.4295349,0.03479004,16.195348888436392,0.5135175527952878,-85.27359008789062,19.998586654663086,130.5978546142578,16012564.999999998,50353.99999999814,0.17657251968042964,-0.13178564197430082,-0.0002185942670999983,0.014586856603250395,-0.008868543491877863,-0.005755914339021796,16.01256550800008
1611,A,3219387238433.0,1.3316509992341459,14.318009817446367,-0.056747437,55,1970-01-01 00:53:39.387238433,-1.5534973,0.3059082,0.06341553,6.853591289648885,1.5845993870312178,-85.46615600585938,20.49271011352539,130.543701171875,16062919.0,50354.00000000186,0.09643954173543975,-0.03240225429830689,-0.07760052767225187,0.006873624670267598,-0.004133758664455598,-0.0019592520330671344,16.062919512000008
1611,A,3219437592437.0,-3.8609610007658537,11.334611817446367,5.322586,55,1970-01-01 00:53:39.437592437,-1.2185516,0.6255646,0.39379883,13.718630780776811,1.425228609432567,-85.01746368408203,21.136699676513672,130.69674682617188,16113273.0,50354.0,-0.06368043790856381,0.15238685490169435,0.132578017500651,0.0008247759570492556,0.003020852289391486,0.0013841682614096054,16.113273515999936
1611,A,3219487946441.0,0.8582929992341457,13.475312817446365,0.35643005,55,1970-01-01 00:53:39.487946441,0.49256897,1.8187103,1.0244446,7.813558808314109,2.144718649147741,-85.06099700927734,21.62495231628418,130.5916290283203,16163627.000000002,50354.00000000186,-0.07559817227456661,0.13117027253269914,0.1429805870908553,-0.0035066175685808045,0.007139117797415989,0.00693773898780061,16.163627519999864
1611,A,3219538300445.0,3.091736999234146,10.657288817446366,-0.3054657,55,1970-01-01 00:53:39.538300445,0.061416626,-0.78622437,1.3752747,9.30356043897843,1.5853394785947932,-85.21755981445312,21.56513786315918,130.57479858398438,16213981.0,50353.99999999814,0.0994499052714325,0.11411731136169004,0.0012831294399499524,0.0006005150816620705,0.006175605499708808,0.0036321275910959493,16.21398152399979
1611,A,3219588654449.0,6.429826029234146,8.774582817446367,5.6688232,55,1970-01-01 00:53:39.588654449,1.8765259,-4.55748,1.157608,12.216605421819665,5.062808478051961,-84.43708801269531,21.040420532226562,131.03953552246094,16264335.0,50354.0,0.23972439236774623,-0.004232967848305693,0.1350332517775,0.008539391291661603,0.002766558116636478,0.003432037529911738,16.264335528000174
1611,A,3219639008453.0,5.596314679234146,8.938859817446367,3.713791,55,1970-01-01 00:53:39.639008453,3.692154,-0.65335083,0.69607544,11.265405105607726,3.8135796156562516,-83.87711334228516,20.587383270263672,131.2057342529297,16314689.000000002,50354.00000000186,0.3027821446171174,-0.047497854781307414,0.23622607771340876,0.013658687081668416,-0.0013024269213458173,0.009347196138592957,16.314689532000102
1611,A,3219689362457.0,6.779481199234146,6.8555308174463665,-17.84291,55,1970-01-01 00:53:39.689362457,2.6225128,7.9569244,-0.14523315,21.93676556273711,8.379219054383178,-85.22330474853516,20.30202293395996,130.31832885742188,16365043.0,50353.99999999814,0.31158541283218466,-0.09581382698530212,-0.3557288290629868,0.015467931993900506,-0.0036081582118377945,-0.003008720770728215,16.36504353600003
1611,A,3219739716460.0,4.521836499234146,10.516953817446366,0.8301697,55,1970-01-01 00:53:39.739716460,-1.4633636,-0.2500763,0.61553955,9.174598146441802,1.60712791004352,-85.27876281738281,20.01593589782715,130.3386993408203,16415396.999999998,50353.99999999814,0.2845332756943257,-0.05608215434730364,-0.4283297625330842,0.015008480221031397,-0.003824285122010874,-0.019740243160613548,16.41539753899997
1611,A,3219790070464.0,5.4172680492341465,8.717301817446366,4.979233,55,1970-01-01 00:53:39.790070464,-0.6608124,-0.2019043,0.32748413,11.947861099350208,0.7646464737080181,-84.78984832763672,19.605112075805664,130.5264434814453,16465751.0,50354.00000000186,0.25023683521679546,-0.009208345880306078,0.1462633317779054,0.013463907082409795,-0.0016438189242305905,-0.007101586527123399,16.465751542999897
1611,A,3219840424468.0,5.617982159234146,6.902604817446367,2.3994446,55,1970-01-01 00:53:39.840424468,0.77915955,-0.651947,-0.15396118,12.896736898755062,1.0275351770680141,-84.59414672851562,19.12771224975586,130.60816955566406,16516105.0,50354.0,0.2778344944986062,-0.10020681065330572,0.1857729659352,0.013295251868244666,-0.0027547453960467447,0.008359677867522855,16.516105546999825
1611,A,3219890778472.0,5.688645609234146,4.301438817446366,-19.174606,55,1970-01-01 00:53:39.890778472,-1.236145,7.196472,-1.2583771,24.51343112579588,7.409505829244849,-86.04839324951172,18.83515739440918,129.81134033203125,16566459.000000002,50354.00000000186,0.28466696732673674,-0.21138499340431352,-0.42234823856781567,0.014162099304377184,-0.007844946850758969,-0.005956255639071584,16.566459551000207
1611,A,3219941132476.0,7.0241252992341465,8.486573817446367,3.4069672,55,1970-01-01 00:53:39.941132476,-2.520401,-0.0644989,-2.037674,11.67071538911495,3.2417119920156714,-85.83513641357422,18.13522720336914,129.91603088378906,16616813.0,50353.99999999814,0.32006943316249437,-0.17150540589129937,-0.3969818420675853,0.015225448355116807,-0.009640031583065289,-0.020628273440156726,16.616813555000135
1611,A,3219991486480.0,-4.5262900007658535,5.028123317446367,8.632141,55,1970-01-01 00:53:39.991486480,-1.1190338,1.7436218,-3.5407104,19.780817371734624,4.102326628103355,-85.3478775024414,18.329378128051758,129.99107360839844,16667167.0,50354.0,0.06288799930953622,-0.1532096702348057,0.3031086271514,0.009641719277348314,-0.008175351471626948,-0.002363445931944797,16.667167559000063
1611,A,3220041840484.0,-1.0854940007658538,7.921219817446367,0.70121765,55,1970-01-01 00:53:40.041840484,-0.3473053,2.6380463,-2.0004425,13.517540496179086,3.328915656510094,-85.43931579589844,18.53692626953125,129.83511352539062,16717521.000000002,50354.00000000186,-0.141287885806569,-0.16744358789281186,0.23498597073105873,-0.0019738739423358674,-0.008073087079879327,0.013547607690887165,16.71752156299999
1611,A,3220092194488.0,6.933457599234146,10.385621817446367,-3.5212708,55,1970-01-01 00:53:40.092194488,0.037261963,-0.56414795,-1.7059479,9.913002383717235,1.7971949256800792,-86.07427978515625,17.87598419189453,129.65635681152344,16767875.0,50353.99999999814,0.14723417951863074,-0.03255784815830446,-0.07100047815754737,0.00014970983678857275,-0.005035436155458769,0.004128662746523143,16.76787556699992
1611,A,3220142548492.0,-0.30970640076585365,14.402207817446367,-0.08666992,55,1970-01-01 00:53:40.142548492,-0.17089844,-2.2926636,-0.9624634,7.951794269087133,2.492358011181169,-86.1299057006836,18.57066535949707,129.74728393554688,16818229.0,50354.0,0.1667661839238362,0.13061398671769434,-0.09083712350744,0.007905587150390992,0.002468759400509759,-0.004074585297119388,16.818229570999847
1611,A,3220192902496.0,-0.9534595007658542,18.982514817446365,4.9118195,55,1970-01-01 00:53:40.192902496,0.45480347,-1.9637146,0.04611206,8.315386808957147,2.016221106092942,-85.18429565429688,19.604053497314453,130.1422882080078,16868583.0,50354.0,-0.03180272790286381,0.3470579617786943,0.12148279097566,0.0033979749322400215,0.012026346647293577,0.0007715659698473751,16.868583574999775
1611,A,3220243256499.0,-2.3985130007658535,18.303468217446365,5.5723114,55,1970-01-01 00:53:40.243256499,1.1667023,-0.7780762,1.27594,9.936736243608397,1.8959482359578623,-84.27046966552734,20.68180274963379,130.47898864746094,16918937.0,50354.0,-0.08439261167106381,0.44527999486949427,0.2639589636693,-0.0029254500644527756,0.019948692734531443,0.009704267056696159,16.91893757800017
1611,A,3220293610503.0,14.981476999234147,0.5949258174463665,-0.4985199,55,1970-01-01 00:53:40.293610503,-1.7287445,-2.9596252,2.7744904,21.119396504395787,4.409731947686554,-84.46978759765625,19.767093658447266,130.59133911132812,16969291.0,50354.0,0.31680128458943624,-0.017664333383505725,0.12774284859550003,0.005851353158065863,0.010766079509232735,0.009861876527390871,16.969291582000096
1611,A,3220343964507.0,16.207260999234148,6.784760817446367,-16.187607,55,1970-01-01 00:53:40.343964507,2.757492,6.008423,-0.31910706,23.137963260899024,6.618665907321115,-85.57259368896484,18.929616928100586,129.89645385742188,17019645.0,50354.0,0.7852388565874363,-0.3076708295933057,-0.4201066169613001,0.027746064634410122,-0.008190963398267182,-0.007360842596145748,17.019645586000024
1611,A,3220394318511.0,0.37699999923414573,12.436906317446367,-2.9185486,55,1970-01-01 00:53:40.394318511,-0.6992798,-0.9062042,0.5092468,9.386544438033797,1.2528090812633503,-86.15103912353516,19.382484436035156,129.76255798339844,17069999.0,50354.0,0.4175419391584363,-0.009525286544805686,-0.4810356795412001,0.030282412094493835,-0.007986046616009232,-0.02268805959904345,17.069999589999952
1611,A,3220444672515.0,5.784898052234146,8.602982817446366,-5.1068115,55,1970-01-01 00:53:40.444672515,-0.6081238,1.3843842,0.3972168,12.101178439909225,1.5633666734129648,-86.93490600585938,18.98229217529297,129.45120239257812,17120353.0,50354.0,0.1551381072418172,0.036252088749194285,-0.20205449123770003,0.014418365528219183,0.0006729006990998917,-0.01719816122970037,17.12035359399988
1611,A,3220495026519.0,2.514222399234146,17.553117217446367,1.262497,55,1970-01-01 00:53:40.495026519,-1.2194519,-1.2451172,0.2420044,4.0023151384384414,1.759530024685231,-86.53533935546875,19.835947036743164,129.66322326660156,17170707.0,50354.0,0.20894695560661722,0.16506293057849436,-0.09678830616650001,0.009166569627335034,0.0050685082416132175,-0.007523965110245545,17.170707597999808
1611,A,3220545380523.0,-7.095732000765854,3.759476817446366,6.424988,55,1970-01-01 00:53:40.545380523,-0.9237976,1.3195496,0.7453308,21.351151176083714,1.774860883014373,-86.21446228027344,20.318172454833984,129.72921752929688,17221061.0,50354.0,-0.11534866723776384,0.043117980016494306,0.193547809845,0.0023565241062626216,0.00524137078605003,0.0024361140241135944,17.22106160200019
1611,A,3220595734527.0,3.2292491992341463,13.624589417446366,-0.08950806,55,1970-01-01 00:53:40.595734527,-0.9524689,0.72636414,1.1588593,6.453985664160013,1.6666603572838827,-86.38834381103516,20.44178009033203,129.6548309326172,17271415.0,50354.0,-0.09734643749416381,-0.05579056440410573,0.15950837844938,-0.005355024651835743,-0.0003190576571268928,0.008888895652687606,17.27141560600012
1611,A,3220646088531.0,4.859040499234146,10.168427817446366,4.740921,55,1970-01-01 00:53:40.646088531,0.40756226,-3.4103699,1.3142548,10.568524285369849,3.677498542477666,-85.70603942871094,20.146595001220703,130.04769897460938,17321769.0,50354.0,0.20363886973833623,0.10556759492289428,0.11710862359038002,0.0026761245666115287,0.0012532362973715393,0.006964386260355038,17.321769610000047
1611,A,3220696442535.0,4.985718999234146,10.508942817446366,5.8530884,55,1970-01-01 00:53:40.696442535,3.5164337,-3.6079712,0.5530243,10.815824928880764,5.068392054973216,-84.73822784423828,19.817405700683594,130.4886932373047,17372123.0,50354.0,0.2478615098929362,0.027124960474694277,0.26672537466380003,0.011367425057976546,0.0033408004672450873,0.009663788574045493,17.372123613999975
1611,A,3220746796539.0,3.9491436992341464,7.5809338174463665,4.5496216,55,1970-01-01 00:53:40.746796539,2.9849548,1.3355865,0.11975098,12.949774919803264,3.272321309748823,-84.20999908447266,19.551057815551758,130.55397033691406,17422477.0,50354.0,0.22495303815933623,-0.038020375963305715,0.26190902967,0.011904051876312063,-0.0002743138757567702,0.013309428397912085,17.422477617999903
1611,A,3220797150542.0,3.4063121992341463,9.158600817446366,-3.908966,55,1970-01-01 00:53:40.797150542,-0.3531494,2.521347,0.2909088,11.364584301142838,2.56252475559687,-84.93171691894531,19.431743621826172,130.2022705078125,17472831.0,50354.0,0.18518831315573622,-0.0720179364973057,0.016129786041200002,0.01032612880205958,-0.0027704345928208137,0.007000183263160884,17.47283162099984
1611,A,3220847504546.0,6.890732999234146,8.342515817446367,3.0623322,55,1970-01-01 00:53:40.847504546,-1.6720123,-1.0905151,0.7851715,11.698877980138857,2.145074031144741,-84.72884368896484,18.86505889892578,130.35110473632812,17523185.0,50354.0,0.2592487069618362,-0.052843586483305685,-0.021315699182599995,0.011189590855500123,-0.003143638564082853,-0.00013056573516102762,17.52318562499977
1611,A,3220897858550.0,6.712891799234146,7.212281817446366,6.6842194,55,1970-01-01 00:53:40.897858550,0.34817505,-1.1504669,-0.06277466,14.087177480711926,1.2036364116194842,-84.10099792480469,18.33591651916504,130.5996856689453,17573539.0,50354.0,0.3424984615510362,-0.1018460599463057,0.24538892963320003,0.015150188461648588,-0.003894621228158326,0.005641491723054758,17.57353962900015
1611,A,3220948212554.0,3.574875999234146,7.340302817446366,0.6037445,55,1970-01-01 00:53:40.948212554,0.79888916,2.45813,-1.1676025,12.43643326817433,2.8361809859160534,-84.18281555175781,18.082843780517578,130.43980407714844,17623893.0,50354.0,0.25901512986203623,-0.12707877664730574,0.18348906711030002,0.015144307691006926,-0.005763640610917356,0.010797861324011102,17.62389363300008
1611,A,3220998566558.0,4.969834599234146,7.764939817446367,0.018173218,55,1970-01-01 00:53:40.998566558,-3.1499329,-0.8538208,-2.1035614,11.833194431982298,3.882789950098384,-84.47957611083984,17.619874954223633,130.42794799804688,17674247.0,50354.0,0.2151301787376362,-0.11316450618130572,0.015658022386086004,0.011937556434613953,-0.006048605131775951,0.005013926272250511,17.674247637000008
1611,A,3221048920562.0,-0.1653125007658538,5.317978817446367,2.6061554,55,1970-01-01 00:53:41.048920562,-0.85765076,0.98147583,-3.317459,15.645220130730197,3.564322354625598,-84.42559051513672,17.573745727539062,130.3955078125,17724601.0,50354.0,0.12096345287313622,-0.1640805575293057,0.066072721615386,0.008461829363064418,-0.006980198969042064,0.0020577349417250606,17.724601640999936
1611,A,3221099274566.0,2.153306299234146,7.470048817446367,-6.172241,55,1970-01-01 00:53:41.099274566,0.4372406,1.6165771,-2.182907,14.049477341589839,2.7512876681986147,-85.21469116210938,17.466073989868164,130.06454467773438,17774955.0,50354.0,0.0500517198640362,-0.1715050282363057,-0.0897833371512,0.00430564900400379,-0.008449038292820798,-0.0005969621673451893,17.774955644999864
1611,A,3221149628570.0,9.207627499234146,10.594575817446367,1.4021912,55,1970-01-01 00:53:41.149628570,0.0143585205,-1.2050476,-1.3111725,9.73053711508027,1.780875967082761,-85.09782409667969,16.506834030151367,130.15052795410156,17825309.0,50354.0,0.2860342302440362,-0.03865614556730567,-0.1200955438146,0.008461635965870939,-0.005291227872853524,-0.005284120586075946,17.82530964899979
1611,A,3221199982574.0,0.34260699923414606,14.252656417446367,0.12454224,55,1970-01-01 00:53:41.199982574,-0.29344177,-1.4220886,-1.0636597,7.573241747408806,1.7999488926174494,-85.15789031982422,17.139307022094727,130.20089721679688,17875663.0,50354.0,0.2404462539679362,0.13210956597789436,0.038438567818880005,0.013255199151004829,0.0023528767656773916,-0.0020558776846442426,17.875663653000174
1611,A,3221250336578.0,-0.4595020007658537,17.147248817446368,3.5556335,55,1970-01-01 00:53:41.250336578,-0.030838013,-1.9296417,0.052368164,7.539327651193258,1.9305984818251072,-84.46154022216797,18.103561401367188,130.5042266845703,17926017.0,50354.0,-0.0029430654535638028,0.29708621409889435,0.09265578460598,0.005979617777226355,0.01080586215499331,0.0033005625110007005,17.926017657000102
1611,A,3221300690582.0,-3.6498710007658532,16.567079017446368,-1.5428467,55,1970-01-01 00:53:41.300690582,1.1666412,-1.4423828,1.147644,9.970164622092662,2.1814230635090666,-84.65465545654297,19.3076114654541,130.49765014648438,17976371.0,50354.0,-0.1034616840595638,0.3553564318990944,0.050675933263599995,-0.002678952378492014,0.016426548498291362,0.0036086626608024157,17.97637166100003
1611,A,3221351044585.0,-0.29603460076585364,10.465012817446366,-5.072571,55,1970-01-01 00:53:41.351044585,2.2832336,-1.230011,1.3043671,12.042140769887968,2.9030081405074237,-85.26180267333984,19.704322814941406,130.32070922851562,18026725.0,50354.0,-0.0993460653297638,0.18711777612709438,-0.1665563714329,-0.005106090706375101,0.013657873135475354,-0.0029175217917884666,18.02672566399997
1611,A,3221401398589.0,6.447816139234146,1.6840228174463654,4.8580627,55,1970-01-01 00:53:41.401398589,1.4509583,-0.74079895,0.011444092,18.55142495728561,1.629169739438373,-84.90137481689453,19.174694061279297,130.45098876953125,18077079.0,50354.0,0.15488340379401622,-0.18759292982030573,-0.005400675469100009,0.0013982635705144832,-1.1962944533982295e-05,-0.004329362569851654,18.077079667999897
1611,A,3221451752593.0,-4.2943100007658535,8.952637817446366,-4.8041534,55,1970-01-01 00:53:41.451752593,-0.32176208,-0.17596436,-0.23202515,15.374505151511757,0.4339700016690768,-85.48179626464844,19.732961654663086,130.270263671875,18127433.0,50354.0,0.054218824048216215,-0.22566999519530576,0.0013572744460999984,0.005264566790383886,-0.010404720663118051,-0.00010180070755607126,18.127433671999825
1611,A,3221502106597.0,1.9653331992341463,17.530549517446367,3.8815613,55,1970-01-01 00:53:41.502106597,-0.10432434,1.2936707,0.054122925,5.780525485806028,1.2989983598779027,-84.530029296875,20.420793533325195,130.5382843017578,18177787.0,50354.0,-0.0586366489321638,0.17329800753059432,-0.023228101301699992,-0.0001112275771031483,-0.0013185695334344398,-0.0005506418077434411,18.177787676000207
1611,A,3221552460601.0,3.1934825992341462,12.274903817446367,-0.96702576,55,1970-01-01 00:53:41.552460601,-0.65844727,0.83369446,1.131958,7.78727569606968,1.5523943357823569,-84.90198516845703,20.457536697387695,130.38604736328125,18228141.0,50354.0,0.12988350535803622,0.2569426986125944,0.07337926129058,0.00179378210423419,0.010832170258567062,0.0012626557550400321,18.228141680000135
1611,A,3221602814605.0,4.304307199234146,7.026337817446366,-2.1354828,55,1970-01-01 00:53:41.602814605,-0.9476929,-2.1508636,1.8663635,12.807372544398172,3.0012745247057326,-85.29296112060547,20.20918083190918,130.3748779296875,18278495.0,50354.0,0.1887718537560362,-0.007521839358305694,-0.07811185801512001,0.008022785976415,0.006279668973445227,-0.00011915258773374366,18.278495684000063
1611,A,3221653168609.0,3.856583799234146,12.748704417446366,1.4377899,55,1970-01-01 00:53:41.653168609,0.02798462,-4.4306793,0.7985077,7.222017744599498,4.502145793437206,-85.02498626708984,20.104721069335938,130.67698669433594,18328849.0,50354.0,0.20546675266843623,0.004407038347894276,-0.017565814143300003,0.009925745393948943,-7.842134503912826e-05,-0.002408876751932541,18.32884968799999
1611,A,3221703500135.0,3.780213599234146,9.532700817446367,4.5011444,55,1970-01-01 00:53:41.703500135,1.411972,-2.206131,0.2843933,11.175129105272141,2.634683750856996,-84.4215087890625,19.884675979614258,130.96343994140625,18379181.0,50332.0,0.19218764332985305,0.06748024414131047,0.1494592205938,0.010007370529692949,0.0018091153511233266,0.0033192294667332835,18.3791812139998
1611,A,3221753854139.0,4.018342299234146,11.038819817446367,4.327347,55,1970-01-01 00:53:41.753854139,2.7509766,1.9205322,-0.25801086,9.721100406912424,3.3649495967788785,-83.77473449707031,19.671131134033203,131.04444885253906,18429535.0,50354.0,0.1963442418557362,0.024459975024694318,0.22227492797780002,0.00978206727331758,0.0023147788979425024,0.009359150658587174,18.429535218000183
1611,A,3221804208143.0,2.156708999234146,9.695496817446367,-0.9986572,55,1970-01-01 00:53:41.804208143,1.2952728,2.839264,0.4251709,10.552009135964953,3.149590764261708,-84.05730438232422,19.720081329345703,130.7967071533203,18479889.0,50354.0,0.1554692665415362,0.028558689916694323,0.08380642309459999,0.008857608700918129,0.001334850927229342,0.007706210175949814,18.47988922200011
1611,A,3221854562146.0,3.189454299234146,8.805466817446366,-1.4238281,55,1970-01-01 00:53:41.854562146,-0.37145996,-0.32458496,1.2306061,11.15511008290782,1.3257938269197866,-84.41287231445312,19.628772735595703,130.70445251464844,18530243.0,50354.0,0.13460035336553622,-0.02767043856430571,-0.060990912398100006,0.007303082820400363,2.2363504299088148e-05,0.0005744261128057801,18.53024322500005
1611,A,3221904916150.0,5.572449929234146,7.713532817446367,1.1945648,55,1970-01-01 00:53:41.904916150,-0.5472717,-0.7172241,1.0167236,11.92118777538873,1.3592805457442036,-84.42154693603516,19.212587356567383,130.74905395507812,18580597.0,50354.0,0.22059846276014622,-0.0775703461923057,-0.005772162104099999,0.008942840593596308,-0.0026496472378172054,-0.0016808939267418898,18.580597228999977
1611,A,3221955270154.0,7.977448699234146,7.812729817446366,2.357071,55,1970-01-01 00:53:41.955270154,-0.09579468,0.5215149,0.3749237,12.203524396051499,0.6494014108854418,-84.28568267822266,18.523706436157227,130.77175903320312,18630951.0,50354.0,0.3411457977689462,-0.1025644856413057,0.0894195345366,0.01414303524734096,-0.0045352546610748345,0.0021059898957330524,18.630951232999905
1611,A,3222005624158.0,8.400025599234146,7.916688817446367,-2.9846802,55,1970-01-01 00:53:42.005624158,-0.7889252,1.2689514,-1.078064,12.32566211192403,1.8425152956903776,-84.85147094726562,17.763851165771484,130.54315185546875,18681305.0,50354.0,0.4123356704125362,-0.09744962702930571,-0.015801316828400008,0.018970402924405185,-0.005035755314707984,0.001853485867239351,18.681305236999833
1611,A,3222055978162.0,6.270524299234146,6.007386817446367,-1.5512543,55,1970-01-01 00:53:42.055978162,-2.4363098,-0.1932373,-2.6522522,13.665375566013273,3.6065756373729596,-85.27680969238281,17.148996353149414,130.4505615234375,18731659.0,50354.0,0.3693604347937362,-0.14290274774030567,-0.1142012229065,0.019680762840778323,-0.006051351739574506,-0.0032730739429055774,18.73165924099976
1611,A,3222106332166.0,-2.0960834007658535,1.7463848174463656,3.6621246,55,1970-01-01 00:53:42.106332166,-0.47833252,-0.11708069,-3.590744,19.810924428645095,3.624355440791704,-85.13841247558594,17.125043869018555,130.4898223876953,18782013.0,50354.0,0.1050998985007362,-0.29825249154830574,0.053145381543099994,0.011945487811354932,-0.01110696545956937,-0.001537202918006322,18.782013245000144
1611,A,3222156686170.0,-2.853102000765854,5.245270817446366,3.0963898,55,1970-01-01 00:53:42.156686170,0.20391846,0.10510254,-2.542694,16.987123331758823,2.5530221424576838,-84.96791076660156,17.329437255859375,130.5220184326172,18832367.0,50354.0,-0.1246056408543638,-0.3174402860803057,0.1701591170488,-0.0004910960752372822,-0.01550129706235555,0.005622137361048266,18.83236724900007
1611,A,3222207040174.0,1.812333399234146,11.771912817446367,1.8671417,55,1970-01-01 00:53:42.207040174,-0.72566223,-1.4424591,-1.3876038,8.927636306772934,2.129018138249607,-84.78584289550781,17.474618911743164,130.65005493164062,18882721.0,50354.0,-0.02620343108076381,-0.0650275676243057,0.12496683257550001,-0.003796920004110708,-0.009629393152721002,0.007430386033691001,18.882721253
1611,A,3222257394178.0,0.26762499923414573,15.379380817446368,2.491272,55,1970-01-01 00:53:42.257394178,-0.7359619,-2.6287994,-0.81881714,7.323752145049695,2.8500329318184643,-84.34949493408203,18.18138313293457,130.916015625,18933075.0,50354.0,0.05236711259823618,0.19011891984569435,0.1097317817249,0.0006587230095654019,0.003149424974877902,0.005909007012241172,18.933075256999928
1611,A,3222307748182.0,-2.1653890007658543,19.113618317446367,4.619293,55,1970-01-01 00:53:42.307748182,-0.12789917,-2.3867645,0.1984253,9.159069969198251,2.39841105230672,-83.56097412109375,19.30567169189453,131.28515625,18983429.0,50354.0,-0.04778000426656383,0.3749610392191944,0.17902269500499998,0.00011548962646651491,0.014227018129376705,0.0072699714606286915,18.983429260999856
1611,A,3222358102186.0,-4.408049000765854,17.526566817446366,-4.6312256,55,1970-01-01 00:53:42.358102186,1.2775421,-0.9531708,1.4725647,11.332313785857474,2.1700449734812275,-84.1286392211914,20.518789291381836,131.12318420410156,19033783.0,50354.0,-0.16549944856456383,0.4290207411411943,-0.0003004270701999934,-0.005369736783929301,0.020241849284133508,0.004499690539794459,19.033783264999784
1611,A,3222408456189.0,4.4270946992341464,6.584977817446367,0.9245453,55,1970-01-01 00:53:42.408456189,2.1513824,0.05029297,0.5919647,13.086588638235389,2.23190452750723,-84.06867218017578,20.1827392578125,131.1068115234375,19084137.0,50354.0,0.0004795135503361951,0.11358715927269429,-0.0933230899131,-0.0041547069038532095,0.013661239108720474,-0.002357159287088544,19.084137268000177
1611,A,3222458810193.0,5.359254129234146,8.207413817446367,8.391769,55,1970-01-01 00:53:42.458810193,0.8947754,-0.16932678,-0.7928772,14.133333856214184,1.2074555184975422,-83.25011444091797,19.750268936157227,131.3749542236328,19134491.0,50354.0,0.2463909044543462,-0.12104115580830567,0.2345568451311,0.006215456514103889,-0.0001876692707770877,0.003555842255123587,19.134491272000105
1611,A,3222509164197.0,-2.520156000765854,5.790452817446367,4.7773438,55,1970-01-01 00:53:42.509164197,1.2623444,-1.730545,-0.5331421,16.759091556362698,2.2073830388106117,-82.87294006347656,19.96518325805664,131.55967712402344,19184845.0,50354.0,0.0714799735804462,-0.1410449117333057,0.33155875296560006,0.008003035096281969,-0.006598540922495149,0.014253092413280618,19.184845276000033
1611,A,3222559518201.0,-1.082991400765854,9.681855817446367,1.9900055,55,1970-01-01 00:53:42.559518201,-0.4020691,-1.2625275,0.1999054,12.174834668562994,1.3399990367086911,-82.7758560180664,20.316368103027344,131.66001892089844,19235199.0,50354.0,-0.09071644212836383,-0.10392288549930569,0.1703815533261,-0.0004843165686309223,-0.006167554230925456,0.012637351091506132,19.23519927999996
1611,A,3222609872205.0,1.723649299234146,15.838105617446367,2.7621918,55,1970-01-01 00:53:42.609872205,-1.5580444,-0.8599396,0.7891083,6.13481461500316,1.9467127104810331,-82.26850891113281,20.897735595703125,131.9102783203125,19285553.0,50354.0,0.016129843909736184,0.14904686904629433,0.11964607142210003,-0.0018778667833503884,0.001136086533762533,0.007302025508285433,19.28555328399989
1611,A,3222660226209.0,0.734391499234146,10.959611817446367,2.377121,55,1970-01-01 00:53:42.660226209,-0.21185303,-0.11248779,0.8004608,10.237676003780264,0.8356271306964039,-82.09538269042969,21.147567749023438,131.9864044189453,19335907.0,50354.0,0.06188609318303619,0.18121693185829438,0.1293924783656,0.00196420724818473,0.008315051715374831,0.006270043568004924,19.335907287999817
1611,A,3222710580213.0,2.5042583992341463,10.914216817446366,-0.1770935,55,1970-01-01 00:53:42.710580213,0.5389099,-0.5175171,0.94522095,9.242493294370876,1.2048611842985575,-82.2830810546875,21.17881202697754,131.93887329101562,19386261.0,50354.0,0.0815394884937362,0.05724818354069432,0.055390092367500005,0.0036110258698760986,0.006003836210400338,0.0046522707833472595,19.3862612920002
1611,A,3222760934217.0,6.235917339234146,12.960893117446368,2.9989471,55,1970-01-01 00:53:42.760934217,1.3063507,-2.2552795,0.87646484,7.278622436901261,2.749732421576137,-81.73490905761719,20.618492126464844,132.2205047607422,19436615.0,50354.0,0.2200514045674162,0.10763444283079433,0.07104580808720001,0.007593153914600634,0.00415124988415497,0.0031832766657479824,19.436615296000127
1611,A,3222811288221.0,5.061997659234146,11.098237817446366,2.426056,55,1970-01-01 00:53:42.811288221,2.8641815,-1.1170349,0.20391846,8.841102780625752,3.081052640103546,-81.36663055419922,20.223051071166992,132.3516845703125,19486969.0,50354.0,0.28444760591643625,0.11226753954779432,0.1365853030487,0.012701771586951955,0.005536472210345727,0.005227528485068555,19.486969300000055
1611,A,3222861642225.0,2.408829999234146,8.498826817446366,1.3618927,55,1970-01-01 00:53:42.861642225,2.933014,1.8993683,-0.17773438,11.642073783144061,3.4988227410194526,-81.29641723632812,20.137657165527344,132.23585510253906,19537323.0,50354.0,0.18809302795725621,-7.390368730572825e-05,0.09536918441990001,0.011897155539037956,0.0028246991700595215,0.005839918130996944,19.537323303999983
1611,A,3222911996229.0,4.643204899234146,7.394700817446367,-7.846634,55,1970-01-01 00:53:42.911996229,2.5726929,2.6823578,0.09172058,14.52853597757306,3.7178225871774444,-82.22232055664062,19.89108657836914,131.75083923339844,19587677.0,50354.0,0.1775490826387362,-0.0933178547363057,-0.1632663317101,0.009205771418475301,-0.002351324301831265,-0.001709446477325365,19.58767730799991
1611,A,3222962350232.0,5.951340919234146,7.467591817446367,-3.973709,55,1970-01-01 00:53:42.962350232,-1.2831116,1.1266785,0.7681122,12.743486615083427,1.8723718039443047,-82.96917724609375,19.473527908325195,131.47352600097656,19638031.0,50354.0,0.26673888007157615,-0.11928125833130568,-0.297600775711,0.011185838037157534,-0.005352607869703252,-0.011603251163541037,19.63803131099985
1611,A,3223012704236.0,6.892533599234146,6.416260817446366,4.3927765,55,1970-01-01 00:53:43.012704236,-0.9547882,-2.1921234,0.24627686,13.919954417646109,2.4036800534718132,-82.67952728271484,18.892641067504883,131.6885986328125,19688385.0,50354.0,0.3233702287514762,-0.1439154422113057,0.010550862447500005,0.01485717703283799,-0.006626503329561327,-0.0072270556662351396,19.688385314999778
1611,A,3223063058240.0,10.696442999234147,6.829896817446366,-5.011856,55,1970-01-01 00:53:43.063058240,-0.9370117,4.5780487,-1.3832855,14.566634834469765,4.8733971313672795,-83.48658752441406,18.005950927734375,131.22520446777344,19738739.0,50354.0,0.44283766381963624,-0.15997068922630572,-0.015586564571499996,0.0192908161112629,-0.007650941131204744,-0.00012678387237594776,19.73873931900016
1611,A,3223113412244.0,4.208039499234146,4.2143718174463665,-1.7635345,55,1970-01-01 00:53:43.113412244,-2.7614594,-0.8593292,-3.0731812,15.534955606901859,4.220017462031934,-83.95433044433594,17.552343368530273,131.1490936279297,19789093.0,50354.0,0.3752501558639363,-0.21540764857930572,-0.1705840066185,0.02059699703617331,-0.00945090041093188,-0.00468721647085063,19.78909332300009
1611,A,3223163766248.0,-5.405654000765854,7.0189678174463666,5.0611115,55,1970-01-01 00:53:43.163766248,-1.1719513,1.3067932,-2.5988007,17.528287347632407,3.1360713313728086,-83.71943664550781,17.976789474487305,131.16342163085938,19839447.0,50354.0,-0.03015234030506382,-0.21064740801230572,0.08302309612900001,0.008688527702325734,-0.010726788159807002,-0.0022045210433941417,19.839447327000016
1611,A,3223214120252.0,3.5866099992341463,9.992142817446366,4.9259033,55,1970-01-01 00:53:43.214120252,-1.0680695,0.36819458,-1.0914154,10.98475457025854,1.5708364908318073,-83.25366973876953,17.784915924072266,131.29983520507812,19889801.0,50354.0,-0.045798070826563814,-0.06518046754530571,0.25144307161960006,-0.001912203501060989,-0.006944518422913984,0.008420854705406504,19.889801330999944
1611,A,3223264474256.0,2.597962599234146,12.901749817446365,-0.60150146,55,1970-01-01 00:53:43.264474256,-1.3092194,-0.79940796,-1.0604706,7.39504817771217,1.8648609646062306,-83.58953094482422,17.917293548583984,131.24874877929688,19940155.0,50354.0,0.1557089843116362,0.08293033486869426,0.10887546512568001,0.002767227068813668,0.0004468884096009537,0.009071739799635917,19.940155334999872
1611,A,3223314828260.0,-0.4802234007658539,16.421983217446368,3.7518005,55,1970-01-01 00:53:43.314828260,-0.60362244,-1.5662079,-0.742157,7.910593811151712,1.8352559082435789,-82.9497299194336,18.742351531982422,131.52932739257812,19990509.0,50354.0,0.0533183197998362,0.24481442661949432,0.07931507893008,0.0052626804356145414,0.008251629859988124,0.004738073327691871,19.9905093389998
1611,A,3223365182264.0,-0.7428880007658538,18.600938277446367,3.1810303,55,1970-01-01 00:53:43.365182264,0.23924255,-1.2146149,0.34465027,7.277704444805515,1.2850331363990521,-82.28015899658203,19.87116050720215,131.80596923828125,20040863.0,50354.0,-0.030794275756363808,0.38830289447691435,0.1745478810516,0.0005670878568825045,0.015939994793244282,0.006391507743458757,20.040863343000183
1611,A,3223415536268.0,-0.36651500076585375,17.212846217446366,0.21611023,55,1970-01-01 00:53:43.415536268,1.4503326,-1.2820587,1.786911,6.541341036319067,2.6344240514369455,-82.20323944091797,21.030235290527344,131.87921142578125,20091217.0,50354.0,-0.027931439369563802,0.4082144522279143,0.08552980712381,-0.0014785373297254796,0.02005391723798747,0.006547975955192298,20.09121734700011
1611,A,3223465890271.0,10.855820999234147,3.1517958174463665,6.2495575,55,1970-01-01 00:53:43.465890271,0.59809875,-1.4924927,0.3212433,18.303217434490453,1.6396505213306103,-81.81439971923828,20.18026351928711,132.07638549804688,20141571.0,50354.0,0.2640892571234362,0.019251392512494282,0.16278611643821,0.005945745377589247,0.010762307573029269,0.006251850007520978,20.14157135000005
1611,A,3223516244275.0,1.0686349992341464,12.470536817446366,8.058029,55,1970-01-01 00:53:43.516244275,0.105773926,-0.6729584,-0.78596497,11.709644617538697,1.040097142395418,-80.89037322998047,20.324079513549805,132.42042541503906,20191925.0,50354.0,0.3002220286734362,-0.10014573125130573,0.36022210531050003,0.014207665242507857,-0.002036676766427056,0.013167777998967272,20.191925353999977
1611,A,3223566598279.0,-11.383452000765853,2.2379308174463652,0.6399536,55,1970-01-01 00:53:43.566598279,2.1036835,-2.824295,-0.21058655,24.368252590815654,3.5279559535569818,-80.86603546142578,20.883094787597656,132.5216522216797,20242279.0,50354.0,-0.2596961476475638,-0.12315411035630576,0.2189891079202,0.0010203201065883895,-0.005622020112154835,0.014582800715509336,20.242279357999905
1611,A,3223616952283.0,2.1546794992341463,13.218797117446368,-1.9438934,55,1970-01-01 00:53:43.616952283,-1.2342072,1.9575348,0.60736084,7.546317572940825,2.3925085361829717,-81.55904388427734,21.157285690307617,132.20925903320312,20292633.0,50354.0,-0.23235280527106383,-0.10431516078320571,-0.032829292344600004,-0.012388316487632289,-0.005726993839479481,0.004686945676746881,20.292633361999833
1611,A,3223667306287.0,3.5997783992341463,17.328202717446366,1.7011566,55,1970-01-01 00:53:43.667306287,-1.0003662,-0.3633423,0.8831024,3.531913339515783,1.382975057604977,-81.0091781616211,21.641277313232422,132.4507598876953,20342987.0,50354.0,0.14487998650973619,0.27561261484309435,-0.006111384413600002,-0.0022023031579539464,0.004312756000865816,-0.0009804094187412017,20.34298736599976
1611,A,3223717660291.0,-1.0593707007658537,4.308137817446367,1.8695984,55,1970-01-01 00:53:43.717660291,-0.38656616,-0.5780792,1.0304565,16.81157536751918,1.243161114225359,-81.06340789794922,21.74240493774414,132.47186279296875,20393341.0,50354.0,0.06395984462433621,0.051268945646994316,0.089900898635,0.005257960428462541,0.008229897048458962,0.002109568599552188,20.393341370000144
1611,A,3223768014295.0,4.481156599234146,12.869111517446367,1.4073486,55,1970-01-01 00:53:43.768014295,0.024642944,-1.5705261,0.9673004,6.963594801950513,1.844676006595835,-80.95138549804688,21.495176315307617,132.5917205810547,20443695.0,50354.0,0.0861503035657362,-0.060997593495405684,0.082503694619,0.003779323200981453,-0.00024493816687945306,0.004340630444355958,20.44369537400007
1611,A,3223818368299.0,6.229127179234146,11.928697017446368,6.941345,55,1970-01-01 00:53:43.818368299,2.1455383,-3.2704926,0.44702148,10.338128649587329,3.936913086036195,-79.94145965576172,20.984527587890625,133.0718231201172,20494049.0,50354.0,0.2696528146904962,0.13086522548299434,0.21019505876720004,0.008958055108337163,0.0017590573705515199,0.007369276514004359,20.494049378
1611,A,3223868722303.0,3.3543254992341462,8.397080817446367,1.2040253,55,1970-01-01 00:53:43.868722303,3.3259277,1.1551666,-0.4250641,11.489570736358358,3.5463903378635098,-79.90055084228516,20.749553680419922,132.9702606201172,20544403.0,50354.0,0.24128258808579622,0.018272908549094354,0.2050759880431,0.012863820635698716,0.0037548508005258974,0.010455279145542925,20.544403381999928
1611,A,3223919076307.0,3.848878199234146,9.595688817446366,5.178116,55,1970-01-01 00:53:43.919076307,2.9135437,2.8914185,-0.050369263,11.397897922396245,4.105066978333862,-79.35945129394531,20.515689849853516,132.975830078125,20594757.0,50354.0,0.1813550595163362,-0.040465238902305696,0.16068317151010003,0.010640748053678888,-0.0005587363013028019,0.009208718360070919,20.594757385999856
1611,A,3223969430311.0,2.492127699234146,9.600327817446367,-2.3160858,55,1970-01-01 00:53:43.969430311,-0.6676483,2.8153534,0.43374634,10.738547931982533,2.925765695821838,-80.02962493896484,20.527379989624023,132.6267547607422,20645111.0,50354.0,0.15964750550573623,-0.010171089183305714,0.0720573343454,0.008585421579560718,-0.0012748708322114384,0.005859707715923925,20.645111389999784
1611,A,3224019784314.0,6.042222269234146,7.068162817446366,2.2747955,55,1970-01-01 00:53:44.019784314,-2.2276459,-0.45671082,0.91822815,12.71455203127617,2.4523731291025648,-80.12057495117188,20.033626556396484,132.6627960205078,20695465.0,50354.0,0.21486932915612617,-0.07380661128530572,-0.0010395658831000001,0.009429210346281709,-0.0021143065646982303,0.001788014356575327,20.695465393000177
1611,A,3224070138318.0,8.019562999234147,6.575226817446367,4.8470154,55,1970-01-01 00:53:44.070138318,0.5697632,-3.0993347,0.2995758,14.060393256879735,3.16547805973189,-79.76203155517578,19.32599449157715,132.91964721679688,20745819.0,50354.0,0.35403356770422617,-0.14996957916230572,0.1793058330293,0.014323268234253091,-0.005634013146899514,0.004488209807939878,20.745819397000105
1611,A,3224120492322.0,7.659562399234146,4.577988817446366,-1.0283203,55,1970-01-01 00:53:44.120492322,1.5156403,3.5295258,-1.0339966,15.154229545520277,3.9779224301966085,-80.11611938476562,18.677579879760742,132.60670471191406,20796173.0,50354.0,0.39475334015723623,-0.2126646899603057,0.09614328653270002,0.01885220797922804,-0.009130042993699988,0.006934982483212475,20.796173401000033
1611,A,3224170846326.0,6.112870459234146,5.346299817446367,-2.8615417,55,1970-01-01 00:53:44.170846326,-3.9467926,-2.6091309,-2.3291168,14.51733464354294,5.273473328726695,-80.82316589355469,18.076993942260742,132.5498046875,20846527.0,50354.0,0.3467485420776562,-0.2436053850393057,-0.09793505557400001,0.01866879288902789,-0.011487511678265215,-4.5111369152809844e-05,20.84652740499996
1611,A,3224221200330.0,-3.8466330007658547,2.099015817446368,14.616364,55,1970-01-01 00:53:44.221200330,-3.1455078,-0.79797363,-2.843399,24.712665635641674,4.314614595446181,-80.2650375366211,18.10468292236328,132.78781127929688,20896881.0,50354.0,0.05705706049185617,-0.3060184882603057,0.2959511610471,0.010166613655892614,-0.013837880258064317,0.004985451487496239,20.89688140899989
1611,A,3224271554334.0,-4.8323350007658545,9.487595817446367,-15.228973,55,1970-01-01 00:53:44.271554334,1.0256195,2.4623566,-2.3736725,21.10014128015426,3.5706325100183665,-81.45728302001953,18.52949333190918,132.26275634765625,20947235.0,50354.0,-0.21851037737456386,-0.20175307886830565,-0.015423656792999977,-0.004064910159155932,-0.01278416474559705,0.007062840974605478,20.947235412999817
1611,A,3224321908338.0,10.562973999234146,11.510941817446367,5.4960327,55,1970-01-01 00:53:44.321908338,-1.2325897,-0.9374695,-0.9958191,10.889006466061781,1.8411360927158942,-80.92169189453125,17.50210189819336,132.48492431640625,20997589.0,50354.0,0.14428029806443618,0.03521098203369435,-0.2450462379331,-0.0018688907067910846,-0.004193030372005009,-0.0065578505395190185,20.9975894170002
1611,A,3224372262342.0,2.119828499234146,15.348954817446366,0.23628235,55,1970-01-01 00:53:44.372262342,-0.8172455,-1.0487823,-1.0823975,5.562216475827579,1.7144733500611171,-81.06605529785156,18.001096725463867,132.4944305419922,21047943.0,50354.0,0.3193149185039362,0.18278241757669428,0.14432249601385,0.011671936767541911,0.0054884198219907546,-0.002535921650300957,21.047943421000127
1611,A,3224422616346.0,-0.8241107007658535,17.588349817446367,3.3539276,55,1970-01-01 00:53:44.422616346,0.6109009,-0.5133972,-0.1541748,7.625500428132232,0.8127400959370036,-80.43034362792969,19.01515769958496,132.7097930908203,21098297.0,50354.0,0.032622287012036205,0.3357933187926943,0.09039071591115001,0.008860723023275638,0.013056181314572098,0.005909374536635726,21.098297425000055
1611,A,3224472970350.0,0.5753032992341458,18.814240887446367,3.5142212,55,1970-01-01 00:53:44.472970350,0.57855225,-1.1091614,1.4548492,6.284791910801482,1.9187360193551022,-79.56729125976562,20.086965560913086,133.05235290527344,21148651.0,50354.0,-0.006264223948363804,0.4230388261770844,0.1729193823376,0.0006636169537540801,0.019105116913904117,0.00662935834360878,21.148651428999983
1611,A,3224523324354.0,14.175202999234145,0.7552808174463657,-11.42308,55,1970-01-01 00:53:44.523324354,-1.4806976,-4.006729,2.4571533,23.578337571710946,4.927874288350673,-80.50542449951172,19.346046447753906,132.96719360351562,21199005.0,50354.0,0.3713734970765362,-0.0007673520359157078,-0.19912133800760004,0.009192356169547998,0.010631528904452204,-0.0006596866379035907,21.19900543299991
1611,A,3224573678357.0,12.764588599234147,8.139435817446367,-17.789825,55,1970-01-01 00:53:44.573678357,1.4524078,4.1194916,-0.5558014,22.286842892594144,4.403250464851319,-81.82331085205078,18.74131965637207,132.3170928955078,21249359.0,50354.0,0.6782631330746361,-0.2695269192833057,-0.735493309185,0.02642670143731607,-0.006805198869004037,-0.02353079297236809,21.24935943599985
1611,A,3224624032361.0,-2.9254750007658545,11.361146817446366,1.3294067,55,1970-01-01 00:53:44.624032361,0.4155426,0.61605835,-0.09272766,12.005506241613341,0.7488671190194948,-81.7945785522461,19.40019989013672,132.29031372070312,21299713.0,50354.0,0.24771936306863618,-0.0025030310013056827,-0.41442395153910006,0.02331346130539917,-0.00684889805831566,-0.028951466873250665,21.299713439999778
1611,A,3224674386365.0,2.073426499234146,11.952882217446366,2.0905304,55,1970-01-01 00:53:44.674386365,-1.0976105,2.0071716,0.19856262,8.707361039877144,2.2962825948950782,-81.71279907226562,19.563312530517578,132.24346923828125,21350067.0,50354.0,-0.021452025123063826,0.09350810901149428,0.08610375636670001,0.005696732767455676,0.0022912348490625187,-0.008266117553855517,21.35006744400016
1611,A,3224724740369.0,2.382126999234146,15.060426217446366,0.928833,55,1970-01-01 00:53:44.724740369,-0.76971436,0.26530457,0.92230225,5.695714002070519,1.2302390626248856,-81.68177032470703,20.016849517822266,132.26072692871094,21400421.0,50354.0,0.1121774704309362,0.1866448664652943,0.0760185123218,0.002284194536516303,0.007053411463579106,0.004081752358770364,21.40042144800009
1611,A,3224775094373.0,0.14149599923414602,7.499634817446367,0.858551,55,1970-01-01 00:53:44.775094373,-0.6524353,-0.68655396,1.1237488,13.332372714000535,1.4696392503533686,-81.80170440673828,20.187726974487305,132.27023315429688,21450775.0,50354.0,0.0635372562324362,0.07452545667549432,0.045000966967999996,0.004423969673203727,0.006575485225715634,0.003046907430079295,21.450775452000016
1611,A,3224825448377.0,4.056931699234147,12.984666317446367,2.9806213,55,1970-01-01 00:53:44.825448377,-0.05026245,-1.7187042,0.8665924,7.422845773415694,1.9254747021748695,-81.3577651977539,20.057918548583984,132.5094757080078,21501129.0,50354.0,0.1057038141643362,0.022264049673194324,0.09665884099710001,0.004260982429379539,0.002436869401340934,0.003566568985137323,21.501129455999944
1611,A,3224875802381.0,3.622056299234146,10.721207817446366,3.4231873,55,1970-01-01 00:53:44.875802381,1.765976,-2.3725586,0.41362,9.72256348934691,2.986433834426934,-80.90398406982422,19.883180618286133,132.74725341796875,21551483.0,50354.0,0.19333388083743622,0.1033735930941943,0.1612286891222,0.007528872047059624,0.0031631789319545435,0.006492834345813616,21.551483459999872
1611,A,3224926156385.0,2.997544499234146,9.396165317446366,4.1346893,55,1970-01-01 00:53:44.926156385,3.4201813,-0.025527954,-0.12948608,11.32008114847747,3.4227267559971657,-80.40040588378906,19.740659713745117,132.8599853515625,21601837.0,50354.0,0.1666616893030362,0.013025903417194284,0.1902846591582,0.009063608469426675,0.002930590123667231,0.008850051569655633,21.6018374639998
1611,A,3224976510389.0,2.629075299234146,9.205674817446367,-3.8540497,55,1970-01-01 00:53:44.976510389,2.994751,2.3377838,0.11288452,11.487624305111817,3.800856424859938,-81.02405548095703,19.724302291870117,132.4912567138672,21652191.0,50354.0,0.1416614066660362,-0.025130670923805706,0.007065663209199995,0.0077626505872133355,-0.00030476173151395576,0.00496868906624403,21.652191468000183
1611,A,3225026864393.0,1.4711469992341462,8.059495817446367,-16.021347,55,1970-01-01 00:53:45.026864393,3.5799713,2.2079773,0.1641388,20.184118215117003,4.209311085178241,-82.21298217773438,19.816112518310547,131.92723083496094,21702545.0,50354.0,0.1032312968085362,-0.05878399892530569,-0.5004028627159001,0.006165663595379309,-0.0021127196427910776,-0.012420750671980188,21.70254547200011
1611,A,3225077218396.0,5.1798412992341465,8.515458817446367,-0.6754761,55,1970-01-01 00:53:45.077218396,-1.7838287,1.3210144,0.8916168,11.092480612817518,2.3920920538293022,-82.62010192871094,19.45992088317871,131.7647705078125,21752899.0,50354.0,0.1674519323905362,-0.07616156715730568,-0.4203759151887,0.0068149916615450465,-0.0033975245172619068,-0.023182447291304118,21.75289947500005
1611,A,3225127572400.0,7.610993599234146,6.494813817446367,3.6273804,55,1970-01-01 00:53:45.127572400,-0.94595337,-2.6961975,0.5894928,13.702265442388654,2.9175007281014422,-82.4079360961914,18.818134307861328,131.9796905517578,21803253.0,50354.0,0.32203485023873624,-0.11555556587130567,0.0743200945611,0.012323808726257194,-0.004826862258261348,-0.008712647395941086,21.803253478999977
1611,A,3225177926404.0,6.108124979234146,5.2795728174463665,0.34014893,55,1970-01-01 00:53:45.177926404,0.19078064,0.32002258,-1.0818939,14.303140475053018,1.1442491490780653,-82.5697250366211,18.271547317504883,131.9033966064453,21853607.0,50354.0,0.34540624845009626,-0.1970254676933057,0.09989048594140999,0.016804164541688735,-0.00786985268205622,0.004386099785311694,21.853607482999905
1611,A,3225228280408.0,3.878434399234146,5.060807817446367,-12.269943,55,1970-01-01 00:53:45.228280408,-3.069519,6.518112,-3.0692291,19.09459163056113,7.831213073604358,-83.94285583496094,17.9842472076416,131.19854736328125,21903961.0,50354.0,0.25143160547169624,-0.2331294367553057,-0.30035642530039003,0.01502658664818897,-0.01083001002930269,-0.005047130955241041,21.903961486999833
1611,A,3225278634412.0,-2.072081300765854,3.7038438174463657,5.6740265,55,1970-01-01 00:53:45.278634412,-2.7617493,-0.68692017,-2.9937744,18.572030455875076,4.1305936224831745,-83.7531967163086,18.013877868652344,131.31723022460938,21954315.0,50354.0,0.0454785519601362,-0.2728015657883057,-0.1660653897205,0.007475307033661246,-0.012737824851040505,-0.011743102036780948,21.95431549099976
1611,A,3225328988416.0,-3.8528890007658534,7.252503817446366,-4.6324615,55,1970-01-01 00:53:45.328988416,0.6549988,3.376114,-2.142044,16.282042197431355,4.051607294264023,-84.33075714111328,18.40627670288086,130.95594787597656,22004669.0,50354.0,-0.1491729772816638,-0.21762123559630575,0.02622348200500001,-0.0026107145463201004,-0.012347374870460363,-0.003520799710553143,22.004669495000144
1611,A,3225379342420.0,6.809998799234146,12.907609417446366,4.222,55,1970-01-01 00:53:45.379342420,-1.4776917,-0.6000366,-0.71266174,7.964157141281054,1.7468552994590816,-83.7267837524414,17.781993865966797,131.19186401367188,22055023.0,50354.0,0.0744511533960362,0.014101970914894275,-0.010334189185499984,-0.001881271359968446,-0.005124004526883897,0.00040004472531655216,22.05502349900007
1611,A,3225429696424.0,1.2230236992341466,16.789185917446368,1.0319519,55,1970-01-01 00:53:45.429696424,-0.718338,-0.93899536,-0.8220062,5.3974242862242825,1.4399360962153736,-83.54681396484375,18.64134407043457,131.2992401123047,22105377.0,50354.0,0.20224740744393618,0.25420701614659436,0.13227874698630002,0.006966439666267984,0.0067552153672471,0.003070198131750743,22.105377503
1611,A,3225480050428.0,0.4690715992341463,19.337830977446366,5.4743958,55,1970-01-01 00:53:45.480050428,0.1595459,-1.2607727,0.09121704,7.596265500246528,1.2740970307078112,-82.43397521972656,19.523717880249023,131.72036743164062,22155731.0,50354.0,0.04260188332953621,0.41610070436271435,0.1638103160429,0.006164570593803715,0.016876337479262864,0.0074546343398861695,22.155731506999928
1611,A,3225530404432.0,2.738251999234146,13.151399117446367,-3.9790192,55,1970-01-01 00:53:45.530404432,0.32385254,-1.5115662,1.3338623,8.125849846525503,2.0417887941724486,-83.28492736816406,19.731287002563477,131.5080108642578,22206085.0,50354.0,0.0807507862386362,0.32451214609911433,0.037649096658199994,0.003105650161717877,0.018646409736077462,0.005072143633575595,22.206085510999856
1611,A,3225580758436.0,10.225190399234146,1.9238608174463678,-18.165695,55,1970-01-01 00:53:45.580758436,-0.3695221,-1.6249237,1.2588654,25.723800939212364,2.088460128546212,-84.45806121826172,19.256174087524414,131.2056121826172,22256439.0,50354.0,0.3263805892662362,-0.11391938061920566,-0.5575374694134,0.010250346641086172,0.005302094056487661,-0.01308922956085767,22.256439514999784
1611,A,3225631112439.0,8.149613599234147,7.883820817446367,-7.3803864,55,1970-01-01 00:53:45.631112439,0.8360138,2.3366394,-0.18643188,14.034837033440542,2.4886863211950065,-85.36937713623047,18.654268264770508,130.78517150878906,22306793.0,50354.0,0.4626224402694363,-0.24654119947830566,-0.6431736914078,0.019864729274619627,-0.009075316025115042,-0.030230304895995354,22.306793518000177
1611,A,3225681466443.0,-0.4170825007658543,11.744447217446368,5.2631226,55,1970-01-01 00:53:45.681466443,-0.0513916,0.7352295,0.114364624,11.2598973335919,0.7458436709146705,-84.76332092285156,19.068222045898438,130.94766235351562,22357147.0,50354.0,0.1946819354661362,0.0007117043144943359,-0.0533063506926,0.01654895226789451,-0.006189249199739278,-0.017535278019961773,22.357147522000105
1611,A,3225731820447.0,1.9451763992341462,12.350968817446367,3.443756,55,1970-01-01 00:53:45.731820447,-0.5792084,1.0331726,0.3803711,8.851704358689052,1.2440298090224888,-84.3346939086914,19.273527145385742,131.05088806152344,22407501.0,50354.0,0.038472820081736185,0.11318108951049434,0.2192130825122,0.005870137280428784,0.0028674788701317402,0.004177033787022069,22.407501526000033
1611,A,3225782174451.0,0.4547589992341461,11.699220117446366,1.3740997,55,1970-01-01 00:53:45.782174451,0.18263245,0.59181213,0.8610382,9.577293299355022,1.0606521535675018,-84.2407455444336,19.670516967773438,131.05538940429688,22457855.0,50354.0,0.060423173527236196,0.11204240681379429,0.12129915295890001,0.002489904431093098,0.005670451966956615,0.008573076552455886,22.45785552999996
1611,A,3225832528455.0,1.3024456992341458,8.973420817446366,-0.8452759,55,1970-01-01 00:53:45.832528455,-0.0765686,-0.7731476,1.3294678,11.518857680393213,1.5398391452124343,-84.48014831542969,19.813247680664062,131.01832580566406,22508209.0,50354.0,0.044241142693336184,0.02700588081779427,0.0133141968126,0.0026351334894853507,0.003500818737700505,0.0033891603071970556,22.50820953399989
1611,A,3225882882459.0,4.476502699234146,11.669434817446366,0.23474121,55,1970-01-01 00:53:45.882882459,-0.020614624,-2.74057,1.2587433,8.006472632001808,3.015888522959287,-84.53022003173828,19.59529685974121,131.1358184814453,22558563.0,50354.0,0.1454965838282362,0.02625597631969426,-0.015371431890129999,0.0047770267406336275,0.0013409737771505489,-5.1795007546972787e-05,22.558563537999817
1611,A,3225933236463.0,5.687669049234146,11.124650817446366,3.158905,55,1970-01-01 00:53:45.933236463,1.341095,-3.205307,0.685318,9.020333794138663,3.5414953796945716,-84.01285552978516,19.155237197875977,131.43832397460938,22608917.0,50354.0,0.2559033521111862,0.08041749402969427,0.08544183062917,0.010106046187146837,0.002685717962986555,0.0017641624290528103,22.6089175420002
1611,A,3225983590467.0,5.7785046192341465,11.396546817446367,3.6322021,55,1970-01-01 00:53:45.983590467,2.2405243,-0.78234863,-0.07640076,8.947658362657975,2.374416895551821,-83.42146301269531,18.692014694213867,131.62973022460938,22659271.0,50354.0,0.28868385445102623,0.0735469928536943,0.1709797034567,0.013711072099616821,0.003876363886263074,0.006455924963679949,22.659271546000127
1611,A,3226033944471.0,2.992356499234146,9.430298817446367,-0.31777954,55,1970-01-01 00:53:46.033944471,2.9405518,3.5437012,-0.5872345,10.511152309467922,4.64214470275916,-83.54747009277344,18.597806930541992,131.37242126464844,22709625.0,50354.0,0.22082397037967622,0.03088829254969434,0.08344721679312,0.012827878505762596,0.002629367180601116,0.006405706571129719,22.709625550000055
1611,A,3226084298475.0,2.209550199234146,9.155533817446367,-2.5053253,55,1970-01-01 00:53:46.084298475,1.8799438,3.5059967,0.091537476,11.278680689031077,3.9792688601151065,-84.00255584716797,18.636648178100586,131.0325469970703,22759979.0,50354.0,0.1309684049473362,-0.025533691751305678,-0.07107731055668001,0.008857076633608192,0.00013481278430103134,0.0003114371293148497,22.759979553999983
1611,A,3226134652479.0,3.933411799234146,8.488556817446366,-1.586319,55,1970-01-01 00:53:46.134652479,-0.85723877,0.064453125,0.9676666,11.341266116500787,1.2943690211330534,-84.40904998779297,18.461471557617188,130.91868591308594,22810333.0,50354.0,0.1546613542354362,-0.04924393008530571,-0.10301532854110002,0.007191300446944661,-0.0018826761849803652,-0.004383130374564808,22.81033355799991
1611,A,3226185006482.0,7.209397599234146,7.161667817446366,3.117035,55,1970-01-01 00:53:46.185006482,-1.0363312,-2.2397919,0.84588623,12.882623600790794,2.6088644321816847,-84.20174407958984,17.89068603515625,131.10939025878906,22860687.0,50354.0,0.2805425122252362,-0.09944349436730573,0.038538836732,0.01095712774588035,-0.003743503285443399,-0.0016233246342777109,22.86068756099985
1611,A,3226235360486.0,7.458771999234147,6.028168817446366,3.2795563,55,1970-01-01 00:53:46.235360486,-0.06726074,-0.6246338,-0.18489075,14.04365889472123,0.654886234916684,-83.99323272705078,17.277755737304688,131.2021026611328,22911041.0,50354.0,0.36930050598063624,-0.16138868304330573,0.1610469791601,0.016361097669369253,-0.006566971730666966,0.005024972086715402,22.911041564999778
1611,A,3226285714490.0,5.9243023492341464,5.936402817446366,-8.793488,55,1970-01-01 00:53:46.285714490,-0.72946167,2.3672943,-1.8139496,16.22769906312615,3.070278453520436,-85.00679016113281,16.848695755004883,130.79405212402344,22961395.0,50354.0,0.3369456628713862,-0.19223717994830575,-0.13882425841090001,0.01778115979318737,-0.008903238352539802,0.000559501440302608,22.96139556900016
1611,A,3226336068494.0,1.6938489992341461,5.841935817446366,-3.3414001,55,1970-01-01 00:53:46.336068494,-2.7918549,0.124420166,-2.8177948,14.697515989152896,3.9686145813455505,-85.6122055053711,16.706388473510742,130.64207458496094,23011749.0,50354.0,0.1918021965003862,-0.19692596818930574,-0.3055200776937,0.013312284855403117,-0.009797960580660646,-0.011187257350105515,23.01174957300009
1611,A,3226386422498.0,-1.9194934007658535,5.990403817446367,0.5641022,55,1970-01-01 00:53:46.386422498,-1.4408569,1.0084381,-2.428299,15.599356510945174,2.9982748441746,-85.74803924560547,16.903236389160156,130.5664825439453,23062103.0,50354.0,-0.005681049097363797,-0.1955663850123057,-0.0699240292283,0.0046859721281658955,-0.009881779976556973,-0.009452556279975193,23.062103577000016
1611,A,3226436776502.0,3.513367999234146,8.919526817446366,-1.2287292,55,1970-01-01 00:53:46.436776502,-0.31602478,1.4044952,-1.5531311,10.951463135840328,2.1177097634435884,-86.0619125366211,16.707406997680664,130.4077911376953,23112457.0,50354.0,0.04012898076563621,-0.1180818764053057,-0.016733313979000002,0.0008672955756120946,-0.007896722277711201,-0.0021817719299301926,23.112457580999944
1611,A,3226487130506.0,4.087342499234146,13.346482817446367,2.5813904,55,1970-01-01 00:53:46.487130506,-0.93226624,-1.0167999,-1.1969299,6.9383111355364,1.8263744315987775,-85.63195037841797,16.58915138244629,130.5890350341797,23162811.0,50354.0,0.1913630882199362,0.0671221245776943,0.0340559510324,0.005828275820849756,-0.0012830136717637722,0.0004361320330934518,23.162811584999872
1611,A,3226537484510.0,-0.4189594007658535,16.922837717446367,2.5957336,55,1970-01-01 00:53:46.537484510,-0.20111084,-1.114563,-0.7611542,7.18163729351261,1.3645702499732821,-85.12664031982422,17.559715270996094,130.79074096679688,23213165.0,50354.0,0.09235888127013621,0.2686214831069943,0.130344450948,0.007143268025851553,0.008453016810677404,0.004139108920660531,23.2131655889998
1611,A,3226587838514.0,-1.5390003007658537,18.438294817446366,3.251297,55,1970-01-01 00:53:46.587838514,0.6584625,-0.7030792,0.5792084,8.043637624931739,1.1239998202888868,-84.49027252197266,18.742900848388672,131.01480102539062,23263519.0,50354.0,-0.049295551405463794,0.3968180338309943,0.1472106894162,0.0010842054560028574,0.016753770717947737,0.006988005768949465,23.263519593000183
1611,A,3226638192518.0,1.2617504992341457,7.507996817446367,-10.9362335,55,1970-01-01 00:53:46.638192518,-0.36026,-2.1371002,2.288681,16.886326104057996,3.1519906808556777,-85.54814910888672,18.9047908782959,130.79037475585938,23313873.0,50354.0,-0.006980318253163812,0.15978058449169436,-0.19348364626050002,-0.0014168575703952671,0.014013483413510332,-0.0011650142344689417,23.31387359700011
1611,A,3226688546521.0,10.295853999234147,0.6625988174463657,-13.169266,55,1970-01-01 00:53:46.688546521,0.9295044,1.3258057,1.0512085,23.49264027856735,1.9304865951992778,-86.46026611328125,18.343952178955078,130.4253387451172,23364227.0,50354.0,0.29098580845793626,-0.28775811370030574,-0.6069041609115,0.007150406226885556,-0.003222090252885209,-0.020151363821169447,23.36422760000005
1611,A,3226738900525.0,1.7137769992341463,6.1914078174463665,-1.7513733,55,1970-01-01 00:53:46.738900525,1.0576782,1.5909882,-0.4111786,14.081309402824933,1.9542247742755794,-86.70989227294922,18.291641235351562,130.25367736816406,23414581.0,50354.0,0.3023664796484362,-0.32090587495330575,-0.37565693565610003,0.01493883055765414,-0.015324333242331978,-0.02473794072828247,23.414581603999977
1611,A,3226789254529.0,-0.9834735007658537,11.097214817446366,4.952591,55,1970-01-01 00:53:46.789254529,-0.27970886,0.26135254,-0.5520172,11.893308546795263,0.6717627450393414,-86.16197967529297,18.701173782348633,130.4180145263672,23464935.0,50354.0,0.018386851180936203,-0.05819354792130572,0.0805970580329,0.00807560661029111,-0.009544586169714092,-0.007428722538919307,23.464935607999905
1611,A,3226839608533.0,3.051545399234146,16.622727817446368,3.0573883,55,1970-01-01 00:53:46.839608533,-0.44699097,0.438797,0.1270752,5.0229915724439405,0.6391336643657419,-85.3305435180664,19.142810821533203,130.67446899414062,23515289.0,50354.0,0.0520678461877362,0.20443579571869439,0.2016672488361,0.0017738379156510653,0.003681941072794855,0.007106568454040813,23.515289611999833
1611,A,3226889962537.0,-1.9539173007658537,6.625458817446367,1.0585175,55,1970-01-01 00:53:46.889962537,-0.24520874,0.8486786,0.8560028,15.093742649007499,1.2300908445631922,-85.35633087158203,19.473512649536133,130.63330078125,23565643.0,50354.0,0.0276349826351362,0.09185039490669435,0.1036261603266,0.0020066781212734583,0.007459597421375413,0.0076863721624892975,23.56564361599976
1611,A,3226940316541.0,1.146515999234146,9.067017817446366,0.25546265,55,1970-01-01 00:53:46.940316541,-0.7331848,-0.7563629,1.2733917,11.465794123808566,1.6526255501704976,-85.45684814453125,19.636789321899414,130.6522979736328,23615997.0,50354.0,-0.020327942568663805,-0.0983797157633057,0.03308207823655,0.00018396934775357547,-0.00016438871120690412,0.003441903322304428,23.615997620000144
1611,A,3226990670545.0,4.698197599234146,13.361680417446365,-0.024459839,55,1970-01-01 00:53:46.990670545,0.2516327,-3.3951569,0.9427185,6.297164821504518,3.532580864123162,-85.50751495361328,19.41825294494629,130.79400634765625,23666351.0,50354.0,0.1471523542686362,0.07121813545989428,0.005815957772547,0.0031930582133702055,-0.0006838471072989895,0.0009793358526010354,23.66635162400007
1611,A,3227041024549.0,5.593232399234146,10.902588817446366,3.3404999,55,1970-01-01 00:53:47.041024549,1.5906677,-4.044571,0.5301056,9.2932954636062,4.378331903021476,-84.92510986328125,18.990644454956055,131.15122985839844,23716705.0,50354.0,0.2591073330714362,0.11743230652689428,0.08348794061579701,0.010228400148161003,0.004749652177901375,0.002248404249723337,23.716705628
1611,A,3227091378553.0,4.466645499234146,11.400864817446367,3.6605682,55,1970-01-01 00:53:47.091378553,2.4574432,0.6153717,-0.46539307,9.04383119842965,2.57571351667672,-84.32463836669922,18.722536087036133,131.27439880371094,23767059.0,50354.0,0.2532775458497362,0.06806485216569431,0.1762658915537,0.012900314096598359,0.004670261964403303,0.006539822232531426,23.767059631999928
1611,A,3227141732557.0,1.367890599234146,8.724549817446366,0.714447,55,1970-01-01 00:53:47.141732557,3.2286987,4.193924,-0.55311584,11.715071386987642,5.321600412058067,-84.28173065185547,18.79450225830078,131.03616333007812,23817413.0,50354.0,0.1468961153511362,0.013228364262694308,0.1101497576904,0.010075172268054365,0.0020467193100175405,0.0072110868010187065,23.817413635999856
1611,A,3227192086561.0,1.7249157992341457,8.860871817446366,-1.2951508,55,1970-01-01 00:53:47.192086561,0.027816772,2.3647156,0.5711365,11.51013165356643,2.4328687887594986,-84.62940979003906,18.883718490600586,130.8147735595703,23867767.0,50354.0,0.07786758669423618,-0.05072103949830572,-0.014620379572600001,0.0056588757263963405,-0.0009439530844069885,0.002405143152871851,23.867767639999784
1611,A,3227242440564.0,5.2490398992341465,7.231309817446366,1.8608093,55,1970-01-01 00:53:47.242440564,-1.8049622,0.014190674,1.0185242,12.491113777631853,2.07255433333919,-84.63383483886719,18.524160385131836,130.8463897705078,23918121.0,50354.0,0.1755832826203362,-0.08831634297830572,0.014241584054500002,0.006381132536732989,-0.0035005441786136464,-9.536934759203698e-06,23.918121643000177
1611,A,3227292794568.0,7.664185799234146,6.729630817446367,3.590683,55,1970-01-01 00:53:47.292794568,0.119018555,-1.7328644,0.3728485,13.47601507549436,1.7765135657162592,-84.33387756347656,17.89609146118164,131.02171325683594,23968475.0,50354.0,0.3251162834103362,-0.1419745976353057,0.13725222163710002,0.012606112973954241,-0.0057980350118288955,0.0038141595458974138,23.968475647000105
1611,A,3227343148572.0,9.435685399234146,6.388581817446367,-5.582672,55,1970-01-01 00:53:47.343148572,0.98495483,4.5505066,-0.959671,14.789997327326127,4.753757962078517,-85.05255126953125,17.152515411376953,130.5701904296875,24018829.0,50354.0,0.4305234571638362,-0.1631919604913057,-0.050152307053,0.01902474174843594,-0.0076831784339536965,0.002192914549483886,24.018829651000033
1611,A,3227393502576.0,7.006882899234146,4.442643817446367,-0.8025665,55,1970-01-01 00:53:47.393502576,-2.9965668,-1.0562439,-2.1101227,15.205992802773334,3.8141423114777377,-85.39574432373047,16.511028289794922,130.55657958984375,24069183.0,50354.0,0.4139745420505362,-0.22077143219030568,-0.1607611497145,0.021261926126220257,-0.00966704633754493,-0.005310168101035348,24.06918365499996
1611,A,3227443856580.0,-1.745482000765854,1.8551188174463675,12.682709,55,1970-01-01 00:53:47.443856580,-3.0969086,0.67752075,-3.278946,23.036553623894914,4.560851248873451,-84.8370132446289,16.465166091918945,130.71417236328125,24119537.0,50354.0,0.13246629042073618,-0.33491043014130567,0.2991063477225,0.013757740839129225,-0.01399040224792298,0.003483117050247416,24.11953765899989
1611,A,3227494210584.0,-5.3517140007658535,8.239960817446367,-5.190628,55,1970-01-01 00:53:47.494210584,-0.3128662,0.88298035,-2.3026428,16.679407184860406,2.485900927627729,-85.42486572265625,17.002683639526367,130.4972381591797,24169891.0,50354.0,-0.17868610373056382,-0.23930538003230567,0.188628123337,-0.0011636762397015303,-0.014457031452741013,0.01227969077786503,24.169891662999817
1611,A,3227544564588.0,2.4273845992341463,10.730912817446367,-0.9915314,55,1970-01-01 00:53:47.544564588,-0.22973633,0.53022766,-1.7424164,9.491341216113417,1.8357382884659523,-85.71385955810547,17.008832931518555,130.38417053222656,24220245.0,50354.0,-0.0736258413423638,-0.015839514494305693,-0.1556482272138,-0.0063524578411011,-0.006423783009496495,0.0008303348446938061,24.2202456670002
1611,A,3227594918592.0,2.938309999234146,15.325944417446365,2.2824097,55,1970-01-01 00:53:47.594918592,-0.9290924,-2.0772095,-1.018753,5.5719629485839235,2.4931645893596777,-85.20217895507812,17.30411148071289,130.6440887451172,24270599.0,50354.0,0.1350920929056362,0.1625642946028943,0.032500442959100005,0.0015475358156085094,0.003694089788793935,-0.003100491764180582,24.270599671000127
1611,A,3227645272596.0,-0.4597003007658538,17.712083317446368,2.947815,55,1970-01-01 00:53:47.645272596,0.34883118,-1.4939423,0.0748291,7.104152606823261,1.5359512303703826,-84.56962585449219,18.365713119506836,130.9040069580078,24320953.0,50354.0,0.06240395637833619,0.33832922428139434,0.1316813672719,0.004972358032822573,0.012610996124949737,0.004133605436185887,24.320953675000055
1611,A,3227695626600.0,-1.1348255007658539,19.586396647446367,5.6240997,55,1970-01-01 00:53:47.695626600,0.6852417,-0.48579407,1.3830414,8.874577306574636,1.6181333628536352,-83.56619262695312,19.454557418823242,131.24758911132812,24371307.0,50354.0,-0.040145376105163805,0.4455946300761044,0.21581509640190003,0.0005604042755376612,0.019736850881158747,0.008748918465915264,24.371307678999983
1611,A,3227745980604.0,10.957840999234147,2.450394817446366,-6.261963,55,1970-01-01 00:53:47.745980604,-1.9531097,-3.7099915,2.3400116,18.967019768398753,4.801492342849346,-84.24469757080078,18.767431259155273,131.244140625,24421661.0,50354.0,0.24731406120493626,0.06135109871160431,-0.016059484304099984,0.005215885984756971,0.012763372613688142,0.005029247045786312,24.42166168299991
1611,A,3227796334607.0,16.712601999234145,6.709138817446366,-16.919113,55,1970-01-01 00:53:47.796334607,1.3049316,1.9532776,-0.3380127,23.924203249660835,2.3732661984492194,-85.35267639160156,17.919708251953125,130.7808380126953,24472015.0,50354.0,0.6966587433724363,-0.26285962167430577,-0.583629950452,0.02376640330084451,-0.005073380082631935,-0.01509838089885433,24.47201568599985
1611,A,3227846688611.0,-3.515441000765853,18.820542767446366,-6.349701,55,1970-01-01 00:53:47.846688611,1.3049469,1.8377991,-0.4947052,11.241275922362986,2.307623274862572,-86.17967224121094,19.01161766052246,130.4097442626953,24522369.0,50354.0,0.3322649224584362,0.14929159326284427,-0.585838930078,0.02590521113462388,-0.0028593022513153663,-0.02944371800510381,24.522369689999778
1611,A,3227897042615.0,6.430634749234146,5.119752817446367,-5.370407,55,1970-01-01 00:53:47.897042615,0.5074463,1.8245087,0.528183,15.435275806164626,1.9660394261683514,-86.8034439086914,18.555910110473633,130.11622619628906,24572723.0,50354.0,0.07339583300518622,0.1092756219408443,-0.295077159116,0.010213320840307622,0.006509946777183268,-0.022178824377637338,24.57272369400016
1611,A,3227947396619.0,2.057648999234146,12.982987817446366,1.5266113,55,1970-01-01 00:53:47.947396619,-0.97442627,0.1071167,0.86213684,7.697706175782282,1.3054732758544652,-86.62576293945312,18.852283477783203,130.18592834472656,24623077.0,50354.0,0.21370951993518622,-0.037696499035305704,-0.09677524433890002,0.007228451470979757,0.001802147577392745,-0.009865667961784019,24.62307769800009
1611,A,3227997750623.0,-0.0882250007658536,10.512650817446367,1.5652466,55,1970-01-01 00:53:47.997750623,-0.4520874,-0.8626251,0.93989563,10.881415682784457,1.353480282708938,-86.48907470703125,19.23270606994629,130.28118896484375,24673431.0,50354.0,0.0495841880094362,0.09808049391069432,0.0778437063483,0.006628945684921759,0.0015202878389776592,-0.00047663933198933663,24.673431702000016
1611,A,3228048104627.0,2.725205699234146,10.981248317446367,-0.5051117,55,1970-01-01 00:53:48.048104627,-0.47543335,-2.1004028,1.2121277,9.116708078495222,2.4712309389547857,-86.64642333984375,19.29034423828125,130.33958435058594,24723785.0,50354.0,0.0663912630453362,0.047682698519194336,0.0266910163773,0.0029199139312060048,0.0036698798958073073,0.0026318707140624313,24.723785705999944
1611,A,3228098458631.0,5.274323699234146,11.617432817446367,3.4003296,55,1970-01-01 00:53:48.098458631,0.35461426,-3.4497986,0.7967682,8.664393450021892,3.558328430385333,-86.05632019042969,18.944791793823242,130.6917266845703,24774139.0,50354.0,0.2014041516652362,0.07549779493319433,0.0728929010683,0.006742285156168082,0.00310131528365079,0.002507224289527871,24.774139709999872
1611,A,3228148812635.0,5.166306739234146,10.939103817446366,5.3228607,55,1970-01-01 00:53:48.148812635,2.7987366,-2.1870728,-0.034606934,10.159058892122824,3.5520996084795087,-85.17789459228516,18.597192764282227,131.0320281982422,24824493.0,50354.0,0.2628637525493162,0.07443672285669432,0.21962376218309998,0.011688873024409787,0.0037749013543960266,0.007364692030680497,24.8244937139998
1611,A,3228199166639.0,3.676926899234146,10.803986817446367,0.71435547,55,1970-01-01 00:53:48.199166639,2.4590912,2.8178406,-0.43544006,9.03511256138391,3.765230832602246,-85.10687255859375,18.45108413696289,130.88058471679688,24874847.0,50354.0,0.22264609331571622,0.0539565929146943,0.15199899151209,0.012223681389343922,0.0032325585111762515,0.009356346069783798,24.874847718000183
1611,A,3228249520643.0,-0.8358905007658537,7.123444817446366,-12.527283,55,1970-01-01 00:53:48.249520643,4.681595,4.0475616,0.009765625,18.842861448497022,6.188714084303071,-86.02706909179688,18.665315628051758,130.3223876953125,24925201.0,50354.0,0.0715287734042362,-0.042110253728305715,-0.29741407642281004,0.007406440619408242,0.0002982552816957054,-0.0036611155927971984,24.92520172200011
1611,A,3228299874646.0,3.6419079992341463,10.188431817446366,0.34204102,55,1970-01-01 00:53:48.299874646,-1.4285583,0.80744934,1.1209259,9.620827840004448,1.9872664960835362,-86.15927124023438,18.57126808166504,130.2685546875,24975555.0,50354.0,0.0706471025589362,-0.057608081963305725,-0.30678783733046006,0.003579562029124792,-0.0025106085377077014,-0.015211991582566083,24.97555572500005
1611,A,3228350228650.0,6.744019799234146,7.406708817446367,3.2008057,55,1970-01-01 00:53:48.350228650,-1.0867462,-0.800827,0.914093,12.621731904569877,1.630308927716597,-85.91539764404297,18.058330535888672,130.4032745361328,25025909.0,50354.0,0.26148650418203623,-0.050476344235305705,0.08919825186944,0.008362127816917463,-0.00272124159840244,-0.0054782529931521025,25.025909728999977
1611,A,3228400582654.0,8.038926399234146,5.235428817446367,3.4050293,55,1970-01-01 00:53:48.400582654,0.62838745,-1.2216492,0.14839172,14.916769080290718,1.3817806112920752,-85.62538146972656,17.41733741760254,130.5403289794922,25076263.0,50354.0,0.3721902364388362,-0.1751781007663057,0.166315107795,0.015954079298611704,-0.00568130196180557,0.006433059856271606,25.076263732999905
1611,A,3228450936658.0,9.006425199234146,5.202744817446366,-11.080261,55,1970-01-01 00:53:48.450936658,0.33992004,6.2749176,-1.4870453,18.439899138600392,6.457665231694459,-86.69169616699219,16.805234909057617,129.91758728027344,25126617.0,50354.0,0.42915081719463627,-0.23066730239430572,-0.19323930851090002,0.020175363707329936,-0.010217969715374715,-0.0006778706014242147,25.126617736999833
1611,A,3228501290662.0,6.428590069234146,5.873017817446366,0.7713318,55,1970-01-01 00:53:48.501290662,-3.7595825,-3.1446838,-2.3409271,13.740113071140543,5.431706588522902,-86.83718872070312,16.196208953857422,130.0744171142578,25176971.0,50354.0,0.3886073794142262,-0.21461472414130575,-0.25954791046840003,0.020588698116021334,-0.01121086558208709,-0.011399823812241838,25.17697174099976
1611,A,3228551644666.0,-4.571715000765853,5.303757817446366,11.439178,55,1970-01-01 00:53:48.551644666,-1.965332,0.5098419,-2.9131622,20.990783551521105,3.5509129300404494,-86.1886978149414,16.44308853149414,130.2518768310547,25227325.0,50354.0,0.04675054359882621,-0.21207151984030576,0.3074240052346,0.010961006427699621,-0.010742679564725032,0.0012053764379286167,25.227325745000144
1611,A,3228601998670.0,-3.1783280007658545,9.622147817446367,-2.8159332,55,1970-01-01 00:53:48.601998670,-0.41827393,1.8375397,-1.5739899,13.65000797648852,2.4553919106520947,-86.61961364746094,16.977121353149414,130.04095458984375,25277679.0,50354.0,-0.19512283264956382,-0.11767967383030573,0.21710743432960003,-0.0037355691214304206,-0.008302145803044985,0.013206128053907864,25.27767974900007
1611,A,3228652352674.0,6.4691631992341465,10.096360817446367,-0.33921814,55,1970-01-01 00:53:48.652352674,-0.56721497,0.3671112,-1.6089325,9.512132258971102,1.7450407573789763,-86.79570007324219,16.37626075744629,129.9766387939453,25328033.0,50354.0,0.0828533577918362,0.002983691900694325,-0.07943724528717999,-0.0028266085684930083,-0.0028877007370418264,0.0034661223495210097,25.328033753
1611,A,3228702706678.0,1.0082866992341462,15.181062217446367,1.9333344,55,1970-01-01 00:53:48.702706678,-0.7002411,-1.7541809,-0.93600464,6.7326437960388645,2.10798313896377,-86.4303970336914,17.018301010131836,130.1729736328125,25378387.0,50354.0,0.1882597560937362,0.14294047974949436,0.04013506507802,0.006825814868297057,0.003673932869636801,-0.0009895109911260212,25.378387756999928
1611,A,3228753060682.0,-1.1034686007658543,17.986115917446366,2.60849,55,1970-01-01 00:53:48.753060682,0.42703247,-1.3019867,0.062301636,7.484815971517789,1.3716441197553642,-85.88383483886719,18.168968200683594,130.39425659179688,25428741.0,50354.0,-0.0023963947348638157,0.34158084390219434,0.11434951291880001,0.004679481848932331,0.012198793365578567,0.0038894582202259375,25.428741760999856
1611,A,3228803414686.0,0.7053079992341464,16.832139417446367,1.5910339,55,1970-01-01 00:53:48.803414686,0.4942932,-1.1797638,1.4726257,5.941052842203658,1.9505883326978992,-85.48248291015625,19.17446517944336,130.57595825195312,25479095.0,50354.0,-0.010024489464763808,0.3831500145665943,0.10573141323030001,-0.0003127206014940247,0.01824654882366869,0.005540977477655891,25.479095764999784
1611,A,3228853768689.0,15.465592999234147,1.515977817446366,-6.8103027,55,1970-01-01 00:53:48.853768689,-1.8109436,-2.587387,1.9953918,21.615733930462603,3.73572973402215,-86.09954071044922,18.27408218383789,130.53684997558594,25529449.0,50354.0,0.40713477443843626,-0.031518652377105695,-0.13140553057760002,0.009998045644782152,0.008853022805844754,-0.0006463972524529722,25.529449768000177
1611,A,3228904122693.0,14.359970999234147,11.077088817446366,-16.605179,55,1970-01-01 00:53:48.904122693,1.2194672,3.556961,-0.5768585,20.552328842412702,3.8041868429953714,-87.34944915771484,17.519758224487305,129.96324157714844,25579803.0,50354.0,0.7509182247894363,-0.1764135613333057,-0.5895315827609,0.02915630036156015,-0.005235109344587028,-0.01815103370252342,25.579803772000105
1611,A,3228954476697.0,0.38235599923414654,13.686753817446366,2.2986603,55,1970-01-01 00:53:48.954476697,0.21694946,0.8214569,0.09550476,8.278780106021303,0.8549734884395885,-86.98332214355469,18.09673500061035,130.03305053710938,25630157.0,50354.0,0.3711675668404362,0.1300100660186943,-0.3601952213099,0.028250753975865302,-0.0011683008015359714,-0.023911271746090534,25.630157776000033
1611,A,3229004830701.0,1.460419999234146,8.423234817446367,-4.48761,55,1970-01-01 00:53:49.004830701,-0.7187805,3.0099487,-0.057647705,12.755437901255958,3.095118712053498,-87.6675796508789,18.17540168762207,129.68821716308594,25680511.0,50354.0,0.046395571313436204,0.06319398386069432,-0.05511118659690001,0.010512987129300046,0.004864298363813367,-0.010456169431869505,25.68051177999996
1611,A,3229055184705.0,2.026856699234146,16.555360317446365,2.3724976,55,1970-01-01 00:53:49.055184705,-1.3037567,-0.6070099,0.960022,5.334144242427017,1.7291283329981324,-87.08409881591797,18.90511131286621,129.9247589111328,25730865.0,50354.0,0.0877991654373362,0.13541688971119428,-0.053252184894800006,0.0033786208871741967,0.00500042596391944,-0.0027282646040465313,25.73086578399989
1611,A,3229105538709.0,-0.2916095007658539,11.065201817446367,3.426529,55,1970-01-01 00:53:49.105538709,-0.4522705,-0.22857666,1.0711365,10.97252750461416,1.1849596180036075,-86.68828582763672,19.33443832397461,130.07510375976562,25781219.0,50354.0,0.04368831871583619,0.2019336928701943,0.1460020927082,0.0033104603885244213,0.008493475617651621,0.0023351644290179716,25.781219787999817
1611,A,3229155892713.0,3.311219499234146,11.125840817446367,1.4697266,55,1970-01-01 00:53:49.155892713,0.09651184,-1.253479,1.2759552,8.909377238547473,1.7912525816054603,-86.49341583251953,19.307830810546875,130.20050048828125,25831573.0,50354.0,0.0760247209314362,0.06523468041869432,0.12327302724120001,0.003014015199199377,0.00672649813429435,0.006779539694966044,25.8315737920002
1611,A,3229206246717.0,5.6266796692341465,12.639405817446367,2.7908783,55,1970-01-01 00:53:49.206246717,1.4858704,-3.2406616,1.0592651,7.475542286057028,3.7191048658768326,-85.8837890625,18.91851234436035,130.53125,25881927.0,50354.0,0.2250294873645262,0.10486841452669432,0.10726924956730002,0.007579641802267446,0.00428268562144005,0.0058043629032076055,25.881927796000127
1611,A,3229256600721.0,5.322343119234146,10.130555817446366,4.1321564,55,1970-01-01 00:53:49.256600721,3.5233917,-1.1859741,0.09971619,10.315687984114087,3.718973911719174,-85.18334197998047,18.534107208251953,130.7552947998047,25932281.0,50354.0,0.2756635467452662,0.0798101240816943,0.17430124464190003,0.012605948519782244,0.0046496515665434,0.00708910033270503,25.932281800000055
1611,A,3229306954725.0,3.747086799234146,9.418259817446366,-3.1780548,55,1970-01-01 00:53:49.306954725,3.203827,2.706192,-0.2516632,10.824270026055379,4.201347040298771,-85.62901306152344,18.36610984802246,130.4344940185547,25982635.0,50354.0,0.22834103705727618,-0.0012886687603057335,0.024021415983200012,0.012689323406396611,0.0019769346806266003,0.004993169626558144,25.982635803999983
1611,A,3229357308729.0,1.5825969992341458,5.966263817446366,-15.270081,55,1970-01-01 00:53:49.357308729,3.4581451,5.628998,0.083984375,20.869567263139263,6.606923595131258,-86.7254638671875,18.387605667114258,129.76828002929688,26032989.0,50354.0,0.1341854489940362,-0.10613304844430572,-0.46446871503660003,0.009127329339313893,-0.0027045565740605026,-0.011089141648267452,26.03298980799991
1611,A,3229407662732.0,5.924546489234146,7.359177817446367,0.59602356,55,1970-01-01 00:53:49.407662732,-2.086792,-0.46180725,0.8947296,12.230571751966126,2.3170040665766476,-86.83392333984375,17.957605361938477,129.79168701171875,26083343.0,50354.0,0.18900735160916618,-0.1579745559583057,-0.36944874416688,0.008137025140786827,-0.006649437156044549,-0.02099553987036602,26.08334381099985
1611,A,3229458016736.0,9.323426499234145,6.053101817446366,2.5182648,55,1970-01-01 00:53:49.458016736,-0.04083252,-1.5061646,-0.003189087,14.214756504289348,1.5067213635103882,-86.62577056884766,17.18486785888672,129.9266815185547,26133697.0,50354.0,0.3838982159306662,-0.15578823563230568,0.07840843803972,0.014424043473950359,-0.007899605803876823,-0.007327521787363509,26.133697814999778
1611,A,3229508370740.0,9.235703699234147,4.752671817446366,-5.4960785,55,1970-01-01 00:53:49.508370740,-0.5751648,2.3072662,-1.7024384,16.19129439930722,2.9244808719866913,-87.27716064453125,16.430540084838867,129.6320037841797,26184051.0,50354.0,0.4672632210068362,-0.22141223719430572,-0.07497241552490001,0.021429691497775502,-0.009496776304355596,8.650873885562288e-05,26.18405181900016
1611,A,3229558724744.0,2.508942899234146,2.239441817446366,4.7576447,55,1970-01-01 00:53:49.558724744,-3.5207367,-2.1127472,-2.8327026,18.261616948755943,4.988335560272734,-87.10343170166016,16.136947631835938,129.8252716064453,26234405.0,50354.0,0.29569496740963624,-0.31742875501430573,-0.018591547782600006,0.019208998309761527,-0.013566399660836212,-0.0023556599041929284,26.23440582300009
1611,A,3229609078748.0,-5.977965000765853,3.153672817446367,11.754852,55,1970-01-01 00:53:49.609078748,-1.80159,0.97203064,-2.962555,23.342495813707753,3.601014054571824,-86.51207733154297,16.39111328125,129.96209716796875,26284759.0,50354.0,-0.0873395694502638,-0.3576867528373057,0.4157351294159,0.0052457638544231204,-0.016997383141180024,0.009998883954781594,26.284759827000016
1611,A,3229659432752.0,-0.5763233007658535,9.918213817446366,-2.0966034,55,1970-01-01 00:53:49.659432752,-0.19798279,-0.12199402,-1.8949127,11.721553232356616,1.9091290859114882,-86.86383819580078,16.707279205322266,129.86502075195312,26335113.0,50354.0,-0.1650173165676638,-0.1643583101933057,0.24316572500220002,-0.006353589319273364,-0.013143528551921706,0.016589146811684507,26.335113830999944
1611,A,3229709786756.0,7.059861399234146,12.816270317446367,3.571167,55,1970-01-01 00:53:49.709786756,-1.2183685,-1.804657,-1.3008728,7.757828955941669,2.536430312707426,-86.28529357910156,16.032451629638672,130.1284637451172,26385467.0,50354.0,0.1632360387051362,0.07891690706419432,0.037125087757200005,-4.484723274485746e-05,-0.0021511582065816374,0.007056881792843415,26.385467834999872
1611,A,3229760140760.0,0.6512462992341463,17.117997617446367,3.472229,55,1970-01-01 00:53:49.760140760,-0.45913696,-2.0930023,-0.7816162,6.62432283304826,2.280874669933833,-85.53116607666016,16.88037872314453,130.44638061523438,26435821.0,50354.0,0.1941425585243362,0.26018586379679437,0.177331581092,0.008997720942446427,0.008537590461967113,0.005399375551616309,26.4358218389998
1611,A,3229810494764.0,-1.3861530007658542,18.925706317446366,2.8997498,55,1970-01-01 00:53:49.810494764,1.0133362,-1.024353,0.58399963,7.7116622121203084,1.5547362768905784,-84.90838623046875,18.122119903564453,130.67001342773438,26486175.0,50354.0,-0.01850274602446381,0.41400313396879435,0.1604273102476,0.0044220835593092875,0.01697405639674423,0.008503755607257111,26.486175843000183
1611,A,3229860848768.0,6.6675274492341465,11.786958217446365,8.656662,55,1970-01-01 00:53:49.860848768,-0.04208374,-2.983307,1.9723511,11.681156821966486,3.5765990212900016,-83.83831024169922,17.768468856811523,131.14991760253906,26536529.0,50354.0,0.1329691644890862,0.2797835549949943,0.29095577988860005,0.002881921017683798,0.017467467468041308,0.011364472060359109,26.53652984700011
1611,A,3229911202771.0,13.886826999234145,3.1763778174463653,7.874237,55,1970-01-01 00:53:49.911202771,-1.4855804,-3.8269348,1.0301056,19.935062364017877,4.232433890265335,-83.39588928222656,16.863759994506836,131.4906768798828,26586883.0,50354.0,0.5174969819490862,-0.11673728864950576,0.41619844412300006,0.01637678616887387,0.004105015847780365,0.017804021897940055,26.58688385000005
1611,A,3229961556775.0,-0.13220100076585428,4.934632817446367,-8.208008,55,1970-01-01 00:53:49.961556775,0.6088867,1.0952301,-0.6139679,17.777503330780394,1.3954313195615577,-84.2117691040039,16.971708297729492,131.18899536132812,26637237.0,50354.0,0.3463002187634362,-0.2892582852453057,-0.00840335246699999,0.021747822122339177,-0.01022175056394967,0.010267057022623115,26.637237853999977
1611,A,3230011910779.0,-1.2879170007658542,6.644028817446367,-2.5656433,55,1970-01-01 00:53:50.011910779,0.11526489,1.4522552,-0.09552002,14.933552728279192,1.4599504221084194,-84.61576843261719,17.264556884765625,130.99884033203125,26687591.0,50354.0,-0.035754310924563826,-0.20195323601830567,-0.27124821878009997,0.007818614321659291,-0.012367232470853945,-0.007040787609288236,26.687591857999905
1611,A,3230062264783.0,1.0279859992341462,14.545091117446367,3.1432953,55,1970-01-01 00:53:50.062264783,-0.6196747,1.3742371,0.8504791,7.568155250253735,1.7308492251993846,-84.13877868652344,17.86504554748535,131.09046936035156,26737945.0,50354.0,-0.006544282825563813,0.04000927260079432,0.014543544404000002,-0.0010649516948469636,-0.0040772631669626835,-0.006463053586767069,26.737945861999833
1611,A,3230112618787.0,1.4314586992341463,10.550324817446366,0.5143585,55,1970-01-01 00:53:50.112618787,-0.57592773,0.044387817,1.3680725,10.008187552051288,1.4850203344524373,-84.22774505615234,18.122455596923828,131.0763702392578,26788299.0,50354.0,0.0619214391733362,0.1383580869927943,0.09208874972260002,0.0013942306653678656,0.004490755012487781,0.002684681269225409,26.78829986599976
1611,A,3230162972791.0,3.6162426992341463,10.517045817446366,1.0541229,55,1970-01-01 00:53:50.162972791,-0.119155884,-2.4818115,1.1046295,9.359599590293973,2.719152952390564,-84.16939544677734,18.0383358001709,131.21893310546875,26838653.0,50354.0,0.12708597810923622,0.036943990474694294,0.039489656207800004,0.004758639744923326,0.004413580404398961,0.0033127495261096812,26.838653870000144
1611,A,3230213326795.0,5.600236189234146,11.968064817446367,3.1994934,55,1970-01-01 00:53:50.213326795,1.6173859,-3.7964783,0.54470825,8.25220395944096,4.162438192875392,-83.58799743652344,17.641815185546875,131.55419921875,26889007.0,50354.0,0.23204328897496623,0.0726384304546943,0.1070932975851,0.009041797557378965,0.002758956611739217,0.003690519027643844,26.88900787400007
1611,A,3230263680799.0,4.575501699234146,10.503419817446366,2.9490051,55,1970-01-01 00:53:50.263680799,2.7210236,-0.5411682,-0.22912598,9.6072485859525,2.783762052898768,-83.14441680908203,17.368871688842773,131.67080688476562,26939361.0,50354.0,0.2561945528179662,0.07229536865269429,0.15480074673450003,0.012292364142820662,0.0036489982601267223,0.006593706353834571,26.939361878
1611,A,3230314034803.0,2.588975199234146,9.626710817446366,0.38613892,55,1970-01-01 00:53:50.314034803,3.2916412,3.7259064,-0.41641235,10.438290131981255,4.989055976467985,-83.15406799316406,17.3753604888916,131.4398956298828,26989715.0,50354.0,0.1803800348727362,0.013347098994694268,0.08396892099154,0.010991638394288817,0.002156220407958302,0.00601150392433851,26.989715881999928
1611,A,3230364388807.0,1.5182199992341463,8.743119817446367,0.4074707,55,1970-01-01 00:53:50.364388807,1.2220459,2.3871307,0.49075317,11.62785279065574,2.7262846209547433,-83.24378204345703,17.51163673400879,131.28445434570312,27040069.0,50354.0,0.1034068535118362,-0.03097197410530571,0.01998070940274,0.007144902488858381,-0.0004437414806598643,0.002617139844436788,27.040069885999856
1611,A,3230414742811.0,4.4834148992341465,8.600632817446366,1.951828,55,1970-01-01 00:53:50.414742811,-0.85920715,0.19795227,1.1490631,11.214787853721747,1.448367369002383,-83.20108032226562,17.294084548950195,131.3072052001953,27090423.0,50354.0,0.1511031618387362,-0.056805539911305714,0.0594000633699,0.006407798656481362,-0.002209974470396226,0.0019985697160967574,27.090423889999784
1611,A,3230465096814.0,8.558152399234146,6.7795728174463665,2.8516388,55,1970-01-01 00:53:50.465096814,-0.120666504,-0.38822937,0.8473816,13.409644305155338,0.9398606412318471,-83.05288696289062,16.631221771240234,131.37542724609375,27140777.0,50354.0,0.3283475398735362,-0.10624176273030572,0.1209368836236,0.012071130317009885,-0.004105041938607851,0.004540343314455349,27.140777893000177
1611,A,3230515450818.0,8.967209999234147,5.223862817446367,-8.696854,55,1970-01-01 00:53:50.515450818,-0.45256042,3.2093964,-0.85180664,17.088915040939874,3.3512103392702204,-84.0278091430664,16.028413772583008,130.9502410888672,27191131.0,50354.0,0.4412360491062362,-0.1912587010203057,-0.14716498309040002,0.01937580601974373,-0.007490169175849145,-0.0006603448602756242,27.191131897000105
1611,A,3230565804822.0,5.3888103992341465,4.439393817446366,-7.9404297,55,1970-01-01 00:53:50.565804822,-2.2035217,2.1121368,-2.5284576,17.094246274516028,3.9635498709216326,-84.99536895751953,15.609187126159668,130.60328674316406,27241485.0,50354.0,0.3614415255722362,-0.2501773877033057,-0.41887689171490006,0.020209013297679903,-0.011114036405794364,-0.01425123628197304,27.241485901000033
1611,A,3230616158826.0,-1.911498000765854,4.233292817446367,8.190353,55,1970-01-01 00:53:50.616158826,-2.4720001,0.020355225,-3.2366028,18.994825343292366,4.072689101140996,-84.58900451660156,15.678048133850098,130.7315673828125,27291839.0,50354.0,0.08754829425623621,-0.2751169685933057,0.006292318924099997,0.01130421669382145,-0.013225336008479787,-0.010387641789153974,27.29183990499996
1611,A,3230666512830.0,-4.718520000765854,7.226166817446366,5.35878,55,1970-01-01 00:53:50.666512830,-1.619461,1.5124054,-2.3561096,17.03970173068581,3.2343896598403723,-84.32976531982422,16.12281036376953,130.7412872314453,27342193.0,50354.0,-0.16692396322456382,-0.2049543847723057,0.34112652154100004,-0.0019984412176155845,-0.012086756463686,0.008746964146389823,27.34219390899989
1611,A,3230716866834.0,1.0457469992341464,10.480805817446367,-0.4075775,55,1970-01-01 00:53:50.716866834,-0.9645233,0.54130554,-1.5705872,10.236681804233012,1.9209531583777417,-84.57823944091797,16.326810836791992,130.65191650390625,27392547.0,50354.0,-0.0924694058595638,-0.04766074997130571,0.1246564253425,-0.0065307468534310815,-0.0063600912474399045,0.01172701725368588,27.392547912999817
1611,A,3230767220838.0,2.564210199234146,14.058305217446367,2.3318481,55,1970-01-01 00:53:50.767220838,-0.796875,-1.2117462,-1.2159119,6.773459366753034,1.8925592110687186,-84.2048110961914,16.563026428222656,130.8212127685547,27442901.0,50354.0,0.09088789238583621,0.12435199852549433,0.04844736089620001,-3.9817764728039575e-05,0.0019308555648488073,0.00435823402613175,27.4429019170002
1611,A,3230817574842.0,0.9763959992341462,17.464570517446365,3.4381104,55,1970-01-01 00:53:50.817574842,0.071014404,-1.4168243,-0.42099,6.23432350450129,1.4797522504615308,-83.40797424316406,17.419662475585938,131.11859130859375,27493255.0,50354.0,0.0891418422588362,0.3001822423773943,0.1452702451545,0.0045326086291489175,0.010688498583212028,0.0048772281675384735,27.493255921000127
1611,A,3230867928846.0,0.3741769992341464,18.417222417446368,3.6218872,55,1970-01-01 00:53:50.867928846,0.91116333,-1.1434174,0.947464,6.568223085336733,1.742214107351748,-82.54541015625,18.470211029052734,131.4300994873047,27543609.0,50354.0,0.0340033763824362,0.4099267007217943,0.1777495595752,0.003100427169731315,0.017878412860408276,0.008132669623679657,27.543609925000055
1611,A,3230918282850.0,9.865067699234146,7.057740817446366,0.6954498,55,1970-01-01 00:53:50.918282850,-1.6001129,-3.098648,1.9488983,13.19961949985119,3.9950200630776935,-82.67749786376953,17.691537857055664,131.57215881347656,27593963.0,50354.0,0.25779346377333623,0.14791394936489433,0.10869759364900002,0.007346569044601884,0.01404475404723256,0.007211879976725684,27.593963928999983
1611,A,3230968636854.0,11.348114999234145,5.703751817446367,-9.220963,55,1970-01-01 00:53:50.968636854,-1.0106964,-1.0689697,0.17033386,17.577334575240524,1.4809514024280301,-83.6407470703125,16.94367218017578,131.35231018066406,27644317.0,50354.0,0.5340843007993362,-0.17217309993130572,-0.21464684583639998,0.019937106478646174,-0.0006107726338105397,-0.002667484322322169,27.64431793299991
1611,A,3231018990857.0,-1.5606220007658536,12.981843417446367,-3.085617,55,1970-01-01 00:53:51.018990857,1.0494537,0.683136,-0.7046509,10.301850565367406,1.4368579448959105,-84.15389251708984,17.62966537475586,131.14834594726562,27694671.0,50354.0,0.2464197112224362,-0.023021968771105676,-0.30984276466000005,0.019650749510672166,-0.004914426244720612,-0.013205074923467865,27.69467193599985
1611,A,3231069344861.0,-0.17684800076585372,11.012299817446367,-1.6037903,55,1970-01-01 00:53:51.069344861,-0.23710632,2.131424,-0.079559326,10.524327810606437,2.146046914937676,-84.55328369140625,18.05769157409668,130.9281005859375,27745025.0,50354.0,-0.043744282228563795,0.11063134422489433,-0.11806520759210001,0.0051027592757787255,0.0022057412458000372,-0.010773439017391124,27.745025939999778
1611,A,3231119698865.0,2.1876232992341462,13.609864817446367,1.3955536,55,1970-01-01 00:53:51.119698865,-0.8340759,1.0909576,0.47865295,7.075579668170478,1.4542969911618027,-84.4365463256836,18.387653350830078,130.92807006835938,27795379.0,50354.0,0.0506252896895362,0.12644303901269432,-0.005242775395900002,0.00017324312484490233,0.00596882174677277,-0.0031045250876888765,27.79537994400016
1611,A,3231170052869.0,-0.5112293007658542,10.534196317446366,2.738617,55,1970-01-01 00:53:51.170052869,-0.22628784,0.41618347,0.88079834,11.321066686083611,1.0001102854084953,-84.20623016357422,18.813077926635742,130.989501953125,27845733.0,50354.0,0.042206571699436195,0.1144058271931943,0.1040860131962,0.002337227774190158,0.006063851904465659,0.0024885761980981535,27.84573394800009
1611,A,3231220406873.0,1.317246699234146,9.450364817446367,1.3278809,55,1970-01-01 00:53:51.220406873,-0.15200806,-0.59262085,1.0604858,11.122860872560084,1.2243104402729423,-84.16117095947266,18.976919174194336,131.0395050048828,27896087.0,50354.0,0.020293100041236186,0.009682095693194299,0.1023822176283,0.0015735542354149085,0.003124161634510606,0.005198250647468437,27.896087952000016
1611,A,3231270760877.0,4.723206799234147,12.073960817446366,1.7482605,55,1970-01-01 00:53:51.270760877,0.8317566,-2.0282745,0.93058777,7.766333564718238,2.381535237334813,-83.89346313476562,18.729990005493164,131.21238708496094,27946441.0,50354.0,0.1520804977309362,0.04844874650969431,0.07744801202780001,0.004339850071109984,0.0014635602141421266,0.00452758569205163,27.946441955999944
1611,A,3231321114881.0,5.327775249234146,11.586778117446366,4.0214844,55,1970-01-01 00:53:51.321114881,2.8709106,-2.8932343,0.4424286,8.951238588816674,4.099838466816323,-83.17012023925781,18.365585327148438,131.5348358154297,27996795.0,50354.0,0.2530535750342862,0.1022372241637943,0.14526486734730001,0.010200060550010005,0.0037938206836464227,0.005607242164026894,27.996795959999872
1611,A,3231371468885.0,3.755906399234146,11.036027817446367,1.4392395,55,1970-01-01 00:53:51.371468885,3.0743256,0.6938324,0.018234253,8.880330721533293,3.151700141524823,-82.95755004882812,18.233335494995117,131.5205535888672,28047149.0,50354.0,0.2286998528634862,0.07610518502279431,0.13748464563030002,0.012129106054182217,0.0044901268360907414,0.007118784488237036,28.0471499639998
1611,A,3231421822889.0,2.933579699234146,8.703065817446367,-14.73613,55,1970-01-01 00:53:51.421822889,2.84964,5.3567657,0.15507507,18.524152139824633,6.06954983270028,-84.2016830444336,18.25487518310547,130.8348846435547,28097503.0,50354.0,0.16842119150113619,0.003501960445694338,-0.3347758121185,0.009998316533968097,0.002004269101460139,-0.004967199698673411,28.097503968000183
1611,A,3231472176893.0,4.140214199234146,7.869706817446367,-4.197281,55,1970-01-01 00:53:51.472176893,-0.44137573,1.7257385,0.9870148,12.535060366002233,2.0364636311101467,-84.89437103271484,18.081968307495117,130.5490264892578,28147857.0,50354.0,0.1780969089817362,-0.07621650337130567,-0.47668648874700004,0.008724286215857278,-0.0018307340472381165,-0.020430186348890694,28.14785797200011
1611,A,3231522530896.0,7.757950999234146,7.262482817446367,2.3252716,55,1970-01-01 00:53:51.522530896,-0.79563904,-1.1841278,1.1859589,12.691900590744261,1.8551815655601398,-84.76910400390625,17.481311798095703,130.6607208251953,28198211.0,50354.0,0.2995601052018362,-0.11248606156230567,-0.04713158066380001,0.012025970646099803,-0.004750964477333533,-0.013188167533555712,28.19821197500005
1611,A,3231572884900.0,6.622437699234146,6.491730817446367,2.965088,55,1970-01-01 00:53:51.572884900,0.82492065,-0.19075012,-0.4348297,13.44340483931484,0.9518175009309962,-84.5295639038086,16.942358016967773,130.72637939453125,28248565.0,50354.0,0.36205504626133617,-0.14717936331430567,0.13319538364920003,0.01665748466838829,-0.006537596402118445,0.0021668283677634165,28.248565978999977
1611,A,3231623238904.0,5.676011333234146,5.698685817446366,-14.948029,55,1970-01-01 00:53:51.623238904,-1.6441345,4.059326,-1.9855042,20.39513930755527,4.808693456291833,-85.86282348632812,16.606725692749023,130.1632080078125,28298919.0,50354.0,0.3096380512904542,-0.1865510803833057,-0.301694505557,0.016911217117061426,-0.008402331380974763,-0.00424230239227268,28.298919982999905
1611,A,3231673592908.0,2.871934199234146,3.8832868174463666,-0.7341156,55,1970-01-01 00:53:51.673592908,-3.1292877,0.38310242,-3.1062012,15.96547199842743,4.425798783096966,-86.20235443115234,16.298791885375977,130.0827178955078,28349273.0,50354.0,0.2152116246709542,-0.2522238749713057,-0.39482935459420004,0.01321414029168038,-0.011047037050963052,-0.017536381227026766,28.349273986999833
1611,A,3231723970706.0,-7.775786000765854,0.9196028174463677,11.941742,55,1970-01-01 00:53:51.723970706,-1.0962982,1.530014,-3.5382538,25.94203008270966,4.007749061098222,-85.66800689697266,16.542041778564453,130.1646270751953,28399651.0,50378.0,-0.1235231230287822,-0.37272441298668696,0.28230890138959996,0.0023095416678646707,-0.015741822425373878,-0.002834277695770671,28.39965178500006
1611,A,3231774324710.0,0.14749269923414587,10.258546317446367,4.3687286,55,1970-01-01 00:53:51.774324710,-1.5508423,1.3302917,-1.3173065,11.705684535148293,2.43106648644179,-85.30008697509766,16.800952911376953,130.2239227294922,28450005.0,50354.0,-0.19205754045266382,-0.21203693923080566,0.4106487182962,-0.007945374364472367,-0.014722536564779811,0.017446593990829387,28.450005788999988
1611,A,3231824678714.0,2.0717479992341463,12.778306417446366,-1.6789398,55,1970-01-01 00:53:51.824678714,-0.85209656,0.31895447,-1.3339691,7.898069039610403,1.6147055648791282,-85.7721939086914,17.022560119628906,130.0784454345703,28500359.0,50354.0,0.0558738230653362,0.0865296413063943,0.06772081261759999,-0.003428697452660748,-0.0031598972398429047,0.012043909679816743,28.500359792999916
1611,A,3231875032718.0,0.31883359923414645,16.883378417446366,3.4340363,55,1970-01-01 00:53:51.875032718,-0.44914246,-1.2408905,-0.7945862,6.9507041504777485,1.5404237766262703,-85.07759857177734,17.865947723388672,130.349609375,28550713.0,50354.0,0.06018767290463621,0.2533230390880943,0.0441880645805,0.0029220802840359953,0.00855647093429204,0.0028175298012165636,28.550713796999844
1611,A,3231925386722.0,0.02409499923414593,19.079102947446366,2.5635529,55,1970-01-01 00:53:51.925386722,0.7940674,-0.6025238,0.21191406,6.274959022791364,1.0190611042203916,-84.42086029052734,19.062456130981445,130.5748748779297,28601067.0,50354.0,0.008633913323636198,0.41195819332390426,0.1510013032884,0.0017327210764692144,0.01674978558843689,0.004914282714835296,28.601067800999772
1611,A,3231975740726.0,-1.646437400765854,16.331132317446368,0.511322,55,1970-01-01 00:53:51.975740726,1.3898468,-0.6452179,2.2073212,8.073976122954985,2.6870517572090216,-84.2991714477539,20.21610450744629,130.63357543945312,28651421.0,50354.0,-0.04084571464336382,0.39805429326420433,0.07741612535730001,-0.0008109965218267822,0.020393684374828813,0.00575086560101279,28.651421805000155
1611,A,3232026094730.0,12.064240699234146,1.8530898174463672,9.907623,55,1970-01-01 00:53:52.026094730,1.4592285,-1.4166412,0.28547668,21.26737130437377,2.0537081193717652,-83.62237548828125,19.388137817382812,130.90512084960938,28701775.0,50354.0,0.26228903364553624,-0.03564503930980564,0.26231777826499997,0.005575278442517696,0.009124377786809896,0.008553480491498648,28.701775809000083
1611,A,3232076448733.0,0.022736999234146182,12.192902817446367,6.2989655,55,1970-01-01 00:53:52.076448733,-0.23477173,-1.2954102,-0.6987915,11.257304825487237,1.4904747270395036,-82.87745666503906,19.689966201782227,131.2152099609375,28752129.0,50354.0,0.3043138375143362,-0.13983324343130568,0.4080332786645,0.01426536048719211,-0.00441801672457296,0.01687742856031402,28.75212981200002
1611,A,3232126802737.0,-4.757857000765854,1.224808817446366,-3.069397,55,1970-01-01 00:53:52.126802737,1.2621155,-1.6983795,-0.037368774,21.356487895139242,2.116323436205053,-83.16361999511719,19.936946868896484,131.1760711669922,28802483.0,50354.0,-0.11921611627856381,-0.15565147416830571,0.08131084612450001,0.004660205327553042,-0.007439418735005416,0.012320217029812654,28.80248381599995
1611,A,3232177156741.0,0.9840709992341461,11.544282817446366,0.20565796,55,1970-01-01 00:53:52.177156741,-1.059845,1.4451904,0.4273224,9.32943398440438,1.8424036337944298,-83.36498260498047,20.232929229736328,131.0599365234375,28852837.0,50354.0,-0.09501261016056381,-0.17198177990830574,-0.07210035781008,-0.005393636645557916,-0.008248822437886848,0.00023189246429215253,28.852837819999877
1611,A,3232227510745.0,3.518403299234146,18.175462217446366,2.012848,55,1970-01-01 00:53:52.227510745,-1.0910645,-0.3936615,0.8532715,3.3012468398840538,1.4399525590986495,-82.55674743652344,20.928007125854492,131.3859100341797,28903191.0,50354.0,0.1133587954125362,0.2547848207434943,0.055855324554920004,0.00046190190608890884,0.0020847321591075424,-0.0004090012022651634,28.903191823999805
1611,A,3232277864749.0,-3.393523000765854,6.424470817446366,3.9342499,55,1970-01-01 00:53:52.277864749,0.089416504,0.88490295,0.7892151,16.480917033339317,1.1890790622049883,-82.36224365234375,21.292863845825195,131.41815185546875,28953545.0,50354.0,0.003144111274536187,0.1258833140194943,0.14973008382830003,0.002933193681660422,0.009584081628927764,0.005176023826864331,28.953545828000188
1611,A,3232328218753.0,3.494355499234146,13.218079817446366,0.49983215,55,1970-01-01 00:53:52.328218753,0.37077332,-0.0602417,1.1461792,6.755886882222561,1.206162789906633,-82.41905975341797,21.300825119018555,131.40066528320312,29003899.0,50354.0,0.002538659813936188,0.0010712973346942809,0.11163688377285,0.00014307512769446898,0.0031963362500644055,0.006580436143294155,29.003899832000116
1611,A,3232378572757.0,5.889527569234146,9.946778817446367,5.241104,55,1970-01-01 00:53:52.378572757,1.1321716,-4.0135345,1.1583862,10.962282235495922,4.328063112165446,-81.73438262939453,20.824243545532227,131.818603515625,29054253.0,50354.0,0.23625802401482623,0.0897524458506943,0.14453954944855,0.006012184108756752,0.0022866693821785287,0.006449754059215188,29.054253836000044
1611,A,3232428926761.0,4.970261799234146,8.145096817446367,4.754486,55,1970-01-01 00:53:52.428926761,3.7454224,-2.2213287,0.19488525,12.401404104457843,4.3589529027661005,-81.1281967163086,20.40624237060547,132.0695037841797,29104607.0,50354.0,0.2734169169299262,-0.03797004714030568,0.25165896943,0.012832085988166032,0.0013037254523314546,0.009975090109805252,29.10460783999997
1611,A,3232479280765.0,7.858796399234146,9.021927817446366,-19.553131,55,1970-01-01 00:53:52.479280765,4.430481,10.825806,-0.3152008,22.320293002433477,11.701563527380332,-82.53731536865234,20.167970657348633,131.00015258789062,29154961.0,50354.0,0.32299719826283624,-0.061255020767305685,-0.372585485165,0.01501591817820818,-0.0024981895347099313,-0.0030445668866600955,29.1549618439999
1611,A,3232529634769.0,4.760560299234146,10.773621817446367,0.67471313,55,1970-01-01 00:53:52.529634769,-1.7679291,-1.3977203,1.1041107,8.878972028503135,2.509632598113395,-82.67909240722656,19.870330810546875,131.0538787841797,29205315.0,50354.0,0.31771754359733617,0.004923353157694312,-0.47530192671299004,0.016131275055813563,-0.0014182623954071855,-0.021347261368852156,29.205315847999827
1611,A,3232579988773.0,6.066025979234146,9.131333817446366,3.2036438,55,1970-01-01 00:53:52.579988773,-0.987442,-1.3641205,0.65779114,10.927880357967878,1.8079147174982426,-82.4461898803711,19.3729190826416,131.2164306640625,29255669.0,50354.0,0.2725809627329962,0.00767786801969431,0.09764539242661,0.014861945493878778,0.0003172609455831133,-0.00950825856372819,29.25566985200021
1611,A,3232630342776.0,6.253739599234146,8.824982817446367,3.6006927,55,1970-01-01 00:53:52.630342776,0.5175934,-0.98779297,0.018722534,11.347839449601041,1.1153422849441161,-82.11576843261719,18.83863067626953,131.36228942871094,29306023.0,50354.0,0.3101747379690962,-0.0413830160833057,0.1713127800605,0.014672040276576584,-0.0008485945127975438,0.006771559908707968,29.30602385500015
1611,A,3232680696780.0,5.191315899234146,6.3962108174463665,-0.44691467,55,1970-01-01 00:53:52.680696780,0.8425293,3.4073792,-0.95002747,13.196040828764922,3.6362949313423036,-82.39014434814453,18.414337158203125,131.0951690673828,29356377.0,50354.0,0.28815216228493623,-0.1102452078543057,0.07940266946131001,0.015064076367695776,-0.003817543794077242,0.006312262872610611,29.356377859000077
1611,A,3232731050784.0,6.564652699234146,6.228196817446367,-3.7520294,55,1970-01-01 00:53:52.731050784,-3.5342865,-1.0167236,-2.0390472,13.887974920757024,4.2050709181543,-83.1488265991211,17.8091983795166,130.95013427734375,29406731.0,50354.0,0.2959800214036362,-0.1756244889763057,-0.10571681485039001,0.01470669598872719,-0.007197341357104303,-0.0006625112384608672,29.406731863000005
1611,A,3232781404788.0,-0.0531300007658535,3.136262817446365,4.580261,55,1970-01-01 00:53:52.781404788,-1.9844971,0.48860168,-3.6582947,18.017023660488046,4.190474967549063,-83.04690551757812,17.658117294311523,130.9676513671875,29457085.0,50354.0,0.1639406069793362,-0.25770019977230574,0.020852386993200002,0.011579421660798098,-0.01090981568862379,-0.002136631700160473,29.457085866999932
1611,A,3232831758792.0,-4.332732000765854,3.809235817446366,-10.776627,55,1970-01-01 00:53:52.831758792,1.8058777,1.0848694,-2.671936,21.58504275220587,3.402554609482359,-83.85795593261719,17.87734603881836,130.62603759765625,29507439.0,50354.0,-0.11042284761256381,-0.31860238086930576,-0.156005906782,0.0013474166275772288,-0.014509570072813855,-0.003402760167722618,29.50743987099986
1611,A,3232882112796.0,6.0784313792341464,11.051148817446366,3.4053192,55,1970-01-01 00:53:52.882112796,-0.9640808,-0.7194824,-1.0792542,9.184274691473133,1.6161362383957734,-83.49237823486328,17.344541549682617,130.77999877929688,29557793.0,50354.0,0.043951473251696196,-0.11932929604730573,-0.1855874164806,-0.001673549792283564,-0.011025805829729528,-0.00860029509978248,29.55779387499979
1611,A,3232932466800.0,2.052003199234146,15.311631817446367,-0.1951294,55,1970-01-01 00:53:52.932466800,-1.1239014,-2.3063812,-1.0153503,5.633079775617864,2.7592543971778842,-83.69491577148438,17.85455322265625,130.83938598632812,29608147.0,50354.0,0.20469995138209623,0.1702665280446943,0.08082294859460001,0.006260296918004992,0.0012824466899982521,-0.002637655007965822,29.60814787900017
1611,A,3232982820804.0,-0.8212573007658541,19.329057167446365,5.210251,55,1970-01-01 00:53:52.982820804,0.17881775,-1.7793579,-0.18182373,8.374191468134043,1.7975400392755054,-82.72574615478516,18.856504440307617,131.22508239746094,29658501.0,50354.0,0.03098648948573619,0.37867942657264425,0.1262657165232,0.005933877521729417,0.013820812299400733,0.0052138713216708515,29.6585018830001
1611,A,3233033174808.0,-2.9703970007658542,18.462480017446367,0.17045593,55,1970-01-01 00:53:53.033174808,1.113678,-1.064148,1.004837,8.77284326112879,1.8391267085649645,-82.64385986328125,20.184545516967773,131.29043579101562,29708855.0,50354.0,-0.09546248034966383,0.4580083317040443,0.13547005837661003,-0.0016233120219811062,0.02106528769013219,0.006589721604652518,29.708855887000027
1611,A,3233083528812.0,-3.742751000765854,9.578492817446367,-14.986618,55,1970-01-01 00:53:53.083528812,2.1599274,-0.27345276,1.8600159,20.35282703622541,2.863515659722361,-83.74066925048828,20.703086853027344,130.89395141601562,29759209.0,50354.0,-0.16901692723456382,0.21251837306409435,-0.37302651243639007,-0.006658798044748101,0.01688185084594743,-0.0059809588438630825,29.759209890999955
1611,A,3233133882815.0,12.820130599234147,2.4039778174463677,10.18544,55,1970-01-01 00:53:53.133882815,2.8560333,2.0963593,-0.81611633,21.18513181917883,3.6356147196173096,-83.04524993896484,19.790538787841797,130.9824981689453,29809563.0,50354.0,0.22854118615063626,-0.19178653682530566,-0.12087925850600001,0.0014986422667299557,0.0005219654409839828,-0.012435065595016555,29.809563893999893
1611,A,3233184236819.0,2.451722399234146,10.951890817446367,4.2104034,55,1970-01-01 00:53:53.184236819,-0.13897705,-1.2020721,-0.3487091,10.139549863086778,1.2593212419585094,-82.56084442138672,19.767120361328125,131.2029266357422,29859917.0,50354.0,0.38449944294243626,-0.15720849537930565,0.3624441492818,0.015434523918676288,-0.008786647925815499,0.006081879255062317,29.85991789799982
1611,A,3233234590823.0,4.623124399234146,2.911347817446366,-7.003113,55,1970-01-01 00:53:53.234590823,0.21235657,-0.97366333,-0.03538513,18.108065509367012,0.9971798736607007,-83.2965316772461,19.4224796295166,130.99781799316406,29910271.0,50354.0,0.17812341784503619,-0.1444344408893057,-0.07031204959920001,0.014165155766046196,-0.007594464206434829,0.007355009873708821,29.910271902000204
1611,A,3233284944827.0,-0.042006200765853485,14.625733817446367,1.1175537,55,1970-01-01 00:53:53.284944827,-1.0812836,-0.85905457,0.33024597,7.684298026028645,1.4199335824495756,-83.22895812988281,20.135848999023438,131.08070373535156,29960625.0,50354.0,0.1153388128828362,-0.05193809567830571,-0.1481807264961,0.007388498583035643,-0.004944071353162753,-0.005500992623751369,29.960625906000132
1611,A,3233335298831.0,-0.18199040076585415,14.413087317446365,3.9156952,55,1970-01-01 00:53:53.335298831,-0.7432709,-0.44952393,0.6909332,8.770252477400161,1.1099153487053393,-82.68347930908203,20.758975982666016,131.30886840820312,30010979.0,50354.0,-0.005639562436763804,0.2376411997131943,0.1267221075553,0.002761898028480765,0.004675447050286391,-0.0005402636490725218,30.01097991000006
1611,A,3233385652835.0,-2.4851825007658546,10.275239817446366,2.2740479,55,1970-01-01 00:53:53.385652835,0.40623474,0.58462524,0.7180939,12.61440809745577,1.011173666807604,-82.54197692871094,21.287744522094727,131.32960510253906,30061333.0,50354.0,-0.06715141214186383,0.12810881227519424,0.1558391620287,-0.0018326583669661081,0.009208488051831658,0.0071140450843163675,30.061333913999988
1611,A,3233436006839.0,3.401673599234146,10.779282817446367,-1.0193024,55,1970-01-01 00:53:53.436006839,0.34829712,-1.2788696,1.3276215,9.154337532447169,1.8760056462779382,-82.8577651977539,21.196752548217773,131.2759552001953,30111687.0,50354.0,0.023074496386136175,0.0366205163786943,0.0315907274535,-0.0011097245079819552,0.004147390307518952,0.00471892232749335,30.111687917999916
1611,A,3233486360843.0,4.989655739234146,9.791291817446366,1.5184937,55,1970-01-01 00:53:53.486360843,0.9997711,-3.025711,1.0589142,9.9271873083966,3.3579411237956287,-82.70291900634766,20.813615798950195,131.45948791503906,30162041.0,50354.0,0.2112684987546162,0.0244361575826943,0.012568139360100004,0.005900053588658723,0.0015372238803258809,0.0011117877897660073,30.162041921999844
1611,A,3233536714847.0,4.712250999234146,10.861039817446366,3.960785,55,1970-01-01 00:53:53.536714847,2.7665863,-1.8322906,0.21955872,9.62464607265171,3.3255818482972406,-82.08173370361328,20.46955108642578,131.71556091308594,30212395.0,50354.0,0.2442649059544162,0.02649455357169429,0.1379517998299,0.011468964530359308,0.0012822825147340417,0.0037896405089866306,30.212395925999772
1611,A,3233587068851.0,2.625535299234146,9.589097817446367,-3.0180664,55,1970-01-01 00:53:53.587068851,3.0706787,2.7304993,-0.2756958,10.882962038776192,4.118337319850308,-82.59233856201172,20.419967651367188,131.35504150390625,30262749.0,50354.0,0.1847434456365362,0.021403915233694323,0.023734826192200003,0.010801143268005409,0.0012059397491132693,0.004070784183358412,30.262749930000155
1611,A,3233637422855.0,1.8691569992341464,8.477631817446367,-11.378555,55,1970-01-01 00:53:53.637422855,1.9122314,4.646332,0.16348267,16.355446277707923,5.027102203532397,-83.77080535888672,20.47715950012207,130.69503784179688,30313103.0,50354.0,0.1131628679985362,-0.038603147982305665,-0.36246373698780004,0.007500387258390217,-0.00043302508291178776,-0.008528177787100822,30.313103934000083
1611,A,3233687776858.0,5.754472026234146,7.874589817446367,0.45588684,55,1970-01-01 00:53:53.687776858,-1.1393127,-0.24949646,1.0085754,11.707985399946919,1.5419164210225476,-83.9273910522461,20.02324867248535,130.67752075195312,30363457.0,50354.0,0.1919401079742152,-0.08176931589830568,-0.27500001626432,0.007681577626065962,-0.003030617523122152,-0.016049424915628628,30.36345793700002
