Subject-id_accel,Activity_accel,Timestamp_accel,accel_x,accel_y,accel_z,Segment_accel,DateTime,gyro_x,gyro_y,gyro_z,accel_magnitude,gyro_magnitude,Roll,Pitch,Yaw,Time_Difference,Difference_Microseconds,vx,vy,vz,dx,dy,dz,Time_diff
1602,A,99034734478971.0,5.5239716,7.138258087763454,5.96698,11,1970-01-02 03:30:34.734478971,1.2828369,-0.7901459,-0.54164124,14.798368607166218,1.6010547423986343,-93.02535247802734,-7.965432643890381,99.6485366821289,15005481.0,50354.0,0.23830904897210003,-0.16107073427575908,0.40124154373300003,0.009398691263221428,-0.003840832796142742,0.01955200303546546,15.00548112600518
1602,A,99034784832975.0,0.9554291,11.140440087763455,6.874466,11,1970-01-02 03:30:34.784832975,0.89442444,-1.1620789,-0.8934479,10.867101912034267,1.717169647620448,-92.01664733886719,-7.985145568847656,99.57455444335938,15055835.0,50354.0,0.1631318714239,-0.03326641603475905,0.32330908594200003,0.010107078052810093,-0.004892826433367915,0.01824201120332748,15.055835130013293
1602,A,99034835186979.0,-3.048294,6.592863087763455,8.275116,11,1970-01-02 03:30:34.835186979,-0.12095642,-0.9968872,-0.7003937,15.634142328142373,1.2243226209062488,-91.22332763671875,-7.580923080444336,99.51683807373047,15106189.0,50354.0,-0.0526920595873,-0.046997825949759035,0.381421026014,0.0027805431426100786,-0.002020812820444212,0.017742990028716217,15.106189134006854
1602,A,99034885540983.0,-1.1802063,7.418150087763454,-0.0892334,11,1970-01-02 03:30:34.885540983,-1.5887146,0.7823639,0.81851196,12.142097331899102,1.9509149599455666,-91.27745819091797,-7.214788913726807,99.47368621826172,15156543.0,50354.0,-0.10646095205310001,-0.14071392127975907,0.20609596622020004,-0.004006995374070351,-0.004726018659997578,0.014791915313480456,15.156543138000416
1602,A,99034935894987.0,0.69540405,9.481046087763454,-2.1024017,11,1970-01-02 03:30:34.935894987,-2.0393066,1.4372253,0.8670349,10.2631231464795,2.641237870692767,-91.63446807861328,-7.093031883239746,99.43311309814453,15206897.0,50354.0,-0.01220586624825,-0.06799813788875907,-0.05517879691270001,-0.0029876744843730894,-0.0052547435136857815,0.003799641571654929,15.206897142008529
1602,A,99034986248991.0,0.3587494,10.676557087763454,-1.1860352,11,1970-01-02 03:30:34.986248991,-2.0270996,1.4802856,0.52612305,8.912424413667047,2.5646020567777805,-91.87779998779297,-6.950433731079102,99.37619018554688,15257251.0,50354.0,0.02654042141065,0.014038775150240941,-0.0827929758313,0.0003609010953237449,-0.001358534875667671,-0.0034737153223756887,15.25725114600209
1602,A,99035036602995.0,-2.3051605,10.100782087763454,-1.2205505,11,1970-01-02 03:30:35.036602995,-1.8356171,1.2104492,0.3556671,9.756760771381787,2.2273698591871667,-92.0970687866211,-6.431148052215576,99.33000183105469,15307605.0,50354.0,-0.0490047922647,0.02964186842224093,-0.0605906081689,-0.0005655854649924169,0.001099747563224376,-0.003609968494373036,15.307605150010204
1602,A,99035086956999.0,-0.50808716,11.376020087763454,0.2985382,11,1970-01-02 03:30:35.086956999,-1.7220612,1.0741425,0.22453308,8.147743220685843,2.0419823679126066,-92.07185363769531,-6.173420429229736,99.26385498046875,15357959.0,50354.0,-0.07082913633582001,0.04725224837324093,-0.023213503677100004,-0.0030170588203752924,0.001935963178559847,-0.0021099361239467424,15.357959154003765
1602,A,99035137311003.0,0.3315735,11.349058087763455,-0.044296265,11,1970-01-02 03:30:35.137311003,-1.8124695,1.7147064,0.008834839,8.160225503927647,2.495063482360993,-92.10904693603516,-6.080135345458984,99.1728744506836,15408313.0,50354.0,-0.004444084417819999,0.07868009322524094,0.006401049197494999,-0.0018951538789143947,0.0031705985644249783,-0.00042328716643301527,15.408313158011879
1602,A,99035187665006.0,-0.61572266,10.724897087763456,-1.6863403,11,1970-01-02 03:30:35.187665006,-1.6694641,1.2229156,-0.34236145,8.95923201157167,2.097580584473043,-92.40509796142578,-5.852110385894775,99.13467407226562,15458667.0,50354.0,-0.00715402340132,0.062286769454240984,-0.043572236797005004,-0.0002920055605624878,0.0035491227016813173,-0.0009358589901928635,15.458667161001358
1602,A,99035238019010.0,-0.454422,10.245329087763455,-0.7185669,11,1970-01-02 03:30:35.238019010,-1.5252533,0.77708435,-0.27571106,9.296055377571964,1.7338610973149309,-92.52850341796875,-5.6521124839782715,99.1012191772461,15509021.0,50354.0,-0.026943032104820002,0.034498184421240995,-0.0605483485744,-0.0008584615664780868,0.00243675478372301,-0.002621443977895864,15.509021165009472
1602,A,99035288373014.0,-1.207489,7.984190087763455,0.5161743,11,1970-01-02 03:30:35.288373014,-0.9873657,1.0444183,-0.1693573,11.592850385986074,1.4471981571210868,-92.57274627685547,-5.662895679473877,99.0491714477539,15559375.0,50354.0,-0.041841933247,-0.03450459571775902,-0.005095638490200001,-0.0017317990726627725,-1.6141721243427127e-07,-0.0016527186623254344,15.559375169003033
1602,A,99035338727018.0,-1.0141449,5.357771087763455,2.0510712,11,1970-01-02 03:30:35.338727018,-0.16781616,1.1419525,-0.5186615,14.328523700509919,1.2653961938443017,-92.5755844116211,-5.691366672515869,98.99302673339844,15609729.0,50354.0,-0.055934076700300005,-0.15755864348375903,0.06463553995349999,-0.0024617066024431727,-0.00483557617337662,0.001499036099141504,15.609729173011146
1602,A,99035389081022.0,-0.6800842,5.326490087763455,2.9660187,11,1970-01-02 03:30:35.389081022,1.07341,0.69802856,-0.6075592,14.498858100560723,1.4172441850931383,-92.51856231689453,-5.723263263702393,98.9593505859375,15660083.0,50354.0,-0.042655606050700005,-0.22447155638375904,0.1263152724123,-0.002482192442621927,-0.009618374342064502,0.004807568602933747,15.660083177004708
1602,A,99035439435026.0,1.1237183,7.360197087763455,-1.4776001,11,1970-01-02 03:30:35.439435026,3.2095184,-0.27340698,-0.4937744,12.283310685348797,3.258768616325289,-92.47003936767578,-5.735907554626465,98.98517608642578,15710437.0,50354.0,0.011169375735699998,-0.17405647698175905,0.037473915092199994,-0.0007927288206407553,-0.01003374029604365,0.004123720373800797,15.710437181012821
1602,A,99035489789030.0,2.4532623,3.9603555877634555,-0.7731476,11,1970-01-02 03:30:35.489789030,3.2671204,0.062927246,-0.10307312,15.753480452988136,3.269351558711886,-92.31575012207031,-5.821727752685547,98.98307037353516,15760791.0,50354.0,0.0900576405662,-0.20845164528825902,-0.05666707484290001,0.002548592589432936,-0.009630406994392245,-0.00048322618304337436,15.760791185006383
1602,A,99035540143034.0,1.8330994,3.911054087763455,-2.517746,11,1970-01-02 03:30:35.540143034,1.9586792,-0.78874207,0.9068146,15.89937473008597,2.2980102219689287,-92.39241027832031,-5.795796871185303,99.03814697265625,15811145.0,50354.0,0.10791772852090002,-0.29529071859925904,-0.08285482816720001,0.004984425867505917,-0.012682721495596043,-0.0035127429520852888,15.811145188999944
1602,A,99035590497038.0,-0.61854553,9.541044087763455,-2.344635,11,1970-01-02 03:30:35.590497038,2.2716064,-1.3804321,0.83480835,10.252268205636643,2.7861610507041927,-92.28561401367188,-5.7512736320495605,99.10574340820312,15861499.0,50354.0,0.030578822784990002,-0.15478572423475903,-0.12242016643699999,0.0034869276722283935,-0.011331574601232073,-0.005168208539149944,15.861499193008058
1602,A,99035640851042.0,-0.08206177,13.234449087763455,-2.531845,11,1970-01-02 03:30:35.640851042,2.4921417,-1.6059875,0.40370178,6.760509140497152,2.992146592366475,-92.16900634765625,-5.727982521057129,99.18560028076172,15911853.0,50354.0,-0.017639189992100002,0.07994939168024097,-0.12277513696,0.00032578113482659155,-0.0018841543447251014,-0.006173282153626269,15.91185319700162
1602,A,99035691205046.0,1.1595459,15.887128687763454,-3.10083,11,1970-01-02 03:30:35.691205046,1.7285614,-1.6797943,0.36410522,4.902045921079073,2.437664048861881,-92.0909194946289,-5.706666469573975,99.26927947998047,15962207.0,50354.0,0.02712781794101,0.23972476365444095,-0.14181385847500003,0.00023889518586970706,0.008048436208861287,-0.0066615571380669964,15.962207201009733
1602,A,99035741559049.0,1.5787048,17.046537287763456,-1.902298,11,1970-01-02 03:30:35.741559049,0.35653687,-1.2216339,0.65390015,3.484598470521572,1.4307666935837686,-92.07905578613281,-5.6717705726623535,99.32942962646484,16012561.000000002,50354.00000000186,0.06894093787390256,0.3357017082658534,-0.12596375365600468,0.002418723065152143,0.014487512283537788,-0.006741836940622555,16.012561204013764
1602,A,99035791913053.0,1.9144135,14.673261487763455,1.845108,11,1970-01-02 03:30:35.791913053,-1.193161,-0.48365784,0.9860382,5.512731990391426,1.6216748780115284,-92.14092254638672,-5.621615409851074,99.35188293457031,16062915.0,50353.99999999814,0.08794623943909674,0.3051401737714297,-0.0014398726299999485,0.003949948463209237,0.016134476064052078,-0.0032076410990026197,16.062915208007325
1602,A,99035842267057.0,5.1407166,6.8454870877634555,12.468018,11,1970-01-02 03:30:35.842267057,-1.0756226,-0.41758728,0.44114685,18.495310060439877,1.2352949677358362,-92.1966781616211,-5.598783493041992,99.37201690673828,16113268.999999998,50353.99999999814,0.17762701052769345,0.04830833288603919,0.36036157330198665,0.0066863377144136295,0.008898773052114766,0.009036571657818274,16.113269212000887
1602,A,99035892621061.0,0.5729065,9.493284087763454,9.168106,11,1970-01-02 03:30:35.892621061,0.92411804,-0.767395,-0.23956299,13.585480227970532,1.2248590384432738,-92.15428161621094,-5.609299182891846,99.41100311279297,16163623.000000002,50354.000000003725,0.14385188878871064,-0.0821079581137651,0.5447326939480404,0.008093874248089702,-0.0008509731643585182,0.022787558366555615,16.163623216009
1602,A,99035942975065.0,4.546646,10.324674087763455,0.14421082,11,1970-01-02 03:30:35.942975065,0.31159973,-0.55952454,-0.087509155,10.243235898504977,0.6463899402118651,-92.1414566040039,-5.612620830535889,99.43924713134766,16213977.0,50353.99999999814,0.12889497329249525,0.0054875329852407595,0.23445620057713132,0.006866947746618267,-0.001929072443460786,0.019617638797459522,16.213977220002562
1602,A,99035993329069.0,0.18644714,12.142530087763454,-5.991638,11,1970-01-02 03:30:35.993329069,0.64338684,-1.0228424,-1.0041199,9.492235150389721,1.5711174286790137,-92.11451721191406,-5.660892963409424,99.49248504638672,16264330.999999998,50353.99999999814,0.11916508598577559,0.07218759952723829,-0.14722067411085457,0.006245408112448794,0.0019556268112666123,0.0021963288498413683,16.264331224010675
1602,A,99036043683073.0,-7.5575256,8.152769087763454,-0.68673706,11,1970-01-02 03:30:36.043683073,-1.3057098,0.6518097,0.51727295,13.652928975251347,1.5483233743736586,-92.17647552490234,-5.636266708374023,99.45878601074219,16314685.0,50354.00000000186,-0.18558164238742686,0.01750554734224159,-0.16814144888562624,-0.0016721696405244358,0.0022582043587329784,-0.00793987217068269,16.314685228004237
1602,A,99036094037077.0,-2.0473022,7.981611087763454,-2.531784,11,1970-01-02 03:30:36.094037077,-2.0789185,0.9033203,1.0898132,11.972072030427725,2.515071073534221,-92.27577209472656,-5.583573818206787,99.41130828857422,16365039.0,50354.0,-0.24182074952059998,-0.08725391032075906,-0.08103270472762,-0.010760710021068393,-0.0017560545347101344,-0.006273457665520701,16.36503923201235
1602,A,99036144391081.0,1.8575592,10.290312087763455,-0.63345337,11,1970-01-02 03:30:36.144391081,-2.0068054,1.3207245,0.34681702,9.418853266402072,2.427316041172037,-92.41036987304688,-5.713517189025879,99.34843444824219,16415393.000000002,50354.00000000186,-0.004777159511000171,-0.03343699020976027,-0.07969118126449294,-0.0062085955556888265,-0.003038634802656998,-0.004046545277623577,16.41539323600591
1602,A,99036194745085.0,-1.6869049,10.728819087763455,-1.5702667,11,1970-01-02 03:30:36.194745085,-2.0205078,1.7850647,0.3905182,9.071247452627334,2.7242269027337223,-92.50239562988281,-5.6978325843811035,99.25797271728516,16465747.0,50353.99999999814,0.004296563311099842,0.03572946560623966,-0.05548306020238795,-1.2099970524890128e-05,5.771765305715937e-05,-0.0034032818774115342,16.465747240014025
1602,A,99036245099088.0,-2.2074432,10.470793087763454,0.1819458,11,1970-01-02 03:30:36.245099088,-1.7609711,1.1738586,0.18334961,9.299261705938,2.124283480921584,-92.5845718383789,-5.69127893447876,99.19864654541016,16516100.999999998,50353.99999999814,-0.09804800211369638,0.04027343574323945,-0.0349537552992987,-0.0023603799747328857,0.0019135250472757648,-0.0022769277038858803,16.516101243003504
1602,A,99036295453092.0,-0.31114197,11.313078087763454,0.31904602,11,1970-01-02 03:30:36.295453092,-1.7552032,1.7449341,0.06713867,8.201462527872046,2.475891937795836,-92.54304504394531,-5.496304988861084,99.09901428222656,16566455.000000002,50354.000000003725,-0.0634104188250947,0.054983324586245,0.012613471052140932,-0.004065038663976244,0.002398279454815607,-0.0005624613364907327,16.566455247011618
1602,A,99036345807096.0,1.2645569,10.745771087763455,-2.8359528,11,1970-01-02 03:30:36.345807096,-1.4839935,0.6671753,-0.3614807,9.29089361684733,1.6667416972779046,-92.61410522460938,-5.515864372253418,99.06635284423828,16616809.0,50353.99999999814,0.024004127692609113,0.06190644569223866,-0.06336816200005765,-0.0009921321918425529,0.0029429337463012743,-0.001277850853995652,16.61680925100518
1602,A,99036396161100.0,-1.3800049,9.259962087763455,0.12860107,11,1970-01-02 03:30:36.396161100,-1.4475403,0.76023865,-0.2649231,10.33581054299435,1.65635744149369,-92.6828842163086,-5.53085470199585,99.02882385253906,16667162.999999998,50353.99999999814,-0.002906634295999892,0.01021514416024059,-0.06816299450620747,0.0005311715912464106,0.001815805267715803,-0.0033115599273581143,16.667163255013293
1602,A,99036446515104.0,-1.5262756,8.855131087763455,1.3919067,11,1970-01-02 03:30:36.446515104,-0.9189453,0.5748596,-0.26031494,10.845818074101615,1.1147591184159265,-92.72610473632812,-5.54521369934082,99.00060272216797,16717517.0,50354.00000000186,-0.07317142414850271,-0.0373854991197604,0.038281824125291415,-0.001915417277457313,-0.0006840680268158555,-0.0007523182266803513,16.717517259006854
1602,A,99036496869108.0,2.3494415,6.361616087763455,-1.0853729,11,1970-01-02 03:30:36.496869108,-0.4248047,1.4281769,-0.33732605,13.393235030672786,1.5277228658511015,-92.78976440429688,-5.67940616607666,98.93457794189453,16767871.0,50354.0,0.020724847864300008,-0.11035715636175902,0.0077176014826,-0.0013204474511073715,-0.003719716837058215,0.0011581275385298823,16.767871263000416
1602,A,99036547223112.0,-3.133728,3.6279120877634554,2.8175354,11,1970-01-02 03:30:36.547223112,0.43974304,0.8808136,-0.7462311,16.42433828640841,1.235341003035442,-92.76356506347656,-5.718808174133301,98.8921890258789,16818225.0,50354.0,-0.0197459812105,-0.24196284912475902,0.043610655262500006,2.464492574272283e-05,-0.008870360778134065,0.001292291520071383,16.81822526700853
1602,A,99036597577116.0,0.94615173,8.619657087763455,3.084076,11,1970-01-02 03:30:36.597577116,2.4355927,0.034057617,-0.47964478,11.35083016550979,2.4826056546600905,-92.64173126220703,-5.742842197418213,98.89160919189453,16868579.0,50354.0,-0.05507660774979001,-0.185112150867759,0.1485848702178,-0.0018838083222532218,-0.010752467274811627,0.004838906745017513,16.86857927100209
1602,A,99036647931120.0,0.6383667,6.591932087763455,-5.3818054,11,1970-01-02 03:30:36.647931120,4.04187,-0.48387146,-0.60601807,14.001862200764656,4.115592616849858,-92.44220733642578,-5.772040367126465,98.91725158691406,16918933.0,50354.0,0.03989342051211,-0.11048701932775902,-0.05784993310380001,-0.00038226710508306957,-0.007442300308012557,0.002284433511719178,16.918933275010204
1602,A,99036698285124.0,0.36332703,2.047559087763453,-2.406311,11,1970-01-02 03:30:36.698285124,2.4999542,0.79367065,0.42903137,17.623695734086954,2.65777200286502,-92.44876861572266,-5.638291358947754,98.89012145996094,16969287.0,50354.0,0.02521964304021,-0.2759527306737591,-0.19608140660280002,0.0016393516010567606,-0.009729393585788221,-0.00639322933979307,16.969287279003765
1602,A,99036748639128.0,-0.41560364,10.197981087763456,-0.21202087,11,1970-01-02 03:30:36.748639128,2.3762665,-2.743927,1.5015869,9.316133252328768,3.9281727404230655,-92.3141860961914,-5.353421211242676,99.02213287353516,17019641.0,50354.0,-0.00131616820997,-0.18516323500075907,-0.06592174149099,0.0006018177858009525,-0.011609516667787345,-0.006596453259557351,17.01964128301188
1602,A,99036798993131.0,-0.18241882,11.777524787763454,-3.2085571,11,1970-01-02 03:30:36.798993131,2.6298676,-1.7572784,0.7850189,8.366730812270172,3.258908658123687,-92.19075012207031,-5.310749053955078,99.10874938964844,17069995.0,50354.0,-0.015056411475420002,0.05980811142814097,-0.08611989155069001,-0.00041221243873906414,-0.003156065946187806,-0.003827952195090378,17.069995286001358
1602,A,99036849347135.0,0.87080383,14.725416087763454,-2.6145935,11,1970-01-02 03:30:36.849347135,2.0259552,-1.7900543,0.55981445,5.5149074255737895,2.760829782471989,-92.09762573242188,-5.279427528381348,99.197509765625,17120349.0,50354.0,0.01733146939677,0.1737953424231409,-0.1466094626562,5.727913328582892e-05,0.005881434157613724,-0.00585942695086687,17.12034929000947
1602,A,99036899701139.0,1.5217743,16.901456687763456,-2.2793274,11,1970-01-02 03:30:36.899701139,0.8592529,-1.5587311,0.6038513,3.778380847981581,1.8795197739787977,-92.06175231933594,-5.2464280128479,99.2746353149414,17170703.0,50354.0,0.060237939579010004,0.302800575869441,-0.12321424649929999,0.0019529650097832134,0.011999255434852333,-0.006793351525408025,17.170703294003033
1602,A,99036950055143.0,1.9299774,16.452894087763454,-0.7459717,11,1970-01-02 03:30:36.950055143,-0.5390167,-0.7090759,0.7295532,3.685229947046948,1.1513364002193016,-92.0918197631836,-5.208688259124756,99.30888366699219,17221057.0,50354.0,0.08690475255090001,0.346293289475441,-0.07616795544070001,0.0037046115597547447,0.016342236247788095,-0.00501984569824338,17.221057298011146
1602,A,99037000409147.0,3.6004639,10.530012087763454,7.1148987,11,1970-01-02 03:30:37.000409147,-1.6053619,-0.5821991,0.5882263,12.003720294317462,1.806143073519955,-92.17463684082031,-5.178216457366943,99.33699798583984,17271411.0,50354.0,0.1392399206101,0.185879428781241,0.16035047507900002,0.005693644436174498,0.013398512527548484,0.0021194632969334794,17.271411302004708
1602,A,99037050763151.0,4.2796783,1.7315500877634555,14.660446,11,1970-01-02 03:30:37.050763151,0.13941956,-1.1876526,-0.27238464,23.431779403073143,1.2264378924777575,-92.173095703125,-5.189570426940918,99.39710998535156,17321765.0,50354.0,0.1983983401694,-0.18475984910675902,0.5482378535119,0.008500718491645472,2.8187657464432804e-05,0.01784012834893309,17.32176530601282
1602,A,99037101117155.0,0.18933105,14.107526587763456,6.468109,11,1970-01-02 03:30:37.101117155,1.3344727,-0.618927,-0.28398132,8.424796692970183,1.4981766946803146,-92.10923767089844,-5.202602863311768,99.4286880493164,17372119.0,50354.0,0.11251624840494999,-0.094688766540259,0.531953629235,0.00782789659653641,-0.007035677796144973,0.0271959809611187,17.372119310006383
1602,A,99037151471159.0,7.754898,5.848173087763454,2.366211,11,1970-01-02 03:30:37.151471159,0.1027832,-0.8893738,-0.44903564,15.880049365726984,1.0015903096171057,-92.10822296142578,-5.223404884338379,99.47413635253906,17422473.0,50354.0,0.20001185479185,0.008955450730740978,0.22242167464,0.007868520054185833,-0.002158507692136235,0.01899290702566088,17.422473313999944
1602,A,99037201825163.0,3.1203003,14.483564087763455,0.5240631,11,1970-01-02 03:30:37.201825163,-1.1661987,1.4060669,-0.038589478,5.932947985155584,1.8271652040714907,-92.16011810302734,-5.227950572967529,99.4036636352539,17472827.0,50354.0,0.2738048675991,0.01842294686824095,0.0727684310157,0.011929283619636948,0.000689305916349568,0.00743200129009356,17.472827318008058
1602,A,99037252179167.0,-0.8648834,6.849851087763454,-4.455246,11,1970-01-02 03:30:37.252179167,-2.0086517,2.6760406,1.1287994,13.441906253818338,3.5312976411231056,-92.24817657470703,-5.176697254180908,99.2672348022461,17523181.0,50354.0,0.05678463129129999,0.04364219387424095,-0.0989753918733,0.008323251813563602,0.001562614048473467,-0.0006598126535117951,17.52318132200162
1602,A,99037302533171.0,2.2013855,11.182066087763454,-1.4970856,11,1970-01-02 03:30:37.302533171,-1.9497833,0.54211426,0.6533661,8.735886941890996,2.1266005850849017,-92.3431167602539,-5.145142078399658,99.23873901367188,17573535.0,50354.0,0.033649113371700005,-0.03947962127175906,-0.14986185269320002,0.0022768503893803513,0.00010480109041268666,-0.006264975306450772,17.573535326009733
1602,A,99037352887174.0,-0.26428223,9.322798087763454,-0.6699219,11,1970-01-02 03:30:37.352887174,-2.0743408,1.5329895,0.37384033,10.20506864009593,2.6062814801915386,-92.47563171386719,-4.964364528656006,99.1640625,17623889.0,50354.0,0.048770449028790006,0.02278176534724093,-0.054558747827500004,0.002075077322557137,-0.000420401918611593,-0.0051466974593096645,17.623889329013764
1602,A,99037403241178.0,-3.310318,10.536680087763454,-0.22305298,11,1970-01-02 03:30:37.403241178,-1.7884674,1.2781982,0.33532715,9.559943690553144,2.22370199821674,-92.55945587158203,-4.950417995452881,99.09922790527344,17674243.0,50354.0,-0.08999770999071001,0.006532882025240924,-0.02248242855376,-0.00103797874923826,0.0007380548768969756,-0.001939665697750983,17.674243333007325
1602,A,99037453595182.0,0.6535034,11.301389087763456,0.9233856,11,1970-01-02 03:30:37.453595182,-1.8164063,1.5361481,0.19897461,8.278688466860189,2.387189503838761,-92.41980743408203,-4.934733867645264,99.00247955322266,17724597.0,50354.0,-0.06689062118420001,0.056347867632240964,0.01763227437374,-0.00394997751399071,0.0015831486341264217,-0.00012211233179036348,17.724597337000887
1602,A,99037503949186.0,0.08288574,11.526166787763454,-0.7120514,11,1970-01-02 03:30:37.503949186,-1.7819061,1.7315979,-0.1793518,8.008406068497065,2.491141847560042,-92.56877136230469,-4.839146137237549,98.92169189453125,17774951.0,50354.0,0.01854006937778,0.08126017427814097,0.005320761153400001,-0.0012173218428302368,0.0034645576711776864,0.0005778885754668039,17.774951341009
1602,A,99037554303190.0,0.17564392,10.772871087763455,-2.335434,11,1970-01-02 03:30:37.554303190,-1.4704437,0.7444458,-0.3790741,9.038263015358535,1.6911834310027225,-92.63921356201172,-4.85977029800415,98.88524627685547,17825305.0,50354.0,0.00650900124982,0.06795367659214098,-0.0767265399158,0.0006306604511910853,0.0037567571233610886,-0.001797783291900945,17.825305345002562
1602,A,99037604657194.0,-1.1195679,9.302137087763455,0.9515991,11,1970-01-02 03:30:37.604657194,-1.3092194,0.8676605,-0.08514404,10.305572667843364,1.5729398234338565,-92.70101165771484,-4.8660478591918945,98.84194946289062,17875659.0,50354.0,-0.023765174044460005,0.011959280835240997,-0.034840811277299995,-0.0004344586624506515,0.002011968529149196,-0.0028089312009886786,17.875659349010675
1602,A,99037655011198.0,-3.3269653,6.547956087763454,0.30526733,11,1970-01-02 03:30:37.655011198,-0.5933533,1.0699005,-0.2770691,13.378345466207449,1.2544012534655526,-92.72618103027344,-4.882419109344482,98.78898620605469,17926013.0,50354.0,-0.11195036637640002,-0.09441140411975904,0.03164412610811,-0.0034169101611759936,-0.0020758971079343105,-8.048294250469646e-05,17.926013353004237
1602,A,99037705365202.0,0.87745667,5.457762087763454,1.8709412,11,1970-01-02 03:30:37.705365202,-0.030212402,1.1192017,-0.50320435,14.195875523398653,1.2274933207054213,-92.7229995727539,-4.910210132598877,98.73407745361328,17976367.0,50354.0,-0.061671278777510004,-0.19120123349475907,0.05479040215981001,-0.004371272160039992,-0.0071908693772207224,0.002176162118201422,17.97636735701235
1602,A,99037755719206.0,-0.9793854,5.889890087763455,2.2905884,11,1970-01-02 03:30:37.755719206,1.5701752,0.32318115,-0.66767883,13.838608054320483,1.7365745692139256,-92.64324951171875,-4.944316387176514,98.7194595336914,18026721.0,50354.0,-0.002566259635209998,-0.20776936117675907,0.10477483073919999,-0.0016173085046170517,-0.010044882662044813,0.004017373868698375,18.02672136100591
1602,A,99037806073210.0,1.7818604,7.902418087763454,0.5482178,11,1970-01-02 03:30:37.806073210,3.3995667,-0.32852173,-0.5285187,11.748859878361007,3.4560544398317528,-92.34227752685547,-5.064905643463135,98.72541046142578,18077075.0,50354.0,0.020203913075000003,-0.14622025706475905,0.0714726236974,0.000444063200653593,-0.008912396618466701,0.004437382160350278,18.077075365014025
1602,A,99037856427213.0,1.4692993,3.538252087763455,-4.8221893,11,1970-01-02 03:30:37.856427213,3.1082306,0.035232544,0.09576416,16.741180893939323,3.109905073997208,-92.18671417236328,-5.060193061828613,98.72345733642578,18127429.0,50354.0,0.08185444776690001,-0.20542744699075904,-0.10760578045550001,0.0025695233509165165,-0.00885343424500578,-0.0009097244876986841,18.127429368003504
1602,A,99037906781217.0,0.73402405,5.776228087763455,-3.3379211,11,1970-01-02 03:30:37.906781217,2.196518,-0.500473,1.0577698,14.145280669050708,2.4887831359612353,-92.07891082763672,-5.006408214569092,98.74658966064453,18177783.0,50354.0,0.05547307198295001,-0.258958532620759,-0.20544709954080004,0.0034574949647419744,-0.01169184580867919,-0.007881732359666847,18.177783372011618
1602,A,99037957135221.0,-1.2677155,11.938016787763456,-0.13449097,11,1970-01-02 03:30:37.957135221,2.5965118,-2.1850128,1.0128326,7.671078686224322,3.5414664108707625,-91.95844268798828,-4.95195198059082,98.8543930053711,18228137.0,50354.0,-0.01343674963665,-0.04747765676885902,-0.08742491868639,0.0010583484877127955,-0.007715143940262414,-0.007373638802905965,18.22813737600518
1602,A,99038007489225.0,0.9492035,13.919828087763456,-2.939743,11,1970-01-02 03:30:38.007489225,2.216446,-1.8816986,0.5413513,6.380317726389278,2.9574454723916124,-91.85566711425781,-4.921766757965088,98.94786834716797,18278491.0,50354.0,-0.008019176624,0.15755376043114103,-0.07739998866269,-0.0005401958554643851,0.0027713860619052746,-0.004149796692327788,18.278491380013293
1602,A,99038057843229.0,1.6168213,16.443693087763457,-2.6932373,11,1970-01-02 03:30:38.057843229,1.4030304,-1.4892883,0.37631226,4.384458187804507,2.0804049752073173,-91.7918472290039,-4.900590419769287,99.0219497680664,18328845.0,50354.0,0.0646048063896,0.27099317263624106,-0.14182154501310001,0.0014246564006085115,0.01078952613383748,-0.005519340553355365,18.328845384006854
1602,A,99038108197233.0,1.8386383,17.266767387763455,-1.3572083,11,1970-01-02 03:30:38.108197233,0.2060852,-1.2472839,0.4765625,3.196993282456294,1.3510366587419085,-91.78681945800781,-4.87483024597168,99.08377838134766,18379199.0,50354.0,0.08699810634920001,0.35525906339234103,-0.1019780688712,0.0038169065340247677,0.015767152546491612,-0.006138142878765022,18.379199388000416
1602,A,99038158551237.0,2.4565887,14.029554087763454,3.7018433,11,1970-01-02 03:30:38.158551237,-1.1064758,-0.88908386,0.63438416,7.049168596056034,1.5547353693014914,-91.84583282470703,-4.841718673706055,99.12736511230469,18429553.0,50354.0,0.10814093017900002,0.294478285789341,0.05903087539500001,0.004913015522670493,0.01635843724034721,-0.0010812814901502875,18.42955339200853
1602,A,99038208905241.0,3.7184448,6.091932087763455,9.670425,11,1970-01-02 03:30:38.208905241,-0.62413025,-0.9724884,0.10005188,16.94654085922363,1.1598631970155604,-91.88114166259766,-4.835137844085693,99.17597961425781,18479907.0,50354.0,0.1554688184295,0.013129457441240965,0.33667359898910004,0.006636902640716205,0.007744640151316362,0.009962651551568488,18.47990739600209
1602,A,99038259259245.0,3.2988281,7.1850110877634545,8.113937,11,1970-01-02 03:30:38.259259245,1.0652161,-0.9045105,-0.43850708,15.114129266546836,1.464620443500495,-91.83177185058594,-4.855588912963867,99.22205352783203,18530261.0,50354.0,0.17667387980330002,-0.15919560166975905,0.44775688207400005,0.008362356713407206,-0.0036775073132414,0.019749606221725672,18.530261400010204
1602,A,99038309613249.0,3.8293762,10.678724087763454,7.520279,11,1970-01-02 03:30:38.309613249,0.6699066,-1.1198273,-0.5116272,12.2096846809804,1.4016242100965188,-91.80310821533203,-4.879382133483887,99.2790298461914,18580615.0,50354.0,0.17946679966110002,-0.04371393948575906,0.39362265623200005,0.0089665538868752,-0.00510865351767248,0.021183412635930165,18.580615404003765
1602,A,99038359967253.0,1.339386,6.779325087763455,6.555008,11,1970-01-02 03:30:38.359967253,-0.5810089,-0.56114197,-0.43032837,14.374955057350997,0.9152235565158645,-91.83462524414062,-4.899999141693115,99.307861328125,18630969.0,50354.0,0.1301339259094,-0.05392789590775904,0.354373500799,0.007794817467688479,-0.002458328489702605,0.01883229924556949,18.63096940801188
1602,A,99038410321256.0,-2.7434082,9.552931087763454,-1.1474304,11,1970-01-02 03:30:38.410321256,-1.7555237,1.278244,0.7671509,10.384377498517685,2.303104793136539,-91.91683959960938,-4.863751411437988,99.24250030517578,18681323.0,50354.0,-0.03534906692940001,-0.08227198626875903,0.13614658123520001,0.00238639839453946,-0.0034291044335581955,0.012349824105375055,18.681323411001358
1602,A,99038460675260.0,0.49380493,8.989088087763454,-2.7317963,11,1970-01-02 03:30:38.460675260,-2.1166534,1.3061829,1.0245209,10.87367408848003,2.6899774085521204,-92.0169906616211,-4.814798831939697,99.17523193359375,18731677.0,50354.0,-0.05663826152879001,-0.026636783217759065,-0.09766729062590002,-0.00231596496859185,-0.0027419960893620664,0.0009687930996703461,18.73167741500947
1602,A,99038511029264.0,1.1129608,10.995054087763455,-0.88912964,11,1970-01-02 03:30:38.511029264,-2.0232544,0.8575287,0.47410583,8.625808807060539,2.248041408978722,-92.21265411376953,-4.857901096343994,99.13970184326172,18782031.0,50354.0,0.040453540784210006,0.009671547553240949,-0.09116405239138001,-0.0004074827141862907,-0.0004271337383255726,-0.004754206723146059,18.782031419003033
1602,A,99038561383268.0,-1.2167511,10.076307087763455,-0.90856934,11,1970-01-02 03:30:38.561383268,-1.8977051,1.0623932,0.270401,9.54765223406405,2.1915931782092337,-92.30297088623047,-4.8464789390563965,99.08589935302734,18832385.0,50354.0,-0.0026131283831000002,0.03704446031624098,-0.04526066721946,0.0009527080630227466,0.0011761689301299466,-0.003434765165642119,18.832385423011146
1602,A,99038611737272.0,-0.46903992,11.493879087763455,0.15457153,11,1970-01-02 03:30:38.611737272,-1.8161621,1.22406,0.24285889,8.023757462776722,2.203576206426372,-92.30335235595703,-4.632772445678711,99.01683807373047,18882739.0,50354.0,-0.04244316051054,0.04960337734124098,-0.01898340286237,-0.0011343821854751745,0.0021815326087024235,-0.0016174729524502341,18.882739427004708
1602,A,99038662091276.0,0.76420593,11.400480087763455,-1.4378357,11,1970-01-02 03:30:38.662091276,-1.8908844,1.5565186,-0.014724731,8.263950555441244,2.449165323944536,-92.5848159790039,-4.654677391052246,98.95451354980469,18933093.0,50354.0,0.007431394633770001,0.08294208096224098,-0.032308742008089995,-0.0008814912294794383,0.0033370970037067656,-0.0012913823314035712,18.93309343101282
1602,A,99038712445280.0,-0.7486725,9.839918087763454,-1.4411316,11,1970-01-02 03:30:38.712445280,-1.7834015,0.94036865,-0.35263062,9.798030057149795,2.0467443568425097,-92.67020416259766,-4.674437522888184,98.90818786621094,18983447.0,50354.0,0.0003910851671100018,0.041300304865240965,-0.07248375971210001,0.00019694657394675585,0.0031280505479785135,-0.0026383608158092237,18.983447435006383
1602,A,99038762799284.0,-2.4335175,9.002348087763455,0.9944153,11,1970-01-02 03:30:38.762799284,-1.3939819,0.5452118,-0.2574463,10.824161178468119,1.518789005020296,-92.73773193359375,-4.688583850860596,98.8814926147461,19033801.0,50354.0,-0.08011799763,-0.01907746449875905,-0.011246976285100003,-0.0020072844750781815,0.0005595044519069152,-0.002108088740201505,19.033801438999944
1602,A,99038813153288.0,-1.010788,7.9351630877634545,0.26332092,11,1970-01-02 03:30:38.813153288,-0.775177,0.94636536,-0.3555298,11.614325521956694,1.273934148464892,-92.77267456054688,-4.708617687225342,98.83492279052734,19084155.0,50354.0,-0.08671727957349999,-0.06703348113375905,0.031666024810940004,-0.00420041177415252,-0.0021680152781899083,0.0005140903847350737,19.084155443008058
1602,A,99038863507292.0,-1.7093658,4.583235087763455,0.7067566,11,1970-01-02 03:30:38.863507292,-0.08227539,0.80877686,-0.76667786,15.03341733431139,1.1174453857282205,-92.77359771728516,-4.7488627433776855,98.79625701904297,19134509.0,50354.0,-0.06848531222260001,-0.17829348913475904,0.02442364172104,-0.00390753565365041,-0.00617659713045048,0.0014121695342756606,19.13450944700162
1602,A,99038913861296.0,0.17112732,5.326795087763454,1.9032593,11,1970-01-02 03:30:38.913861296,1.1934662,0.05342102,-0.51898193,14.30385046301617,1.3025197194617844,-92.71379852294922,-4.774914741516113,98.7948226928711,19184863.0,50354.0,-0.03872823021096,-0.24396437027075904,0.06571237031430001,-0.0026993153578497406,-0.01063118612625273,0.0022693543750137556,19.184863451009733
1602,A,99038964215299.0,2.360855,6.826795087763454,-0.5434265,11,1970-01-02 03:30:38.964215299,3.144104,-0.2549286,-0.4239807,12.90505789361552,3.18278780126581,-92.5513687133789,-4.9394145011901855,98.80785369873047,19235217.0,50354.0,0.06374771887064,-0.18747826015075908,0.0342365104056,0.0006299156659847633,-0.010862431106122561,0.002516412969884923,19.235217454013764
1602,A,99039014569303.0,2.837082,4.846708087763455,-2.1358337,11,1970-01-02 03:30:39.014569303,3.1553192,0.58761597,0.008163452,15.079815361649349,3.2095791661892745,-92.53227233886719,-5.088277816772461,98.79051208496094,19285571.0,50354.0,0.130868459849,-0.19956541054975907,-0.06745573405540001,0.004899851531624377,-0.009744598497226946,-0.0008363603938310148,19.285571458007325
1602,A,99039064923307.0,0.79833984,5.224424087763454,-1.6239929,11,1970-01-02 03:30:39.064923307,2.037445,-1.0931396,1.2100983,14.39221954527451,2.6096885271572257,-92.5340347290039,-4.978012561798096,98.85142517089844,19335925.0,50354.0,0.09152901566568002,-0.23990830521675907,-0.09466115430820002,0.0055993012410331,-0.011064629741853628,-0.004081616898330358,19.335925462000887
1602,A,99039115277311.0,-0.8499298,8.876508087763455,-2.1504364,11,1970-01-02 03:30:39.115277311,2.3746338,-1.9429626,1.1801758,10.874596462141895,3.287370418435811,-92.42349243164062,-4.914865016937256,98.94629669189453,19386279.0,50354.0,-0.0012988804229199984,-0.13845003061675906,-0.0950288064861,0.0022717241150069694,-0.009525927821280486,-0.004775824142918091,19.386279466009
1602,A,99039165631315.0,0.6554718,12.863660687763455,-3.1471863,11,1970-01-02 03:30:39.165631315,2.635437,-1.7187347,0.608963,7.376151053814076,3.204748521385428,-92.29895782470703,-4.880898952484131,99.03120422363281,19436633.0,50354.0,-0.004895869065999998,0.05388302926144096,-0.1333782467179,-0.00015596520788253875,-0.002129143393122844,-0.005750604378517109,19.436633470002562
1602,A,99039215985319.0,1.6785278,16.118574087763456,-3.0976715,11,1970-01-02 03:30:39.215985319,1.7210693,-1.6764832,0.45228577,4.8850245771935565,2.4448390280403376,-92.21995544433594,-4.854997634887695,99.11436462402344,19486987.0,50354.0,0.0587631079292,0.23621652494344095,-0.1572267848306,0.0013562154728587864,0.007303836476216313,-0.007316562879296586,19.486987474010675
1602,A,99039266339323.0,1.226944,17.269101987763456,-1.6784363,11,1970-01-02 03:30:39.266339323,0.3412323,-1.2269745,0.63056946,3.051273110464237,1.4210994863478883,-92.20799255371094,-4.821125507354736,99.17466735839844,19537341.0,50354.0,0.0731510635086,0.34713232055354104,-0.12024806608060001,0.0033212030942894903,0.014686973883077516,-0.006985984321391284,19.537341478004237
1602,A,99039316693327.0,1.5571289,15.255384087763455,2.4871368,11,1970-01-02 03:30:39.316693327,-1.1900787,-0.48684692,0.9001465,5.162155425278229,1.5695766808822773,-92.2693862915039,-4.775198936462402,99.19731140136719,19587695.0,50354.0,0.07009460340330001,0.3253997859235411,0.0203606524885,0.0036064961558409064,0.0169323408447735,-0.0025148654120083023,19.58769548201235
1602,A,99039367055101.0,5.965561,5.165357087763455,12.888672,11,1970-01-02 03:30:39.367055101,-1.1712952,-0.5585785,0.4558258,20.180616297100393,1.3753979591925132,-92.3302001953125,-4.751307964324951,99.22439575195312,19638057.0,50362.0,0.1894288543719,0.02066708354094308,0.3871782413928,0.006535060190237312,0.008714309839985175,0.010262236886825014,19.638057256001048
1602,A,99039417409105.0,1.2476196,10.009657087763454,8.825836,11,1970-01-02 03:30:39.417409105,1.1592865,-0.7218323,-0.3677826,13.021695783633144,1.4143023365844731,-92.27531433105469,-4.768235683441162,99.26133728027344,19688411.0,50354.0,0.1816062479662,-0.11140786810275904,0.5467061679160001,0.009341550771566344,-0.0022845807329128407,0.02351240777316766,19.68841126000916
1602,A,99039467763108.0,2.3933258,12.801496387763454,0.17790222,11,1970-01-02 03:30:39.467763108,0.26922607,-0.7244873,0.023910522,7.117730651370131,0.773263368905606,-92.2648696899414,-4.765605449676514,99.29761505126953,19738765.0,50354.0,0.0916680823358,0.08084721105334092,0.22668711716494003,0.006880227814013454,-0.0007694256625332002,0.01947172273848283,19.738765263013192
1602,A,99039518117112.0,2.0184937,5.776106087763456,-5.176819,11,1970-01-02 03:30:39.518117112,0.83226013,-1.0634003,-0.7939148,14.808294216851065,1.566453903466919,-92.22782135009766,-4.803182601928711,99.35247802734375,19789119.0,50354.0,0.1110763795515,-0.025740902473659046,-0.12585772777006002,0.005104497316936552,0.0013874115311106505,0.002538581536794894,19.789119267006754
1602,A,99039568471116.0,-6.9460297,8.522291087763454,2.0522308,11,1970-01-02 03:30:39.568471116,-1.2753601,0.03387451,0.5226593,13.153794150260971,1.3787181042462018,-92.29137420654297,-4.777138710021973,99.34976196289062,19839473.0,50354.0,-0.12406057387200001,-0.13347845431175903,-0.0786677571114,-0.00032690306040722867,-0.004008665745786471,-0.005149338132860519,19.839473271000315
1602,A,99039618825120.0,-2.091919,7.720274087763455,-1.3285828,11,1970-01-02 03:30:39.618825120,-2.1125946,0.66630554,0.9359741,12.03994667685521,2.4048007261423265,-92.39405822753906,-4.7317376136779785,99.3144302368164,19889827.0,50354.0,-0.22754843441990005,-0.08453013657575904,0.018219285695999995,-0.008852460001765169,-0.005488802292775042,-0.0015219111648255262,19.88982727500843
1602,A,99039669179124.0,2.5525513,10.489179087763455,-2.0451813,11,1970-01-02 03:30:39.669179124,-2.0429688,1.5401764,0.28952026,9.588371609351944,2.5748178269230753,-92.48979949951172,-4.720556259155273,99.23661041259766,19940181.0,50354.0,0.011597339417100009,-0.03500979739975902,-0.08494125874570001,-0.005437000718885497,-0.0030096569177016186,-0.0016798591154722972,19.94018127900199
1602,A,99039719533128.0,-2.2419739,10.467115087763455,-1.6853333,11,1970-01-02 03:30:39.719533128,-2.0609894,1.8929291,0.3671112,9.46063444097969,2.82234450726778,-92.58497619628906,-4.706412315368652,99.14091491699219,19990535.0,50354.0,0.007819407199800003,0.03414741845724098,-0.0939231660842,0.0004888554295736917,-2.171211463577669e-05,-0.004503269623942392,19.990535283010104
1602,A,99039769887132.0,-2.6838226,9.646085587763455,0.54486084,11,1970-01-02 03:30:39.769887132,-1.7203522,1.3263855,0.14537048,10.229720705367205,2.1771639265591647,-92.66551208496094,-4.702184200286865,99.07410430908203,20040889.0,50354.0,-0.12401677848050002,0.012920853407740976,-0.02871367512542,-0.0029255012167341845,0.0011850378807446507,-0.0030876277511346028,20.040889287003665
1602,A,99039820241136.0,-0.073516846,11.541334087763454,0.5043793,11,1970-01-02 03:30:39.820241136,-1.7448883,1.7885742,0.009475708,7.977390374866601,2.4987442120842682,-92.58806610107422,-4.575934410095215,98.97164916992188,20091243.0,50354.0,-0.069421535231942,0.03996646517074096,0.02641671900478,-0.004870196424338153,0.00133154401985044,-5.7830464249353214e-05,20.09124329101178
1602,A,99039870595140.0,1.1040955,10.843672087763455,-2.6768494,11,1970-01-02 03:30:39.870595140,-1.5406799,0.80278015,-0.45532227,9.13008958230447,1.7959590454840515,-92.6619644165039,-4.600516319274902,98.9324722290039,20141597.0,50354.0,0.025946878771758,0.07011810048124097,-0.0546962797077,-0.0010945614256980527,0.0027715991094199493,-0.0007119944998174169,20.14159729500534
1602,A,99039920949144.0,-1.7108917,8.685224087763455,0.8813782,11,1970-01-02 03:30:39.920949144,-1.500351,0.7030945,-0.34239197,10.987073940798075,1.6919300399992108,-92.73420715332031,-4.619266033172607,98.89804077148438,20191951.0,50354.0,-0.015277307927400001,-0.0017901809887590247,-0.045204578402400004,0.0002686277851484014,0.0017202920290622181,-0.002515203904637988,20.191951299013454
1602,A,99039971303148.0,-1.6798401,8.269483087763454,1.6764984,11,1970-01-02 03:30:39.971303148,-0.7651367,0.77124023,-0.28201294,11.48091778370752,1.1223978618942512,-92.7694091796875,-4.635200023651123,98.8600845336914,20242305.0,50354.0,-0.08536845452860001,-0.06660053744175905,0.0643996591582,-0.0025339583613547124,-0.0017218731179251534,0.00048327454818877666,20.242305303007015
1602,A,99040021657151.0,0.72476196,6.299452087763454,0.78315735,11,1970-01-02 03:30:40.021657151,-0.23577881,1.3697815,-0.5602875,13.246021476892828,1.4986043799627426,-92.62168884277344,-4.6295928955078125,98.7803726196289,20292659.0,50354.0,-0.02404600233078,-0.12666711908575906,0.06192675281775,-0.0027547277803486106,-0.004865899788393324,0.0031805200743184937,20.292659306011046
1602,A,99040072011155.0,-1.7881012,4.369962087763454,3.1560516,11,1970-01-02 03:30:40.072011155,0.96798706,0.62094116,-0.70492554,15.561149500751801,1.3488835714967695,-92.57089233398438,-4.66621208190918,98.75083923339844,20343013.0,50354.0,-0.026771692045479998,-0.2248453593027591,0.09917746373415001,-0.001279437091311098,-0.008850029668387722,0.004056120860127187,20.343013310004608
1602,A,99040122365159.0,2.3140106,8.768125087763455,1.8130951,11,1970-01-02 03:30:40.122365159,3.4921722,-0.3280182,-0.6637726,11.129561263587949,3.5697978484075032,-92.39775085449219,-4.698657989501953,98.76873016357422,20393367.0,50354.0,0.0132408209638,-0.16269157918175906,0.12510820646589998,-0.00034066674122345734,-0.009757017500224714,0.005646840318626659,20.39336731401272
1602,A,99040172719163.0,2.0082397,2.362455087763454,-2.0227814,11,1970-01-02 03:30:40.172719163,3.7036438,-0.32913208,-0.39019775,17.375362114379175,3.7386574605690512,-92.32184600830078,-4.766261577606201,98.79483795166016,20443721.0,50354.0,0.10882129580310002,-0.21323458292075906,-0.0052792719751,0.0030731579138402417,-0.009464692983255099,0.003016933083674871,20.443721318006283
1602,A,99040223073167.0,1.6092987,2.5504440877634558,-6.7802124,11,1970-01-02 03:30:40.223073167,1.6506805,0.8590851,1.0529938,18.32841369064261,2.138122836733358,-92.23558807373047,-4.71536111831665,98.74967193603516,20494075.0,50354.0,0.09107876429680001,-0.36977713745775903,-0.2216329749026,0.0050328838131351835,-0.014678486083969952,-0.005712969639639853,20.494075322014396
1602,A,99040273427171.0,-1.8604431,11.330778087763454,0.18173218,11,1970-01-02 03:30:40.273427171,2.8030396,-2.021103,0.90289307,8.38272470399101,3.5717088671434554,-92.10359191894531,-4.666428089141846,98.84928894042969,20544429.0,50354.0,-0.006323062558799996,-0.14398166928675904,-0.16612993649894,0.0021338943026576263,-0.01293490547740673,-0.009762706820356574,20.544429326007958
1602,A,99040323781175.0,0.6630249,13.216230087763455,-3.2486267,11,1970-01-02 03:30:40.323781175,2.5127716,-1.7919312,0.5460205,7.106997429267081,3.1341947810753963,-91.98515319824219,-4.635947227478027,98.93814086914062,20594783.0,50354.0,-0.030147398021400002,0.12455082483524095,-0.07721520333004,-0.0009182167860276953,-0.000489210370755871,-0.00612670058547423,20.59478333000152
1602,A,99040374135179.0,0.8700104,16.101621487763456,-3.2060242,11,1970-01-02 03:30:40.374135179,1.6875916,-1.6075897,0.36842346,4.754047495688338,2.359670718090772,-91.90721130371094,-4.614805221557617,99.01809692382812,20645137.0,50354.0,0.0385972297481,0.24466634911704105,-0.16250874570930002,0.00021274141338312592,0.009295780788596605,-0.006035529864963464,20.645137334009632
1602,A,99040424489183.0,1.4471893,17.547544287763454,-2.4933167,11,1970-01-02 03:30:40.424489183,0.44714355,-1.4774475,0.540329,3.4831795918358015,1.6354644287797435,-91.8907241821289,-4.585357666015625,99.09127807617188,20695491.0,50354.0,0.058340136846899995,0.353715846730441,-0.14349230583929998,0.002440592078762315,0.015065468544852054,-0.007704188474839104,20.695491338003194
1602,A,99040474843187.0,1.7453461,16.239896587763454,0.16656494,11,1970-01-02 03:30:40.474843187,-1.0993042,-0.51460266,0.8121033,3.7037902986371494,1.4604100080756792,-91.9476318359375,-4.543913841247559,99.11570739746094,20745845.0,50354.0,0.08037846376579999,0.35719719892314095,-0.05858062906151999,0.0034925182076259473,0.017898657750420235,-0.0050875902819979444,20.745845342011307
1602,A,99040525197191.0,3.8144684,5.8965585877634545,11.82608,11,1970-01-02 03:30:40.525197191,-1.3307648,-0.70428467,0.3900299,18.426228950739997,1.5553376392957443,-92.01690673828125,-4.523204803466797,99.15032958984375,20796199.0,50354.0,0.1399794496665,0.06386033195424094,0.30193882165438,0.005547951186485017,0.010600965454899846,0.006127029214910437,20.79619934600487
1602,A,99040575551194.0,2.7110748,5.636121587763455,8.36763,11,1970-01-02 03:30:40.575551194,1.2853546,-1.0575714,-0.43891907,16.42076439784705,1.7214074659559209,-91.95689392089844,-4.543303966522217,99.2041244506836,20846553.0,50354.0,0.1642936011464,-0.20311091122075906,0.50841703667,0.0076606826003163845,-0.003505911834193127,0.020402329445032917,20.8465533490089
1602,A,99040625905198.0,3.3685913,13.641736787763454,3.8567505,11,1970-01-02 03:30:40.625905198,0.87939453,-1.0826416,-0.26454163,7.782646554615418,1.4196583558897324,-91.91727447509766,-4.554695129394531,99.25884246826172,20896907.0,50354.0,0.1530677533997,-0.008110559679359041,0.30777322784850003,0.00799020682340716,-0.005317922972852274,0.020549222289782277,20.89690735300246
1602,A,99040676259202.0,-3.3103027,12.859769687763455,-1.7546234,11,1970-01-02 03:30:40.676259202,1.2072296,-2.3236237,-1.0892029,7.626379528930762,2.8360171656191118,-91.86634826660156,-4.605288982391357,99.37712860107422,20947261.0,50354.0,0.0014675320822000006,0.17375922853434098,0.0529252539967,0.0038907348825777963,0.004170536535761881,0.009081305677416602,20.947261357010575
1602,A,99040726613206.0,-11.151794,7.220396087763454,6.60997,11,1970-01-02 03:30:40.726613206,-1.3425903,-0.2995453,0.81832886,17.857839304129715,1.600605580246139,-91.9345703125,-4.563899040222168,99.39079284667969,20997615.0,50354.0,-0.36411220861590005,0.012089133730440963,0.1222430613482,-0.009130305021088966,0.0046791042167404154,0.004410212675438547,20.997615361004137
1602,A,99040776967210.0,-0.9958496,6.443845587763455,-2.6890106,11,1970-01-02 03:30:40.776967210,-2.171997,0.7222748,1.2217255,13.369703320320715,2.5945837916849572,-92.0401382446289,-4.504103183746338,99.35246276855469,21047969.0,50354.0,-0.3058412229172,-0.14944458733525903,0.0987179948138,-0.016867417545708863,-0.0034581982554085047,0.005563136510990675,21.04796936501225
1602,A,99040827321214.0,2.3990784,11.517621887763454,-1.118515,11,1970-01-02 03:30:40.827321214,-2.1142273,1.0458679,0.37231445,8.41211739978089,2.387972945825497,-92.14168548583984,-4.4874043464660645,99.29935455322266,21098323.0,50354.0,0.0353290914976,-0.041253333368659044,-0.09586207203120001,-0.00681068393275127,-0.004801201549562546,7.190356789752009e-05,21.09832336900581
1602,A,99040877675218.0,-2.2295227,9.702589087763455,-1.5055542,11,1970-01-02 03:30:40.877675218,-2.1610107,1.9325256,0.5084839,10.162392973418116,2.9433277623684826,-92.24209594726562,-4.4656901359558105,99.20153045654297,21148677.0,50354.0,0.0042689038589000024,0.04079205173084095,-0.0660661902484,0.0009969587290906007,-1.1613687795346075e-05,-0.00407686785941349,21.148677373013925
1602,A,99040928029222.0,-1.277008,11.265440087763455,0.4313507,11,1970-01-02 03:30:40.928029222,-1.6854095,1.1691589,0.20030212,8.346539299297074,2.060984875106063,-92.32176971435547,-4.458010673522949,99.14253234863281,21199031.0,50354.0,-0.0882839234339,0.034442870552240976,-0.0270452215195,-0.002115246147839775,0.0018941896383211539,-0.0023442660140804185,21.199031377007486
1602,A,99040978383226.0,1.0627747,12.065137687763455,-0.11380005,11,1970-01-02 03:30:40.978383226,-1.8248444,1.8751984,0.032592773,7.513698790207459,2.616770607528629,-92.36976623535156,-4.552026271820068,99.0457534790039,21249385.0,50354.0,-0.005393751794099996,0.09392475665444099,0.00799497271505,-0.002358522829215356,0.003231911750182632,-0.0004796281141496376,21.249385381001048
1602,A,99041028737230.0,1.5797272,10.843183087763455,-3.7738953,11,1970-01-02 03:30:41.028737230,-1.6240997,1.4046783,-0.40745544,9.577070452798335,2.185598521599192,-92.44542694091797,-4.575329780578613,98.97621154785156,21299739.0,50354.0,0.0665302703363,0.08329359216544098,-0.09788050582695,0.0015392341273369697,0.004461826368238169,-0.0022630480671583064,21.29973938500916
1602,A,99041079091233.0,-1.7969818,8.549238087763454,1.13797,11,1970-01-02 03:30:41.079091233,-1.53862,0.7652588,-0.39149475,11.157795609394682,1.762453027644993,-92.51937103271484,-4.596543788909912,98.93871307373047,21350093.0,50354.0,-0.005469819064199999,-0.005226212063759045,-0.0663646912781,0.0015373189816776619,0.001965502428820046,-0.004135201327513844,21.350093388013192
1602,A,99041129445237.0,-0.29283142,7.655882087763455,1.1880646,11,1970-01-02 03:30:41.129445237,-0.85398865,0.97454834,-0.29670715,11.90956779619128,1.3293141894174982,-92.5582046508789,-4.613523960113525,98.89054870605469,21400447.0,50354.0,-0.05261522743994,-0.08547288934075904,0.0585625731242,-0.0014624072158347329,-0.002283531276061552,-0.0001964339287607405,21.400447392006754
1602,A,99041179799241.0,-1.5352478,5.902296087763455,0.5549469,11,1970-01-02 03:30:41.179799241,-0.13943481,1.239624,-0.55851746,13.697752862627082,1.3667667982287937,-92.56024932861328,-4.64418888092041,98.82966613769531,21450801.0,50354.0,-0.046025550521940004,-0.15211494807475903,0.0438838005355,-0.0024834788667462532,-0.005981748982610499,0.002579292349630267,21.450801396000315
1602,A,99041230153245.0,-1.9985504,3.7916090877634545,2.681839,11,1970-01-02 03:30:41.230153245,0.8848572,0.315094,-0.5743561,16.06288181141498,1.1009729437343363,-92.51483154296875,-4.673579216003418,98.81515502929688,21501155.0,50354.0,-0.08897043728140001,-0.24940574939575905,0.0814925586043,-0.003398793984924692,-0.010109086600215235,0.0031566005940627446,21.50115540000843
1602,A,99041280507249.0,1.691391,7.638258087763454,0.38079834,11,1970-01-02 03:30:41.280507249,2.8323822,-0.1600647,-0.33622742,11.990172883081536,2.8567566422470754,-92.26592254638672,-4.7762017250061035,98.81489562988281,21551509.0,50354.0,-0.0077333522138,-0.2056994341217591,0.07710802030918001,-0.002434711308120651,-0.011458183205420556,0.003993086775304687,21.55150940400199
1602,A,99041330861253.0,2.0888824,5.440153087763454,-4.833069,11,1970-01-02 03:30:41.330861253,3.4910126,0.42333984,-0.20431519,15.01564022335484,3.5225176068196906,-92.08963775634766,-4.787215709686279,98.7940673828125,21601863.0,50354.0,0.09517594339180002,-0.1641940418337591,-0.11209481840682001,0.0022015421180885068,-0.009312808044132082,-0.0008808626157042821,21.601863408010104
1602,A,99041381215257.0,1.3381653,5.881315087763454,-1.1233826,11,1970-01-02 03:30:41.381215257,2.434433,-0.15296936,0.7962494,13.732708590295939,2.565906616303128,-92.03395080566406,-4.767399311065674,98.80575561523438,21652217.0,50354.0,0.08628277994290001,-0.20842859574475908,-0.1499655819332,0.004568586277397743,-0.009381520146314354,-0.006597894699360684,21.652217412003665
1602,A,99041431569261.0,-0.40029907,9.983213087763454,-1.4248657,11,1970-01-02 03:30:41.431569261,2.258606,-2.5147858,1.4343109,9.633579795226712,3.6718791430242432,-92.093017578125,-4.513693332672119,98.9426040649414,21702571.0,50354.0,0.023612658072710003,-0.09404797412475907,-0.06415724744910001,0.0027668374429190134,-0.007615452599604859,-0.005390970475358168,21.70257141601178
1602,A,99041481923265.0,0.4057312,12.467985087763456,-2.6452026,11,1970-01-02 03:30:41.481923265,2.6074982,-1.9263,0.7416992,7.5262903642113885,3.3256271974296636,-91.97010803222656,-4.473217964172363,99.03784942626953,21752925.0,50354.0,0.0001367647370100009,0.07178461646524098,-0.10247210958910001,0.0005979392180803205,-0.000560524555793687,-0.004195227322150763,21.75292542000534
1602,A,99041532277269.0,1.1852112,15.916974887763455,-2.797058,11,1970-01-02 03:30:41.532277269,1.9349213,-1.7595825,0.46020508,4.699330272469693,2.6555300275383344,-91.88016510009766,-4.447266578674316,99.1252670288086,21803279.0,50354.0,0.0400551568048,0.22117893730384103,-0.1370197951262,0.0010119120086581504,0.007375943393244178,-0.006029687685017109,21.803279424013454
1602,A,99041582631273.0,1.4918213,17.263944487763453,-1.9451904,11,1970-01-02 03:30:41.582631273,0.6124115,-1.4813538,0.5177002,3.319651699049466,1.684479273599628,-91.85521697998047,-4.418982028961182,99.19866180419922,21853633.0,50354.0,0.06739964725250001,0.34192680711764095,-0.11939558796679998,0.0027053896017506427,0.014177313327299653,-0.006455770100132461,21.853633428007015
1602,A,99041632985276.0,2.2764587,15.080320087763454,2.3542328,11,1970-01-02 03:30:41.632985276,-0.8679352,-0.8156128,0.6714783,5.502697527233123,1.3672669301543756,-91.90165710449219,-4.38408899307251,99.23844146728516,21903987.0,50354.0,0.09487398556,0.3208623492180409,0.010298460504800004,0.004085563253320313,0.01668704258906346,-0.002746738378110774,21.903987431011046
1602,A,99041683339280.0,4.508774,7.209333087763454,11.3263855,11,1970-01-02 03:30:41.683339280,-1.1499634,-0.82328796,0.31607056,17.312889354812132,1.4491789003843645,-91.9622802734375,-4.366910457611084,99.2791748046875,21954341.0,50354.0,0.17083180368790002,0.06771739800024093,0.34443692693910005,0.006689674655894378,0.009783272295714681,0.008931172849675071,21.954341435004608
1602,A,99041733693284.0,4.2597656,7.803312087763455,11.808792,11,1970-01-02 03:30:41.733693284,0.77204895,-1.1480713,-0.46543884,17.15990655728496,1.4597125076056374,-91.92811584472656,-4.388218402862549,99.33750915527344,22004695.0,50354.0,0.22076552150920004,-0.11549583241575904,0.5824743639175001,0.009859245856487389,-0.0012029176432794997,0.023336845569896625,22.00469543901272
1602,A,99041784047288.0,3.473175,16.162748087763454,1.8573761,11,1970-01-02 03:30:41.784047288,0.5506439,-0.7954254,-0.33584595,5.163935160558487,1.024061899351681,-91.90367889404297,-4.4036760330200195,99.3779296875,22055049.0,50354.0,0.19469224548619998,0.10992429703924096,0.3440731142537,0.010459980199643188,-0.00014027454617459578,0.023327685857916305,22.055049443006283
1602,A,99041834401292.0,4.5592957,11.195951087763454,-4.0480347,11,1970-01-02 03:30:41.834401292,-1.0235596,0.19029236,-0.17408752,10.303943706764493,1.0555528890805426,-91.95415496826172,-4.412696361541748,99.36869812011719,22105403.0,50354.0,0.2022335148139,0.19534076914224094,-0.0551542115722,0.009993399867075618,0.00768565857125117,0.007274111212812126,22.105403447014396
1602,A,99041884755296.0,-3.9815826,11.830686387763453,-3.325821,11,1970-01-02 03:30:41.884755296,-1.2041016,1.3854828,0.41426086,9.261190240042856,1.881763883261218,-92.00897216796875,-4.3943867683410645,99.29853820800781,22155757.0,50354.0,0.0145450827187,0.08627245172134092,-0.1856515649589,0.005457834750078271,0.0070901760616824015,-0.006062767035723505,22.155757451007958
1602,A,99041935109300.0,-2.5043182,8.333173587763454,-1.0910645,11,1970-01-02 03:30:41.935109300,-2.131363,1.2288666,1.2728729,11.498442856394153,2.7700228840063703,-92.11067962646484,-4.3329949378967285,99.23465728759766,22206111.0,50354.0,-0.1632955244416,0.01419630260384092,-0.11120392623350002,-0.0037450898712574534,0.002529501827645103,-0.007473930701751056,22.20611145500152
1602,A,99041985463304.0,1.433609,9.889890087763455,-1.9394379,11,1970-01-02 03:30:41.985463304,-2.013565,0.78048706,0.61680603,9.910472442522273,2.2458970899613373,-92.20832061767578,-4.303642749786377,99.19438171386719,22256465.0,50354.0,-0.02695724552840001,-0.034667125841259055,-0.0762989589248,-0.0047899939895346905,-0.0005153939166484765,-0.00472076013963052,22.256465459009632
1602,A,99042035817308.0,-0.30488586,10.131330087763455,-1.3762665,11,1970-01-02 03:30:42.035817308,-1.9592896,1.5591125,0.26565552,9.476521915950292,2.5179794239887823,-92.45417785644531,-4.140746116638184,99.12693786621094,22306819.0,50354.0,0.02841786249578,0.010605060359240975,-0.0834794896788,3.677395338772601e-05,-0.0006058106226407692,-0.004022742000492838,22.306819463003194
1602,A,99042086171312.0,-2.133194,10.950666087763455,-0.04484558,11,1970-01-02 03:30:42.086171312,-1.828186,1.6578522,0.3513794,8.813914718117344,2.492830810621772,-92.53954315185547,-4.126805305480957,99.04313659667969,22357173.0,50354.0,-0.06138353663522001,0.03731221771124099,-0.03577933883816001,-0.0008299767778086814,0.0012064133099805247,-0.0030025795255715026,22.357173467011307
1602,A,99042136525316.0,-0.038772583,11.184248087763455,0.10507202,11,1970-01-02 03:30:42.136525316,-1.7219696,1.7288818,0.1599884,8.318929943782155,2.445364567877346,-92.53772735595703,-4.013070583343506,98.95033264160156,22407527.0,50354.0,-0.054683602660191004,0.063821534197241,0.0015163210798800001,-0.0029222223660405632,0.0025462444717998514,-0.0008626399981002158,22.40752747100487
1602,A,99042186879319.0,0.28457642,10.721372087763454,-0.9263458,11,1970-01-02 03:30:42.186879319,-1.512085,1.0693359,-0.20059204,8.834363276812974,1.862825134242388,-92.69684600830078,-3.971541404724121,98.90328216552734,22457881.0,50354.0,0.006188603204149001,0.05804859915924097,-0.02067720995906,-0.0012209586013047697,0.003068324347516147,-0.0004824136993111149,22.4578814740089
1602,A,99042237233323.0,-0.25801086,9.738630087763454,-0.44726563,11,1970-01-02 03:30:42.237233323,-1.3596344,0.61672974,-0.29370117,9.777437773879885,1.5215852428054093,-92.76092529296875,-3.8507964611053467,98.87290954589844,22508235.0,50354.0,0.0006688411041199997,0.021652274773240925,-0.03458341497311,0.00017264987534928864,0.0020066289029980968,-0.0013912967539172442,22.50823547800246
1602,A,99042287587327.0,-1.8505096,8.283308087763455,0.7188873,11,1970-01-02 03:30:42.287587327,-1.0460052,0.78977966,-0.2523346,11.393408118348498,1.3347477440078015,-92.81059265136719,-3.865316152572632,98.833984375,22558589.0,50354.0,-0.05308621962142001,-0.03973086255475905,0.00683861878559,-0.0013197123389300624,-0.00045516460457528185,-0.0006985307336131911,22.558589482010575
1602,A,99042337941331.0,-0.50717163,6.164182087763455,1.6633301,11,1970-01-02 03:30:42.337941331,-0.3184204,1.096756,-0.46984863,13.45111853097752,1.2349182198773476,-92.82288360595703,-3.8914756774902344,98.78024291992188,22608943.0,50354.0,-0.05935934032771,-0.12972473985075902,0.059977087479800004,-0.0028310418628392465,-0.004266383701763729,0.0016822190366437243,22.608943486004137
1602,A,99042388295335.0,-0.16577148,5.2572460877634555,3.272583,11,1970-01-02 03:30:42.388295335,0.8255615,0.97406006,-0.6819763,14.617194529975796,1.4475622489313347,-92.77838897705078,-3.927912712097168,98.73316192626953,22659297.0,50354.0,-0.01694268868047,-0.20591190282475902,0.12427148411870002,-0.0019210561843389482,-0.00845032375264152,0.004638826287135436,22.65929749001225
1602,A,99042438649339.0,-0.30239868,6.705778087763454,0.48023987,11,1970-01-02 03:30:42.438649339,2.9472046,0.057388306,-0.5869751,12.80922418196041,3.005636062457782,-92.50768280029297,-3.825880289077759,98.72352600097656,22709651.0,50354.0,-0.011787120118320001,-0.19227614033275905,0.09448482139799001,-0.0007233303961271359,-0.010025180362576833,0.0055076275039937055,22.70965149400581
1602,A,99042489003343.0,1.6319427,3.818464087763454,-0.5246887,11,1970-01-02 03:30:42.489003343,3.6619415,-0.2502594,-0.2492218,15.777361518631404,3.6789341965174986,-92.31071472167969,-3.8905720710754395,98.73550415039062,22760005.0,50354.0,0.03347392979154,-0.2285003547467591,-0.00111908819291,0.00054600880714266,-0.01059388981661703,0.0023506690649042995,22.760005498013925
1602,A,99042539357347.0,1.0384216,2.0803510877634537,-3.9464111,11,1970-01-02 03:30:42.539357347,2.3829193,-0.01914978,0.72224426,17.893605215463953,2.490041741716288,-92.19152069091797,-3.8544483184814453,98.73503875732422,22810359.0,50354.0,0.06723176198110001,-0.34495473032575913,-0.11256887966460001,0.002535467201759758,-0.014437878676870792,-0.0028623219667485295,22.810359502007486
1602,A,99042589711351.0,-0.8445587,8.210722087763454,-3.3198547,11,1970-01-02 03:30:42.589711351,2.35849,-1.1639404,1.1416473,11.799883418223326,2.8671572842188917,-92.07733917236328,-3.7952370643615723,98.79119110107422,22860713.0,50354.0,0.004880886233299999,-0.2343708506597591,-0.1829427740466,0.0018155801440939492,-0.014585680152472393,-0.007440096905486884,22.860713506001048
1602,A,99042640065355.0,-0.13491821,12.933210087763456,-1.9862823,11,1970-01-02 03:30:42.640065355,2.5184937,-1.9285583,0.8078308,6.864262005232528,3.2733374764706467,-91.95767974853516,-3.7514734268188477,98.88634490966797,22911067.0,50354.0,-0.024660290163070003,0.038871580383240976,-0.133592611249,-0.0004979860527398194,-0.004922085127751897,-0.00796941139558732,22.91106751000916
1602,A,99042690419358.0,1.3480988,15.883466587763454,-2.6680908,11,1970-01-02 03:30:42.690419358,1.7548981,-1.9136353,0.57948303,4.693925039709553,2.660351101799851,-91.87610626220703,-3.719313621520996,98.98119354248047,22961421.0,50354.0,0.030544247714430005,0.23204826865974099,-0.1171831515387,0.00014814039927059077,0.006820949039355157,-0.006313781379705923,22.961421513013192
1602,A,99042740773362.0,1.8698273,17.689893587763454,-2.1871338,11,1970-01-02 03:30:42.740773362,0.5331726,-1.3551178,0.50346375,3.400746271681846,1.5408092097439132,-91.8537826538086,-3.6919493675231934,99.0482406616211,23011775.0,50354.0,0.08101772541970001,0.3518072891392409,-0.1222399897542,0.0028087957975979918,0.014699731378704969,-0.006027956428331344,23.011775517006754
1602,A,99042791127366.0,1.8842468,16.304532887763454,-0.04298401,11,1970-01-02 03:30:42.791127366,-0.8411865,-0.76231384,0.6721802,3.711972757909648,1.319296532137425,-91.89822387695312,-3.6571102142333984,99.08531951904297,23062129.0,50354.0,0.09451632361570002,0.36240847537434095,-0.05614767610237,0.004419420752564267,0.01798181030315845,-0.004491266263270863,23.062129521000315
1602,A,99042841481370.0,4.9501953,9.217802087763454,9.088699,11,1970-01-02 03:30:42.841481370,-1.4162292,-0.58843994,0.40777588,14.590487747283403,1.5868988241944153,-91.97086334228516,-3.6357414722442627,99.11408996582031,23112483.0,50354.0,0.17207074875170003,0.14910662767884095,0.22774396630323002,0.006711862720994031,0.012878415749569962,0.0043202797983870524,23.11248352500843
1602,A,99042891835374.0,1.6871796,4.652296087763455,9.868881,11,1970-01-02 03:30:42.891835374,0.7239227,-0.83950806,-0.33728027,17.909988520688703,1.1587043794305458,-91.9373779296875,-3.651167869567871,99.15670776367188,23162837.0,50354.0,0.1671091878573,-0.14426173823475905,0.47729499166000006,0.008539533264004794,0.00012197978153365003,0.017750765844640245,23.16283752900199
1602,A,99042942189378.0,2.5497437,12.970945087763454,1.6268158,11,1970-01-02 03:30:42.942189378,0.87120056,-0.6593933,-0.12110901,7.197773302227595,1.0992985636906762,-91.89592742919922,-3.656116008758545,99.1899185180664,23213191.0,50354.0,0.1066730179241,-0.049768856923759056,0.2894271583336,0.006893014594958309,-0.004885108294306011,0.01930376357038887,23.213191533010104
1602,A,99042992543382.0,4.6846924,6.215254087763455,4.802887,11,1970-01-02 03:30:42.992543382,0.7030029,-1.0926971,-0.73716736,14.884990864165378,1.4938593462592755,-91.8643798828125,-3.6911654472351074,99.24586486816406,23263545.0,50354.0,0.1821413976897,-0.010418263357759054,0.16188062739560002,0.007271480541908643,-0.0015153311273277815,0.01136257612130407,23.263545537003665
1602,A,99043042897386.0,-3.5856323,9.056120087763455,5.6877136,11,1970-01-02 03:30:43.042897386,-0.7949829,-0.4146576,-0.05001831,12.423047623141604,0.8980203604960335,-91.90546417236328,-3.6929845809936523,99.26671600341797,23313899.0,50354.0,0.02767103613770001,-0.10898181238275903,0.26412185130620003,0.00528244764647245,-0.003006135706919024,0.01072546440627522,23.31389954101178
1602,A,99043093251390.0,-2.7359314,6.471449087763455,-2.4921722,11,1970-01-02 03:30:43.093251390,-1.9668121,1.1372223,0.9329529,13.546311392795596,2.4560182226404814,-92.00004577636719,-3.6483001708984375,99.20816802978516,23364253.0,50354.0,-0.1591580092749,-0.10253159086775902,0.08045414582780001,-0.0033104475226752848,-0.005325272953638293,0.00867538987984272,23.36425354500534
1602,A,99043143605394.0,1.8824463,10.533537087763454,-1.2357941,11,1970-01-02 03:30:43.143605394,-1.9441223,0.8439789,0.60194397,9.247255006148988,2.2032359029440904,-92.23757934570312,-3.821988344192505,99.17431640625,23414607.0,50354.0,-0.021488194362700004,-0.06533466305875905,-0.09385900753510001,-0.004548129468983856,-0.0042263686751079456,-0.00033749420320469215,23.414607549013454
1602,A,99043193959398.0,-0.37356567,9.970487087763455,-1.1798859,11,1970-01-02 03:30:43.193959398,-2.0671844,1.4152527,0.5623932,9.611945953800944,2.567582064874829,-92.45672607421875,-3.646164894104004,99.11004638671875,23464961.0,50354.0,0.03798908762151,0.02276061666724097,-0.06081957536,0.0004154429895770593,-0.001071886765999251,-0.003894342681549933,23.464961553007015
1602,A,99043244313401.0,-1.0549469,11.000471087763454,-0.25099182,11,1970-01-02 03:30:43.244313401,-1.8121033,1.1646118,0.32878113,8.570829287165596,2.1790218094397784,-92.54358673095703,-3.632279872894287,99.05103302001953,23515315.0,50354.0,-0.035965660974890006,0.034516613985240974,-0.03602520835644,5.094381268195163e-05,0.001442068836137538,-0.00243826111962881,23.515315556011046
1602,A,99043294667405.0,0.49179077,11.805921387763455,0.34580994,11,1970-01-02 03:30:43.294667405,-1.879242,1.6824799,0.13972473,7.719947958838018,2.5262248729362127,-92.50446319580078,-3.62986421585083,98.95842742919922,23565669.0,50354.0,-0.014178581885010004,0.08072734335634096,0.0023872358072400002,-0.0012624816024837027,0.0029014971139890086,-0.0008469032348712084,23.565669560004608
1602,A,99043345021409.0,0.20924377,11.244505087763455,-2.075409,11,1970-01-02 03:30:43.345021409,-1.7542572,1.6613159,-0.26574707,8.517296031201793,2.4306399051604157,-92.5869369506836,-3.6468253135681152,98.87586212158203,23616023.0,50354.0,0.01764994661358,0.08687138737434098,-0.04354611553362,8.739854977120678e-05,0.004219633243606379,-0.0010362571148710693,23.61602356401272
1602,A,99043395375413.0,-1.6339874,9.190687087763454,-0.32437134,11,1970-01-02 03:30:43.395375413,-1.6258545,0.62661743,-0.40940857,10.4454320899971,1.7898792238415138,-92.66629028320312,-3.668710947036743,98.84544372558594,23666377.0,50354.0,-0.035870770372510005,0.02102763340324096,-0.06041926962018,-0.0004587456797785808,0.0027165736461171805,-0.0026175365020172227,23.666377568006283
1602,A,99043445729417.0,0.26748657,8.771009087763455,0.56993103,11,1970-01-02 03:30:43.445729417,-1.115036,0.7857361,-0.19812012,10.749866899004482,1.3783824150387383,-92.576904296875,-3.6247928142547607,98.7974853515625,23716731.0,50354.0,-0.034404391396910004,-0.04124757538875906,0.0061824563151300005,-0.0017693177478686874,-0.0005090774793693893,-0.001365520248581244,23.716731572014396
1602,A,99043496083421.0,-1.2310028,7.084303087763455,-0.5975189,11,1970-01-02 03:30:43.496083421,-0.4395752,1.225357,-0.4216919,12.493283231405027,1.3684115581321468,-92.599609375,-3.417646646499634,98.73735809326172,23767085.0,50354.0,-0.02425844812271,-0.09428000535675903,-0.000694579802989999,-0.001476954310585473,-0.0034121779004299088,0.00013816826694614882,23.767085576007958
1602,A,99043546437425.0,-2.5084534,3.6313455877634553,1.9212189,11,1970-01-02 03:30:43.546437425,0.2348938,0.7076416,-0.6502533,16.18253852999742,0.9893235494467368,-92.58582305908203,-3.451725482940674,98.70341491699219,23817439.0,50354.0,-0.09414828874740001,-0.223681313296259,0.033326794900000005,-0.00298112641417876,-0.008005312119727034,0.0008215812794974209,23.81743958000152
1602,A,99043596791429.0,0.9173279,7.278166087763454,3.4459076,11,1970-01-02 03:30:43.596791429,2.062561,-0.06666565,-0.49343872,12.733744669751323,2.121811480317269,-92.48297119140625,-3.476229190826416,98.70784759521484,23867793.0,50354.0,-0.0400597667135,-0.21880042454525905,0.13512814389049999,-0.0033789562123390797,-0.011140362713635901,0.004241189993928419,23.867793584009632
1602,A,99043647145433.0,0.8360596,6.737638087763454,-4.5668945,11,1970-01-02 03:30:43.647145433,3.940689,-0.5540161,-0.5068054,13.582904058215181,4.011585141468316,-92.28768157958984,-3.500394821166992,98.73662567138672,23918147.0,50354.0,0.044145037087500005,-0.1405932982727591,-0.028223087181300004,0.00010285485220619818,-0.009048455759389245,0.002691548612767528,23.918147588003194
1602,A,99043697499437.0,2.1782532,1.9513380877634532,-0.716629,11,1970-01-02 03:30:43.697499437,2.6698914,0.7502899,0.37696838,17.700253215882178,2.798814066949749,-92.153076171875,-3.5721683502197266,98.69831085205078,23968501.0,50354.0,0.0758913533656,-0.2747068468287591,-0.13302327115950002,0.0030221562024376992,-0.010456011753220926,-0.004059699563946323,23.968501592011307
1602,A,99043747853441.0,0.3758545,7.339521087763455,-1.7495728,11,1970-01-02 03:30:43.747853441,1.8310242,-2.1026,1.5125885,12.293839147112633,3.1719868144930694,-92.21853637695312,-3.4475789070129395,98.81004333496094,24018855.0,50354.0,0.0643047695629,-0.2595532385377591,-0.0620915627186,0.0035297177869708448,-0.013451066169272831,-0.004912406172548925,24.01885559600487
1602,A,99043798207444.0,-0.21299744,10.899458087763454,-2.7157288,11,1970-01-02 03:30:43.798207444,2.4100494,-1.3145447,0.84498596,9.023944526743945,2.872345235401826,-92.10186767578125,-3.402880907058716,98.87425231933594,24069209.0,50354.0,0.00410025219962,-0.03426642129775905,-0.1124228983832,0.0017222332329149663,-0.00739749757567884,-0.0043937505871600195,24.0692095990089
1602,A,99043848561448.0,0.8794708,14.626081087763454,-3.1573792,11,1970-01-02 03:30:43.848561448,2.1203918,-1.6692047,0.5071411,5.875477287360941,2.745814598861063,-92.000732421875,-3.374554395675659,98.95689392089844,24119563.0,50354.0,0.016779799784720002,0.14918729982224097,-0.14786724011600003,0.0005256970688097283,0.0028933629586108812,-0.0065533248169943594,24.11956360300246
1602,A,99043898915452.0,1.8663025,17.716138687763454,-3.1341553,11,1970-01-02 03:30:43.898915452,1.0580139,-1.4747772,0.397583,4.061628983090098,1.8580725077676732,-91.95211791992188,-3.352141857147217,99.030029296875,24169917.0,50354.0,0.0691303343741,0.320810867288441,-0.1584019641065,0.0021629594477166115,0.011833143853345642,-0.007710939754709884,24.169917607010575
1602,A,99043949269456.0,1.1620178,17.094907587763455,-1.2602997,11,1970-01-02 03:30:43.949269456,-0.40011597,-0.937027,0.5671387,2.9554655130975864,1.1660869149491948,-91.97480010986328,-3.3221986293792725,99.07595825195312,24220271.0,50354.0,0.0762440201931,0.38296851207894095,-0.11063919353500003,0.0036600901249383942,0.017719053434332575,-0.0067736492259400476,24.220271611004137
1602,A,99043999623460.0,3.0509644,10.982527087763454,6.7065735,11,1970-01-02 03:30:43.999623460,-1.7157745,-0.56663513,0.766098,11.263887285106266,1.962616531827949,-92.06214904785156,-3.2829198837280273,99.10297393798828,24270625.0,50354.0,0.1060702528494,0.21343637282574096,0.1371208354626,0.004590126452391023,0.015015685787245178,0.0006667282988111848,24.27062561501225
1602,A,99044049977464.0,6.9845734,0.6251960877634559,16.237122,11,1970-01-02 03:30:44.049977464,0.1111145,-0.9188843,-0.177948,25.86074502768347,0.9425286624823354,-92.05924224853516,-3.2901577949523926,99.14928436279297,24320979.0,50354.0,0.2526647351906,-0.20122155360975902,0.5776534216035001,0.009031870793883082,0.0003075325034007774,0.017995871470153205,24.32097961900581
1602,A,99044100331468.0,-0.9928589,17.853696687763456,5.08934,11,1970-01-02 03:30:44.100331468,1.3377686,-0.87815857,-0.3501587,5.441089272417791,1.6381081821406345,-91.99492645263672,-3.3061020374298096,99.19385528564453,24371333.0,50354.0,0.15085339596650002,-0.028226116590558972,0.536936333774,0.010159375988142308,-0.005776803992633406,0.028062026271139323,24.371333623013925
1602,A,99044150685472.0,8.7435,10.154707087763455,-6.718338,11,1970-01-02 03:30:44.150685472,-0.6663666,-0.63842773,0.0155181885,14.455610358761506,0.9229708696393589,-92.03008270263672,-3.3042051792144775,99.22577667236328,24421687.0,50354.0,0.1951378909747,0.21169838185644102,-0.04101328264600001,0.008711022631318593,0.004619281222599113,0.012485854658249656,24.421687627007486
1602,A,99044201039476.0,-6.9994354,12.731992587763454,-10.712265,11,1970-01-02 03:30:44.201039476,0.5534668,-0.9216614,-0.98742676,14.47699761847015,1.4597249197421744,-92.00518035888672,-3.351926326751709,99.27365112304688,24472041.0,50354.0,0.043910314434199973,0.08274923773074096,-0.43885029173100004,0.006018516667579875,0.0074133077183464804,-0.01208152521208973,24.472041631001048
1602,A,99044251393480.0,-10.029999,7.813993087763455,2.9885254,11,1970-01-02 03:30:44.251393480,-2.022461,0.26913452,1.0217285,15.689218694638914,2.2818218629176292,-92.10542297363281,-3.3013558387756348,99.25835418701172,24522395.0,50354.0,-0.4287500698888,0.023817081352740955,-0.1944605919092,-0.009689110523080465,0.002683020215564824,-0.01594486811740932,24.52239563500916
1602,A,99044301747483.0,0.0052337646,7.539793087763455,-2.9500732,11,1970-01-02 03:30:44.301747483,-2.0834808,0.21064758,0.8768921,12.3210186153504,2.270287295029179,-92.20890808105469,-3.257941961288452,99.24616241455078,24572749.0,50354.0,-0.25239351433166585,-0.10690692545875903,0.0009681110394000013,-0.017149152019918668,-0.0020919530050572174,-0.004871560190858955,24.572749638013192
1602,A,99044352101487.0,1.632721,10.828367087763455,-0.095336914,11,1970-01-02 03:30:44.352101487,-1.9132233,1.1793671,0.2868042,8.826898199835604,2.265741997969526,-92.2622299194336,-3.4304676055908203,99.18445587158203,24623103.0,50354.0,0.04123878710833421,-0.031014031260759026,-0.07667429044017801,-0.0053162425673018215,-0.003472435927327307,-0.001906054478773388,24.623103642006754
1602,A,99044402455491.0,-2.2554474,10.381544087763455,-0.8566742,11,1970-01-02 03:30:44.402455491,-1.7685242,1.3144684,0.37251282,9.434584550127918,2.2347865270867713,-92.34669494628906,-3.4144973754882812,99.11792755126953,24673457.0,50354.0,-0.0156783825728,0.04053273366624099,-0.023968783817178003,0.0006435343049911448,0.00023965237046281933,-0.0025338906805774525,24.673457646000315
1602,A,99044452809495.0,0.49630737,11.211088087763455,-0.10913086,11,1970-01-02 03:30:44.452809495,-1.7400513,1.5787354,0.20353699,8.306893716366945,2.35830687064748,-92.38916015625,-3.4078927040100098,99.03611755371094,24723811.0,50354.0,-0.04428986853531,0.05016850028324099,-0.024316073995620004,-0.0015098206581488855,0.002283584967146108,-0.0012156678651528156,24.72381165000843
1602,A,99044503163499.0,-0.103012085,11.282682087763455,-1.1007385,11,1970-01-02 03:30:44.503163499,-1.7089691,1.7608643,-0.13801575,8.29375640356059,2.4576954276348735,-92.6004409790039,-3.316063404083252,98.9559097290039,24774165.0,50354.0,0.009901995390445001,0.07285645170924097,-0.030460880876720005,-0.0008657834821682662,0.0030973992163147186,-0.0013791193928209045,24.77416565400199
1602,A,99044553517503.0,-0.6427002,9.663267087763455,-1.1824799,11,1970-01-02 03:30:44.553517503,-1.4779053,0.37617493,-0.38479614,9.930777045711633,1.572825394977934,-92.77946472167969,-3.1611533164978027,98.94385528564453,24824519.0,50354.0,-0.018774798199445004,0.033886962392240955,-0.057484589656800006,-0.0002233905563221931,0.0026874789368330106,-0.002214203111622433,24.824519658010104
1602,A,99044603871507.0,-0.5184479,8.912016087763455,0.2949524,11,1970-01-02 03:30:44.603871507,-1.2874451,0.7957001,-0.15174866,10.607192218006807,1.5210789560262201,-92.73240661621094,-3.0220742225646973,98.89845275878906,24874873.0,50354.0,-0.029234225713700004,-0.025799295489759042,-0.022345279867499998,-0.001208723195061252,0.00020362318960378712,-0.0020098766250133014,24.874873662003665
1602,A,99044654225511.0,-2.2591858,7.455793087763455,1.7019958,11,1970-01-02 03:30:44.654225511,-0.5312195,0.8358307,-0.38824463,12.374248608796426,1.0637391639714018,-92.75682067871094,-3.0434656143188477,98.85759735107422,24925227.0,50354.0,-0.0699324836649,-0.08137686838775904,0.0502771648314,-0.0024967202420250125,-0.002698374277944273,0.0007032410677361103,24.92522766601178
1602,A,99044704579515.0,1.0505829,5.789350087763454,0.8209686,11,1970-01-02 03:30:44.704579515,0.18078613,1.1692657,-0.68437195,13.777739742114248,1.3668324213098213,-92.5906753540039,-3.1140432357788086,98.79248809814453,24975581.0,50354.0,-0.030428995213300003,-0.15999623026975907,0.0635206746988,-0.002526800953716442,-0.006077050504900334,0.0028650882058518456,24.97558167000534
1602,A,99044754933519.0,-1.0511017,6.178419087763455,2.7595215,11,1970-01-02 03:30:44.754933519,1.6015625,0.34378052,-0.6061554,13.647303137716628,1.746600084818182,-92.50973510742188,-3.1450865268707275,98.7766342163086,25025935.0,50354.0,-1.3061827600001045e-05,-0.19215667546775905,0.0901459992477,-0.0007664396701187394,-0.008866153707753495,0.0038688658499510314,25.025935674013454
1602,A,99044805287523.0,1.7248077,8.028196087763455,0.6075592,11,1970-01-02 03:30:44.805287523,3.4473724,-0.3627777,-0.46166992,11.619036017650858,3.497016333809703,-92.2014389038086,-3.30234432220459,98.78785705566406,25076289.0,50354.0,0.016961895961999998,-0.13578924972575904,0.0847729907839,0.00042672079700178874,-0.008256694558597205,0.004403935412025594,25.076289678007015
1602,A,99044855641526.0,2.0915222,3.148344087763455,-2.5788574,11,1970-01-02 03:30:44.855641526,3.0388794,0.017974854,0.11766052,16.687747099265007,3.041209479974596,-92.21697998046875,-3.394432544708252,98.79639434814453,25126643.0,50354.0,0.0960837378923,-0.21207744800075903,-0.049631374781400006,0.002846149923549711,-0.008758239848660546,0.0008847604660949425,25.126643681011046
1602,A,99044905995530.0,1.5244598,5.9623850877634545,-3.2472382,11,1970-01-02 03:30:44.905995530,1.9528961,-0.016113281,1.1015778,14.007183504576368,2.2422168638810644,-92.1192626953125,-3.339362859725952,98.79511260986328,25176997.0,50354.0,0.091039578814,-0.26408837154775905,-0.14668360892120003,0.0047112037447145155,-0.01198842683877304,-0.004942622344680361,25.176997685004608
1602,A,99044956349534.0,-1.1029358,11.324751087763454,-0.19247437,11,1970-01-02 03:30:44.956349534,2.418869,-2.155548,1.0778046,8.253959622929926,3.414524443498122,-92.00444793701172,-3.281623363494873,98.90106201171875,25227351.0,50354.0,0.010612709748,-0.058230972508759055,-0.08660164337489001,0.0025592996691254743,-0.008115034125310956,-0.005873422797058659,25.22735168901272
1602,A,99045006703538.0,1.2859955,13.136625087763456,-3.0985718,11,1970-01-02 03:30:45.006703538,2.10289,-1.4991608,0.668396,7.195715984818778,2.6676549006894876,-91.90350341796875,-3.245666980743408,98.97496032714844,25277705.0,50354.0,0.004608894066900002,0.12239486797124098,-0.08285866942209001,0.0003832343192477374,0.0016154543960589076,-0.004266502295289566,25.277705693006283
1602,A,99045057057542.0,1.5952454,16.846921787763456,-2.834671,11,1970-01-02 03:30:45.057057542,1.2623749,-1.2996216,0.49517822,4.199030844107655,1.8782460331114608,-91.84400177001953,-3.2187952995300293,99.03919982910156,25328059.0,50354.0,0.0725410021393,0.26142655968514106,-0.1493812539756,0.0019424029367834975,0.009663472084104731,-0.0058471045513836415,25.328059697014396
1602,A,99045107411546.0,1.4823456,17.241285087763455,-1.4939728,11,1970-01-02 03:30:45.107411546,-0.04118347,-1.1515503,0.55963135,3.089021330826351,1.2809962605465144,-91.8492202758789,-3.1889760494232178,99.0959243774414,25378413.0,50354.0,0.077484508607,0.364769584505141,-0.10898226495260001,0.0037771922840595953,0.015765740322278735,-0.006504818316055293,25.378413701007958
1602,A,99045157765550.0,2.6315613,12.636640387763455,4.5259705,11,1970-01-02 03:30:45.157765550,-1.3309174,-0.8879547,0.6312866,8.63414788254832,1.7199789086539434,-91.91817474365234,-3.1559665203094482,99.13933563232422,25428767.0,50354.0,0.10357583402130001,0.258767329697341,0.0763366060929,0.00455855624635271,0.01569878888887589,-0.0008219197531106673,25.42876770500152
1602,A,99045208119554.0,4.2757874,4.966581087763455,11.120102,11,1970-01-02 03:30:45.208119554,-0.56521606,-0.98791504,0.08206177,18.79440762836253,1.1411307790238847,-91.94915008544922,-3.150198221206665,99.18863677978516,25479121.0,50354.0,0.17390631821990002,-0.05027289291065903,0.3939211673325,0.006986168146976694,0.005249264434978292,0.011839679961531296,25.479121709009632
1602,A,99045258473558.0,3.2174835,5.527082087763455,6.606247,11,1970-01-02 03:30:45.258473558,1.7342834,-1.093811,-0.6195526,15.789391486524908,2.1419633142057597,-91.86551666259766,-3.1793441772460938,99.24441528320312,25529475.0,50354.0,0.1886580814493,-0.22927024222975903,0.446296288773,0.00912828389047145,-0.007038057513430306,0.021154154892368174,25.529475713003194
1602,A,99045308827562.0,5.7827454,12.367109087763454,0.7615051,11,1970-01-02 03:30:45.308827562,0.5043335,-0.49404907,-0.5271759,9.215896837951918,0.881107934552246,-91.84172058105469,-3.2048895359039307,99.27000427246094,25579829.0,50354.0,0.22659876301530002,-0.042947148773759034,0.1854978946217,0.010454921573085234,-0.006853617253295574,0.015906682155328363,25.579829717011307
1602,A,99045359181566.0,0.3400421,14.001096587763454,-5.0290833,11,1970-01-02 03:30:45.359181566,-1.0608673,1.2602539,-0.13954163,7.461361251833847,1.6532244817862929,-91.89125061035156,-3.213914394378662,99.2071533203125,25630183.0,50354.0,0.1541534208875,0.17040311429274096,-0.1074448163414,0.009586197734120797,0.003208958843871408,0.001965142351863113,25.63018372100487
1602,A,99045409535569.0,-2.7482605,6.828321087763454,-3.8747253,11,1970-01-02 03:30:45.409535569,-1.9517975,1.9158173,0.98828125,13.535114287693672,2.9080180943534555,-91.98340606689453,-3.1677663326263428,99.10958862304688,25680537.0,50354.0,-0.060631714656800006,0.030953048816740943,-0.2241711891222,0.002354595997770334,0.0050695441186074264,-0.008349096169557058,25.6805377240089
1602,A,99045459889573.0,0.6840668,9.675749087763455,-0.7201538,11,1970-01-02 03:30:45.459889573,-2.0750122,0.97073364,0.8276367,9.876745943788453,2.435771322838698,-92.13953399658203,-3.148301362991333,99.06259155273438,25730891.0,50354.0,-0.051970204784900005,-0.07794622519075906,-0.11568527110070001,-0.002834978525783681,-0.0011831472015686542,-0.008556566099031954,25.73089172800246
1602,A,99045510243577.0,-0.8333435,9.765943087763455,-0.8725891,11,1970-01-02 03:30:45.510243577,-2.0535889,1.3152313,0.43318176,9.810959962704569,2.4768341042345967,-92.3130111694336,-2.929448127746582,98.9997329711914,25781245.0,50354.0,-0.003758339475900001,-0.00398571609675902,-0.0401004879933,-0.0014030775588541617,-0.002062800485795843,-0.003922218056709639,25.781245732010575
1602,A,99045560597581.0,-1.1017914,11.119581087763455,-0.93478394,11,1970-01-02 03:30:45.560597581,-1.8622742,1.1822052,0.47221375,8.506457668515424,2.2558058774153733,-92.40306091308594,-2.90828800201416,98.93961334228516,25831599.0,50354.0,-0.048720891377300006,0.03236564216724099,-0.04550423102808,-0.0013212695951910166,0.0007145213986765246,-0.0021552700108012847,25.831599736004137
1602,A,99045610951585.0,0.86587524,11.655912087763454,0.6244812,11,1970-01-02 03:30:45.610951585,-1.8656311,1.4137878,0.25608826,7.9188046614714835,2.354773140161463,-92.32008361816406,-2.9831106662750244,98.85955047607422,25881953.0,50354.0,-0.005939661160319998,0.07994939168024097,-0.007812492084980001,-0.0013761887312396589,0.0028277556071780534,-0.0013423551378175117,25.88195374001225
1602,A,99045661305589.0,0.8314514,10.977293087763455,-1.3089905,11,1970-01-02 03:30:45.661305589,-1.7848358,1.6722107,-0.123031616,8.665023146351842,2.4488904092857444,-92.5643081665039,-3.056326389312744,98.78458404541016,25932307.0,50354.0,0.042733592815280004,0.07636700670424096,-0.0172338906461,0.0009263608172769281,0.003935577962126101,-0.0006305927780204013,25.93230774400581
1602,A,99045711659593.0,-0.6654663,9.613203087763456,-1.152359,11,1970-01-02 03:30:45.711659593,-1.5860901,0.9374542,-0.36450195,9.978349996274819,1.878127752302663,-92.74308776855469,-2.9052958488464355,98.74371337890625,25982661.0,50354.0,0.0041790068627,0.024937722211240985,-0.0619693963615,0.0011811185220925026,0.002550549159905089,-0.0019941011569903455,25.982661748013925
1602,A,99045762013597.0,-1.7860718,8.250761087763454,1.3666229,11,1970-01-02 03:30:45.762013597,-1.3132019,0.52970886,-0.26010132,11.474215916180446,1.4397025398296175,-92.80743408203125,-2.919567346572876,98.71784973144531,26033015.0,50354.0,-0.06172237474370001,-0.043708173952759034,0.0053945222103000045,-0.0014487693731399373,-0.00047258366349619993,-0.0014243856065047622,26.033015752007486
1602,A,99045812367601.0,0.018203735,7.170881087763455,1.1237946,11,1970-01-02 03:30:45.812367601,-0.5923004,1.0729828,-0.3595581,12.38265716394531,1.2772603024488038,-92.63442993164062,-2.869915246963501,98.65497589111328,26083369.0,50354.0,-0.044509614272505,-0.10519851494675905,0.06270124139750001,-0.002674602787460994,-0.003749023706423167,0.001714447040353581,26.083369756001048
1602,A,99045862721605.0,-0.17854309,5.247114087763455,2.4169006,11,1970-01-02 03:30:45.862721605,0.47706604,1.0703888,-0.6030426,14.459846103654323,1.317947103301753,-92.60795593261719,-2.9024851322174072,98.60282897949219,26133723.0,50354.0,-0.004036863940835,-0.18082133546575904,0.0891440830504,-0.0012222546819772612,-0.007201121773835969,0.0038230097336247786,26.13372376000916
1602,A,99045913075608.0,0.63345337,7.194578087763455,1.3275299,11,1970-01-02 03:30:45.913075608,2.5737,-0.36050415,-0.74479675,12.395429478927882,2.7034454185312833,-92.26201629638672,-2.940406084060669,98.61138153076172,26184077.0,50354.0,0.011453276119560001,-0.18022471609675902,0.0942735266985,0.00018672300942375935,-0.009090056440189518,0.004617905160648056,26.184077763013192
1602,A,99045963429612.0,2.3388062,5.548368087763455,0.4163208,11,1970-01-02 03:30:45.963429612,3.590744,-0.44132996,-0.6462555,14.154823075574173,3.6750320785552133,-91.9857406616211,-3.1359355449676514,98.6292495727539,26234431.0,50354.0,0.07483257919389001,-0.17264004413875902,0.043904929073900006,0.002172418979226731,-0.008884076068449638,0.0034789189809817152,26.234431767006754
1602,A,99046013783616.0,2.193756,2.329191087763455,-1.2316895,11,1970-01-02 03:30:46.013783616,2.6119232,0.3048706,0.135849,17.356542169575,2.633162326223661,-91.90682220458984,-3.232759714126587,98.6165542602539,26284785.0,50354.0,0.1141163185094,-0.295135892637759,-0.020528537759900004,0.004757166397475733,-0.011777194760222397,0.0005885474041125781,26.284785771000315
1602,A,99046064137620.0,0.083999634,7.717069087763456,-1.624054,11,1970-01-02 03:30:46.064137620,2.1892242,-0.58695984,0.936615,11.8970248301604,2.4524420706437624,-91.94734954833984,-3.1147220134735107,98.65270233154297,26335139.0,50354.0,0.057347053597218006,-0.24053450756075903,-0.07189905409950001,0.0043169333195283216,-0.01348657366579809,-0.0023270494802441143,26.33513977500843
1602,A,99046114491624.0,0.014755249,12.414976087763455,-2.092041,11,1970-01-02 03:30:46.114491624,2.322281,-1.1571503,0.7732544,7.389774855552641,2.7073803254937143,-91.83428192138672,-3.0741682052612305,98.7093276977539,26385493.0,50354.0,0.002486351689291,0.01339530138424098,-0.09356012381500001,0.0015064256448984372,-0.005718683793906196,-0.004165765722353367,26.38549377900199
1602,A,99046164845628.0,1.122757,15.475400787763455,-3.1325378,11,1970-01-02 03:30:46.164845628,1.750534,-0.9842682,0.45329285,5.224011199090286,2.0587927488089623,-91.74935913085938,-3.049975633621216,98.75788879394531,26435847.0,50354.0,0.028639145893073002,0.20872681859514094,-0.1315392204476,0.0007836466526311785,0.005592368614720899,-0.00566732619049948,26.435847783010104
1602,A,99046215199632.0,1.204834,17.643216887763455,-2.445465,11,1970-01-02 03:30:46.215199632,0.63964844,-0.93110657,0.5070038,3.2997841514730686,1.2382093622267756,-91.71978759765625,-3.0232250690460205,98.80371856689453,26486201.0,50354.0,0.058601758607,0.34035823721674097,-0.1404373764956,0.002196464252598338,0.013824314450175752,-0.006847554781238946,26.486201787003665
1602,A,99046265553636.0,1.3938599,15.938962787763455,0.24307251,11,1970-01-02 03:30:46.265553636,-0.66700745,-1.281601,0.6997986,3.834082172116738,1.6053405065961748,-91.7564468383789,-2.9863100051879883,98.86679077148438,26536555.0,50354.0,0.0654273163203,0.35202933769074096,-0.05544963572073,0.003122680019444632,0.017432241973445672,-0.004931847306570541,26.53655579101178
1602,A,99046315907640.0,3.778656,9.224043087763455,11.799942,11,1970-01-02 03:30:46.315907640,-0.96365356,-1.5014038,0.55522156,16.098508885945336,1.8684519086783977,-91.80848693847656,-2.956230401992798,98.9410629272461,26586909.0,50354.0,0.1302284328143,0.14005979892814097,0.30320697631827,0.004926024795961824,0.01238932819265359,0.006237786564224265,26.58690979500534
1602,A,99046366261644.0,2.8813171,7.460630087763455,9.525833,11,1970-01-02 03:30:46.366261644,0.9264679,-1.0970154,-0.26708984,15.622044850565414,1.4605213248011122,-91.76502990722656,-2.967867612838745,98.99639129638672,26637263.0,50354.0,0.16767814273870002,-0.07339918345975902,0.536919037175,0.007500393852697882,0.0016783143156474524,0.02115185264172006,26.637263799013454
1602,A,99046416615648.0,4.064331,14.360868087763455,1.2071686,11,1970-01-02 03:30:46.416615648,0.75354004,-0.60432434,-0.288208,6.664205924753748,1.008015054978663,-91.72893524169922,-2.9813480377197266,99.02706146240234,26687617.0,50354.0,0.1748705822137,0.055930659565240994,0.2702247812832,0.008624349248126576,-0.0004398050260922803,0.020321459917322104,26.687617803007015
1602,A,99046466969651.0,3.521408,5.890516087763455,8.62088,11,1970-01-02 03:30:46.466969651,0.84135437,-1.35466,-1.2598572,16.492541516616775,2.032294529813515,-91.69052124023438,-3.0422942638397217,99.09674072265625,26737971.0,50354.0,0.19098615080300002,0.01639989938724098,0.24744077960219998,0.009211174967161458,0.0018210664827466388,0.013033265826411716,26.737971806011046
1602,A,99046517323655.0,-3.6732483,9.199552087763454,7.283081,11,1970-01-02 03:30:46.517323655,-0.3500824,-0.9275818,-0.13661194,13.140973836607312,1.000813921082018,-91.71051788330078,-3.0477473735809326,99.14337921142578,26788325.0,50354.0,-0.0038228832330999985,-0.11354655354475905,0.400414026097,0.004712209587607373,-0.0024458613117238326,0.01631104044308876,26.788325810004608
1602,A,99046567677659.0,-2.1662292,6.523802087763455,-2.5703735,11,1970-01-02 03:30:46.567677659,-1.8594055,0.90097046,1.1165161,13.406863835189753,2.3485622803711363,-91.80101776123047,-2.993325710296631,99.09657287597656,26838679.0,50354.0,-0.14702052501750001,-0.09760231192275905,0.11865183672750002,-0.003797784489525357,-0.0053160949858757035,0.013068521228332436,26.83867981401272
1602,A,99046618031663.0,2.1087189,10.124037087763455,-2.1555176,11,1970-01-02 03:30:46.618031663,-1.9886932,0.6000366,0.90296936,9.851248359720506,2.265016165541564,-91.89881896972656,-2.9491705894470215,99.0650863647461,26889033.0,50354.0,-0.0014479368231000032,-0.07432655307775904,-0.11898376022470002,-0.003737990463760787,-0.0043286530341180435,-8.356837889004432e-06,26.889033818006283
1602,A,99046668385667.0,0.62568665,9.927137087763455,-1.0708618,11,1970-01-02 03:30:46.668385667,-1.9841461,1.0135651,0.56300354,9.655275755308931,2.2980693949782616,-92.10723114013672,-2.9421792030334473,99.01918029785156,26939387.0,50354.0,0.06884412853235,0.011359212217240977,-0.0812305541538,0.0016968339186637874,-0.0015853287408452632,-0.005040795793107495,26.939387822014396
1602,A,99046718739671.0,-0.35160828,11.465376087763454,-0.6640625,11,1970-01-02 03:30:46.718739671,-1.9178314,1.1930084,0.502121,8.072096873847267,2.3137570788519524,-92.26547241210938,-2.7836830615997314,98.96170043945312,26989741.0,50354.0,0.00690047112149,0.04513010422024097,-0.043680189101100005,0.0019070217854847298,0.001422231519946483,-0.0031448777829286177,26.989741826007958
1602,A,99046769093675.0,0.56658936,11.716398087763455,0.25506592,11,1970-01-02 03:30:46.769093675,-1.9693756,1.6119232,0.27540588,7.810779922586902,2.5598017609401267,-92.2566909790039,-2.807687520980835,98.8755111694336,27040095.0,50354.0,0.005412578651160001,0.09017832841724097,-0.01029730689466,0.00031000565412600913,0.003406660408513883,-0.0013589914166852496,27.04009583000152
1602,A,99046819447679.0,0.14538574,10.812406087763454,-1.6837158,11,1970-01-02 03:30:46.819447679,-1.8697815,1.5786896,-0.10731506,8.852821513443553,2.4494612127962374,-92.56344604492188,-2.7704923152923584,98.80728912353516,27090449.0,50354.0,0.017925397092700003,0.07373850272724097,-0.03596911802876,0.0005875802153031634,0.004126934057724622,-0.0011648497802969455,27.090449834009632
1602,A,99046869801683.0,-0.16139221,9.930921087763455,-0.3976593,11,1970-01-02 03:30:46.869801683,-1.7278748,0.8126068,-0.2626648,9.58111945668846,1.9274008231398885,-92.64332580566406,-2.6921324729919434,98.76697540283203,27140803.0,50354.0,-0.00040299489518999987,0.02878554829824096,-0.05240278089270001,0.0004411615201267094,0.002581248032668559,-0.002224939299145599,27.140803838003194
1602,A,99046920155687.0,-1.8494263,8.790144087763455,0.6487732,11,1970-01-02 03:30:46.920155687,-1.2072906,0.8211365,-0.21226501,10.890097662673643,1.4754227119544114,-92.7017822265625,-2.7046492099761963,98.72640991210938,27191157.0,50354.0,-0.05062637762627,-0.02212894207575903,0.006322294660300002,-0.0012847665119727985,0.00016759337486342758,-0.001160168401873135,27.191157842011307
1602,A,99046970509691.0,-0.045135498,7.341276087763454,0.54582214,11,1970-01-02 03:30:46.970509691,-0.45845032,1.2495728,-0.40428162,12.173474430071224,1.3910616473319097,-92.59008026123047,-2.6551120281219482,98.6587142944336,27241511.0,50354.0,-0.047699382388246,-0.08732843424075906,0.030076326875180002,-0.00247554765988547,-0.002755808363520976,0.0009164080943987802,27.24151184600487
1602,A,99047020863694.0,-2.2217865,3.5082380877634556,2.899826,11,1970-01-02 03:30:47.020863694,0.3519745,0.7393799,-0.69007874,16.406075456502517,1.0708769082272003,-92.57083129882812,-2.6912455558776855,98.62329864501953,27291865.0,50354.0,-0.057074295143646,-0.22031098160275905,0.08675108322078,-0.0026378868792204455,-0.0077454375726922564,0.002941363703985985,27.2918658490089
1602,A,99047071217698.0,1.5754089,7.521803087763455,1.1671295,11,1970-01-02 03:30:47.071217698,2.4693756,-0.3586731,-0.6320648,12.139991104511175,2.5740955999997377,-92.24705505371094,-2.8416988849639893,98.63277435302734,27342219.0,50354.0,-0.016273848835199996,-0.215765853323759,0.1023937386235,-0.0018466862209554058,-0.010979106472944946,0.004762099179573437,27.34221985300246
1602,A,99047121571702.0,1.8408203,4.925916087763454,-2.6487732,11,1970-01-02 03:30:47.121571702,3.102188,0.44163513,-0.1852417,14.929139436551402,3.138937154963923,-92.29021453857422,-2.9584479331970215,98.62097930908203,27392573.0,50354.0,0.08601040256840001,-0.18007297431775904,-0.0373033434349,0.0017557572133407766,-0.0099660341635305,0.0016387808796633821,27.392573857010575
1602,A,99047171925706.0,2.666504,4.747602087763454,-3.8638458,11,1970-01-02 03:30:47.171925706,2.4604645,0.38168335,0.7259064,15.483679155803948,2.5935512019214952,-92.1661376953125,-2.9229202270507812,98.60047149658203,27442927.0,50354.0,0.11348090390110002,-0.24991903289475909,-0.163968208563,0.005022592622982602,-0.01082590876558957,-0.005067413864651129,27.442927861004137
1602,A,99047222279710.0,0.14250183,9.459623087763454,-0.5156555,11,1970-01-02 03:30:47.222279710,2.1271057,-1.7812958,1.2953186,10.057040284886732,3.0619346272538364,-92.08346557617188,-2.8021397590637207,98.68820190429688,27493281.0,50354.0,0.07072233978191,-0.13577389175575907,-0.11026270423010001,0.004637685066207144,-0.009710590763926098,-0.006904311691391879,27.49328186501225
1602,A,99047272633714.0,0.72792053,11.631956087763456,-2.4723816,11,1970-01-02 03:30:47.272633714,2.521881,-1.3042145,0.57865906,8.281715137158368,2.897534391149022,-91.96050262451172,-2.770921468734741,98.75243377685547,27543635.0,50354.0,0.021914623757720002,0.03755348890224097,-0.0752298100667,0.0023323208310372648,-0.0024728950826430254,-0.004670145032450534,27.54363586900581
1602,A,99047322987718.0,1.5939789,15.041975087763454,-3.0953217,11,1970-01-02 03:30:47.322987718,2.1570435,-1.2548676,0.14048767,5.658391153122687,2.499453168163796,-91.85566711425781,-2.7618112564086914,98.81497955322266,27593989.0,50354.0,0.05845846194911001,0.17810036520624098,-0.14017806598410001,0.002023553178840859,0.00542951708488925,-0.005423324095330992,27.593989873013925
1602,A,99047373341722.0,1.4216156,17.367139687763455,-2.259018,11,1970-01-02 03:30:47.373341722,1.2030029,-1.6750946,0.012481689,3.4181270759541285,2.0623563438256403,-91.7995376586914,-2.758516788482666,98.89877319335938,27644343.0,50354.0,0.0759236227265,0.32249508270344096,-0.1348062106269,0.003383337745877833,0.012603491592022063,-0.006923279132235147,27.644343877007486
1602,A,99047423695726.0,0.43901062,16.760084087763456,0.08847046,11,1970-01-02 03:30:47.423695726,-0.37965393,-1.3569183,0.33280945,2.778666230831871,1.4478005765465896,-91.73176574707031,-2.897904872894287,98.96173095703125,27694697.0,50354.0,0.04684498634094,0.365751912996441,-0.05464787541458001,0.003090945270490937,0.01732799461073593,-0.004769885524266343,27.694697881001048
1602,A,99047474049730.0,4.282898,12.572553487763454,7.121475,11,1970-01-02 03:30:47.474049730,-2.0366821,-0.5556183,0.7801361,10.820431044407306,2.2506439092576396,-91.8349380493164,-2.858053207397461,98.98832702636719,27745051.0,50354.0,0.11888349332574003,0.245038616239041,0.18152479684642,0.0041725459325680034,0.015377873154561732,0.0031943802508894357,27.74505188500916
1602,A,99047524403733.0,6.911804,0.4067210877634544,12.033356,11,1970-01-02 03:30:47.524403733,1.0353851,-0.66815186,-0.63726807,23.605519782910118,1.3872850487066437,-91.7848892211914,-2.8888466358184814,99.02276611328125,27795405.0,50354.0,0.281849012254,-0.16669000401195908,0.4822611800870001,0.010089242292981115,0.0019725830100412417,0.01671213954125272,27.795405888013192
1602,A,99047574757737.0,2.6023865,20.541211887763456,2.4711761,11,1970-01-02 03:30:47.574757737,1.5250854,-0.3625183,-0.33952332,3.7360683754479522,1.6039267688868692,-91.70957946777344,-2.905261754989624,99.04142761230469,27845759.0,50354.0,0.2395387742185,0.03393690852484099,0.3651806046817,0.013126980300018135,-0.003342324685079172,0.021336041815121564,27.845759892006754
1602,A,99047625111741.0,1.2433167,5.083845087763455,9.580887,11,1970-01-02 03:30:47.625111741,0.88505554,-1.9273529,-1.4500885,17.356112828122225,2.569196210462594,-91.67037963867188,-2.974891424179077,99.14002227783203,27896113.0,50354.0,0.0968232694664,0.15169285947284103,0.30343479266870005,0.008468587173854729,0.004673600668877641,0.016833729859091023,27.896113896000315
1602,A,99047675465745.0,-4.1850433,9.337309087763455,7.1545105,11,1970-01-02 03:30:47.675465745,-0.8282623,-0.5758362,0.2432251,13.116065373453662,1.037672499443702,-91.71327209472656,-2.961888313293457,99.16847229003906,27946467.0,50354.0,-0.0740638506082,-0.13038780132275904,0.42134710285750004,0.0005730138885929014,0.0005363974490446143,0.01824783378366314,27.94646790000843
1602,A,99047725819749.0,-0.13761902,6.806684087763454,-2.0660248,11,1970-01-02 03:30:47.725819749,-1.9730835,1.5725708,0.84936523,12.86348365010353,2.662228148171723,-91.99579620361328,-2.833292245864868,99.09790802001953,27996821.0,50354.0,-0.10883166923064001,-0.08701188381975906,0.1281128044689,-0.004604760502982475,-0.005473471872833179,0.013833752086756775,27.99682190400199
1602,A,99047776173753.0,0.73713684,10.400404087763455,-0.8384857,11,1970-01-02 03:30:47.776173753,-2.0118256,0.98861694,0.67852783,9.170234297464251,2.342051603819786,-92.17535400390625,-2.8457231521606445,99.05130004882812,28047175.0,50354.0,0.01509406015414,-0.06024634100475905,-0.07312686085850001,-0.002360031783719041,-0.0037075203264068926,0.0013843811022790406,28.047175908010104
1602,A,99047826527757.0,-0.6143341,9.691175087763455,0.5319214,11,1970-01-02 03:30:47.826527757,-2.0110931,1.3222656,0.48101807,9.844844016143767,2.454436831022036,-92.14099884033203,-2.664224863052368,98.97776794433594,28097529.0,50354.0,0.0030918045849800007,0.012376488902240971,-0.007718369381100001,0.0004578655165368243,-0.0012052192663850978,-0.0020354403617424094,28.097529912003665
1602,A,99047876881761.0,-2.057495,11.068098087763454,-0.41114807,11,1970-01-02 03:30:47.876881761,-1.9178619,0.8314667,0.4410553,8.691385590615901,2.1363662884296293,-92.23494720458984,-2.6437771320343018,98.93534851074219,28147883.0,50354.0,-0.0672686412507,0.02918702074024095,0.0030407101294100004,-0.0016157802167328327,0.0010464444822687673,-0.00011776942697979914,28.14788391601178
1602,A,99047927235765.0,0.43821716,10.876035087763455,0.018966675,11,1970-01-02 03:30:47.927235765,-1.9240112,1.0629425,0.20587158,8.637533281753536,2.2077248387159543,-92.2696762084961,-2.642247200012207,98.8790512084961,28198237.0,50354.0,-0.04076855817768,0.05901824096024096,-0.009873950981915,-0.0027200525700083232,0.002220743873833033,-0.00017204050494351838,28.19823792000534
1602,A,99047977589769.0,0.45996094,11.321897087763455,-0.47872925,11,1970-01-02 03:30:47.977589769,-1.9252472,1.157547,-0.032302856,8.2074215048857,2.2466720527977815,-92.3902359008789,-2.660482883453369,98.8224868774414,28248591.0,50354.0,0.0226134300237,0.06540813838324099,-0.011575442350775001,-0.00045709166153275443,0.003132682952730845,-0.0005400313759371362,28.248591924013454
1602,A,99048027943773.0,0.7256012,10.829435087763455,-1.9433899,11,1970-01-02 03:30:48.027943773,-1.7597198,0.66719055,-0.28486633,8.917622979190387,1.9033932411588026,-92.47669982910156,-2.676130771636963,98.78972625732422,28298945.0,50354.0,0.029848897998780002,0.064234890183241,-0.06098169383955,0.0013208440326219792,0.003264022530218317,-0.0018267710178638127,28.298945928007015
1602,A,99048078297776.0,-0.33638,8.350904087763455,2.658722,11,1970-01-02 03:30:48.078297776,-1.4081268,0.23612976,-0.27946472,11.469017067215656,1.4548810529251441,-92.54657745361328,-2.6906096935272217,98.7785415649414,28349299.0,50354.0,0.0097994221524,-0.010565800577759014,0.018009916281700004,0.0009982257564462589,0.00135122666899722,-0.0010819004435739894,28.349299931011046
1602,A,99048128651780.0,-2.090561,6.789594087763454,-0.3660431,11,1970-01-02 03:30:48.128651780,-0.6019287,1.1598206,-0.28878784,12.888773388289462,1.338245269223813,-92.57396697998047,-2.707627058029175,98.72118377685547,28399653.0,50354.0,-0.06110309355700001,-0.11227687743475905,0.0577227766653,-0.0012916725349536146,-0.0030928101043211672,0.001906722010326619,28.399653935004608
1602,A,99048179005784.0,0.022384644,4.584867087763454,2.6703033,11,1970-01-02 03:30:48.179005784,0.12400818,1.0687561,-0.6587982,15.154686655768469,1.2615992621737548,-92.5653076171875,-2.7429277896881104,98.66921997070312,28450007.0,50354.0,-0.052070476115012004,-0.20709439098375906,0.0580143590554,-0.002849370963632247,-0.008040810424973031,0.0029139138660400636,28.45000793901272
1602,A,99048229359788.0,-0.7256775,6.261961087763455,2.341507,11,1970-01-02 03:30:48.229359788,1.73703,0.33529663,-0.5609436,13.465478948757236,1.8558972960189142,-92.47770690917969,-2.771682024002075,98.6536865234375,28500361.0,50354.0,-0.017706804235512002,-0.22037860702475906,0.1261823479231,-0.001756782587385143,-0.010762487670860462,0.004637520491597695,28.500361943006283
1602,A,99048279713792.0,0.31974792,7.275297087763455,0.10972595,11,1970-01-02 03:30:48.279713792,3.574585,-0.4626007,-0.3039856,12.231799262192652,3.617190149117523,-92.22530364990234,-2.754171371459961,98.67391204833984,28550715.0,50354.0,-0.01022008903566,-0.15264165091475904,0.06171469198215,-0.0007031153918882976,-0.009391531034143247,0.00473068377369448,28.550715947014396
1602,A,99048330067796.0,2.7445526,1.6246770877634553,-1.3642273,11,1970-01-02 03:30:48.330067796,2.864685,-0.31845093,0.6092529,18.13856452137933,2.9460176917665097,-92.13567352294922,-2.871624708175659,98.69110107421875,28601069.0,50354.0,0.07714989419204,-0.26939455018275904,-0.03158458048895,0.0016850917044221793,-0.010625605435032213,0.0007585858170642965,28.601069951007958
1602,A,99048380421800.0,1.4299927,4.653974087763455,-4.198715,11,1970-01-02 03:30:48.380421800,1.8318481,-0.63404846,1.2432709,15.496791738155942,2.302912816823249,-92.04554748535156,-2.808347463607788,98.72055053710938,28651423.0,50354.0,0.10510252701810001,-0.335391599353759,-0.1400581982871,0.004588569208807696,-0.015226700886880917,-0.004321450241244611,28.65142395500152
1602,A,99048430775804.0,-0.6311493,10.816114087763454,-1.809967,11,1970-01-02 03:30:48.430775804,2.6712494,-1.1710205,0.78845215,8.895297150521701,3.0213439329643084,-91.9147720336914,-2.7669260501861572,98.77777862548828,28701777.0,50354.0,0.0201124802818,-0.10397879000475906,-0.15128058671400002,0.0031525382387895826,-0.01106202829287941,-0.007335036589972695,28.701777959009632
1602,A,99048481129808.0,1.2531128,14.375394687763455,-3.3854675,11,1970-01-02 03:30:48.481129808,2.11586,-1.4656677,0.54689026,6.270415644241173,2.6313749833321283,-91.81244659423828,-2.737211227416992,98.85020446777344,28752131.0,50354.0,0.0156591750395,0.14077741644144096,-0.13080545440650002,0.0009006229660243701,0.0009264790177963403,-0.00710208025729083,28.752131963003194
1602,A,99048531483812.0,1.2749023,17.674100687763456,-3.6997528,11,1970-01-02 03:30:48.531483812,1.29216,-1.5690308,0.41882324,4.319295441462726,2.0753187763119034,-91.75154113769531,-2.713839292526245,98.92806243896484,28802485.0,50354.0,0.0636478361727,0.3134409450696411,-0.1783845914931,0.0019967126212895596,0.011435855687764514,-0.007784477785614229,28.802485967011307
1602,A,99048581837816.0,1.0494537,17.524350987763455,-1.7612762,11,1970-01-02 03:30:48.581837816,-0.14834595,-1.5799255,0.58088684,2.8488980518919487,1.6898522501440292,-91.76264953613281,-2.6823906898498535,99.00623321533203,28852839.0,50354.0,0.058520311012,0.39272221783474104,-0.137492327133,0.0030758274416691923,0.01777906995244363,-0.00795283318024932,28.85283997100487
1602,A,99048632191819.0,2.8713684,11.517118087763455,5.4596863,11,1970-01-02 03:30:48.632191819,-1.3732605,-1.128891,0.6111603,10.090492698404882,1.879828769605716,-91.83389282226562,-2.6500728130340576,99.06175231933594,28903193.0,50354.0,0.0987145380117,0.23770786691454096,0.09311487108770002,0.003958701793869695,0.015872338243732673,-0.0011172912108525178,28.9031939740089
1602,A,99048682545823.0,5.094513,3.608839087763455,14.533783,11,1970-01-02 03:30:48.682545823,-0.07911682,-0.9210663,-0.16329956,22.131221275620625,0.9387701244174721,-91.83999633789062,-2.656754732131958,99.10808563232422,28953547.0,50354.0,0.20055699600780003,-0.11264297619175903,0.5033755765661001,0.007534759412008952,0.003148758753727481,0.015017840000579727,28.95354797800246
1602,A,99048732899827.0,1.0721436,11.629621387763454,3.5319061,11,1970-01-02 03:30:48.732899827,1.6366577,-1.0344849,-0.5547943,8.695106379531275,2.014101325805082,-91.76061248779297,-2.6828556060791016,99.16072082519531,29003901.0,50354.0,0.1552579132182,-0.10981048060765906,0.4548398544707,0.008958351969583002,-0.005600710681838949,0.024124989907213516,29.003901982010575
1602,A,99048783253831.0,4.8987885,11.387052087763454,-3.684433,11,1970-01-02 03:30:48.783253831,-0.1322937,-0.74479675,-0.42651367,10.17017394136429,0.8684110389482168,-91.7690200805664,-2.7030253410339355,99.19863891601562,29054255.0,50354.0,0.15033015748170003,0.08602158809334091,-0.0038401697612999953,0.007693790856011383,-0.000598932946832988,0.011354819061928565,29.054255986004137
1602,A,99048833607835.0,-3.4298096,12.806409687763455,-7.29245,11,1970-01-02 03:30:48.833607835,-0.17860413,0.07962036,-0.4736023,10.477596563132192,0.5123845972947241,-91.77779388427734,-2.7268192768096924,99.19538879394531,29104609.0,50354.0,0.03698448176530001,0.11564958712244097,-0.276364983291,0.0047160206723217205,0.0050774751784077405,-0.007054725138397757,29.10460999001225
1602,A,99048883961839.0,-6.2790527,6.696211087763455,-1.2590942,11,1970-01-02 03:30:48.883961839,-2.0259552,1.2431946,1.1862946,14.31820213627465,2.6565620948634647,-91.87606811523438,-2.669515371322632,99.13129425048828,29154963.0,50354.0,-0.2444400261271,-0.0024517167345590096,-0.2153022283234,-0.005223108240397039,0.0028499827827557045,-0.01237870538681575,29.15496399400581
1602,A,99048934315843.0,-0.28419495,8.238126587763455,-2.5213776,11,1970-01-02 03:30:48.934315843,-2.2679443,0.7342529,1.0717926,11.54653670759737,2.613701981189833,-91.98768615722656,-2.617191791534424,99.09275817871094,29205317.0,50354.0,-0.16524288608405002,-0.11746738034325903,-0.0951809385086,-0.010314586680740126,-0.003019203107128225,-0.007817034691329265,29.205317998013925
1602,A,99048984669847.0,0.91778564,10.913084087763455,-1.2223358,11,1970-01-02 03:30:48.984669847,-2.0966034,1.0793762,0.47729492,8.724287760301802,2.405952875406292,-92.2417984008789,-2.68117356300354,99.04499816894531,29255672.0,50355.0,0.015952229597474995,-0.011299393216921264,-0.0942573441285,-0.0037587655036907426,-0.003242025441311439,-0.0047695823610955845,29.255672002007486
1602,A,99049035023851.0,-1.0449982,10.292555087763455,-0.9538269,11,1970-01-02 03:30:49.035023851,-1.9708862,1.490799,0.43136597,9.317912533949213,2.5085754267762175,-92.42819213867188,-2.4357454776763916,98.97347259521484,29306026.0,50354.0,-0.0032028306231200007,0.04042517752224098,-0.0547892482979,0.0003209916179773357,0.0007332998714550345,-0.003752546057519473,29.306026006001048
1602,A,99049085377855.0,-0.46469116,10.643049087763455,0.11898804,11,1970-01-02 03:30:49.085377855,-1.8203583,1.6054382,0.18084717,8.872351515718378,2.4338943800615382,-92.43601989746094,-2.294463872909546,98.8894271850586,29356380.0,50354.0,-0.03800944901672,0.03362650632724098,-0.021018737978220004,-0.001037601564492252,0.0018643992442784075,-0.0019086176704738735,29.35638001000916
1602,A,99049135731858.0,1.1447144,11.323957087763455,-2.0939484,11,1970-01-02 03:30:49.135731858,-1.8419952,1.7593536,-0.18467712,8.519525422787288,2.553894485938582,-92.52460479736328,-2.307499408721924,98.80186462402344,29406734.0,50354.0,0.01712094511348,0.05959411448124098,-0.04972357698372,-0.0005259098627718734,0.0023470155700951504,-0.0017810792637967636,29.406734013013192
1602,A,99049186085862.0,0.6223602,10.018217087763455,-2.0279388,11,1970-01-02 03:30:49.186085862,-1.6801758,1.01268,-0.35523987,9.71854157854657,1.9936666889285322,-92.84381103515625,-2.3624837398529053,98.76172637939453,29457088.0,50354.0,0.0444896372042,0.04386271921724099,-0.1037767540344,0.0015511696310122295,0.0026047327020266805,-0.0038646778340432073,29.457088017006754
1602,A,99049236439866.0,-1.7078552,8.446943087763454,1.2789917,11,1970-01-02 03:30:49.236439866,-1.242157,1.0017853,-0.20248413,11.25949596092991,1.6085793803374913,-92.90386962890625,-2.3751065731048584,98.71216583251953,29507442.0,50354.0,-0.027329507614999998,-0.02857186226075904,-0.018856241136699998,0.0004320405826672885,0.00038497790559334613,-0.0030875309194227847,29.507442021000315
1602,A,99049286793870.0,-1.4043121,7.258009087763455,0.96035767,11,1970-01-02 03:30:49.286793870,-0.48120117,1.1161499,-0.4043274,12.362041822480592,1.2809472321958226,-92.92565155029297,-2.398138999938965,98.65741729736328,29557796.0,50354.0,-0.07835503611210001,-0.09806561907675905,0.05638009908849001,-0.002660819757417197,-0.003188351867634693,0.0009447381716522173,29.55779602500843
1602,A,99049337146173.0,-0.49072266,5.409239087763455,1.1287689,11,1970-01-02 03:30:49.337146173,0.24060059,0.9581909,-0.5842285,14.146829729761707,1.1477549324500453,-92.72457885742188,-2.320627450942993,98.60332489013672,29608148.0,50352.0,-0.047709395117760005,-0.17453895993293458,0.05259585052632001,-0.003173798120642956,-0.006863092881148047,0.002743578507502457,29.608148328014067
1602,A,99049387500177.0,0.20170593,6.333524087763454,2.2504883,11,1970-01-02 03:30:49.387500177,1.8865356,0.030670166,-0.4946289,13.361336388274719,1.950542226629569,-92.63023376464844,-2.3454060554504395,98.60295104980469,29658502.0,50354.0,-0.007276574211209999,-0.19782165152975906,0.08507955852440002,-0.001384381749795478,-0.009374923114796237,0.0034662537736699786,29.65850233200763
1602,A,99049437854181.0,2.3496857,6.3894330877634555,-1.1033783,11,1970-01-02 03:30:49.437854181,3.4010925,-0.24191284,-0.333313,13.367460474143035,3.4259377652961116,-92.514404296875,-2.5554163455963135,98.6177978515625,29708856.0,50354.0,0.06423638706851001,-0.17314330719175905,0.02888078847000001,0.0014340772083082424,-0.009339784765731662,0.0028691796562780097,29.70885633600119
1602,A,99049488208185.0,2.3982391,3.4647650877634533,-4.3405914,11,1970-01-02 03:30:49.488208185,2.8737335,0.5556183,0.3045807,16.786863634485265,2.942758115633976,-92.36945343017578,-2.5413801670074463,98.58937072753906,29759210.0,50354.0,0.1195385026896,-0.24537005253475908,-0.13706282513690002,0.004626900399439936,-0.010536910857834548,-0.0027236991371625417,29.759210340009304
1602,A,99049538562189.0,0.5480194,7.108350587763455,-1.768692,11,1970-01-02 03:30:49.538562189,2.221939,-0.5437012,1.0585785,12.5316261744852,2.5205579452305176,-92.40300750732422,-2.4868123531341553,98.62071228027344,29809564.0,50354.0,0.0741779502545,-0.22726986663725907,-0.1538134281618,0.004877199135773606,-0.011899655244993902,-0.007323391429301372,29.809564344002865
1602,A,99049588916193.0,-0.38058472,11.865400087763454,-1.2812805,11,1970-01-02 03:30:49.588916193,2.4122314,-1.9156799,0.98558044,7.753106475816886,3.234201386760039,-92.46381378173828,-2.3016583919525146,98.72203063964844,29859918.0,50354.0,0.004215502938360002,-0.01576707924225903,-0.07678915763250001,0.001973711971036636,-0.006118941186408627,-0.005805881302543091,29.85991834801098
1602,A,99049639270197.0,1.1964111,14.366315687763453,-3.230072,11,1970-01-02 03:30:49.639270197,2.2019196,-1.4430695,0.4295349,6.184203598034089,2.6674706628213216,-92.3565673828125,-2.2771644592285156,98.79328155517578,29910272.0,50354.0,0.020540060769260002,0.16696670808044092,-0.1135823218925,0.0006232708274667489,0.0038067530552589055,-0.0047929827400009254,29.91027235200454
1602,A,99049689624200.0,1.3574219,16.970044887763454,-2.5454407,11,1970-01-02 03:30:49.689624200,1.3687897,-1.5419922,0.30807495,3.838594402174934,2.084762663351498,-92.29115295410156,-2.2586488723754883,98.8697509765625,29960626.0,50354.0,0.064297853441,0.29548635021004094,-0.1454100832479,0.0021359641660717165,0.011643180648579464,-0.006520651784219851,29.96062635500857
1602,A,99049739978204.0,1.0299683,17.117292287763455,-1.059967,11,1970-01-02 03:30:49.739978204,-0.11425781,-1.1466522,0.5204315,2.8059255947842114,1.2644030453550348,-92.299072265625,-2.2303569316864014,98.92604064941406,30010980.0,50354.0,0.0601073230654,0.364747688068241,-0.0907733496629,0.003132149128901633,0.016622712381732303,-0.005946390290395212,30.010980359002133
1602,A,99049790332208.0,3.4783783,12.445646087763453,6.512741,11,1970-01-02 03:30:49.790332208,-1.5345306,-0.7615814,0.7032318,10.2133748913998,1.8518437719455603,-92.37721252441406,-2.193666934967041,98.96267700195312,30061334.0,50354.0,0.11350664234820002,0.250836899480641,0.137284490998,0.004371078807218208,0.0154985731607182,0.0011710110053938126,30.061334363010246
1602,A,99049840686212.0,5.639206,3.969633087763455,11.411743,11,1970-01-02 03:30:49.840686212,0.23246765,-0.9119415,-0.28259277,20.08223391105098,0.982617515300356,-92.36737060546875,-2.2058985233306885,99.00886535644531,30111688.0,50354.0,0.22955341992110004,-0.08018171619775906,0.45128473366800004,0.00863722318775417,0.0042965855495131185,0.014818407369415884,30.111688367003808
1602,A,99049891040216.0,4.151596,10.791868087763454,4.0030975,11,1970-01-02 03:30:49.891040216,1.4416504,-0.7713318,-0.5151825,10.446737518041614,1.714269999100973,-92.29681396484375,-2.230064868927002,99.04847717285156,30162042.0,50354.0,0.246503021954,-0.12181888490375904,0.38809943926850005,0.011985673037089395,-0.005085769133932922,0.021133175322022264,30.16204237101192
1602,A,99049941394220.0,3.345459,9.429609087763454,7.5221252,11,1970-01-02 03:30:49.941394220,0.59046936,-1.2516174,-0.54763794,13.009076272717484,1.488323719628567,-92.269775390625,-2.254931926727295,99.11213684082031,30212396.0,50354.0,0.188753353735,0.015646930848240946,0.29017053191790004,0.010958449770721954,-0.0026730912872557793,0.017076803064559998,30.212396375005483
1602,A,99049991748224.0,0.60795593,7.889539587763455,7.3386536,11,1970-01-02 03:30:49.991748224,-0.756958,-0.47572327,-0.14401245,13.750801194256114,0.9055592907913294,-92.30857849121094,-2.2611780166625977,99.13622283935547,30262750.0,50354.0,0.09953512769261001,-0.057424993796259045,0.3741498278476,0.007258239096902937,-0.0010518462908422517,0.016725593697815996,30.262750379013596
1602,A,99050042102228.0,-1.5207825,8.009794087763455,-2.3896332,11,1970-01-02 03:30:50.042102228,-1.9607086,1.6951141,0.89112854,11.836539636217525,2.7407845776228568,-92.40322875976562,-2.220141649246216,99.04963684082031,30313104.0,50354.0,-0.02298223455289,-0.09317167605125905,0.12460148661080002,0.0019273721905787309,-0.0037915723567509634,0.012557061844119137,30.313104383007158
1602,A,99050092456232.0,0.10179138,9.501234087763455,-3.6204681,11,1970-01-02 03:30:50.092456232,-2.1384735,1.1443024,0.8663635,10.636820585318713,2.5754771610286626,-92.50788879394531,-2.1793112754821777,98.9905776977539,30363458.0,50354.0,-0.03572593942824,-0.05259404362475903,-0.15131632043010002,-0.0014780956963229102,-0.0036699435242831075,-0.000672599371068516,30.36345838700072
1602,A,99050142810236.0,0.6957092,9.811079087763455,-1.0619812,11,1970-01-02 03:30:50.142810236,-2.0809479,0.90689087,0.48236084,9.774148723502375,2.3206609387347545,-92.70355224609375,-2.2049365043640137,98.94776916503906,30413812.0,50354.0,0.02007867210266,-0.007243091179759024,-0.1178900260261,-0.0003939512494561276,-0.001506519542973351,-0.006777808184727748,30.413812391008832
1602,A,99050193164240.0,-1.1010742,10.632688087763455,-0.121017456,11,1970-01-02 03:30:50.193164240,-1.9132385,1.0140076,0.39779663,8.938636715308345,2.2015756016043073,-92.74964141845703,-1.95651376247406,98.89422607421875,30464166.0,50354.0,-0.010205874605,0.02124352617824097,-0.029784357162112,0.00024856742259858584,0.00035248895195678,-0.0037179979455296136,30.464166395002394
1602,A,99050243518243.0,-0.126297,11.433759087763455,0.7077484,11,1970-01-02 03:30:50.243518243,-1.8405304,1.5150757,0.31555176,8.100630445350323,2.40469944968051,-92.64555358886719,-1.8735421895980835,98.81121826171875,30514520.0,50354.0,-0.0309015247024,0.06209774053824099,0.014772124977088002,-0.0010349609923624098,0.0020982830721208664,-0.00037796296972234916,30.514520398006425
1602,A,99050293872247.0,0.44654846,11.174299087763455,-1.4034271,11,1970-01-02 03:30:50.293872247,-1.7027283,1.9112549,-0.037261963,8.457344687770966,2.559993634812695,-92.89997100830078,-1.9091742038726807,98.72151184082031,30564874.0,50354.0,0.00806297100842,0.07573388068524098,-0.0175151026299,-0.0005750062663533344,0.0034701867275436058,-6.905994836484772e-05,30.564874401999987
1602,A,99050344226251.0,-0.6651306,10.255918087763455,-1.0952148,11,1970-01-02 03:30:50.344226251,-1.6710205,0.80418396,-0.47547913,9.334868364429752,1.9144455479347249,-93.078369140625,-1.785510778427124,98.68555450439453,30615228.0,50354.0,-0.005503242538780001,0.04607937782824096,-0.06290830711630001,6.444628368012625e-05,0.0030668924095939346,-0.0020248201871800775,30.6152284060081
