Subject-id_accel,Activity_accel,Timestamp_accel,accel_x,accel_y,accel_z,Segment_accel,DateTime,gyro_x,gyro_y,gyro_z,accel_magnitude,gyro_magnitude,Roll,Pitch,Yaw,Time_Difference,Difference_Microseconds,vx,vy,vz,dx,dy,dz,Time_diff
1614,A,81410073071000.0,-11.62827351416706,15.972386,3.3528378923563116,70,1970-01-01 22:36:50.073071,-0.7819041,4.0501356,-0.37816888,21.37205895846193,4.142219707087569,-92.56108856201172,10.321732521057129,-165.5889434814453,95873711.0,95873711.0,-395.56289599983245,206.3533504391504,194.35466129780352,-18962.041386705496,9891.930741942415,9316.75131438425,95.87371100000746
1614,A,81410092815000.0,-5.446727814167058,15.198794,0.8739925323563117,70,1970-01-01 22:36:50.092815,-1.1451592,-0.33662358,0.035153728,17.050311134966122,1.1941276366238887,-92.61529541015625,10.324249267578125,-165.57192993164062,95893455.0,19744.0,-0.1685644131133144,0.11423068895999999,0.04172726995276302,-3.9066609771966005,2.038247960896706,1.91908114794089,95.89345500001218
1614,A,81410112377000.0,0.1288779858329412,13.165423,-2.3976043076436886,70,1970-01-01 22:36:50.112377,-1.8237327,-4.870389,0.18002969,13.63413353927427,5.203758320834259,-92.66220092773438,10.344452857971191,-165.3250732421875,95913017.0,19562.0,-0.052013889170935995,0.08572280647699998,-0.014902446774085832,-0.002157476374642253,0.0019557451388692968,0.0002623735955106416,95.9130170000135
1614,A,81410132148000.0,2.485577265832941,9.956097,-4.591442507643688,70,1970-01-01 22:36:50.132148,-2.6993802,-7.3023877,0.3888215,11.15219174556335,7.795043408739016,-92.73063659667969,10.381047248840332,-164.9552459716797,95932788.0,19771.0,0.02584519739034308,0.03481198595999999,-0.06909022229252336,-0.00025869060259705126,0.0011915466906359633,-0.0008303095300579652,95.93278800000553
1614,A,81410151955000.0,4.954842485832941,6.0426345,-4.771069107643688,70,1970-01-01 22:36:50.151955,-3.3577135,-7.1841435,0.5454154,8.412505893209126,7.948813479710772,-92.83290100097656,10.425719261169434,-164.59181213378906,95952595.0,19807.0,0.07368619701062307,-0.03566516258975002,-0.09272163378199853,0.0009857091644499684,-8.449434752729393e-06,-0.0016025037166340276,95.95259500000975
1614,A,81410171558000.0,7.768990485832941,3.1350808,-1.8395647076436885,70,1970-01-01 22:36:50.171558,-3.4748926,-5.305017,0.2972088,6.725912331328561,6.348733497526983,-92.9579849243164,10.453960418701172,-164.32321166992188,95972198.0,19603.0,0.12471264887178313,-0.10215402348705002,-0.06479412734053923,0.0019446062879164042,-0.0013508347523317557,-0.0015438907326425538,95.97219800000312
1614,A,81410191340000.0,9.692191485832941,1.707649,0.5075545423563117,70,1970-01-01 22:36:50.191340,-2.8889973,-2.167813,-0.20240025,7.618819973190922,3.6175522751684395,-93.08234405517578,10.449563980102539,-164.2126007080078,95991980.0,19782.0,0.17270855088174722,-0.14596415954820002,-0.013174912544857444,0.0029417930867621685,-0.0024541369484016584,-0.0007711917735064586,95.99198000000615
1614,A,81410211110000.0,6.5068154858329414,1.7459693,1.3841317323563116,70,1970-01-01 22:36:50.211110,-1.6767262,1.6298546,-0.70627034,4.683192731539068,2.4426736499318356,-93.18081665039062,10.409852027893066,-164.2933807373047,96011750.0,19770.0,0.16012718391491723,-0.1596069831045,0.01869931882553428,0.003290081238465028,-0.0030205707451219396,5.460875608449051e-05,96.01175000000512
1614,A,81410230917000.0,1.6545054858329409,2.8261232,1.6164485923563117,70,1970-01-01 22:36:50.230917,-0.3834952,4.5657234,-0.66152924,3.1263511605936607,4.629310928108587,-93.24142456054688,10.364039421081543,-164.52320861816406,96031557.0,19807.0,0.08082564224289307,-0.14882888192625002,0.029716247245791468,0.0023862763138538744,-0.003054594589332033,0.00047948355858737455,96.03155700000934
1614,A,81410250715000.0,-0.06272371416705891,4.1625443,3.867766892356312,70,1970-01-01 22:36:50.250715,0.61891866,6.216883,-0.1257012,5.880965273866539,6.248879526368438,-93.2671127319336,10.340120315551758,-164.8383331298828,96051355.0,19798.0,0.015757047757720567,-0.12483958041750001,0.05428824908317026,0.0009560720483160743,-0.0027090441087407814,0.0008315605091603922,96.05135500000324
1614,A,81410270364000.0,1.108440985832941,5.8031325,5.925088892356312,70,1970-01-01 22:36:50.270364,1.506284,6.492787,0.29933932,8.076654559554129,6.671939638854886,-93.25108337402344,10.336607933044434,-165.16867065429688,96071004.0,19649.0,0.010273649335481458,-0.0946524082784,0.09620991165690919,0.0002557385835921633,-0.00215639904294287,0.0014785691801909105,96.07100400001218
1614,A,81410290158000.0,2.289185661832941,8.825647,5.2065831923563115,70,1970-01-01 22:36:50.290158,1.5957662,4.941762,-0.19387813,10.036055402854046,5.196640276082109,-93.21613311767578,10.312992095947266,-165.41885375976562,96090798.0,19794.0,0.03362631093194923,-0.04920016928850001,0.11017015862240082,0.0004344779067667615,-0.0014237089601796093,0.002042543555554331,96.09079800000472
1614,A,81410309967000.0,-3.020572714167059,12.013418,3.180396392356312,70,1970-01-01 22:36:50.309967,0.52837116,1.1728562,-0.9736517,13.411194387608454,1.6133088301720397,-93.1998519897461,10.26110553741455,-165.47560119628906,96110607.0,19809.0,-0.007244023059843269,0.012272319292499983,0.08306883929678618,0.0002613033702292735,-0.0003657518902853823,0.0019139356548905876,96.11060700000962
1614,A,81410329760000.0,-6.01913751416706,11.900852,0.18901692235631168,70,1970-01-01 22:36:50.329760,-0.38029942,-1.7470337,-0.4016047,14.50372929302536,1.8324957661206525,-93.20288848876953,10.245933532714844,-165.3858184814453,96130400.0,19793.0,-0.08946149227470862,0.04269617305499999,0.03334539886905348,-0.0009570461325083928,0.0005439956845170335,0.0011520935080082324,96.1304000000091
1614,A,81410349544000.0,-0.5704678141670589,10.679393,1.3697615923563116,70,1970-01-01 22:36:50.349544,-0.8511463,-1.7640779,0.5305017,11.090093535638694,2.0292493476591265,-93.22978973388672,10.277366638183594,-165.2978515625,96150184.0,19784.0,-0.0651843759078811,0.029480583539999983,0.015419437067537269,-0.0015297569280621776,0.0007139724762377398,0.00048238175708475566,96.15018400001281
1614,A,81410369200000.0,2.444861935832941,10.36325,4.476101892356312,70,1970-01-01 22:36:50.369200,-0.9129316,-0.9768475,0.8522116,11.127052156400548,1.5855408401266018,-93.26699829101562,10.322675704956055,-165.250732421875,96169840.0,19656.0,0.018421545427732288,0.014178295403999985,0.05745314632775566,-0.00045958509795890253,0.00042907946226163166,0.0007161917496089389,96.1698400000023
1614,A,81410389273000.0,3.4795104858329413,11.132051,6.9118371923563116,70,1970-01-01 22:36:50.389273,-0.0958738,-0.010652645,0.7765778,12.939266933644886,0.7825460649858103,-93.27210235595703,10.361472129821777,-165.25244140625,96189913.0,20073.0,0.059459963810049636,0.0190221884865,0.11429505062371825,0.0007816577674649983,0.0003332166565670031,0.001723750778703468,96.18991300000926
1614,A,81410409078000.0,4.607564485832941,13.079203,4.665308592356312,70,1970-01-01 22:36:50.409078,1.0940266,0.7222493,0.51026165,13.946011229078769,1.406735655451575,-93.2242660522461,10.384899139404297,-165.2905731201172,96209718.0,19805.0,0.08008225990692139,0.04566294273499999,0.11464268613311675,0.0013818168703573057,0.0006405445119209036,0.002267055938234558,96.2097180000128
1614,A,81410428866000.0,4.892572085832941,14.741345,-3.2669965076436887,70,1970-01-01 22:36:50.428866,1.2665994,1.135572,-0.22370553,15.422529133837703,1.7157627957899488,-93.17121124267578,10.370565414428711,-165.34756469726562,96229506.0,19788.0,0.09399435124006224,0.08133410191199997,0.013834899766146696,0.001722313990688256,0.0012565087597374177,0.0012711572348873125,96.22950600000331
1614,A,81410448652000.0,-1.2506533141670588,21.20311,-8.234267607643687,70,1970-01-01 22:36:50.448652,-0.7275756,1.9025623,-1.3848438,23.173132384596276,2.4631081806317585,-93.22420501708984,10.296124458312988,-165.440185546875,96249292.0,19786.0,0.03602950240809057,0.161695693315,-0.11378200589253804,0.0012863259841411757,0.002404293764180711,-0.0009887767209083896,96.2492920000077
1614,A,81410468393000.0,-6.63465751416706,20.352877,2.1768831923563114,70,1970-01-01 22:36:50.468393,-2.855974,2.207228,-1.5584819,22.283337082618203,3.931578406351272,-93.3861083984375,10.21196460723877,-165.54759216308594,96269033.0,19741.0,-0.07783196053107191,0.21671656968349998,-0.05978941287109405,-0.00041261116290288737,0.003735118241926694,-0.0017132366889064305,96.26903300000413
1614,A,81410488250000.0,-8.48840251416706,13.761783,8.854197892356312,70,1970-01-01 22:36:50.488250,-1.9387813,0.28442562,-0.9012137,19.392549699490754,2.1568395850433024,-93.48512268066406,10.16613483428955,-165.55926513671875,96288890.0,19857.0,-0.1501493014913153,0.14410880180999996,0.1095220885495693,-0.0022635119599892714,0.0035824547008732137,0.0004937708704737414,96.28889000001072
1614,A,81410508041000.0,-3.7199188141670594,7.676038,4.238995192356311,70,1970-01-01 22:36:50.508041,0.039414786,-1.9547603,-0.11930962,10.454283123688406,1.9587945633057235,-93.46558380126953,10.166101455688477,-165.45977783203125,96308681.0,19791.0,-0.12080744370453027,0.018186157705499983,0.12956369216977376,-0.0026812524720854895,0.0016059897718856296,0.0023658733431082594,96.30868100000953
1614,A,81410527809000.0,-0.1633145141670589,4.629573,-0.5462541076436883,70,1970-01-01 22:36:50.527809,0.6178534,-3.5910065,0.37071204,5.319080950397633,3.662580773653296,-93.40270233154297,10.195361137390137,-165.27882385253906,96328449.0,19768.0,-0.038381878217254424,-0.07209774087600002,0.036499052881299565,-0.00157342725787492,-0.0005328620880572224,0.0016413641720848088,96.32844900000782
1614,A,81410547575000.0,2.914285785832941,4.25595,-0.5103288076436883,70,1970-01-01 22:36:50.547575,0.23755397,-3.556918,0.43675843,4.405985529176575,3.591497664423969,-93.35906982421875,10.227649688720703,-165.0997314453125,96348215.0,19766.0,0.027187849077873912,-0.10589117619100001,-0.010442208951785143,-0.00011063058998449759,-0.0017590644673731613,0.000257519788555391,96.34821500000544
1614,A,81410567349000.0,5.0338781858329416,5.508545,-0.1367057576436883,70,1970-01-01 22:36:50.567349,-0.0777643,-2.4000409,0.16618125,6.189965529770575,2.4070437918490106,-93.34141540527344,10.24295711517334,-164.97848510742188,96367989.0,19774.0,0.07858349718786059,-0.09724363793500002,-0.006397230746996292,0.001045761300529317,-0.002008393907263762,-0.00016649154030185206,96.36798900000576
1614,A,81410587007000.0,4.5812193858329415,7.1323686,-0.9965178076436882,70,1970-01-01 22:36:50.587007,0.3472762,-0.8905611,-0.45593318,7.632437686664469,1.0590443317182536,-93.3157958984375,10.222784996032715,-164.93197631835938,96387647.0,19658.0,0.09450679403190396,-0.0684008602256,-0.011138454423209623,0.0017013044723990657,-0.0016281197724205374,-0.00017235824953795392,96.38764700001047
1614,A,81410606781000.0,1.841316985832941,9.0148535,-0.7618059076436883,70,1970-01-01 22:36:50.606781,1.3443637,0.43675843,-0.958738,9.103087385949864,1.707995970925504,-93.25201416015625,10.173678398132324,-164.9513397216797,96407421.0,19774.0,0.06349961710666059,-0.03413761509730002,-0.01738454657304629,0.0015622093869269878,-0.0010137979055175126,-0.0002820069108499822,96.4074210000108
1614,A,81410626570000.0,-0.5800479141670589,11.043435,1.2883308923563117,70,1970-01-01 22:36:50.626570,2.4714136,1.551025,-0.8479505,11.437045315307428,3.0385167077605826,-93.14188385009766,10.127020835876465,-165.027587890625,96427210.0,19789.0,0.012479626829598071,0.004534535563249983,0.005209701461239053,0.0007517766291273113,-0.0002929076704496581,-0.00012046400495877673,96.42721000000893
1614,A,81410646328000.0,-1.732052514167059,12.456497,1.3673665923563116,70,1970-01-01 22:36:50.646328,3.1265512,2.5459821,-0.18748654,13.116524563133838,4.036396717670727,-93.00814056396484,10.110828399658203,-165.1562042236328,96446968.0,19758.0,-0.022841240131512754,0.038527428227999996,0.026235635451476006,-0.00010236237780961516,0.00042540914029375856,0.0003106484833607121,96.44696800000384
1614,A,81410666038000.0,-1.732052514167059,11.704461,-3.0682098076436883,70,1970-01-01 22:36:50.666038,2.0975058,2.984871,0.5230448,12.853753654182645,3.685452662900676,-92.93010711669922,10.129215240478516,-165.30899047851562,96466678.0,19710.0,-0.03413875505423273,0.04494824108999999,-0.016761809886657097,-0.0005615378525555217,0.0008226527211288898,9.336455094129033e-05,96.4666780000116
1614,A,81410685711000.0,-1.248258514167059,8.950189,-2.8837932076436887,70,1970-01-01 22:36:50.685711,0.01917476,1.3688648,0.9534117,10.170485241317074,1.6682782686941013,-92.94184875488281,10.173321723937988,-165.3809051513672,96486351.0,19673.0,-0.02931582943020855,0.010374064724999988,-0.058546877659874284,-0.0006241710202812066,0.0005441778611492473,-0.000740773905051456,96.48635099999956
1614,A,81410705495000.0,0.39233008583294104,5.980364,0.4117537543563117,70,1970-01-01 22:36:50.705495,-1.0301107,-1.5776566,1.1046792,6.267518347207954,2.184134734097393,-92.97966766357422,10.232553482055664,-165.3037567138672,96506135.0,19784.0,-0.008466844013081095,-0.046190169724000016,-0.024453414271918734,-0.00037374620570102115,-0.0003542929106501083,-0.0008210388877892966,96.50613500000327
1614,A,81410725278000.0,2.950211085832941,4.3206153,3.585154692356312,70,1970-01-01 22:36:50.725278,-1.2090752,-3.5665054,0.7339672,5.3942545750021935,3.8367344784543067,-93.00825500488281,10.27851676940918,-165.12472534179688,96525918.0,19783.0,0.03306274599953307,-0.09198126325405001,0.03953541990065791,0.00024329036449898973,-0.0013667227293023816,0.00014918365867667356,96.52591799999936
1614,A,81410745116000.0,4.875806985832941,4.636758,4.533582292356312,70,1970-01-01 22:36:50.745116,-0.79255676,-4.217382,-0.06711166,6.719646934455397,4.291731716528148,-93.0096435546875,10.286233901977539,-164.91053771972656,96545756.0,19838.0,0.0776262732528539,-0.10556421423730002,0.08052975215136451,0.0010979243819644264,-0.0019594535912367014,0.0011909264415840106,96.5457560000068
1614,A,81410764919000.0,4.5381091858329405,6.310877,3.1468661923563115,70,1970-01-01 22:36:50.764919,0.11824436,-3.827495,-0.86499476,7.236826243575285,3.925801273437598,-92.96870422363281,10.253022193908691,-164.71401977539062,96565559.0,19803.0,0.09321189097374974,-0.08567139204750002,0.07604796067138204,0.001691554083089716,-0.0018935193556289475,0.0015503542235144254,96.56555900000967
1614,A,81410784612000.0,3.211268185832941,8.234077,1.6859041923563116,70,1970-01-01 22:36:50.784612,1.220793,-2.6152241,-1.2357068,8.38280943022364,3.1395388097037515,-92.88352966308594,10.197991371154785,-164.57810974121094,96585252.0,19693.0,0.0763042442901081,-0.049774510439000025,0.047585873593072835,0.0016691406258755761,-0.0013336680788333226,0.0012173605490849548,96.5852520000044
1614,A,81410804411000.0,2.849620255832941,10.145303,1.1278645923563118,70,1970-01-01 22:36:50.804411,2.0964406,-1.067395,-0.99069595,10.186018332120856,2.552620955155654,-92.76871490478516,10.15114974975586,-164.521484375,96605051.0,19799.0,0.0599997651282714,-0.01208352769000002,0.027854904084262617,0.001349341541237248,-0.000612363648458036,0.0007468259786167823,96.60505100000591
1614,A,81410824211000.0,3.256773615832941,11.256593,-1.5665325076436882,70,1970-01-01 22:36:50.824211,2.2050974,0.17470337,-0.25992453,11.47473399203298,2.2272262059054166,-92.65989685058594,10.137752532958984,-164.5297088623047,96624851.0,19800.0,0.060453299329492234,0.017838770399999995,-0.004342812361345027,0.00119248533813186,5.697690282899975e-05,0.00023276970805688414,96.62485100000049
1614,A,81410844010000.0,2.696339005832941,10.648257,-5.436884107643688,70,1970-01-01 22:36:50.844010,1.3763217,1.0098706,0.35899413,12.164379165645016,1.744413034808473,-92.60026550292969,10.15336799621582,-164.58180236816406,96644650.0,19799.0,0.058932838398181406,0.022816862574999985,-0.06933032278303738,0.0011818630704351052,0.0004024704386360123,-0.0007293272013618137,96.644650000002
1614,A,81410863784000.0,1.666480585832941,10.245894,-3.8729366076436884,70,1970-01-01 22:36:50.863784,0.350472,1.663943,0.45593318,11.1284430393468,1.7605146959505655,-92.59782409667969,10.172369956970215,-164.6672821044922,96664424.0,19774.0,0.04313519730280057,0.012795270936999977,-0.09204619741204628,0.0010091466689756087,0.0003520971640331436,-0.0015955296551687923,96.66442400000233
1614,A,81410883494000.0,0.696497585832941,10.921289,2.337349492356312,70,1970-01-01 22:36:50.883494,-0.1949434,2.0410466,0.21411815,11.197617883750087,2.0614850799204305,-92.62593841552734,10.178411483764648,-164.77134704589844,96684134.0,19710.0,0.023287149881767263,0.015444588464999982,-0.015133211021157094,0.0006545922315039158,0.0002783038144067096,-0.0010562530701092193,96.68413400001009
1614,A,81410903299000.0,-0.49622211416705886,12.106824,6.473548492356312,70,1970-01-01 22:36:50.903299,-0.05006743,1.8109496,-0.20240025,13.811460872274841,1.8229127961828089,-92.64459991455078,10.164141654968262,-164.86277770996094,96703939.0,19805.0,0.0019832278581713974,0.03394688898249998,0.08724991729361677,0.0002502399155697426,0.0004890991054238683,0.0007141356838630318,96.70393900001363
1614,A,81410923081000.0,-1.6003261141670588,13.206139,7.156128892356312,70,1970-01-01 22:36:50.923081,0.4878911,0.05965481,-0.3898868,15.317438815249256,0.6273819718716709,-92.6205825805664,10.144530296325684,-164.86489868164062,96723721.0,19782.0,-0.02073695852645276,0.05650691703299999,0.13481113901219258,-0.000185493150039971,0.0008946785952993102,0.0021964059079207605,96.72372100000212
1614,A,81410942880000.0,0.1288779858329412,12.954661,4.998216292356312,70,1970-01-01 22:36:50.942880,0.79894835,-3.165966,0.084155895,13.902504745863029,3.266303934692388,-92.5523452758789,10.155877113342285,-164.7044219970703,96743520.0,19799.0,-0.014566600746443599,0.06494863959999997,0.12032194015606264,-0.0003494875850220375,0.001202349282888383,0.0025256899172261425,96.74352000000363
1614,A,81410962684000.0,2.176619735832941,12.346326,-0.9821477076436884,70,1970-01-01 22:36:50.962684,0.80747044,-5.4253917,0.61678815,12.426987925931494,5.519720213188627,-92.46356201171875,10.198556900024414,-164.4304656982422,96763324.0,19804.0,0.022829038439935563,0.056451173273999976,0.0397671111258244,8.181465804095743e-05,0.0012021009470783474,0.0015852017857932454,96.76332399999956
1614,A,81410982405000.0,3.2735387858329412,12.545113,-7.190038607643688,70,1970-01-01 22:36:50.982405,0.80533993,-4.576376,0.7105314,14.711700447996627,4.700706815641065,-92.3823471069336,10.24372386932373,-164.19969177246094,96783045.0,19721.0,0.05374128810288643,0.052176234259499986,-0.08058184316189117,0.0007550217048754962,0.0010711205519840763,-0.00040245366524163634,96.78304500000377
1614,A,81411002191000.0,3.924984085832941,12.504397,-9.922755607643689,70,1970-01-01 22:36:51.002191,0.8426242,-1.5201324,0.6199839,16.31734197298666,1.8453178837844202,-92.32669830322266,10.27781867980957,-164.12380981445312,96802831.0,19786.0,0.07121498676939057,0.05391200243,-0.16929687317183803,0.0012361924273114366,0.0010495309255692234,-0.002472050140689583,96.80283100000815
1614,A,81411021971000.0,3.374129585832941,11.223062,-9.170719107643688,70,1970-01-01 22:36:51.021971,0.75101143,1.325189,0.59867865,14.809687069441704,1.636630740172464,-92.3013916015625,10.305051803588867,-164.19232177734375,96822611.0,19780.0,0.07218823421277556,0.040820569509999995,-0.18883446493419215,0.0014182578555136229,0.0009369051364865999,-0.003541918933868638,96.82261100001051
1614,A,81411041743000.0,0.603091885832941,10.729688,-7.951655107643688,70,1970-01-01 22:36:51.041743,0.35792887,3.6634445,0.6583334,13.715837910915612,3.7392969320602623,-92.31704711914062,10.330562591552734,-164.3797149658203,96842383.0,19772.0,0.039318811468888916,0.023259286499999986,-0.16927179149233101,0.001102358653608935,0.0006334934565148598,-0.003540238451032608,96.84238300001016
1614,A,81411061507000.0,-1.9020985141670592,12.022999,-4.962670107643688,70,1970-01-01 22:36:51.061507,-0.25672874,6.260559,0.6625945,13.820421980575087,6.300757106082826,-92.38719940185547,10.35081672668457,-164.69900512695312,96862147.0,19764.0,-0.012836783501197756,0.031154852933999985,-0.12761936177746985,0.00026169540037672406,0.0005377205258867878,-0.002933878376612172,96.8621470000071
1614,A,81411081226000.0,-3.763029214167059,14.034815,0.9650032923563117,70,1970-01-01 22:36:51.081226,-0.27483824,7.7625823,0.33981937,15.285048381109968,7.7748760264499905,-92.47190856933594,10.351340293884277,-165.0939483642578,96881866.0,19719.0,-0.05585532683751024,0.06367081713299999,-0.03941499596532588,-0.0006772698618844915,0.0009349336940255862,-0.0016468752501650945,96.88186600001063
1614,A,81411100993000.0,-8.026164514167059,15.871795,6.257996892356312,70,1970-01-01 22:36:51.100993,0.13315806,6.2712116,-0.013848438,19.795426385317747,6.272640415339665,-92.52243041992188,10.336987495422363,-165.412353515625,96901633.0,19767.0,-0.11651849621399026,0.10186537993499999,0.07138852232560722,-0.0017036566801295052,0.0016360770037215778,0.0003160103477818406,96.90163300000131
1614,A,81411120779000.0,-5.947286514167059,16.434626,1.4248470923563117,70,1970-01-01 22:36:51.120779,-0.02876214,1.6703347,-0.22690132,18.400393010989745,1.6859209589239978,-92.53897857666016,10.321966171264648,-165.49664306640625,96921419.0,19786.0,-0.13823935102330945,0.12570462295300003,0.07600637554076199,-0.0025203193827186064,0.002251350038570984,0.0014581777245919907,96.9214190000057
1614,A,81411140577000.0,-1.581166114167059,14.875467,-3.8777264076436877,70,1970-01-01 22:36:51.140577,-1.4199976,-3.8136468,-0.294013,15.957333809882924,4.080041512451191,-92.57518005371094,10.315786361694336,-165.30235290527344,96941217.0,19798.0,-0.07452415256787943,0.115918210607,-0.024281052342029735,-0.002106145922049179,0.0023918244294104402,0.0005120289743442506,96.9412169999996
1614,A,81411160355000.0,1.946697855832941,11.328443,-3.889701707643688,70,1970-01-01 22:36:51.160355,-2.9166942,-7.0648336,-0.027696876,12.12780473571009,7.643281099694212,-92.65673828125,10.330527305603027,-164.943603515625,96960995.0,19778.0,0.003614743393333908,0.06530606599,-0.07681209663207686,-0.0007012231473270807,0.001792126871267733,-0.00099971015020494,96.96099500000128
1614,A,81411180100000.0,4.303397085832941,6.957532,-4.251349107643688,70,1970-01-01 22:36:51.180100,-3.5537221,-7.6837525,0.12783173,8.628601374389916,8.466719210915137,-92.7644271850586,10.355077743530273,-164.55381774902344,96980740.0,19745.0,0.06170406231159641,-0.012972711812500008,-0.08037252417392461,0.0006448599093219245,0.0005166610391173686,-0.0015518051689072496,96.98074000001361
1614,A,81411199877000.0,5.757174185832941,4.2343946,-2.1964227076436886,70,1970-01-01 22:36:51.199877,-3.5697012,-6.4033046,-0.10759171,6.082543157769569,7.331892827484819,-92.88440704345703,10.365480422973633,-164.22848510742188,97000517.0,19777.0,0.09948395901986808,-0.08314323381590003,-0.06375879159546922,0.0015939077489361864,-0.0009504425283464337,-0.0014252425159856509,97.00051700000768
1614,A,81411219657000.0,7.196580785832941,2.9530592,0.13153645235631167,70,1970-01-01 22:36:51.219657,-3.0509174,-3.4930022,-0.3121225,5.75354745076836,4.648288051082231,-93.00491333007812,10.358866691589355,-164.05035400390625,97020297.0,19780.0,0.12811263666977557,-0.122760081918,-0.020421725064792156,0.0022509303313705755,-0.0020363837926082712,-0.000832545309769985,97.02029700001003
1614,A,81411239487000.0,7.4815884858329404,2.083667,0.8883626423563117,70,1970-01-01 22:36:51.239487,-1.9547603,0.5336975,-0.43675843,5.633691726307632,2.072843162937902,-93.1072998046875,10.335637092590332,-164.07626342773438,97040127.0,19830.0,0.14553404832856723,-0.144394859727,0.010112299524075661,0.0027132068817585686,-0.0026488412464101747,-0.00010221795423620405,97.04012700000021
1614,A,81411259199000.0,3.589681285832941,2.7279274,1.7505696923563117,70,1970-01-01 22:36:51.259199,-0.72437984,3.7230992,-0.45699844,3.3071474922101736,3.8203457146967077,-93.1771469116211,10.302619934082031,-164.263916015625,97059839.0,19712.0,0.10911843486953894,-0.1457545255936,0.026009317090927617,0.0025098548744005348,-0.0028597123417198334,0.00035601465335747233,97.05983900000865
1614,A,81411278925000.0,1.067725685832941,4.29427,4.042603592356311,70,1970-01-01 22:36:51.278925,0.34301516,5.449893,-0.056459017,5.739523898437668,5.460968845547412,-93.2093734741211,10.284621238708496,-164.54026794433594,97079565.0,19726.0,0.04593600496154059,-0.12405486704380002,0.0571380681071206,0.0015293019400539373,-0.0026611300395826764,0.0008200826602083494,97.07956500000728
1614,A,81411298702000.0,2.0185484458329412,6.2989016,4.737159392356312,70,1970-01-01 22:36:51.298702,1.2548815,6.36602,0.18961707,7.635613019749846,6.491293619354899,-93.2043685913086,10.276281356811523,-164.86380004882812,97099342.0,19777.0,0.030518621750978074,-0.08906402263340002,0.08681868627433076,0.0007560215762467408,-0.002107426140572993,0.0014235163657009818,97.09934200000134
1614,A,81411318479000.0,1.3455479458329411,9.273516,4.423411692356312,70,1970-01-01 22:36:51.318479,1.1685951,5.629923,-0.38029942,10.139403517777597,5.762488624069062,-93.19662475585938,10.241580963134766,-165.14834594726562,97119119.0,19777.0,0.03326586716898808,-0.03982674856240001,0.09058430717118078,0.0006307329186850853,-0.0012745363909696685,0.0017542495006859407,97.11911900000996
1614,A,81411338264000.0,-2.9870425141670593,10.394385,4.231809892356312,70,1970-01-01 22:36:51.338264,0.19387813,2.2381206,-0.82877576,12.252340604792009,2.394502413822177,-93.2066650390625,10.193957328796387,-165.25953674316406,97138904.0,19785.0,-0.016238485017245265,0.0006717106424999911,0.08562177952676964,0.00016844337793611578,-0.00038734121262261095,0.0017431187126594745,97.13890400000673
1614,A,81411358041000.0,-5.992792514167059,9.79084,2.667862292356312,70,1970-01-01 22:36:51.358041,-0.45806372,-1.196292,-0.36325517,13.004222195412249,1.331499620494113,-93.21864318847656,10.179174423217773,-165.19781494140625,97158681.0,19777.0,-0.08879709867768193,0.005786997412499976,0.06822740839853078,-0.0010386443693672874,6.386693460186719e-05,0.001521337694799333,97.1586810000008
1614,A,81411377773000.0,-1.7775575141670585,9.230406,3.977938092356312,70,1970-01-01 22:36:51.377773,-0.5454154,-1.8152106,0.40586576,10.6846767633611,1.9383483938781225,-93.22982788085938,10.204540252685547,-165.10690307617188,97178413.0,19732.0,-0.0766622733795444,-0.005709986964000017,0.06556746659557475,-0.0016324221647165949,7.597850849005969e-07,0.001320020236691845,97.17841300000146
1614,A,81411397548000.0,2.042498645832941,9.22801,5.019771892356312,70,1970-01-01 22:36:51.397548,-0.3174488,-1.1472899,0.8149273,10.309532337380332,1.4426206568425188,-93.23577880859375,10.248456001281738,-165.05104064941406,97198188.0,19775.0,0.0026196054393464135,-0.011287411800000017,0.08896485747384608,-0.0007320968792587076,-0.00016806178027905033,0.0015279383542363984,97.1981880000094
1614,A,81411417335000.0,2.899915685832941,10.267449,4.456941892356312,70,1970-01-01 22:36:51.417335,0.06178534,-0.28655612,0.85966843,11.047555630485371,0.9082739937304354,-93.23054504394531,10.292181015014648,-165.03897094726562,97217975.0,19787.0,0.048897776190336396,-0.0010342763835000284,0.09375786782905433,0.0005096872151532668,-0.0001219046220434577,0.001807767282784245,97.21797500000685
1614,A,81411437110000.0,3.5082505858329407,13.184583,3.3696029923563113,70,1970-01-01 22:36:51.437110,0.43569317,0.44208476,0.7946873,13.565483507773905,1.008362721539326,-93.21318817138672,10.330609321594238,-165.0636749267578,97237750.0,19775.0,0.06336074401109641,0.03808696639999998,0.07738496254759607,0.001109956118491667,0.0003663584725381432,0.0016921747353491308,97.23775000000023
1614,A,81411456806000.0,6.003861085832941,15.251485,1.4008968523563117,70,1970-01-01 22:36:51.456806,0.6466155,0.8564726,0.40053943,15.732537389076663,1.1454644273724675,-93.1888656616211,10.348214149475098,-165.1082763671875,97257446.0,19696.0,0.09367527574256561,0.08701759766400001,0.046979882470729914,0.0015464907225340638,0.0012320297469022722,0.0012247449937404743,97.25744600000326
1614,A,81411476521000.0,4.3225573858329405,17.65369,-4.845314407643688,70,1970-01-01 22:36:51.476521,-0.101200126,1.0173275,-0.5752428,18.538846049758128,1.173073308327534,-93.20287322998047,10.316659927368164,-165.15826416015625,97277161.0,19715.0,0.10179267008444642,0.13115576256250003,-0.03395334605124531,0.0019268252759897712,0.002150643898432724,0.0001284090827550695,97.27716100000544
1614,A,81411496293000.0,-2.8169962141670593,20.166065,-1.1114787076436883,70,1970-01-01 22:36:51.496293,-2.0730047,1.804558,-1.4935007,20.854141048496427,3.12799015383466,-93.32209777832031,10.23697280883789,-165.24549865722656,97296933.0,19772.0,0.014883977743088903,0.18012049793,-0.058888856737731005,0.0011534653404230142,0.0030772771112288553,-0.0009178380167718199,97.29693300000508
1614,A,81411516068000.0,-8.936271514167059,15.797549,9.848130892356313,70,1970-01-01 22:36:51.516068,-2.1038973,2.0772657,-1.3518206,21.536458962966705,3.250974557256353,-93.44522094726562,10.163368225097656,-165.3468017578125,97316708.0,19775.0,-0.11621043466390359,0.161795233425,0.08638364847634608,-0.0010018653428045551,0.0033806917937725623,0.00027185475331555656,97.31670800001302
1614,A,81411535869000.0,-7.09450151416706,11.352393,5.989754292356312,70,1970-01-01 22:36:51.535869,-0.007456851,0.7052051,-0.35473305,15.730660557843278,0.7894335782414811,-93.45170593261719,10.14354133605957,-165.3814697265625,97336509.0,19801.0,-0.15871266836702191,0.07474820077099997,0.15680298227124734,-0.0027218761815576776,0.0023418982702574976,0.0024076692377165486,97.33650900000066
1614,A,81411555642000.0,-1.1189273141670588,7.055728,-0.5151188076436883,70,1970-01-01 22:36:51.555642,0.9076053,-1.562743,0.51452273,7.883052927108008,1.8790015179141668,-93.39262390136719,10.173888206481934,-165.30377197265625,97356282.0,19773.0,-0.08120206411132527,-0.011783511733500018,0.05412498371961135,-0.002371917002647179,0.0006225003981692432,0.0020853393357686246,97.35628200000792
1614,A,81411575413000.0,2.138299415832941,5.2666483,-1.947340607643688,70,1970-01-01 22:36:51.575413,0.36751625,-3.0264163,0.48149952,5.779188455596554,3.0864389841174544,-93.34734344482422,10.20681381225586,-165.1517333984375,97376053.0,19771.0,0.010077002911018079,-0.07194294908635002,-0.02434264254982336,-0.0007031067924956367,-0.0008276779284346275,0.0002944133336339392,97.37605299999996
1614,A,81411595291000.0,4.480628685832941,5.2594633,-0.21574140764368832,70,1970-01-01 22:36:51.595291,-0.27377295,-2.4234767,-0.034088463,5.742332850976703,2.4391295510702777,-93.3392333984375,10.212181091308594,-165.0287322998047,97395931.0,19878.0,0.06578552640245719,-0.09018537680760001,-0.021498872149941235,0.0007539976788466307,-0.0016113934310599694,-0.0004556188146009603,97.39593100000639
1614,A,81411615063000.0,4.593194585832941,6.205496,-0.45524334764368835,70,1970-01-01 22:36:51.615063,-0.3920173,-1.0695255,-0.5954828,6.685616253276479,1.285364587868119,-93.34890747070312,10.185575485229492,-164.97271728515625,97415703.0,19772.0,0.08970381686368892,-0.08042301236020001,-0.006633355290771006,0.0015371676475291205,-0.001686634535312871,-0.0002781152004788812,97.41570300000603
1614,A,81411634837000.0,2.157459585832941,7.8580594,-0.8049163076436883,70,1970-01-01 22:36:51.634837,0.18322548,0.24074976,-0.95447695,7.955035986954064,1.0012783187219179,-93.3414077758789,10.13723087310791,-164.98208618164062,97435477.0,19774.0,0.06674371779526057,-0.05473882776020001,-0.012459198511826293,0.0015467967751730339,-0.001336345113270395,-0.0001887680794462795,97.43547700000636
1614,A,81411654496000.0,-0.8674503141670589,10.027947,1.2332454923563116,70,1970-01-01 22:36:51.654496,1.3049489,1.5116103,-0.79894835,10.53736388088051,2.1508546665558375,-93.2892074584961,10.092977523803711,-165.056396484375,97455136.0,19659.0,0.012680146135839789,-0.01684770009120002,0.0042102617211327315,0.0007806968705107509,-0.0007036597755153366,-8.108292418412236e-05,97.45513600000413
1614,A,81411674237000.0,-2.3882875141670588,11.714041,3.8246568923563116,70,1970-01-01 22:36:51.674237,2.6961844,2.5577,-0.09267801,13.054887295087958,3.7175030359558443,-93.17706298828125,10.081140518188477,-165.18582153320312,97474877.0,19741.0,-0.03213576023457191,0.02114249255399998,0.04992402548830595,-0.00019203663896153543,4.239174900406701e-05,0.0005343324819007645,97.47487700000056
1614,A,81411694269000.0,-2.3140422141670594,11.294912,0.8332771923563117,70,1970-01-01 22:36:51.694269,3.4546525,3.1606395,0.77444726,12.195515204331803,4.745949273142098,-93.03279876708984,10.111245155334473,-165.34823608398438,97494909.0,20032.0,-0.04709853455899453,0.034144073247999986,0.04665386779248164,-0.0007936106966523616,0.0005537502430728317,0.0009673241791003685,97.49490900000092
1614,A,81411714037000.0,-1.1788028141670588,9.783655,-3.808270807643688,70,1970-01-01 22:36:51.714037,2.0421119,2.900715,1.1227888,11.204829075554878,3.72089011027631,-92.95711517333984,10.159729957580566,-165.4983367919922,97514677.0,19768.0,-0.034523280260054426,0.014614156227999983,-0.02940483689350043,-0.0008067500176714799,0.00048192634014078374,0.00017048942140553025,97.51467699999921
1614,A,81411733800000.0,-1.5188955141670588,7.9969707,-2.059906607643688,70,1970-01-01 22:36:51.733800,-0.16298546,0.62744075,1.0695255,9.191386238994896,1.2506522098817976,-92.97139739990234,10.21151351928711,-165.53298950195312,97534440.0,19763.0,-0.026657306031433584,-0.017978147145450013,-0.057986395129162205,-0.0006045559634393387,-3.324127625078247e-05,-0.0008635564592319408,97.53444000000309
1614,A,81411753567000.0,0.17198848583294124,5.6498513,1.0799641923563117,70,1970-01-01 22:36:51.753567,-1.0812434,-2.2530344,1.0322412,6.061098587151324,2.7038441509459012,-93.00560760498047,10.268927574157715,-165.42138671875,97554207.0,19767.0,-0.013312155614540251,-0.058838234763000014,-0.009685260861492784,-0.0003950381741779824,-0.0007592147105921659,-0.0006688328119836386,97.55420700000832
1614,A,81411773338000.0,3.323834085832941,4.854705,3.942012692356312,70,1970-01-01 22:36:51.773338,-1.2175972,-3.9201732,0.5571333,6.085093702180468,4.142547329049479,-93.03123474121094,10.307068824768066,-165.2239532470703,97573978.0,19771.0,0.03455795403220308,-0.08991300869635001,0.04964475249382664,0.00021002534025780592,-0.0014704804172174049,0.0003950195545314363,97.57397800000035
1614,A,81411793062000.0,4.820721285832941,5.704937,4.509632192356312,70,1970-01-01 22:36:51.793062,-0.69987875,-4.535896,-0.28229508,7.464587367996341,4.598246763681759,-93.02490997314453,10.30495548248291,-164.99301147460938,97593702.0,19724.0,0.08032160507536892,-0.08915601059600001,0.0833501218530359,0.0011329422119188749,-0.001765978668261156,0.0013115954508087584,97.59370200001285
1614,A,81411812827000.0,3.848343385832941,7.0916533,2.4259652923563118,70,1970-01-01 22:36:51.812827,0.3323625,-4.204599,-0.9321064,7.535249957400237,4.319483756553347,-92.96974182128906,10.269404411315918,-164.77716064453125,97613467.0,19765.0,0.08567203161773809,-0.06723469636025002,0.06854104214267251,0.0016404321146196302,-0.0015455311614951408,0.0015010644281875883,97.61346700000286
1614,A,81411832610000.0,2.947816045832941,8.229287,0.057290852356311706,70,1970-01-01 22:36:51.832610,1.4455639,-2.8772793,-1.0407634,8.265689758397889,3.38401826442637,-92.87100982666016,10.224764823913574,-164.62844848632812,97633250.0,19783.0,0.06722421101832307,-0.04232631902255002,0.024563128155424913,0.001512373184034599,-0.0010837227836589666,0.0009209399005036306,97.6332500000135
1614,A,81411852485000.0,3.568126085832941,9.390872,-0.5606242376436883,70,1970-01-01 22:36:51.852485,2.1518342,-1.0652645,-0.60720074,9.531955195951644,2.4766654230853304,-92.75357055664062,10.197053909301758,-164.5728759765625,97653125.0,19875.0,0.0647521749334297,-0.01967466993750002,-0.005001875516293305,0.001311515335395543,-0.0006161348277904972,0.00019438994810137033,97.65312500001164
1614,A,81411872266000.0,5.057828285832941,10.384805,-1.4252263076436884,70,1970-01-01 22:36:51.872266,2.0964406,0.67963874,0.025566347,10.911725341011515,2.204002187915446,-92.65486145019531,10.196727752685547,-164.60743713378906,97672906.0,19781.0,0.08531500171296141,0.0017375333684999854,-0.019641054818164798,0.0014842394106211315,-0.00017740724923569483,-0.00024373090247295788,97.67290600000706
1614,A,81411892026000.0,4.078265385832941,10.317744,-3.1975409076436883,70,1970-01-01 22:36:51.892026,1.3326459,1.9302592,0.30786142,11.085240171679189,2.3657185648119405,-92.60570526123047,10.207674980163574,-164.70611572265625,97692666.0,19760.0,0.09026460547605893,0.01089318411999998,-0.04567294008703928,0.0017347265190275209,0.00012479148878637966,-0.0006453022696634163,97.69266600000265
1614,A,81411911842000.0,1.894007415832941,10.461446,-2.237137907643688,70,1970-01-01 22:36:51.911842,0.5187838,2.4032366,0.27803403,10.80218370445247,2.4742646803767863,-92.60150909423828,10.216104507446289,-164.82872009277344,97712482.0,19816.0,0.05917327891890555,0.011683414519999984,-0.05384679770186732,0.001480630558585308,0.00022368893932511966,-0.0009860415620124867,97.71248200000264
1614,A,81411931628000.0,0.739607985832941,11.203902,1.3793416923563115,70,1970-01-01 22:36:51.931628,0.21411815,2.1230721,0.18216023,11.3475255797513,2.1416031549639363,-92.61000061035156,10.220379829406738,-164.93690490722656,97732268.0,19786.0,0.02605435716868057,0.020432487763999987,-0.008486177957838015,0.0008431570038144896,0.00031772262129561174,-0.000616660128201465,97.73226800000702
1614,A,81411951436000.0,0.4665757858329411,12.281661,4.574297892356312,70,1970-01-01 22:36:51.951436,0.43782368,1.3432984,-0.011717909,13.0870347469606,1.4128968382732812,-92.60020446777344,10.216740608215332,-165.0050506591797,97752076.0,19808.0,0.011946044074578896,0.03848261595199998,0.058964846446993825,0.0003763559739132417,0.0005834951872032636,0.0004999407327165991,97.75207600000431
1614,A,81411971220000.0,0.1552232858329412,13.43127,5.364654192356312,70,1970-01-01 22:36:51.971220,0.87138635,0.04474111,-0.3089267,14.464671088255615,0.9256087963406812,-92.55690002441406,10.20120906829834,-165.00660705566406,97771860.0,19784.0,0.006150836416918908,0.06046911345199998,0.09831611402197728,0.00017901434182189627,0.0009788305072643676,0.001555823260959062,97.77186000000802
1614,A,81411990972000.0,0.4905258858329411,13.713882,3.4725888923563115,70,1970-01-01 22:36:51.990972,0.9917612,-1.9718045,-0.24074976,14.159626493455438,2.22026208159887,-92.489501953125,10.193523406982422,-164.906005859375,97791612.0,19752.0,0.006377418819372253,0.07451592115199998,0.08727661270462186,0.0001237290487136115,0.0013331122017491035,0.001832913769151893,97.7916120000009
1614,A,81412010762000.0,2.162249625832941,12.930711,-0.8025212076436883,70,1970-01-01 22:36:52.010762,0.6562029,-3.6985981,0.26205507,12.989605529768152,3.765488415996619,-92.42353057861328,10.214540481567383,-164.71884155273438,97811402.0,19790.0,0.0262492136879339,0.06970624773499999,0.0264203197402314,0.0003228405286597944,0.0014270783611368646,0.001125031146541823,97.81140200000664
1614,A,81412030584000.0,3.256773615832941,12.71995,-5.652436107643688,70,1970-01-01 22:36:52.030584,0.36218992,-3.5356128,0.5603291,14.133419467565208,3.5980144677280355,-95.23890686035156,10.767437934875488,-165.0621337890625,97831224.0,19822.0,0.05370793934815055,0.059968101170999995,-0.06397508195181319,0.000792455343740633,0.001285202472007366,-0.00037220524827898707,97.83122400000866
1614,A,81412050385000.0,3.5058555858329408,13.122313,-7.3026045076436885,70,1970-01-01 22:36:52.050385,0.46232477,-1.4114754,0.5592638,15.280659962654315,1.5870674200396002,-98.10009765625,11.139240264892578,-165.54368591308594,97851025.0,19801.0,0.06695341041109305,0.06180152483149998,-0.12826137961165268,0.0011946076932913914,0.0012055801822377509,-0.0019032370877090936,97.85102500001085
1614,A,81412070179000.0,3.400474785832941,12.284056,-7.089447807643688,70,1970-01-01 22:36:52.070179,0.7957525,0.9257148,0.56672066,14.446494084084462,1.3458611513325307,-100.97445678710938,11.46619987487793,-166.16371154785156,97870819.0,19794.0,0.06835195168837722,0.05746563399299998,-0.14243814176439915,0.0013391171686984572,0.001180387070886076,-0.0026791131630587847,97.8708190000034
1614,A,81412090037000.0,1.359918025832941,11.156001,-7.829509107643688,70,1970-01-01 22:36:52.090037,0.78936094,2.7760792,0.6423545,13.909540850467504,2.956742417245806,-103.7944107055664,12.1985502243042,-166.8894500732422,97890677.0,19858.0,0.047265940227030546,0.038127925952999984,-0.14813032321188835,0.0011479700488280838,0.0009491484567038337,-0.0028850542887495587,97.89067700000305
1614,A,81412109814000.0,-0.24953521416705904,11.424244,-8.088171107643689,70,1970-01-01 22:36:52.109814,0.09161274,4.760667,0.6956177,14.470089242602912,4.812091765913509,-106.5774154663086,13.21477222442627,-167.73675537109375,97910454.0,19777.0,0.010980020433158074,0.029470152682499983,-0.15740198080886922,0.0005759651819882751,0.0006684436005871413,-0.0030212561883092614,97.91045400001167
1614,A,81412129596000.0,-1.6985219141670589,12.8061695,-4.4070257076436885,70,1970-01-01 22:36:52.129596,-0.64341974,6.1455107,0.34194988,14.251695818440176,6.1885556025673845,-109.03673553466797,14.867644309997559,-168.61769104003906,97930236.0,19782.0,-0.019268233056352762,0.04579941992849998,-0.12358999170000745,-8.197871105601866e-05,0.0007444913426954007,-0.002779291600085299,97.93023600000015
1614,A,81412149376000.0,-3.8612245141670587,14.10906,0.6943660723563116,70,1970-01-01 22:36:52.149376,-0.8021441,5.410478,-0.09054748,15.385028840328474,5.470366184432553,-110.41468811035156,17.365890502929688,-169.23574829101562,97950016.0,19780.0,-0.05498589217622442,0.07234761975499997,-0.036718203792992156,-0.0007343732985501883,0.0011684742224698143,-0.001585448053425766,97.9500160000025
1614,A,81412169181000.0,-7.192696514167059,15.112574,3.3839728923563115,70,1970-01-01 22:36:52.169181,-0.8745821,2.7004454,-0.350472,18.07269731386328,2.8600926262632775,-111.05299377441406,20.117511749267578,-169.5428009033203,97969821.0,19805.0,-0.1094614529830786,0.09527823068499996,0.04038575159806675,-0.0016284398354399984,0.0016599149839820995,3.63178921397512e-05,97.96982100000605
1614,A,81412188945000.0,-3.971395514167059,14.350958,-0.19658124764368834,70,1970-01-01 22:36:52.188945,-1.1462245,-0.7584683,-0.350472,15.660976697877691,1.4184270828241894,-112.59428405761719,22.615705490112305,-170.045654296875,97989585.0,19764.0,-0.11032355742399776,0.097471423224,0.031497804233050146,-0.002171915472842729,0.0019047520799287375,0.0007103532987230972,97.98958500000299
1614,A,81412208724000.0,0.318084485832941,12.092454,-2.1724723076436883,70,1970-01-01 22:36:52.208724,-1.9675435,-3.9617186,-0.0958738,12.521714282425927,4.424435949983303,-115.05728912353516,24.475248336791992,-170.8214569091797,98009364.0,19779.0,-0.03612941941471026,0.06767792297399998,-0.023428755135014512,-0.001448346714446403,0.0016332444592251209,7.979886105502341e-05,98.00936400001228
1614,A,81412228506000.0,2.861595385832941,8.619676,-3.0873701076436886,70,1970-01-01 22:36:52.228506,-2.7622306,-5.7588196,0.15020229,9.32808040851541,6.388777801805426,-118.10963439941406,25.413076400756836,-171.8173065185547,98029146.0,19782.0,0.03145021361064724,0.011000077829999988,-0.05202510132960745,-4.628202460798737e-05,0.0007782041059523636,-0.0007463140942915759,98.02914600000076
1614,A,81412248278000.0,4.672230185832941,5.3313136,-2.282643407643688,70,1970-01-01 22:36:52.248278,-3.1041806,-5.958024,0.15233281,6.446348224826699,6.719910153193632,-121.27427673339844,25.127824783325195,-172.86785888671875,98048918.0,19772.0,0.07447939960148892,-0.05584611681440002,-0.053087953612131006,0.0010472201562151781,-0.00044334794139977874,-0.0010391476611540263,98.04891800000041
1614,A,81412268061000.0,6.698416485832942,3.288362,-0.1199406076436883,70,1970-01-01 22:36:52.268061,-2.9071066,-4.6466837,-0.1257012,5.5449073070683745,5.482585063935687,-123.17931365966797,22.932758331298828,-173.3993682861328,98068701.0,19783.0,0.11247275155278307,-0.10861187880260001,-0.023765159787215082,0.0018492372031424812,-0.0016267362636455556,-0.0007601925711896318,98.06870100001106
1614,A,81412287807000.0,7.136705485832941,2.7446926,0.20817709235631168,70,1970-01-01 22:36:52.287807,-2.130529,-1.8556907,-0.53476274,5.593726783902392,2.875536990198491,-124.53359985351562,20.358598709106445,-173.77255249023438,98088447.0,19746.0,0.13659415922625726,-0.13394645193420002,0.0008711588135677307,0.002459037610121465,-0.0023947783993644267,-0.0002260324716128203,98.0884470000019
1614,A,81412307589000.0,3.754937685832941,3.0296998,0.3446932073563117,70,1970-01-01 22:36:52.307589,-1.091896,1.5691346,-0.71585774,3.376120603704435,2.0412918879109543,-127.5100326538086,19.42670440673828,-174.80813598632812,98108229.0,19782.0,0.10772924261094724,-0.13674908477160003,0.005468440134457558,0.00241660276757179,-0.0026774495535570684,6.270497319491813e-05,98.10822900000494
1614,A,81412327374000.0,1.735936135832941,3.6212697,1.9900716923563118,70,1970-01-01 22:36:52.327374,-0.14913702,4.3047338,-0.43356264,3.9792889150133157,4.329082062331539,-129.05288696289062,21.784982681274414,-175.49734497070312,98128014.0,19785.0,0.05431846928082974,-0.12809828422125003,0.023096661770407128,0.0016030569898894038,-0.002620002597761769,0.0002825802705938739,98.12801400000171
1614,A,81412347156000.0,1.7527012558329411,5.484595,4.205464892356312,70,1970-01-01 22:36:52.347156,0.44741106,5.5660067,-0.23755397,6.679165779710022,5.589010568044936,-129.67001342773438,24.418434143066406,-175.94158935546875,98147796.0,19782.0,0.03450611244096724,-0.10379749225230002,0.061280052359392566,0.000878563937810294,-0.0022936811250998832,0.0008345700794578488,98.14779600000475
1614,A,81412366947000.0,0.421070385832941,8.365804,5.448480292356312,70,1970-01-01 22:36:52.366947,0.3898868,4.8480186,-0.5230448,9.92957568211341,4.891714620209077,-130.54312133789062,27.011728286743164,-176.4832763671875,98167587.0,19791.0,0.021510557280104738,-0.05689517669550001,0.09553061457532375,0.0005543129552248678,-0.0015901343055729554,0.0015517199546524853,98.16758700000355
1614,A,81412386712000.0,-2.4529535141670586,10.233919,5.925088892356312,70,1970-01-01 22:36:52.386712,-0.07243799,1.9515644,-0.70200926,12.539110541203351,2.075251278970416,-131.41744995117188,29.687681198120117,-176.9426727294922,98187352.0,19765.0,-0.02008008501576192,-0.009885237452500006,0.11239929746792252,1.4136642152367891e-05,-0.0006599574428176101,0.0020548673557673814,98.1873520000081
1614,A,81412406484000.0,-3.3630605141670586,10.078242,2.907364292356312,70,1970-01-01 22:36:52.406484,-0.23116238,-1.0705907,-0.2727077,11.807638098499892,1.1287027874923692,-132.9351043701172,32.25733947753906,-177.6754913330078,98207124.0,19772.0,-0.05749711468411109,0.007040423645999983,0.087317632184069,-0.0007669281962329446,-2.812382929105923e-05,0.001974401566539588,98.20712400000775
1614,A,81412426264000.0,0.888099185832941,9.424402,2.109822592356312,70,1970-01-01 22:36:52.426264,-0.3653857,-1.7608821,0.26418558,9.672085700453517,1.8176926309320935,-135.30694580078125,34.382164001464844,-178.9220733642578,98226904.0,19780.0,-0.02447736753722442,-0.0009628508400000131,0.049619978289807846,-0.0008107276291690081,6.0107195051339696e-05,0.001354312967586642,98.22690400001011
1614,A,81412446026000.0,2.681968885832941,9.587264,2.8115633923563115,70,1970-01-01 22:36:52.446026,-0.6199839,-0.9981528,0.42290998,9.887679626908975,1.2488161992826048,-138.01663208007812,36.27167510986328,179.5447235107422,98246666.0,19762.0,0.03527584261613058,-0.005813328254000014,0.04862821491494543,0.00010669973225467174,-6.695542562781427e-05,0.000970790397056167,98.24666600000637
1614,A,81412465807000.0,2.399356575832941,10.5692215,4.413831592356312,70,1970-01-01 22:36:52.465807,-0.44315,0.37923414,0.46339005,11.296393769501408,0.7449367717333748,-140.49200439453125,38.38669967651367,178.03225708007812,98266447.0,19781.0,0.050256849478606404,0.005503919837749973,0.0714627690963002,0.0008459610911629962,-3.0602039409210317e-06,0.0011877598773632249,98.26644700000179
1614,A,81412485572000.0,2.784954755832941,13.594131,5.8412633923563115,70,1970-01-01 22:36:52.485572,0.16085494,1.4998924,0.5219796,14.641237142665654,1.5962500512502178,-143.10507202148438,40.411014556884766,176.3151092529297,98286212.0,19765.0,0.05123395673518808,0.04509733108124999,0.10134597618642252,0.001002982892407824,0.0005000668622070171,0.0017077824252565074,98.28621200000634
1614,A,81412505360000.0,4.444703285832941,16.429834,6.830406292356312,70,1970-01-01 22:36:52.505360,0.6221144,1.6873789,0.21411815,17.7669145753092,1.81111028405561,-146.04776000976562,42.18771743774414,174.30723571777344,98306000.0,19788.0,0.07153023666424224,0.10313470971,0.1253734998605467,0.0012146289294939635,0.0014666078115886274,0.002243162496008713,98.30600000001141
1614,A,81412525140000.0,2.650833635832941,15.294596,3.1253109923563116,70,1970-01-01 22:36:52.525140,0.6540724,0.52837116,-0.567786,15.535256646995194,1.0145776111059743,-149.36619567871094,43.61531066894531,172.0322723388672,98325780.0,19780.0,0.07017486015527558,0.1199106127,0.09846204394580783,0.001401463407545031,0.0022059182386349,0.002213733528244846,98.32577999999921
1614,A,81412544913000.0,-1.4709953141670589,14.717396,-6.473927807643688,70,1970-01-01 22:36:52.544913,-0.8213189,-0.37390783,-0.8564726,16.68001313967056,1.2441531719942198,-151.29190063476562,43.9190559387207,170.76202392578125,98345553.0,19773.0,0.011664471567149743,0.10293815890800001,-0.033106100144338645,0.0008091045530737579,0.002203194380502492,0.0006461415383932252,98.34555300000648
1614,A,81412564709000.0,-2.9415370141670594,14.612015,0.3614583423563117,70,1970-01-01 22:36:52.564709,-2.641856,0.8447547,-0.47404268,15.51292704555293,2.8138461383610998,-154.81869506835938,45.409915924072266,168.37423706054688,98365349.0,19796.0,-0.0436752449858511,0.096301710078,-0.060501222767414445,-0.00031684263529830605,0.001972076223223428,-0.0009265252821805321,98.3653489999997
1614,A,81412584481000.0,-1.487760514167059,13.000167,5.855633392356312,70,1970-01-01 22:36:52.584481,-1.5041534,1.5563514,-0.4676511,14.57946759613945,2.2143632679270873,-157.8031463623047,47.380741119384766,166.25775146484375,98385121.0,19772.0,-0.04378803536511109,0.079208431252,0.06146216888936901,-0.0008646619895496121,0.00173509325718838,9.499913361642798e-06,98.38512099999934
1614,A,81412604259000.0,-5.288656514167059,10.873389,2.8786240923563113,70,1970-01-01 22:36:52.604259,0.86499476,0.7222493,-0.89375687,13.46592280769339,1.4382841613708135,-159.19216918945312,48.365379333496094,165.2144775390625,98404899.0,19778.0,-0.06701198799319609,0.04226119528399998,0.08637307226632314,-0.0010957014309902998,0.0012012131368145038,0.0014619426997886395,98.40489900000102
1614,A,81412623868000.0,-3.5402925141670587,7.592212,-0.6372648076436882,70,1970-01-01 22:36:52.623868,1.4008228,-1.442368,-0.054328486,9.618188370065264,2.0113879657626703,-160.7924346923828,49.184471130371094,163.9771728515625,98424508.0,19609.0,-0.08656343074830186,-0.01112221499550002,0.02197540710696492,-0.0015057301930510166,0.00030530213223859786,0.001062302666015403,98.42450800001097
1614,A,81412643589000.0,1.843711985832941,7.3790555,-0.6779802076436883,70,1970-01-01 22:36:52.643589,0.20453078,-2.191249,0.42184472,7.47358730630902,2.2408386795484154,-165.12550354003906,49.723331451416016,160.6866455078125,98444229.0,19721.0,-0.016729132299638568,-0.045641616816250015,-0.012968973473241175,-0.0010185163179342166,-0.0005597197635797612,8.880793884533297e-05,98.44422900000063
1614,A,81412663364000.0,4.1932262858329405,8.696317,1.4823275923563117,70,1970-01-01 22:36:52.663364,-0.680704,-1.5126755,0.06924219,8.96907806442013,1.6602227515584307,-169.56163024902344,50.14411544799805,157.32730102539062,98464004.0,19775.0,0.05969022716109641,-0.03484975440625001,0.007952984766346064,0.0004247778254426644,-0.000795858432962469,-4.959558833942541e-05,98.46400400000857
1614,A,81412683138000.0,3.429214985832941,8.583751,1.1494197923563116,70,1970-01-01 22:36:52.683138,-0.16405073,-0.9108011,-0.3089267,8.691936371618354,0.9756572101653495,-174.00973510742188,50.4421272277832,153.92588806152344,98483778.0,19774.0,0.07536307685296056,-0.022937167684000014,0.026020086392653706,0.0013352720167869813,-0.0005713392987063019,0.00033589175454903073,98.4837780000089
1614,A,81412703083000.0,1.711985885832941,8.753797,-0.06964520764368831,70,1970-01-01 22:36:52.703083,0.9960223,-0.3749731,-0.38029942,8.785548947518702,1.1301738347144816,-176.18190002441406,50.54853439331055,152.22470092773438,98503723.0,19945.0,0.05127062569268801,-0.022562302570000015,0.010768052046046635,0.0012628545986364803,-0.0004537434671080153,0.00036686971057993916,98.50372300000163
1614,A,81412722864000.0,0.8425937858329411,9.515413,0.29200277235631167,70,1970-01-01 22:36:52.722864,2.183792,0.76272935,-0.2972088,9.622497119144061,2.332174228357063,-178.2904052734375,50.681556701660156,150.51844787597656,98523504.0,19781.0,0.025266070242611408,-0.013162178495000003,0.002199227493790201,0.000756986191148079,-0.0003533329799733827,0.00012825287828875624,98.5235040000116
1614,A,81412742646000.0,-0.678243714167059,9.946517,1.4464021923563117,70,1970-01-01 22:36:52.742646,2.9752836,2.1955101,-0.13102753,10.423409310102599,3.699965582711395,179.7006072998047,50.94942855834961,148.84820556640625,98543286.0,19782.0,0.00162558655884724,-0.001365650370000008,0.01719456350597256,0.00026598537742322754,-0.00014369475530371512,0.00019182398677865345,98.54328600000008
1614,A,81412762418000.0,-1.693731914167059,9.426797,-0.9534074076436883,70,1970-01-01 22:36:52.762418,2.3734093,3.0945933,0.30146983,10.3182660385345,3.911580685110766,177.72508239746094,50.969024658203125,147.21261596679688,98563058.0,19772.0,-0.02344935106171109,-0.002241017796000008,0.004873746441668996,-0.00021574973587531204,-3.565552148907616e-05,0.0002181673121423844,98.56305799999973
1614,A,81412782202000.0,-2.0194545141670592,7.9083548,-1.8587249076436885,70,1970-01-01 22:36:52.782202,0.46339005,2.183792,0.7435546,9.281845594521949,2.352987734962544,175.79432678222656,50.94713592529297,145.67430114746094,98582842.0,19784.0,-0.036730840149081095,-0.02240387839440001,-0.02781761286282273,-0.0005953024514571563,-0.00024378731311543698,-0.00022696072663805272,98.58284200000344
1614,A,81412801941000.0,-0.687823514167059,5.9133034,0.0884261123563117,70,1970-01-01 22:36:52.801941,-0.7584683,-0.46019423,1.0120013,6.619480987628539,1.3458081299471605,173.66244506835938,51.220069885253906,144.01206970214844,98602581.0,19739.0,-0.02671948050064358,-0.05702934439510001,-0.017471963960088766,-0.0006262229396524576,-0.0007839661923209704,-0.000446985478453725,98.60258099999919
1614,A,81412821712000.0,1.642530345832941,4.7636943,3.072620492356312,70,1970-01-01 22:36:52.821712,-0.9619338,-2.9337382,0.82557994,5.484050222235667,3.1958909085029927,169.18997192382812,52.35041427612305,140.4988555908203,98622352.0,19771.0,0.009437754384433077,-0.08820833923665,0.031248526210886644,-0.00017083850352179894,-0.0014357471215416648,0.00013618820613026244,98.62235200000578
1614,A,81412841491000.0,4.114190585832941,5.017566,5.072461892356312,70,1970-01-01 22:36:52.841491,-0.47510794,-4.1939464,0.19387813,7.081804809122955,4.225222205992994,164.50857543945312,53.28582763671875,136.75718688964844,98642131.0,19779.0,0.05693109165370974,-0.09710242626315002,0.08055079224361548,0.0006563547028942135,-0.0018326308154102725,0.0011056393598557989,98.64213100000052
1614,A,81412861410000.0,4.480628685832941,6.437813,3.434268592356312,70,1970-01-01 22:36:52.861410,0.49960902,-4.266384,-0.5965481,7.4415944874215185,4.3367627608545725,159.71238708496094,53.24726867675781,132.8756866455078,98662050.0,19919.0,0.08560010253615635,-0.0811163528495,0.08472278226249537,0.0014195394285339714,-0.0017749699305724378,0.001646042165293611,98.66205000001355
1614,A,81412881195000.0,3.4172398858329407,8.0305,0.5626399923563117,70,1970-01-01 22:36:52.881195,1.5126755,-3.2639704,-1.0908308,8.113477706386673,3.759202279022113,157.5620574951172,52.90156936645508,131.09275817871094,98681835.0,19785.0,0.07812966484520474,-0.050765213647500015,0.039539418174269626,0.0016196967238201144,-0.0013046383965715726,0.0012292638178206979,98.68183500001032
1614,A,81412900960000.0,2.665203745832941,9.726174,-0.6612151076436883,70,1970-01-01 22:36:52.900960,2.082592,-1.6500946,-0.96086854,9.795103131978706,2.8254680990191505,155.6276092529297,52.39399719238281,129.47967529296875,98701600.0,19765.0,0.06010974918993808,-0.018216669195000014,-0.0009741685768274995,0.0013661510092022992,-0.0006817134571910066,0.00038112107914672184,98.70160000000033
1614,A,81412920758000.0,3.457955285832941,10.703342,-2.0934368076436884,70,1970-01-01 22:36:52.920758,1.8738002,0.03089267,-0.25992453,11.06068097592646,1.8919942674002714,153.92050170898438,51.60200119018555,128.0678253173828,98721398.0,19798.0,0.06061315125446056,0.008211378883999981,-0.027268299309429738,0.0011950359914991023,-9.904236878858933e-05,-0.0002795721896060604,98.72139800000878
1614,A,81412940555000.0,3.620816585832941,10.212363,-3.899281407643688,70,1970-01-01 22:36:52.940555,0.9800433,1.2314457,0.32810146,11.173778506023927,1.6076672385719353,152.51644897460938,50.581459045410156,126.9444580078125,98741195.0,19797.0,0.07006922337168472,0.013023505942499977,-0.05931892125402209,0.0012935594852368992,0.00021019350745510982,-0.0008570836027473279,98.74119500000961
1614,A,81412960343000.0,2.325110955832941,10.308165,-1.9712907076436885,70,1970-01-01 22:36:52.960343,0.1949434,1.7896442,0.3270362,10.583981093516211,1.8296945012508616,150.8741912841797,49.758060455322266,125.69270324707031,98760983.0,19788.0,0.05882900709724223,0.00910770403199999,-0.0580834405086533,0.0012753190922595633,0.00021896619148770266,-0.0011615789672799104,98.76098300000012
1614,A,81412980128000.0,0.5911166858329411,11.409874,3.0079548923563113,70,1970-01-01 22:36:52.980128,0.07243799,2.0421119,0.05965481,11.817335287431023,2.044266854124722,148.83934020996094,49.475765228271484,124.1702651977539,98780768.0,19785.0,0.028848781945179737,0.020952700807499995,0.010255200447269621,0.0008673525281021593,0.00029737255487475363,-0.000473140864807238,98.78076800001145
1614,A,81412999829000.0,-0.3980263141670588,12.832515,6.200516392356312,70,1970-01-01 22:36:52.999829,0.51026165,1.8503643,-0.1555286,14.321142501232837,1.9257217191466613,146.7804718017578,49.426448822021484,122.6218032836914,98800469.0,19701.0,0.0019020367060947733,0.0457298528445,0.09070804639006169,0.00030291093912437954,0.0006568564947490259,0.000994538462971132,98.80046900000889
1614,A,81413019602000.0,-0.9488807141670588,13.848003,5.898743892356312,70,1970-01-01 22:36:53.019602,0.99069595,0.515588,-0.21731395,15.232744104013545,1.1377762539071576,144.7509765625,49.374515533447266,121.0582504272461,98820242.0,19773.0,-0.013316196335625252,0.07000154120700001,0.11961933680481135,-0.00011284608917735307,0.001144178427290155,0.002079401673956112,98.8202420000016
1614,A,81413039398000.0,0.13366808583294087,13.39295,3.118125992356312,70,1970-01-01 22:36:53.039398,0.9555422,-2.0080235,0.15339808,13.826022261644315,2.2290693671307715,142.7461700439453,49.1427001953125,119.46115112304688,98840038.0,19796.0,-0.0080689745952511,0.075630152794,0.08924897811888555,-0.00021167042187381413,0.0014414625072218983,0.002067378581114752,98.84003800000937
1614,A,81413059187000.0,2.361036255832941,12.23855,-1.7461589076436883,70,1970-01-01 22:36:53.059187,0.5336975,-4.10766,0.70840085,12.430609569694568,4.202325006634657,141.13531494140625,48.46873474121094,118.12901306152344,98859827.0,19789.0,0.02468385210861307,0.05967867675,0.013574928319689055,0.00016439590555596004,0.001338813213923108,0.0010173911422564764,98.8598270000075
1614,A,81413078970000.0,3.251983555832941,12.308006,-6.6487641076436885,70,1970-01-01 22:36:53.078970,0.44208476,-3.8530614,0.88203895,14.231791781941704,3.9773752395909696,140.21998596191406,47.52400207519531,117.3293228149414,98879610.0,19783.0,0.05552118546709307,0.048928858673999986,-0.08303838100571509,0.0007933481291800972,0.0010742914366464957,-0.0006870977422438265,98.8796100000036
1614,A,81413098770000.0,3.814813185832941,12.535533,-8.615075107643689,70,1970-01-01 22:36:53.098770,0.8767126,-1.5531555,0.7978831,15.53447631360981,1.953851179451654,139.66339111328125,46.44207000732422,116.83576202392578,98899410.0,19800.0,0.06996128774249225,0.05191103609999999,-0.15111200823134505,0.001242276484774895,0.0009983149582625998,-0.0023180888534468955,98.89941000001272
1614,A,81413118567000.0,3.666321885832941,11.761941,-9.163534107643688,70,1970-01-01 22:36:53.118567,1.3688648,1.0301107,0.664725,15.241623091873253,1.8376012136909712,139.3711395263672,45.27384948730469,116.58195495605469,98919207.0,19797.0,0.07405201550688473,0.046497946388999976,-0.17598156331752207,0.0014255156822139579,0.0009741013131673661,-0.0032377357179764607,98.91920700001356
1614,A,81413138337000.0,2.729869285832941,12.564273,-10.593361107643688,70,1970-01-01 22:36:53.138337,0.9555422,4.0448093,0.47723848,16.719941969431424,4.183455477967949,139.24835205078125,44.06985092163086,116.54161071777344,98938977.0,19770.0,0.06322634973191725,0.04671862538999998,-0.1952969092031157,0.0013569966403855576,0.0009214458120354146,-0.0036700877008665044,98.93897700001253
1614,A,81413158156000.0,-0.4794570141670591,13.780943,-7.601981107643688,70,1970-01-01 22:36:53.158156,-0.27696875,7.0179625,-0.068176925,16.184863606218784,7.023756646765695,138.8236083984375,43.052406311035156,116.4249496459961,98958796.0,19819.0,0.022300460406073058,0.06684171795199999,-0.18030674368239025,0.000847527925062415,0.0011253262223475486,-0.003722044398268921,98.95879600000626
1614,A,81413177945000.0,-5.413197514167059,14.544954,-5.051286107643688,70,1970-01-01 22:36:53.177945,-0.60933125,7.725298,-0.6860303,17.337216283640377,7.779598404387508,138.22898864746094,42.47454071044922,116.24669647216797,98978585.0,19789.0,-0.058304870230601935,0.0863383878665,-0.12519775246166093,-0.00035624563300880096,0.0015156405570211483,-0.0030228142370973144,98.97858500000439
1614,A,81413197786000.0,-11.37679651416706,15.392791,3.0055599923563117,70,1970-01-01 22:36:53.197786,-0.8745821,5.835519,-0.7254451,20.730401437480637,5.945119548176926,137.15005493164062,42.58399963378906,115.71021270751953,98998426.0,19841.0,-0.16656513575808865,0.10255559927250002,-0.02029462592670842,-0.002230822894410805,0.0018739227994124497,-0.001443357139801818,98.99842600000557
1614,A,81413217574000.0,-9.66914751416706,14.509029,3.7791512923563113,70,1970-01-01 22:36:53.217574,-1.4029533,0.87990844,-0.29507825,19.08468833971503,1.6821379249000916,135.7954559326172,42.83776092529297,114.86882019042969,99018214.0,19788.0,-0.20822857021633778,0.10192620708,0.0671279334509467,-0.003708208926910975,0.002023142992051635,0.00046336874464481356,99.01821400001063
1614,A,81413237356000.0,-2.304462014167059,12.255316,-0.6276847076436882,70,1970-01-01 22:36:53.237356,-1.9483687,-4.3643885,-0.024501082,13.122970933941186,4.779605409768792,134.36380004882812,42.66131591796875,113.8523178100586,99037996.0,19782.0,-0.11843097184475278,0.07086253639500001,0.03117115598939256,-0.0032309895305262467,0.0017090534617112251,0.0009722762936543956,99.03799599999911
1614,A,81413257125000.0,1.3910532858329412,9.740545,-2.328148707643688,70,1970-01-01 22:36:53.257125,-2.5321336,-7.558051,0.2247708,10.160995066501833,7.974105429412292,133.0645294189453,42.1506462097168,112.85741424560547,99057765.0,19769.0,-0.009028588575218587,0.02368188805449998,-0.029216935393408066,-0.0012598740249712068,0.0009345243634710825,1.9316493481008728e-05,99.05776500000502
1614,A,81413276870000.0,3.841158385832941,6.5288234,-3.645409507643688,70,1970-01-01 22:36:53.276870,-2.9891322,-8.519985,0.4857606,7.854834030633144,9.042179995433303,132.26622009277344,41.28339385986328,112.18343353271484,99077510.0,19745.0,0.05165500972852141,-0.03288166047100002,-0.05897395348042462,0.0004208293428359821,-9.082475318189662e-05,-0.0008706645504069131,99.0775100000028
1614,A,81413296634000.0,6.334373885832941,4.102669,-3.2933415076436887,70,1970-01-01 22:36:53.296634,-3.1052458,-7.4248934,0.43782368,6.8718658050119625,8.059980338347604,131.86412048339844,40.117103576660156,111.80613708496094,99097274.0,19764.0,0.10055460990860224,-0.08862679210320003,-0.06856873753306986,0.001504135461254056,-0.0012007465283382448,-0.0012603768725953524,99.09727399999974
1614,A,81413316394000.0,8.585692485832942,2.9722195,-2.8957683076436886,70,1970-01-01 22:36:53.316394,-2.7398603,-4.2109904,0.19813919,7.7332322854100335,5.027776223244438,131.83119201660156,37.39179611206055,111.74882507324219,99117034.0,19760.0,0.1474102557520589,-0.12374810162000001,-0.06114840497503929,0.002449892872727332,-0.0020982639499852163,-0.0012816053679801183,99.11703400000988
1614,A,81413336174000.0,8.516236485832941,2.318379,-0.7019304076436883,70,1970-01-01 22:36:53.336174,-1.8503643,0.47297743,-0.13848437,6.760020247806029,1.914871696155696,131.38037109375,34.53316879272461,111.5578384399414,99136814.0,19780.0,0.16913807752977558,-0.141519980835,-0.03558124029419216,0.0031306630161573434,-0.0026235013354799497,-0.000956656191712699,99.13681400001224
1614,A,81413355939000.0,3.802838085832941,2.914739,1.2308504623563117,70,1970-01-01 22:36:53.355939,-0.6061355,4.196077,-0.40373522,3.390619672189352,4.258810228474345,130.18411254882812,33.47417449951172,111.04664611816406,99156579.0,19765.0,0.1217432544544881,-0.141980711365,0.0052270524406975005,0.002874634763334486,-0.0028016955906665004,-0.00029997526146216096,99.15657900000224
1614,A,81413375702000.0,1.4605088558329409,4.0691385,3.3384676923563115,70,1970-01-01 22:36:53.375702,0.42717105,6.160424,-0.2428803,5.067261141525819,6.1799910846102515,128.7260284423828,33.27656936645508,110.43553924560547,99176342.0,19763.0,0.05200976280407141,-0.12466621448375001,0.045151717345792784,0.0017169404400404558,-0.0026348715977744237,0.0004978178136452037,99.17634200000612
1614,A,81413395475000.0,1.853292085832941,5.3121533,4.794639892356312,70,1970-01-01 22:36:53.395475,1.2325109,6.852846,-0.099069595,6.8886618133754,6.9635045920131535,127.2957992553711,32.97074890136719,109.8462142944336,99196115.0,19773.0,0.03276189300977974,-0.10102725861930001,0.08040796813626133,0.0008380949752036394,-0.002231318521833304,0.001241345830518328,99.19611500001338
1614,A,81413415254000.0,1.886822365832941,7.7526784,4.938340892356312,70,1970-01-01 22:36:53.415254,1.2154667,5.6938386,-0.56885123,8.977055846421392,5.849850341977252,125.94432067871094,32.568023681640625,109.28607177734375,99215894.0,19779.0,0.03698786186974974,-0.06462954690285001,0.09625431347041549,0.0006897902008811068,-0.0016382629782113027,0.0017471016339492306,99.21589400000812
1614,A,81413435007000.0,-2.2134515141670588,10.693763,4.856910392356312,70,1970-01-01 22:36:53.435007,0.23755397,2.122007,-1.1217234,12.411579845779716,2.411972011201482,124.6810531616211,32.60517883300781,108.69943237304688,99235647.0,19753.0,-0.0032259527835219134,-0.011393121512900001,0.09674279931346423,0.00033344949509012914,-0.000750837884608155,0.001906135984409988,99.23564700000861
1614,A,81413454730000.0,-6.704113514167059,11.493699,2.5097909923563115,70,1970-01-01 22:36:53.454730,-0.3898868,-1.2346416,-0.6775082,14.728509790823217,1.4612901691081206,123.68474578857422,32.96589279174805,108.14390563964844,99255370.0,19723.0,-0.0879405675269169,0.025516256512999987,0.07264672570534354,-0.0008990386400413924,0.00013927529580348602,0.001670434800972973,99.2553700000135
1614,A,81413474478000.0,-3.231334814167059,11.132051,1.8176302923563117,70,1970-01-01 22:36:53.474478,-0.64768076,-1.6170714,0.2972088,12.493630750058811,1.7671285607927842,122.60138702392578,32.992462158203125,107.5084457397461,99275118.0,19748.0,-0.09810261679397109,0.02987625549999999,0.04272895776525245,-0.001836990401984448,0.0005469456636163619,0.0011392194985886648,99.27511800000502
1614,A,81413494214000.0,1.307227635832941,11.443404,4.279710392356312,70,1970-01-01 22:36:53.494214,-0.7616641,-0.809601,0.86392945,12.112206434468344,1.4078210379899543,121.20592498779297,32.57792282104492,106.72539520263672,99294854.0,19736.0,-0.018987089635801077,0.029361789939999983,0.06016855787674417,-0.0011554412230489917,0.0005845610324019197,0.0010153926843552226,99.29485400000704
1614,A,81413513959000.0,2.255655387832941,13.184583,5.762227892356312,70,1970-01-01 22:36:53.513959,-0.3291667,-0.5294364,1.0546118,14.222581480995006,1.225095778595735,119.80384826660156,32.07777786254883,105.94234466552734,99314599.0,19745.0,0.03517456265114142,0.049638801657499974,0.09913903571582537,0.0001598108273439475,0.0007799333405463183,0.0015727642177426426,99.31459900000482
1614,A,81413533715000.0,4.739290885832942,14.8179865,4.423411692356312,70,1970-01-01 22:36:53.533715,0.56885123,-0.3536678,1.1100056,15.544806127147494,1.2964509503489567,118.63763427734375,31.30759048461914,105.27814483642578,99334355.0,19756.0,0.06909607929127158,0.08300058152099998,0.10061374781779128,0.0010299854011071557,0.0013102118270372227,0.001973157995745065,99.3343550000136
1614,A,81413553417000.0,9.354493485832942,13.510305,0.41654379435631167,70,1970-01-01 22:36:53.553417,0.90654004,0.07669904,0.4133226,15.25621551292345,0.999266310115018,117.97708892822266,30.1385555267334,104.9115219116211,99354057.0,19702.0,0.13883786984528063,0.08598239956650001,0.04767840149960605,0.002048357332944176,0.0016646513466929624,0.0014608259629256813,99.3540570000041
1614,A,81413573176000.0,4.485418685832942,15.32573,-6.320646607643688,70,1970-01-01 22:36:53.573176,-0.57417756,0.7339672,-0.89801794,16.892241398918898,1.2941498914906409,117.859375,29.28732681274414,104.9138412475586,99373816.0,19759.0,0.1367314122999731,0.09124740778249997,-0.058329583743872634,0.002722486722954034,0.0017509418817044453,-0.00010522835498223168,99.37381600000663
1614,A,81413592937000.0,-1.394354514167059,17.565075,-1.9353655076436882,70,1970-01-01 22:36:53.592937,-2.6770096,2.372344,-1.4444987,18.097788355277377,3.8575864147326433,117.24961853027344,28.903989791870117,104.80370330810547,99393577.0,19761.0,0.030541259548144756,0.1313197988025,-0.08157352770509692,0.0016527376341953287,0.002199075284663092,-0.0013823126926715437,99.39357700000983
1614,A,81413612712000.0,-5.73652451416706,15.251485,7.421976192356312,70,1970-01-01 22:36:53.612712,-2.3734093,2.8985846,-1.4093449,18.58985575458221,4.002638809065797,116.05667114257812,29.051023483276367,104.42414855957031,99413352.0,19775.0,-0.07050656639265361,0.130678737,0.054248863145096075,-0.00039515697142508135,0.0025905105227472186,-0.0002701726208370083,99.41335200000321
1614,A,81413632464000.0,-9.50868151416706,11.383529,5.867608892356312,70,1970-01-01 22:36:53.632464,-0.2972088,1.3411679,-0.9864349,17.258330071107256,1.6911884042666152,115.14421081542969,29.60189437866211,104.05604553222656,99433104.0,19752.0,-0.15056165473582778,0.069477798264,0.13124794229662187,-0.0021832697518648823,0.0019767459422672636,0.0018319664505424063,99.43310400001064
1614,A,81413652249000.0,-2.522408514167059,5.9204884,1.4056868923563117,70,1970-01-01 22:36:53.652249,0.7350325,-1.2591426,0.25992453,7.67798891743662,1.480970500883367,114.41321563720703,29.935815811157227,103.62059020996094,99452889.0,19785.0,-0.11901755810529528,-0.02271300787050002,0.07195107855026964,-0.00266681236303081,0.00046262068896769855,0.0020101463137278744,99.45288900000742
1614,A,81413671990000.0,2.217335072832941,4.663103,0.4644441873563117,70,1970-01-01 22:36:53.671990,0.4676511,-3.0061762,0.59122175,4.663512607895328,3.0992476594248988,113.66142272949219,29.332918167114258,103.10797882080078,99472630.0,19741.0,-0.0030112274026884147,-0.08899646108630002,0.01845912882230345,-0.0012044851273565532,-0.0011026283133380949,0.0008923939518709828,99.47263000000385
1614,A,81413691757000.0,4.3584824858329405,6.1240654,0.7638216323563116,70,1970-01-01 22:36:53.691757,0.024501082,-2.6493127,0.17896444,6.479835417418614,2.6554634917816085,112.89949798583984,28.379329681396484,102.63074493408203,99492397.0,19767.0,0.06499209284107424,-0.08710162111860001,0.012139565229129711,0.0006125878835602863,-0.0017404653954721295,0.0003024221926573396,99.49239700000908
1614,A,81413711551000.0,4.3273474858329415,7.5179667,-0.7570158076436884,70,1970-01-01 22:36:53.711551,0.10226539,-1.3550164,-0.29614353,7.88465281082826,1.39076548872255,112.49942016601562,27.451557159423828,102.39115905761719,99512191.0,19794.0,0.08596365922957723,-0.05896600830630001,6.735724718083235e-05,0.0014940090782432378,-0.0014456313284182355,0.00012081191174804544,99.51219100000162
1614,A,81413731363000.0,2.677178855832941,8.959768,-2.035956307643688,70,1970-01-01 22:36:53.731363,0.8319715,-0.008522116,-0.6785734,9.301548822245072,1.0736438247672864,112.34866333007812,26.77241325378418,102.314453125,99532003.0,19812.0,0.06938683794054223,-0.030929160061800014,-0.02766718177403675,0.0015389020249672032,-0.0008905015378543987,-0.0002734038617630347,99.53200300000026
1614,A,81413751171000.0,-0.045958414167059036,10.624307,-1.2863152076436883,70,1970-01-01 22:36:53.751171,1.9185413,1.5382419,-0.7946873,11.007690439823197,2.5842826407927193,112.1310043334961,26.43440818786621,102.25077056884766,99551811.0,19808.0,0.026059607254258894,-0.00015772120000001066,-0.032903777087406175,0.0009453015932093103,-0.0003078844720168674,-0.0005998947765637308,99.5518110000121
1614,A,81413770969000.0,-2.1008855141670586,11.611055,1.1230745923563117,70,1970-01-01 22:36:53.770969,2.9230857,3.2437303,-0.45060685,12.425093073119553,4.389676844820072,111.71045684814453,26.306215286254883,102.14103698730469,99571609.0,19798.0,-0.02125160804657943,0.02608744843799999,-0.0016159188507297415,4.759438415681902e-05,0.0002566783699289618,-0.00034171047009160747,99.57160900000599
1614,A,81413790779000.0,-2.9080067141670587,11.160791,-1.2958952076436883,70,1970-01-01 22:36:53.790779,2.5566347,4.3430834,0.20240025,12.42272434532714,5.043780355031305,111.6111831665039,26.18906593322754,102.21797943115234,99591419.0,19810.0,-0.04961307752164944,0.03141713462999999,-0.0017117881944214652,-0.0007019147105533069,0.0005695828952885398,-3.2960938282222707e-05,99.59141900000395
1614,A,81413810756000.0,-3.1954095141670593,9.484278,-1.2551799076436883,70,1970-01-01 22:36:53.810756,0.406931,3.283145,0.7275756,11.073896192036724,3.387329358580497,111.422119140625,26.19017219543457,102.25049591064453,99611396.0,19977.0,-0.06096397299671534,0.010438671706499982,-0.025481413789047964,-0.0011044988691026867,0.00041807672159213,-0.0002716192980118844,99.61139600000752
1614,A,81413830628000.0,-2.223031114167059,6.2581863,0.15069659235631166,70,1970-01-01 22:36:53.830628,-0.80533993,-0.113983296,1.1536814,7.707666482249965,1.4115754911889724,110.94818878173828,26.400453567504883,102.03462982177734,99631268.0,19872.0,-0.0538376260831278,-0.03832847471520002,-0.010974146220695374,-0.0011406686884573214,-0.0002771130826944436,-0.0003622224442568098,99.63126800001191
1614,A,81413850423000.0,0.43544048583294104,4.047583,2.042762192356312,70,1970-01-01 22:36:53.850423,-1.0769824,-3.0956585,1.1366372,4.72711643283555,3.4691406375291054,109.81226348876953,26.462871551513672,101.40525817871094,99651063.0,19795.0,-0.017692678243936933,-0.09198964835325,0.021709758321693192,-0.0007079711870771233,-0.0012898236230699841,0.0001062557207696259,99.65106300001207
1614,A,81413870186000.0,3.501065685832941,3.8895118,4.279710392356312,70,1970-01-01 22:36:53.870186,-0.9150622,-4.5337653,0.5400891,5.610823505031194,4.6566149573796345,108.2543716430664,25.95401954650879,100.53845977783203,99670826.0,19763.0,0.03889858573531641,-0.11524699773380001,0.062475512845837786,0.0002095461748760663,-0.0020478089183091847,0.0008318767570419574,99.6708260000014
1614,A,81413889961000.0,4.724920685832942,5.47741,4.162354592356312,70,1970-01-01 22:36:53.889961,-0.23329292,-4.8235173,-0.32490566,7.06978249097598,4.840073183105958,106.9573745727539,25.232065200805664,99.78189849853516,99690601.0,19775.0,0.08133444024984642,-0.10117956070250002,0.08347091753634606,0.0011888040444282975,-0.0021399175965389166,0.001443045330403843,99.69060100000934
1614,A,81413909674000.0,3.965699485832941,7.220984,2.114612692356312,70,1970-01-01 22:36:53.909674,0.8223842,-4.1065946,-1.015197,7.607165080331532,4.309415265435416,106.14468383789062,24.53296661376953,99.25814056396484,99710314.0,19713.0,0.08565909772202478,-0.06802567953900002,0.06186892804176999,0.0016459718070197485,-0.0016677714504403451,0.001432542187940701,99.71031400001084
1614,A,81413929430000.0,2.782559715832941,8.799302,0.8165120923563116,70,1970-01-01 22:36:53.929430,1.8588865,-2.6482475,-1.2239889,8.822891052390858,3.45930956528347,105.6868896484375,23.988832473754883,98.93122100830078,99730070.0,19756.0,0.06665930439405557,-0.03536041489200001,0.028953650623391294,0.0015046011761026415,-0.0010212478407894182,0.0008971454320544631,99.73007000000507
1614,A,81413949200000.0,2.8089048858329413,10.533297,-0.09120034764368834,70,1970-01-01 22:36:53.949200,2.453304,-1.0322412,-0.7797736,10.559992033838403,2.773494055996948,105.44513702392578,23.405899047851562,98.7484130859375,99749840.0,19770.0,0.05527162758746724,-0.0026432588850000133,0.007169706596484281,0.0012052872626373528,-0.0003756663152856452,0.0003570793861184701,99.74984000000404
1614,A,81413968966000.0,3.5705211858329413,11.460169,-3.0969499076436886,70,1970-01-01 22:36:53.968966,2.2093585,0.4676511,-0.01917476,12.060759841091313,2.258391065399108,105.60954284667969,22.69310188293457,98.7898178100586,99769606.0,19766.0,0.06304786786627391,0.023654624477999982,-0.03150848897300514,0.0011693515735693237,0.00020765532615561868,-0.00024054018622715568,99.76960600000166
1614,A,81413988758000.0,2.990926385832941,10.648257,-5.271627807643688,70,1970-01-01 22:36:53.988758,1.2058793,1.5158713,0.36112466,12.099595303088723,1.9703861815370851,106.03286743164062,22.03719711303711,98.99050903320312,99789398.0,19792.0,0.06493208516920557,0.024823383695999984,-0.08281544507048387,0.001266489615239105,0.0004797383688899037,-0.0011313496512943672,99.78939800000808
1614,A,81414008501000.0,1.5108042858329411,10.538086,-1.7916642076436882,70,1970-01-01 22:36:54.008501,0.12357068,1.7576864,0.29827404,10.7959833011138,1.7870922182804514,105.96031951904297,21.556968688964844,99.03571319580078,99809141.0,19743.0,0.04443883432534976,0.015659584924499977,-0.06972528712890934,0.0010796550317905029,0.0003996276247372654,-0.0015058058379063101,99.80914100000518
1614,A,81414028259000.0,0.401910185832941,11.558365,3.750411192356312,70,1970-01-01 22:36:54.028259,-0.4133226,1.5478293,0.101200126,12.170114303647948,1.6052577921043292,105.16338348388672,21.292583465576172,98.82011413574219,99828899.0,19758.0,0.018895706265587252,0.02466243942899999,0.019350461461976012,0.0006256819264978668,0.00039834127858822614,-0.0004976529027636344,99.82889900000009
1614,A,81414047991000.0,0.3300595858329409,12.135565,6.250811892356312,70,1970-01-01 22:36:54.047991,-0.22370553,0.87990844,-0.1736381,13.598721066320936,0.9243555683325678,104.17677307128906,21.08734703063965,98.50922393798828,99848631.0,19732.0,0.0072216137672555915,0.040390713379999985,0.09867206695377474,0.0002576734794440275,0.0006418144056135938,0.0011644102653497969,99.84863100000075
1614,A,81414067772000.0,0.9862949858329411,11.845767,6.4687581923563116,70,1970-01-01 22:36:54.067772,0.25672874,-1.220793,-0.24607609,13.358462010393028,1.2715339699987083,103.16324615478516,20.852937698364258,98.08946990966797,99868412.0,19781.0,0.013019404891061405,0.04333356414599999,0.1258029079228502,0.00020019379504008426,0.0008280749668709028,0.002220169739017259,99.86841200001072
1614,A,81414087527000.0,2.073633885832941,11.385923,4.322820892356312,70,1970-01-01 22:36:54.087527,0.6423545,-3.742274,0.033023197,12.035051529176954,3.7971468929034535,102.31537628173828,20.48004150390625,97.60818481445312,99888167.0,19755.0,0.03022444742987975,0.03587201797499999,0.10659382240924895,0.0004271411513000963,0.0007823531374001775,0.0022954987038553095,99.88816700001189
1614,A,81414107232000.0,2.9813463358329413,11.735597,-1.5521623076436883,70,1970-01-01 22:36:54.107232,1.0226538,-4.4474792,0.3717773,11.922949520860334,4.578658142936899,102.21256256103516,19.929075241088867,97.34754943847656,99907872.0,19705.0,0.04980419263396311,0.03469577579999999,0.02729791370588112,0.0007884821762290118,0.0006952691881681872,0.001319168330074319,99.90787200001068
1614,A,81414127011000.0,3.441190185832941,12.990586,-6.143414807643688,70,1970-01-01 22:36:54.127011,1.5116103,-2.795254,0.5773733,14.605577001613314,3.2298251579822366,102.61917114257812,19.351404190063477,97.32428741455078,99927651.0,19779.0,0.06351567493101475,0.050695386778499996,-0.07610540988163451,0.0011206768302838485,0.0008444759023200757,-0.0004826817334301132,99.92765100000543
1614,A,81414146809000.0,3.4076597858329407,12.981007,-9.285681107643688,70,1970-01-01 22:36:54.146809,2.0719395,0.23435818,0.7350325,16.253365533910433,2.210911536956966,103.34217834472656,18.785064697265625,97.52938079833984,99947449.0,19798.0,0.06779676586952056,0.06307239910700001,-0.15273262046542974,0.001299861851484499,0.0011261873124805645,-0.0022652676624055888,99.94744899999932
1614,A,81414166584000.0,2.739449345832941,12.106824,-10.650842107643689,70,1970-01-01 22:36:54.166584,2.1571605,3.2714272,0.73290193,16.41797918660968,3.9865677702326616,104.2340316772461,18.26700782775879,97.92069244384766,99967224.0,19775.0,0.060779541539346414,0.05426092901249999,-0.19712237329115395,0.0012712982395051721,0.0011601332817815562,-0.003459191250768221,99.96722400000726
1614,A,81414186393000.0,0.2294686858329409,12.624148,-11.050810107643688,70,1970-01-01 22:36:54.186393,1.2431636,5.974003,0.47617322,17.184243088920855,6.1205317183900885,105.0916519165039,17.9346866607666,98.43706512451172,99987033.0,19809.0,0.029405648644634727,0.050819712173999984,-0.2149440143663138,0.0008932392161772411,0.001040771210631689,-0.004081311536553389,99.98703300001216
1614,A,81414206183000.0,-3.279235014167059,13.97015,-8.418683107643687,70,1970-01-01 22:36:54.206183,-0.17257284,7.6262283,0.046871636,17.44149624104521,7.6283246141658045,105.62493133544922,17.86490249633789,98.95330810546875,100006823.0,19790.0,-0.030177437818866098,0.06920857870999997,-0.19265063536526855,-7.636853879019413e-06,0.0011876799382971794,-0.004033149059094007,100.00682300000335
1614,A,81414225990000.0,-7.745946514167059,14.669496,-2.4790351076436883,70,1970-01-01 22:36:54.225990,-1.0045444,6.682404,-0.26418558,17.99776951435541,6.762649384040792,105.58419799804688,18.182220458984375,99.26576232910156,100026630.0,19807.0,-0.10918788526585695,0.08952413416100002,-0.10792555234509854,-0.0013802044771695548,0.0015720094219179486,-0.0029767562749896206,100.02663000000757
1614,A,81414245803000.0,-12.93595451416706,15.071858,6.327452292356312,70,1970-01-01 22:36:54.245803,-1.4444987,2.790993,-0.15659387,22.20601980729605,3.1465441456417333,104.89445495605469,18.823305130004883,99.19910430908203,100046443.0,19813.0,-0.20488525253719195,0.100465323401,0.0381243448403556,-0.003111365539645904,0.0018821305613379534,-0.0006914856621457361,100.04644299999927
1614,A,81414265598000.0,-5.829931514167059,14.209652,2.548111292356312,70,1970-01-01 22:36:54.265598,-1.5180018,-2.223207,0.08522116,16.49173709004257,2.6933699106814095,104.25700378417969,19.14240074157715,98.91352844238281,100066238.0,19795.0,-0.18573535696543694,0.09582274522499999,0.08784589057969318,-0.0038661674825522696,0.001942761159225835,0.001246790405069933,100.06623799999943
1614,A,81414285384000.0,0.04265728583294104,12.988192,-1.6886784076436883,70,1970-01-01 22:36:54.285384,-1.663943,-5.8099523,0.112918034,13.346391331618804,6.044584561235512,103.9460220336914,18.9718074798584,98.57196807861328,100086024.0,19786.0,-0.05725350394090943,0.075165470692,0.008502369528461989,-0.0024038888009464848,0.001691586420066881,0.0009531733372499792,100.08602400000382
1614,A,81414305243000.0,2.669993785832941,10.763218,-5.479994607643688,70,1970-01-01 22:36:54.305243,-2.2668827,-7.8201065,0.28549087,12.284921233788726,8.147044119418704,104.089111328125,18.558212280273438,98.292724609375,100105883.0,19859.0,0.026935268816106375,0.041221425594999986,-0.071181338705296,-0.00030104491567173195,0.0011556636866817665,-0.0006223708244413734,100.10588300001109
1614,A,81414325052000.0,4.693785385832941,7.9394903,-7.419960407643688,70,1970-01-01 22:36:54.325052,-3.0754185,-8.005463,0.53795856,11.424550807148464,8.592731591687741,104.55415344238281,17.958364486694336,98.11312103271484,100125692.0,19809.0,0.07293455080576472,-0.008887225642650003,-0.1277676044489138,0.0009891606284448222,0.00032025408342805045,-0.001970489807470871,100.12569200000144
1614,A,81414344836000.0,6.655306485832941,5.6354814,-5.379404107643688,70,1970-01-01 22:36:54.344836,-3.483415,-6.2445803,0.62317973,9.205559236931288,7.17755641992844,104.96727752685547,17.02591323852539,97.99606323242188,100145476.0,19784.0,0.11226521679451891,-0.05959957994360002,-0.12661131378522272,0.0018319961011020055,-0.0006774714808591852,-0.002516316259172078,100.14547600000515
1614,A,81414364591000.0,9.34012348583294,3.7482057,-0.7115104076436882,70,1970-01-01 22:36:54.364591,-3.1201596,-2.4980452,0.56672066,8.08510173154426,4.036929285631102,104.79898834228516,15.629498481750488,97.87205505371094,100165231.0,19755.0,0.15799485954512976,-0.10091163066975002,-0.06016300812475106,0.00266949390404488,-0.0015854494828333654,-0.0018448633646657663,100.16523100000632
1614,A,81414384360000.0,9.225162485832941,2.3902297,2.988794892356312,70,1970-01-01 22:36:54.384360,-1.8461033,2.2338595,0.13848437,7.789445599396794,2.9012761986314635,103.5694580078125,12.962827682495117,97.69551086425781,100185000.0,19769.0,0.18350856918693137,-0.13306083528870002,0.022509818489141926,0.003375590641302058,-0.0023127008397662995,-0.0003721829529531785,100.18500000001222
1614,A,81414404133000.0,3.522620785832941,2.6321266,2.7085774923563113,70,1970-01-01 22:36:54.404133,-0.36964676,4.9556103,-0.37284255,3.7015886198976258,4.983344633851354,102.48359680175781,12.27394962310791,97.701416015625,100204773.0,19773.0,0.12603095931532474,-0.14412187444005,0.056327072081461343,0.0030602625485375546,-0.002740366859733287,0.0007794209186262692,100.20477300000493
1614,A,81414423914000.0,1.129996185832941,3.558999,3.807891492356312,70,1970-01-01 22:36:54.423914,0.6146576,6.1700115,-0.38775626,5.037940536783681,6.212664548528208,101.39673614501953,12.37692928314209,97.76129150390625,100224554.0,19781.0,0.04601670815826141,-0.1326204722532,0.0644511364933002,0.0017016374551475037,-0.0027371201799695896,0.001194556871908679,100.22455400000035
1614,A,81414443686000.0,1.522779385832941,5.736072,4.526397392356312,70,1970-01-01 22:36:54.443686,1.171791,6.2616243,-0.3685815,7.0887187383276435,6.380978400227801,100.45809173583984,12.272398948669434,97.8517074584961,100244326.0,19772.0,0.02622533930148891,-0.10187452809400002,0.08239277991426901,0.0007141848811870918,-0.0023182175734324196,0.0014516989576052295,100.244326
1614,A,81414463454000.0,0.979109885832941,8.830438,5.005401292356312,70,1970-01-01 22:36:54.463454,0.6593987,4.354801,-0.8266452,10.029196035171418,4.481343624611455,99.647216796875,12.215201377868652,97.88928985595703,100264094.0,19768.0,0.024728673561145578,-0.04975101516000002,0.09421229819969956,0.0005036294631342793,-0.0014986668695225365,0.0017455645920784655,100.26409400001285
1614,A,81414483205000.0,-3.5786125141670593,9.414823,4.349165992356312,70,1970-01-01 22:36:54.483205,-0.12996227,0.47510794,-0.99069595,11.755378471964075,1.1063888157519486,98.96781158447266,12.733269691467285,97.77490997314453,100283845.0,19751.0,-0.025671388206113588,-0.013378724994500022,0.09238102922017952,-9.309778476381587e-06,-0.0006234377488957652,0.001842702404935016,100.28384500001266
1614,A,81414502918000.0,-3.909124914167059,7.95865,2.1864633923563117,70,1970-01-01 22:36:54.502918,-0.14807177,-1.8492991,-0.2876214,10.226572542108594,1.8773807498932398,98.51114654541016,13.370790481567383,97.58651733398438,100303558.0,19713.0,-0.07380288396237525,-0.021945763375500017,0.06441843103041998,-0.0009804681636287104,-0.0003481758196189054,0.0015454938799600339,100.30355799999961
1614,A,81414522655000.0,2.054473745832941,7.999366,3.036695392356312,70,1970-01-01 22:36:54.522655,-0.13848437,-1.474326,0.37390783,8.416524036258417,1.5272924213606267,97.82882690429688,13.101012229919434,97.35826110839844,100323295.0,19737.0,-0.018302625054705247,-0.03594091910400002,0.05154474246693653,-0.0009089432157350589,-0.0005712547260489461,0.0011443825776586629,100.32329500000924
1614,A,81414542405000.0,3.4723253858329413,9.654325,3.839026892356312,70,1970-01-01 22:36:54.542405,-0.350472,-0.51771855,0.386691,10.309648191173888,0.7351143103484672,97.13655853271484,12.634742736816406,97.1805191040039,100343045.0,19750.0,0.054577141425200586,-0.019219801375000012,0.06789775756153717,0.00035821084915864143,-0.0005447121147301253,0.0011794946877811778,100.34304500000144
1614,A,81414562158000.0,2.181409781832941,11.783497,3.5564144923563115,70,1970-01-01 22:36:54.562158,-0.26738137,0.67218184,0.3749731,12.19188116917593,0.8148165736977081,96.58076477050781,12.330949783325195,97.09356689453125,100362798.0,19753.0,0.055839115383452084,0.018151248982999992,0.07304107683611423,0.001090526160370658,-1.0553557699588193e-05,0.001391982397928404,100.36279800000193
1614,A,81414581912000.0,2.104769155832941,14.08032,2.756477892356312,70,1970-01-01 22:36:54.581912,0.12676647,1.5382419,0.63702816,14.272397423729846,1.6697493097662466,96.19992065429688,12.01235294342041,97.0830078125,100382552.0,19754.0,0.04233458936732592,0.061867720508999996,0.06235243808380658,0.0009696616818234343,0.0007903473616724839,0.0013372817468640579,100.38255200001004
1614,A,81414601689000.0,4.9740027858329405,16.075373,4.159959392356312,70,1970-01-01 22:36:54.601689,0.49321744,1.856756,0.47297743,16.7232089121788,1.978513061858718,95.76725006103516,11.474361419677734,97.07758331298828,100402329.0,19777.0,0.06999843634516306,0.10437997023049998,0.06839319008988078,0.0011108051247579473,0.0016439402898775453,0.0012928781441955072,100.4023290000041
1614,A,81414621499000.0,3.8794786858329413,16.887283,-0.6612151076436883,70,1970-01-01 22:36:54.621499,0.49002165,1.5201324,-0.6135923,16.998997086083882,1.7109702632184385,95.75479888916016,11.080674171447754,97.14740753173828,100422139.0,19810.0,0.08769373397685057,0.13235710767999997,0.03465506214007854,0.001561940947039545,0.0023448807567035025,0.001020692938337747,100.42213900000206
1614,A,81414641322000.0,-3.0157829141670587,20.738476,-6.639184107643688,70,1970-01-01 22:36:54.641322,-1.3102753,1.8173412,-1.6745957,22.537774283502007,2.7971094289401726,96.02964782714844,11.223323822021484,97.31011962890625,100441962.0,19823.0,0.008560520640866395,0.17866231032849997,-0.07235790682232082,0.0009540240446435016,0.0030826689615912474,-0.00037369174506804437,100.4419620000117
1614,A,81414661139000.0,-7.525604514167059,16.49929,2.7397128923563114,70,1970-01-01 22:36:54.661139,-2.9593046,1.9952403,-1.5595472,19.32551784493655,3.89495250797145,95.59818267822266,11.769350051879883,97.3582763671875,100461779.0,19817.0,-0.1044493373336486,0.17476380441099998,-0.03863791053667497,-0.0009501143402004326,0.0035019226578963353,-0.00109980205630161,100.46177900000475
1614,A,81414680956000.0,-8.12196451416706,11.029065,8.248258192356312,70,1970-01-01 22:36:54.680956,-1.7662084,0.015978966,-0.9672601,17.050873342976143,2.0137873623193188,94.74876403808594,12.495710372924805,97.2031478881836,100481596.0,19817.0,-0.15504393771724861,0.07855810551749996,0.10887431149287503,-0.002571189115841815,0.002510040144526542,0.0006959373788745085,100.48159600001236
1614,A,81414700723000.0,-3.171459514167059,6.6437845,4.780269892356312,70,1970-01-01 22:36:54.700723,0.099069595,-2.3148196,-0.26738137,9.626074447901454,2.33231587959708,93.98113250732422,13.105374336242676,96.92046356201172,100501363.0,19767.0,-0.11161855638404027,-0.019046991966750023,0.1287674573252572,-0.002635558760450089,0.000588178090778837,0.00234873242211401,100.50136300000304
1614,A,81414720535000.0,0.521661185832941,4.397256,0.1387215223563117,70,1970-01-01 22:36:54.720535,0.45486793,-4.0490704,0.3110572,4.740068738081485,4.086396030681618,93.95117950439453,13.31578540802002,96.71070861816406,100521175.0,19812.0,-0.026248902240477774,-0.08478505280700002,0.04872752895414325,-0.0013657150451344758,-0.001028560235528768,0.001758265334083741,100.52117500000168
1614,A,81414740343000.0,3.335809285832941,4.605623,-0.2109513076436883,70,1970-01-01 22:36:54.740343,0.0479369,-3.7838194,0.53795856,4.770921431294638,3.8221704057348416,94.00831604003906,12.669238090515137,96.53753662109375,100540983.0,19808.0,0.03820438755137889,-0.10495388638400001,-0.0007153637934861779,0.00011840712651916469,-0.0018791744537476644,0.00047551248375114763,100.54098300001351
1614,A,81414760155000.0,4.940472485832942,6.782696,0.1243514123563117,70,1970-01-01 22:36:54.760155,-0.10226539,-2.0879183,0.5049353,7.296681933678454,2.15053962871016,93.94599914550781,11.847151756286621,96.4220962524414,100560795.0,19812.0,0.08198484723012223,-0.08134491198600002,-0.0008578585627167526,0.0011905945597455502,-0.00184547589665322,-1.558434066054623e-05,100.56079500001215
1614,A,81414779981000.0,5.912850285832941,9.292676,-0.8815569076436882,70,1970-01-01 22:36:54.779981,0.58269966,0.07350325,0.040480047,10.067658776152163,0.5887106723423657,94.07256317138672,11.063857078552246,96.4447021484375,100580621.0,19826.0,0.10758898863552391,-0.03493963736400001,-0.007506178074783764,0.0018792454349361501,-0.0011527287377065504,-8.291269518754262e-05,100.58062100000097
1614,A,81414799765000.0,4.724920685832942,10.808723,-0.9653826076436882,70,1970-01-01 22:36:54.799765,1.8865833,1.8706044,-0.68816084,11.171827487454651,2.7444348618336263,94.26625061035156,10.514440536499023,96.55681610107422,100600405.0,19784.0,0.10522883045171892,0.004959838907999992,-0.01826992568522273,0.0021051938664110063,-0.0002965601663267522,-0.00025497721839398425,100.60040500000468
1614,A,81414819552000.0,-0.06990871416705913,12.379856,-0.8312614076436884,70,1970-01-01 22:36:54.819552,3.064766,2.7814054,-0.91825795,12.661436352031341,4.23936366647677,94.4845199584961,10.552803039550781,96.7084732055664,100620192.0,19787.0,0.0460543609416764,0.035503606336499995,-0.01777509756524566,0.0014967202540505566,0.00040032509552646064,-0.00035661143752850903,100.62019200000213
1614,A,81414839311000.0,-1.6386465141670592,13.0313015,-4.1172284076436885,70,1970-01-01 22:36:54.839311,2.9933932,3.9659796,-0.47191215,14.343557344678779,4.991202071118742,95.02867889404297,10.698958396911621,96.9775619506836,100639951.0,19759.0,-0.01687967137832692,0.057411330521249984,-0.048888605130131636,0.00028823134554111114,0.0009179531186861409,-0.00065860405077898,100.63995100000466
1614,A,81414859067000.0,-4.582125714167059,12.657679,-2.907743607643688,70,1970-01-01 22:36:54.859067,0.37710363,4.367584,-0.20240025,14.773850044432756,4.388503504158933,95.30840301513672,11.10961627960205,97.24160766601562,100659707.0,19756.0,-0.06144878807148441,0.06014694937899998,-0.0693926735670087,-0.0007737285224452363,0.0011612406888546693,-0.0011683824709703523,100.65970700001344
1614,A,81414878861000.0,-6.08140751416706,9.14658,1.7314095923563118,70,1970-01-01 22:36:54.878861,-1.3177321,1.9046929,0.61678815,12.452465032996098,2.396810495775843,95.00921630859375,11.81340217590332,97.28509521484375,100679501.0,19794.0,-0.10553698836082277,0.021815551322999987,-0.011642177749299164,-0.0016526582293505442,0.0008111828694476937,-0.000802001923477499,100.67950100000598
1614,A,81414898633000.0,-2.3140422141670594,4.5696974,3.977938092356312,70,1970-01-01 22:36:54.898633,-1.2452941,-1.3166668,1.4828482,7.38053085589517,2.3416250002851204,94.14936065673828,12.44533920288086,97.04663848876953,100699273.0,19772.0,-0.08299741601431111,-0.05816648162360002,0.056442611211069,-0.0018638511216525738,-0.000359365296951732,0.00044289708520305656,100.69927300000563
1614,A,81414918564000.0,1.043775485832941,2.0980372,3.9947031923563117,70,1970-01-01 22:36:54.918564,-0.8511463,-3.552657,1.3859091,4.314771328260089,3.9072452977917194,92.8044662475586,12.6492919921875,96.58572387695312,100719204.0,19931.0,-0.012658843081213655,-0.12887649084370004,0.07945135672280365,-0.000953262450016452,-0.0018639767421228788,0.001354251337445008,100.71920400000818
1614,A,81414938340000.0,4.001624685832941,2.1483326,3.750411192356312,70,1970-01-01 22:36:54.938340,-0.32597092,-4.419782,0.6359629,4.319379272378809,4.477184246642755,91.57980346679688,11.918310165405273,96.1118392944336,100738980.0,19776.0,0.04988891689743224,-0.1518166954176,0.07658369103603842,0.0003681309698947693,-0.0027754942257517345,0.0015428745522394305,100.73898000000918
1614,A,81414958139000.0,5.084173485832941,4.0763235,2.952869492356312,70,1970-01-01 22:36:54.958139,0.47297743,-4.357997,-0.3930826,5.560726004688741,4.401177050712817,90.86773681640625,11.018851280212402,95.7527847290039,100758779.0,19799.0,0.0899448590004064,-0.13240921693805002,0.06635912713831262,0.0013842844645006536,-0.0028136944193647576,0.001415062428516988,100.75877900001069
1614,A,81414977942000.0,4.109400485832941,6.231841,1.3865267923563116,70,1970-01-01 22:36:54.977942,1.4604776,-3.5398738,-1.2623384,6.56854155187005,4.032021772776377,90.674072265625,10.430940628051758,95.53001403808594,100778582.0,19803.0,0.09103017268044973,-0.09200310920325001,0.04296653231308205,0.001791924276187997,-0.002222018647288082,0.0010824880170579843,100.77858200001356
1614,A,81414997713000.0,2.931050925832941,8.760982,0.8620174523563117,70,1970-01-01 22:36:54.997713,2.2935145,-2.2466428,-1.5595472,8.796752428371272,3.5692856570369837,90.67973327636719,10.145886421203613,95.40069580078125,100798353.0,19771.0,0.06959838243002307,-0.04554424823350001,0.02222798413110664,0.001587893581544579,-0.0013597244019409925,0.0006444803923090274,100.79835300000559
1614,A,81415017460000.0,2.660413705832941,11.56076,0.3758284623563117,70,1970-01-01 22:36:55.017460,2.6642263,-1.0535465,-1.1089402,11.567550592797387,3.072101946949349,90.79308319091797,9.901959419250488,95.34575653076172,100818100.0,19747.0,0.05520732604075309,0.00712611963699999,0.012221871638915086,0.0012322691625862084,-0.000379321392697543,0.00034014065094530954,100.81810000000405
1614,A,81415037235000.0,2.787349725832941,12.485237,-3.276576407643688,70,1970-01-01 22:36:55.037235,2.2572954,0.023435818,-0.2428803,13.03376316405501,2.2704454630214266,91.29981994628906,9.620624542236328,95.41358184814453,100837875.0,19775.0,0.05386476093059641,0.04395979533749999,-0.028681145309028936,0.0010784502599292182,0.0005051119843103685,-0.0001627410684132507,100.83787500001199
1614,A,81415056962000.0,2.485577265832941,11.072176,-6.145810107643688,70,1970-01-01 22:36:55.056962,1.1451592,0.9139969,0.34301516,12.87875708188214,1.5048054115213951,92.07719421386719,9.368919372558594,95.57691192626953,100857602.0,19727.0,0.05200951538229643,0.039033943125499994,-0.09293770939353703,0.0010442909244122187,0.0008186087393298004,-0.0011995875733587596,100.85760200000368
1614,A,81415076735000.0,2.241285269832941,10.957214,-2.6993767076436885,70,1970-01-01 22:36:55.076735,0.00958738,1.3315805,0.38029942,11.39495342670173,1.3848560194792277,92.43580627441406,9.12399959564209,95.69943237304688,100877375.0,19773.0,0.04673212645886074,0.024018164234999997,-0.08744793944933865,0.0009762092420626002,0.0006233646594195831,-0.0017833827172850903,100.87737500001094
1614,A,81415096499000.0,1.577864855832941,12.097244,3.1468661923563115,70,1970-01-01 22:36:55.096499,-0.479369,1.4977618,0.04474111,12.418071551705706,1.5732408635120918,92.04653930664062,8.978240966796875,95.71577453613281,100897139.0,19764.0,0.037740841541830245,0.03413695395599999,0.00442209108793014,0.0008347618697828283,0.0005746888779634619,-0.0008204614335074389,100.89713900000788
1614,A,81415116256000.0,1.0916757858329411,12.722344,6.420857892356312,70,1970-01-01 22:36:55.116256,-0.20985709,0.9491506,-0.3291667,14.11201732573019,1.0262931238649697,91.38166046142578,8.91257381439209,95.66145324707031,100916896.0,19757.0,0.026371057228696412,0.05156170005799998,0.09451476237083364,0.0006333293920046476,0.0008465741536772989,0.000977347706892398,100.91689600000973
1614,A,81415136068000.0,1.019825285832941,12.676839,7.271090192356312,70,1970-01-01 22:36:55.136068,0.3334278,-1.2452941,-0.23861924,14.459600507782078,1.3110570677914168,90.67219543457031,8.855085372924805,95.48809814453125,100936708.0,19812.0,0.02091652961592223,0.05744670679799997,0.13563243772716327,0.0004684308352827923,0.0010798372783155355,0.0022798381641707575,100.93670800000837
1614,A,81415155881000.0,2.138299415832941,12.245735,3.2857771923563117,70,1970-01-01 22:36:55.155881,0.8223842,-3.3172336,0.24927188,12.57532016327263,3.426731824864229,90.342041015625,8.644380569458008,95.26752471923828,100956521.0,19813.0,0.03128596235705306,0.05272807933099998,0.10458160674665562,0.0005171439867302797,0.001091446518786938,0.0023796804315798867,100.95652100000007
1614,A,81415175659000.0,3.383709585832941,12.264895,-3.698100107643688,70,1970-01-01 22:36:55.175659,1.1728562,-3.1840754,0.535828,12.988543655454324,3.4352641040169822,90.82865905761719,8.293550491333008,95.17282104492188,100976299.0,19778.0,0.05460714701747391,0.04856122006999998,-0.004077461309276863,0.0008493969586046972,0.0010016498817764885,0.0009938854942302387,100.97629900000175
1614,A,81415195439000.0,3.141812645832941,13.103152,-7.419960407643688,70,1970-01-01 22:36:55.195439,1.4008228,-0.9736517,0.5123922,15.298869700291416,1.7812489765705326,91.61571502685547,8.008807182312012,95.22579193115234,100996079.0,19780.0,0.06453741487117556,0.05704598482999997,-0.10995761849619214,0.0011783397170787432,0.0010444552564609995,-0.0011278069392760882,100.9960790000041
1614,A,81415215192000.0,2.658018685832941,12.76785,-8.342043107643688,70,1970-01-01 22:36:55.215192,1.6426378,1.7608821,0.47191215,15.494939637347517,2.4539082683358138,92.49429321289062,7.777951717376709,95.42149353027344,101015832.0,19753.0,0.057282034147198076,0.061935551252999994,-0.15567342771873577,0.0012031497882299671,0.001175121141123749,-0.0026235050279417352,101.0158320000046
1614,A,81415234971000.0,0.804273485832941,11.972703,-7.695387107643688,70,1970-01-01 22:36:55.234971,1.6500946,3.5302863,0.44421527,14.542519710576087,3.9221245205905975,93.35560607910156,7.7246551513671875,95.70027160644531,101035611.0,19779.0,0.03424033843168974,0.05083749889349998,-0.1586021661140845,0.0009051105036189111,0.0011152690794238114,-0.0031080284852096763,101.03561099999934
1614,A,81415254617000.0,-1.8278535141670589,12.298426,-9.058153107643689,70,1970-01-01 22:36:55.254617,0.9353022,4.8799763,0.5113269,16.063038844107798,4.99503894805137,94.22334289550781,7.8902997970581055,96.05175018310547,101055257.0,19646.0,-0.01005462661832604,0.04588450016699997,-0.1645700255347679,0.00023757624714267165,0.0009501001967712909,-0.0031745204385666775,101.05525699999998
1614,A,81415274333000.0,-3.284024814167059,13.48875,-6.778095107643688,70,1970-01-01 22:36:55.274333,-0.46019423,5.8291273,0.42397526,16.26968157271414,5.862615357502371,94.7919692993164,8.161032676696777,96.42066955566406,101074973.0,19716.0,-0.050392896560717736,0.060993181007999976,-0.15611373490630295,-0.0005958916834990135,0.0010536001810231496,-0.0031613005104280762,101.07497300000978
1614,A,81415294130000.0,-5.2239910141670585,13.711488,-3.0394696076436887,70,1970-01-01 22:36:55.294130,-1.3124058,4.6189866,0.18535602,16.004881758686583,4.805393121171612,94.96928405761719,8.618510246276855,96.6828842163086,101094770.0,19797.0,-0.08421659467676526,0.07523095584299996,-0.0971791643342721,-0.0013324320490142253,0.0013484146186196228,-0.0025072197631328323,101.09477000001061
1614,A,81415313897000.0,-7.367533514167059,14.044395,3.604314892356312,70,1970-01-01 22:36:55.313897,-1.768339,1.7470337,0.00958738,17.32533106340358,2.485808014652772,94.52758026123047,9.22824764251709,96.71363830566406,101114537.0,19767.0,-0.12444833267579025,0.0806086696305,0.005582648371457212,-0.002062339809488982,0.0015402409383673368,-0.0009052941655184809,101.11453700000129
1614,A,81415333677000.0,-3.6408830141670587,13.948594,4.198279692356311,70,1970-01-01 22:36:55.333677,-1.768339,-1.5733956,-0.10333065,15.610410079358418,2.3692348461580974,93.97403717041016,9.573781967163086,96.56038665771484,101134317.0,19780.0,-0.10887323946522443,0.08300666120999996,0.07716766044280784,-0.0023075503484746352,0.0016181556220125444,0.0008184005541730813,101.13431700000365
1614,A,81415353483000.0,0.39233008583294104,12.264895,0.059685852356311686,70,1970-01-01 22:36:55.353483,-1.5563514,-4.3153863,-0.13741912,12.412914192995164,4.589517688499656,93.80359649658203,9.573325157165527,96.33319854736328,101154123.0,19806.0,-0.03217041964929277,0.06549338156699998,0.04216663278928911,-0.0013967553562110639,0.0014705959236206304,0.0011817675058774563,101.15412300000025
1614,A,81415373266000.0,2.320320915832941,10.257869,-4.426186107643688,70,1970-01-01 22:36:55.373266,-1.8290591,-6.12314,-0.020240024,11.348780257789803,6.390517217679984,94.19383239746094,9.367229461669922,96.1114501953125,101173906.0,19783.0,0.026832187382978073,0.02891052010599997,-0.04319123727517508,-5.280312446225183e-05,0.0009337961933984788,-1.013487527214106e-05,101.1739060000109
1614,A,81415393044000.0,3.5537559858329413,8.135881,-5.530290107643688,70,1970-01-01 22:36:55.393044,-2.4863272,-6.3138223,0.1917476,10.166321023181997,6.788441803797311,94.78145599365234,9.006895065307617,95.91416931152344,101193684.0,19778.0,0.05808874648057391,-0.011928606250000025,-0.09845959329297686,0.0008397831149766655,0.00016793414612198347,-0.0014007850634884546,101.19368400001258
1614,A,81415412871000.0,5.582337785832941,5.9061184,-3.1424554076436886,70,1970-01-01 22:36:55.412871,-2.8868666,-4.934305,0.36645097,7.6564597883586085,5.728494646295351,95.17940521240234,8.216194152832031,95.75202178955078,101213511.0,19827.0,0.09057066560540973,-0.05509923894810002,-0.08597726266580141,0.001473735081714399,-0.0006644805433713648,-0.0018284147715473486,101.21351100000902
1614,A,81415432634000.0,7.77617548583294,4.143384,-0.06485515764368832,70,1970-01-01 22:36:55.432634,-2.602441,-2.444782,0.34194988,6.910507719530773,3.587002635409823,95.05757141113281,6.956494331359863,95.63251495361328,101233274.0,19763.0,0.1320021488939664,-0.09437324203439999,-0.031693039350887214,0.002199353266475585,-0.0014770123208285738,-0.0011627590893779087,101.2332740000129
1614,A,81415452367000.0,7.407342785832942,3.1494508,1.6020785923563117,70,1970-01-01 22:36:55.452367,-1.6703347,0.6956177,0.056459017,6.141085021220275,1.8102733537170528,94.638916015625,5.674960136413574,95.63070678710938,101253007.0,19733.0,0.14980818302739143,-0.12142864544580002,0.015167015018592097,0.002780481639902077,-0.0021292093228233934,-0.00016305401907458977,101.25300700000662
1614,A,81415472154000.0,3.7453574858329413,3.1278956,1.8032601923563116,70,1970-01-01 22:36:55.472154,-0.5422196,3.3896716,-0.1768339,3.722542358785733,3.437316668370828,94.00070190429688,4.990475654602051,95.74288177490234,101272794.0,19787.0,0.1103392401377264,-0.1318076733916,0.033690719266554335,0.0025737685310840935,-0.0025053935204178168,0.0004833739941500962,101.27279400000407
1614,A,81415492019000.0,2.396961555832941,3.7218604,3.2187166923563115,70,1970-01-01 22:36:55.492019,0.34301516,5.031244,-0.16831179,4.653404681078183,5.045731309352375,93.09945678710938,4.84879732131958,95.91468048095703,101292659.0,19865.0,0.061008583881346376,-0.12664179853000002,0.04988078540740814,0.0017019122620694405,-0.0025670493798612922,0.0008300739701741323,101.29265900001337
1614,A,81415511830000.0,2.078423925832941,5.6450615,4.485682092356312,70,1970-01-01 22:36:55.511830,0.9267801,5.5926385,-0.32490566,6.95435774838795,5.678211904582136,92.26898956298828,4.795896530151367,96.12004852294922,101312470.0,19811.0,0.04433093088864139,-0.10136375511955,0.07631592216197089,0.0010434405635541138,-0.002258509011675617,0.001250041486828484,101.3124700000044
1614,A,81415531612000.0,0.5144760858329411,8.468789,4.816194892356312,70,1970-01-01 22:36:55.531612,0.7435546,4.5859632,-0.777643,9.697713037502004,4.710484109981096,91.62616729736328,4.982318878173828,96.29199981689453,101332252.0,19782.0,0.02564637401538724,-0.054263504704500025,0.09200486525579257,0.0006921455228057471,-0.0015393092269196788,0.0016648609083490984,101.33225200000743
1614,A,81415551455000.0,-2.522408514167059,9.721385,4.432991592356312,70,1970-01-01 22:36:55.551455,0.026631612,1.5531555,-0.8692558,11.553596909395415,1.7800581158410553,91.10182189941406,5.51190710067749,96.32249450683594,101352095.0,19843.0,-0.019921701587716948,-0.013987588659000023,0.0917658037080763,5.67973374911308e-05,-0.0006771532228059657,0.0018232806921250249,101.35209500000929
1614,A,81415571105000.0,-3.9234955141670587,9.390872,2.9265242923563113,70,1970-01-01 22:36:55.571105,-0.35579833,-1.1611383,-0.30466563,11.522089612856218,1.2520606013532154,90.74325561523438,6.182521820068359,96.23019409179688,101371745.0,19650.0,-0.06333100707838271,-0.004792074975000018,0.07230724356730153,-0.0008179578626444291,-0.00018451019520405041,0.0016120176894805873,101.37174500001129
1614,A,81415590887000.0,0.20072848583294123,9.010064,3.051065292356312,70,1970-01-01 22:36:55.590887,-0.44741106,-1.5414376,0.39947417,9.608906638210872,1.6540212041570908,90.30156707763672,6.325307846069336,96.10761260986328,101391527.0,19782.0,-0.03682188867725276,-0.011859942024000017,0.059124338582392556,-0.0009906122919189904,-0.00016470510013710934,0.0012999897790426241,101.39152699999977
1614,A,81415610647000.0,2.217335072832941,9.572893,3.4294784923563117,70,1970-01-01 22:36:55.610647,-0.45593318,-0.87032104,0.628506,10.032376016619892,1.1663419607163217,89.83583068847656,6.150545120239258,96.01609802246094,101411287.0,19760.0,0.023890467959618914,-0.01004838484000001,0.06402777259296072,-0.00012776243669022238,-0.00021645426941632027,0.0012167428584124902,101.4112870000099
1614,A,81415630429000.0,2.437676875832941,10.95482,3.841421892356312,70,1970-01-01 22:36:55.630429,-0.16724652,0.07882957,0.6199839,11.475404302008755,0.6469664101154753,89.40351104736328,5.95166540145874,95.97542572021484,101431069.0,19782.0,0.04604272318425424,0.00917600928299999,0.07191647570519256,0.0006917091936040494,-8.628666634287188e-06,0.001344624559917034,101.43106900001294
1614,A,81415650230000.0,2.909495735832941,13.6851425,3.345652692356312,70,1970-01-01 22:36:55.650230,0.1768339,0.6466155,0.74675035,14.00731187100388,1.0035028242384685,89.13056182861328,5.703967571258545,95.97933959960938,101450870.0,19801.0,0.052939682441798065,0.04989814873124998,0.07115563192594733,0.0009799753069007309,0.0005848637014200818,0.0014164854016021004,101.45087000000058
1614,A,81415670029000.0,6.676861485832941,15.507752,4.804219892356312,70,1970-01-01 22:36:55.670029,0.4857606,0.65513766,0.65513766,16.70564124319285,1.0461233520063067,88.80159759521484,5.162823677062988,95.97886657714844,101470669.0,19799.0,0.0949001433158814,0.09496485910274996,0.08067966365236263,0.0014635403550881478,0.0014340713460526825,0.0015030935085774794,101.47066900000209
1614,A,81415689805000.0,8.293499885832942,14.121036,2.5073958923563113,70,1970-01-01 22:36:55.689805,0.5571333,0.036218993,-0.14594123,15.493111027817537,0.5770686025393662,88.66422271728516,4.497479438781738,95.9664306640625,101490445.0,19776.0,0.14802693324303223,0.09916465574399998,0.07229725687923842,0.002402062933014538,0.0019195526428046634,0.001512635790216471,101.49044500000309
1614,A,81415709626000.0,2.938235985832941,14.465919,-6.095514607643688,70,1970-01-01 22:36:55.709626,-0.809601,0.056459017,-0.8202536,15.8831841064792,1.1538879356829095,89.24429321289062,4.376805782318115,96.01634216308594,101510266.0,19821.0,0.11131211835614473,0.08906521752749998,-0.03556005052785554,0.0025701796708736432,0.0018654521590572002,0.00036408408354538,101.51026600001205
1614,A,81415729404000.0,-0.6255532141670588,15.344891,-3.899281407643688,70,1970-01-01 22:36:55.729404,-2.6205506,2.3819313,-0.9896307,16.203889877449388,3.6769894054052616,89.52422332763672,4.579368591308594,96.16627502441406,101530044.0,19778.0,0.022870119929003913,0.10097470009,-0.09883853779517686,0.0013269281544018349,0.0018793047453194572,-0.0013290676399264673,101.53004399999918
1614,A,81415749169000.0,-5.93291651416706,15.512542,6.921417392356312,70,1970-01-01 22:36:55.749169,-2.444782,4.160923,-1.2996227,18.70950724450741,4.997925409788375,88.93045806884766,5.177606105804443,96.3323745727539,101549809.0,19765.0,-0.06481407709026193,0.1112515816225,0.029866258868922507,-0.0004145111566461325,0.0020973262290237813,-0.0006816185464887086,101.54980900000373
1614,A,81415768929000.0,-13.299997514167059,14.006075,6.990872492356312,70,1970-01-01 22:36:55.768929,-0.024501082,3.307646,-1.2591426,21.9450601098161,3.539288410326281,88.5320053100586,6.172817707061768,96.45660400390625,101569569.0,19760.0,-0.19002119059994108,0.09799593595999997,0.13745342406096073,-0.002517772444779206,0.0020673654737151,0.0016531184673472463,101.56956899999932
1614,A,81415788640000.0,-5.8802265141670595,7.3862405,0.050105792356311685,70,1970-01-01 22:36:55.788640,1.5243934,0.09267801,0.11717909,11.003968324679095,1.5316968990744704,88.68330383300781,7.118284225463867,96.47066497802734,101589280.0,19711.0,-0.18903069791124688,0.017664165410249972,0.06939236148498526,-0.0037357458872220133,0.0011398881290544984,0.0020385686394480706,101.58928000000014
1614,A,81415808401000.0,-0.704589014167059,5.630691,-2.110201907643688,70,1970-01-01 22:36:55.808401,0.79681784,-3.6464002,0.6679208,6.854478331281958,3.7917372382293246,89.26205444335938,7.5533223152160645,96.3595199584961,101609041.0,19761.0,-0.06506126982770526,-0.06504400831425002,-0.020354779667096926,-0.0025105556872447167,-0.0004681365378129725,0.0004845158271516457,101.60904100000334
1614,A,81415828322000.0,3.299883985832941,7.165899,0.5386897923563116,70,1970-01-01 22:36:55.828322,-0.40373522,-4.4868937,0.29507825,7.2407039294304845,4.514674780822114,89.20942687988281,7.1467814445495605,96.13324737548828,101628962.0,19921.0,0.02585043556527802,-0.06776536530500002,-0.015653046424319916,-0.0003905595146709065,-0.0013228477659345402,-0.00035865595178355745,101.6289620000025
1614,A,81415848093000.0,5.112913785832941,6.959927,0.8907576923563116,70,1970-01-01 22:36:55.848093,-0.716923,-3.3257556,-0.33129725,7.533251994378878,3.4182432281389694,89.08370971679688,6.459281921386719,95.95762634277344,101648733.0,19771.0,0.08316471237180309,-0.054114947077000014,0.014130803110126638,0.0010776692449320153,-0.0012048478280522613,-1.5048136282457655e-05,101.64873300000909
1614,A,81415867869000.0,3.271143685832941,7.3072047,-1.1258489076436884,70,1970-01-01 22:36:55.867869,0.023435818,-1.7246631,-0.8852348,7.537794009387174,1.9387245026557998,89.39463806152344,6.157157897949219,95.90526580810547,101668509.0,19776.0,0.08290156027983223,-0.05273140175040001,-0.002324581936761581,0.00164206330397937,-0.0010564966972053313,0.00011673991496223367,101.66850900001009
1614,A,81415887643000.0,0.4737607858329411,9.436378,-0.8456316076436883,70,1970-01-01 22:36:55.887643,1.1419635,0.19600865,-1.0354371,9.689512771863834,1.5539079812728558,89.6570816040039,6.323217391967773,95.93687438964844,101688283.0,19774.0,0.03702587051136058,-0.028241397845100023,-0.019492027854646293,0.0011857225082325233,-0.0008005780696007089,-0.00021570082100764965,101.68828300001041
1614,A,81415907413000.0,-1.1237175141670588,11.043435,1.8391854923563118,70,1970-01-01 22:36:55.907413,2.4756746,1.9845877,-0.65513766,11.63824205422299,3.239870123573895,89.62554931640625,6.621636867523193,96.01811218261719,101708053.0,19770.0,-0.006424822259582753,0.008696951504999986,0.009821280150384283,0.0003024913619688238,-0.00019319685207188887,-9.559534105662997e-05,101.70805300000939
1614,A,81415927191000.0,-1.8901235141670587,10.966795,2.366089792356312,70,1970-01-01 22:36:55.927191,3.2543828,2.8336034,0.25566345,11.887459437956784,4.32269353957614,89.57870483398438,6.954930782318115,96.13462829589844,101727831.0,19778.0,-0.02980387392919609,0.023834764469999985,0.041585967290523135,-0.000358265576610834,0.00032170613927677474,0.0005083662699431335,101.72783100001107
1614,A,81415946953000.0,-1.257838314167059,8.962164,-2.380839207643688,70,1970-01-01 22:36:55.946953,2.2764702,2.6887274,1.1195929,10.032039012917815,3.6966281750710617,90.12319946289062,7.244135856628418,96.3219985961914,101747593.0,19762.0,-0.031105010825769414,0.0032504438789999757,-0.0001457389724545639,-0.0006018406902638141,0.0002676289436964686,0.00040947089601083556,101.74759300000733
1614,A,81415966733000.0,-0.836315014167059,6.7779055,-3.1232951076436883,70,1970-01-01 22:36:55.966733,0.3717773,1.1302456,1.3720607,8.257715381659537,1.81610133021237,90.76805114746094,7.5603437423706055,96.4586410522461,101767373.0,19780.0,-0.020711176417224426,-0.03817471264500002,-0.054435888378192146,-0.0005124620918332091,-0.0003454010180957404,-0.0005398122944978959,101.76737300000968
1614,A,81415986498000.0,0.9575546858329411,5.0726514,0.5195296423563117,70,1970-01-01 22:36:55.986498,-0.7105314,-1.4242586,1.1856394,5.239882993377157,1.9847186744957783,90.67903137207031,7.674587726593018,96.38014221191406,101787138.0,19765.0,0.0011981510552380801,-0.07658387143575002,-0.0257317122107025,-0.0001928374731398301,-0.0011341017071780123,-0.0007922563128197514,101.78713799999969
1614,A,81416006277000.0,3.400474785832941,4.7708793,4.3994613923563115,70,1970-01-01 22:36:56.006277,-0.9150622,-3.4748926,0.47404268,6.309755133245444,3.624490843396515,89.68895721435547,7.252351760864258,96.08519744873047,101806917.0,19779.0,0.043098732460039736,-0.09648660314235004,0.04864636183779049,0.00043807402952434,-0.0017115804583401205,0.00022661442748708667,101.80691700000898
1614,A,81416026231000.0,4.360877685832941,6.3851223,5.448480292356312,70,1970-01-01 22:36:56.026231,-0.4282363,-4.4165864,-0.5113269,8.387579095529,4.46666284332792,88.78305053710938,6.78129243850708,95.7580337524414,101826871.0,19954.0,0.0774350136098105,-0.08424577203680002,0.09825291418837784,0.0012025651845388957,-0.00180316690716238,0.0014656140769130812,101.82687100001203
1614,A,81416046018000.0,3.314254085832941,7.9849954,3.170816292356312,70,1970-01-01 22:36:56.046018,0.54435015,-4.3697147,-1.200553,8.50739487317621,4.564214187678982,88.34882354736328,6.500787734985352,95.48641967773438,101846658.0,19787.0,0.0759339161829764,-0.051741840535050015,0.08527501076085434,0.0015173555069049373,-0.0013453934449795984,0.0018157335254852284,101.84665800000948
1614,A,81416065861000.0,2.447256965832941,9.002879,0.9171028923563117,70,1970-01-01 22:36:56.065861,1.4775218,-3.459979,-1.2793826,9.017916072242755,3.9738325564999593,88.36638641357422,6.3693389892578125,95.30638122558594,101866501.0,19843.0,0.057162831899103046,-0.025916204140400013,0.04055829019112629,0.001320519386096351,-0.0007704842902474774,0.0012484550953950758,101.86650100001134
1614,A,81416085644000.0,2.217335072832941,10.150093,-1.1426140076436884,70,1970-01-01 22:36:56.085644,1.892975,-2.1486385,-0.7073356,10.271094202989293,2.949631401605057,88.70994567871094,6.252557277679443,95.22590637207031,101886284.0,19783.0,0.04613981215046357,-0.004421777462000013,-0.002230643196865086,0.0010218181036162882,-0.00030008814502013984,0.0003791179202437347,101.88628400000744
