Subject-id_accel,Activity_accel,Timestamp_accel,accel_x,accel_y,accel_z,Segment_accel,DateTime,gyro_x,gyro_y,gyro_z,accel_magnitude,gyro_magnitude,Roll,Pitch,Yaw,Time_Difference,Difference_Microseconds,vx,vy,vz,dx,dy,dz,Time_diff
1638,A,1140291498039227.0,6.116311040742024,10.008661,-2.5685296,194,1970-01-14 04:44:51.498039227,5.101773,3.1966121,1.7746743,10.97442725076114,6.276614177442794,-59.67458724975586,-79.67951965332031,71.20335388183594,15038799.0,49892.0,0.22882547658850105,0.10358267709599997,-0.1528755390356,0.008771955059635258,0.009266713344458914,-0.007861183525507937,15.038799909874797
1638,A,1140291547931247.0,7.054838140742024,8.876204,-1.2134113,194,1970-01-14 04:44:51.547931247,2.6751003,3.4107304,2.7014544,10.086970846392656,5.107553166813206,-59.1167106628418,-79.47648620605469,70.7721176147461,15088691.0,49892.0,0.32856748748130105,-0.017839757710000046,-0.09434429769140001,0.013904724881685282,0.002138942867003154,-0.006167146046991742,15.088691930053756
1638,A,1140291597823267.0,6.1977140407420235,10.305542,-0.4185364,194,1970-01-14 04:44:51.597823267,1.6279453,2.3965986,2.3669615,10.98432038551813,3.7411759503926434,-58.812828063964844,-79.31331634521484,70.54576873779297,15138583.0,49892.0,0.3305981667193011,-0.010433764284000025,-0.040710567324199996,0.01644354640968822,-0.0007053112796623258,-0.003369078662679158,15.138583949999884
1638,A,1140291647715287.0,6.015754640742024,9.508273,-1.5198692,194,1970-01-14 04:44:51.647715287,1.3211492,2.1579795,1.7970449,10.278680863724377,3.1034949820640763,-58.50754928588867,-79.18041229248047,70.3022689819336,15188475.0,49892.0,0.30467718972830105,0.005333828990000008,-0.0483554660976,0.01584757904194188,-0.00012722298584412443,-0.002221841269740223,15.188475969946012
1638,A,1140291697615977.0,5.074833440742024,9.599253,-2.7600656,194,1970-01-14 04:44:51.697615977,0.4433713,2.1505225,1.2825222,10.335140825565627,2.5428700962028676,-58.18412399291992,-79.06939697265625,69.99549865722656,15238376.0,49901.0,0.27671571792706773,-0.012287472537000035,-0.10678651322739999,0.01450604374245528,-0.00017349688331942418,-0.003870869955148412,15.238376660039648
1638,A,1140291747516667.0,4.670213240742024,8.512285,-1.9675848,194,1970-01-14 04:44:51.747516667,-0.7305501,1.673284,1.1440378,9.022012313607064,2.154624162376086,-58.01033020019531,-78.97662353515625,69.78125762939453,15288277.0,49901.0,0.24314378722636776,-0.03713787113100005,-0.1179572413052,0.012970754583330793,-0.001233187037188436,-0.005607469047465636,15.288277349900454
1638,A,1140291797417357.0,5.778728740742023,7.4875665,-2.621202,194,1970-01-14 04:44:51.797417357,-2.50315,0.3512909,2.0846663,8.615084475316579,3.2764308021501845,-58.34010696411133,-78.8788070678711,69.98976135253906,15338178.0,49901.0,0.26070632690901774,-0.08982550514925003,-0.11449252505339999,0.012571312272734936,-0.003167799719880379,-0.005799737895530249,15.33817803999409
1638,A,1140291847318047.0,5.374108440742024,8.569746,-0.5789479,194,1970-01-14 04:44:51.847318047,-2.7428346,-1.9166571,1.1184715,9.083294516912154,3.5281290478453053,-59.041683197021484,-78.88079833984375,70.56499481201172,15388078.0,49900.0,0.278263287678027,-0.08839005312500003,-0.07984374000499998,0.013447291883946767,-0.004446478178942539,-0.004848689813207079,15.388078729854897
1638,A,1140291897218737.0,4.397274340742023,12.125135,1.0898107,194,1970-01-14 04:44:51.897218737,-1.2067233,-3.7350633,-1.8749216,12.333641542649824,4.349966664690242,-59.68120574951172,-79.05667877197266,71.15508270263672,15437979.0,49901.0,0.2438008860894177,0.02731782839049998,0.012746282291399999,0.01302576216758463,-0.0015237825432381435,-0.0016741151186831765,15.437979419948533
1638,A,1140291947119427.0,5.158630440742024,12.9367695,0.14410101,194,1970-01-14 04:44:51.947119427,-0.25650743,-2.4673986,-2.5098193,13.224384613885414,3.5288871945104248,-59.92086410522461,-79.22718048095703,71.38605499267578,15487880.0,49901.0,0.23842460225041773,0.13627724822725,0.030786714120354997,0.012031767046823063,0.00408177895915117,0.001086170026971493,15.48788011004217
1638,A,1140291997020117.0,4.402062740742023,8.70861,0.04833295,194,1970-01-14 04:44:51.997020117,-0.40138337,-1.469246,-1.7492204,8.931590941986684,2.3193888044061772,-60.04587173461914,-79.33966064453125,71.49285888671875,15537780.0,49900.0,0.238539294878027,0.05103221852499998,0.0048012273020000005,0.011900249233354697,0.004673371195468637,0.0008879191384877571,15.537780799902976
1638,A,1140292046920807.0,4.509801840742023,7.861062,0.04833295,194,1970-01-14 04:44:52.046920807,-0.8264239,-2.174451,-2.0975618,8.134405962651389,3.132248253046276,-60.31277847290039,-79.48469543457031,71.72234344482422,15587681.0,49901.0,0.2223554772403177,-0.07560819876400002,0.00241186253795,0.01149955501173876,-0.0006131829949531705,0.0001799701980516725,15.587681489996612
1638,A,1140292096821497.0,5.692537440742024,9.884163,-0.32755673,194,1970-01-14 04:44:52.096821497,-2.5766532,-2.802957,-2.017667,10.41717970997267,4.308908188834875,-60.83521270751953,-79.64141082763672,72.12257385253906,15637582.0,49901.0,0.2545534662426677,-0.04627756363750005,-0.006966772922890001,0.011899116594372228,-0.0030411107147986275,-0.00011364729155944548,15.637582179857418
1638,A,1140292146722187.0,4.215314940742024,14.469059,0.007631518,194,1970-01-14 04:44:52.146722187,-2.3529477,-1.9315708,-2.6120846,14.58009481395777,4.011273437688472,-61.06879425048828,-79.80253601074219,72.24040222167969,15687482.0,49900.0,0.247200916918027,0.11859288889999993,-0.0079821340394,0.012518771859859334,0.0018042673652993722,-0.00037297522870913556,15.687482869951054
1638,A,1140292196622877.0,3.4036806407420235,14.909592,0.66603696,194,1970-01-14 04:44:52.196622877,-2.1058064,-0.9632454,-2.7441773,14.956885278029397,3.590650546730691,-61.03815460205078,-79.94583129882812,72.10231018066406,15737383.0,49901.0,0.19009774925581774,0.2439822317755,0.016808365360339,0.010910820370370514,0.00904643054841406,0.00022021888457308852,15.737383560044691
1638,A,1140292246523567.0,3.1115879907420236,15.393221,1.7194858,194,1970-01-14 04:44:52.246523567,-1.5731742,-1.2199742,-2.0474944,15.50442058299559,2.855774401146323,-61.139034271240234,-80.06500244140625,72.1248779296875,15787284.0,49901.0,0.16255920998984272,0.2670405357565,0.05951998562338,0.008798967461658851,0.012750273561307167,0.001904430521219281,15.787284249905497
1638,A,1140292296424257.0,1.8785741407420238,16.506525,2.507178,194,1970-01-14 04:44:52.296424257,-2.1888971,-0.99094224,-0.24080595,16.70460305568148,2.414792857153597,-60.49199676513672,-80.20072937011719,71.38609313964844,15837184.0,49900.0,0.12450454518052698,0.30687866269999997,0.10545526180999999,0.007162240691500724,0.014319284001489675,0.0041161324234628306,15.837184939999133
1638,A,1140292346324947.0,-0.4677435592579764,13.27914,1.4992192,194,1970-01-14 04:44:52.346324947,-1.5731742,0.45568684,0.54003286,13.671818092445227,1.7245761941922442,-60.60404586791992,-80.06709289550781,71.41785430908203,15887085.0,49901.0,0.03520092842331773,0.25413743458249993,0.09996161333860001,0.003984731419152727,0.013997632135247014,0.005125253743395145,15.88708562985994
1638,A,1140292396225637.0,0.09968234074202353,10.331878,2.2150855,194,1970-01-14 04:44:52.396225637,-0.43334132,1.117216,1.6276679,10.818282295459602,2.0212023854542007,-59.98542785644531,-79.798828125,70.78592681884766,15936986.0,49901.0,-0.009183311432582282,0.10007690460899996,0.09267375941735,0.0006491525527273448,0.00883782486999752,0.0048063488679473305,15.936986319953576
1638,A,1140292446126327.0,-0.2642365592579763,14.157812,0.09861118,194,1970-01-14 04:44:52.446126327,0.77147275,1.3281384,1.9333987,14.410242160330478,2.469241249191503,-60.59535217285156,-79.6983413696289,71.42244720458984,15986887.0,49901.0,-0.004105710029082279,0.12200021034499996,0.05772788901433999,-0.00033156772997926167,0.005540935056659774,0.003752596329194881,15.986887010047212
1638,A,1140292496027017.0,0.4324762407420235,13.738827,-1.4288895,194,1970-01-14 04:44:52.496027017,2.2170365,2.3507922,2.3680267,13.955100044730546,4.006123470616698,-60.24552917480469,-79.53730010986328,71.17950439453125,16036787.0,49900.0,0.004197580053026978,0.20700114304999997,-0.033190444084,2.292157097420231e-06,0.008208583767205247,0.0006122092510119827,16.036787699908018
1638,A,1140292545927707.0,1.2656584407420237,10.889728,-1.1176432,194,1970-01-14 04:44:52.545927707,2.2905397,2.152653,2.6780186,11.007558301954445,4.129439511317614,-59.98811340332031,-79.36759948730469,71.0341567993164,16086687.999999998,49900.99999999814,0.042369309370366134,0.12546496152749528,-0.06353726413134762,0.0011618671745583264,0.008295195542260485,-0.0024134046838269405,16.086688390001655
1638,A,1140292595828397.0,1.7899886807420238,9.599253,-1.2038345,194,1970-01-14 04:44:52.595828397,2.4183717,1.519886,3.4354217,9.694895023086882,4.4677396286251705,-59.97355270385742,-79.18090057373047,71.14241027832031,16136589.0,49901.00000000186,0.07623992350459056,0.022180520440500767,-0.057922029353852156,0.0029593596648467176,0.0036838285978426227,-0.0030304701021025902,16.13658907986246
1638,A,1140292645729087.0,1.9384291607420236,10.631153,-1.3738228,194,1970-01-14 04:44:52.645729087,2.7443426,1.5294734,3.546209,10.730335593016536,4.737752996850228,-59.9532585144043,-78.9891357421875,71.26148223876953,16186489.000000002,49900.00000000186,0.09302402514503044,0.015728629700000513,-0.0643125496350024,0.0042231355188082015,0.0009458332960055422,-0.0030497527457720346,16.186489769956097
1638,A,1140292695629777.0,2.879350440742024,11.260828,-0.62683195,194,1970-01-14 04:44:52.695629777,2.798671,1.608303,3.2415435,11.287637160155388,4.57458218512273,-59.872798919677734,-78.8085708618164,71.32209014892578,16236390.0,49900.99999999814,0.12020600994682323,0.05718607194049782,-0.04991733633987313,0.005320195990559096,0.0018192582632811857,-0.002850092770016025,16.236390460049734
1638,A,1140292745535117.0,3.6023993407420236,11.263223,-0.1479916,194,1970-01-14 04:44:52.745535117,2.5717697,1.2887236,2.6183639,11.326149629773465,3.889812003151085,-59.79484176635742,-78.66302490234375,71.37372589111328,16286295.0,49905.0,0.1617358614224807,0.07296238257749996,-0.019333784631375,0.007035154545342556,0.0032475293113603393,-0.0017279885960350691,16.286295800004154
1638,A,1140292795440457.0,4.014202140742023,10.35582,0.15846622,194,1970-01-14 04:44:52.795440457,0.8918476,1.6146945,1.5349898,10.479104289233044,2.3997550200093443,-59.59644317626953,-78.55598449707031,71.21681213378906,16336201.0,49906.0,0.19005705676747142,0.050381179978999956,0.00026137319285999975,0.008778288687593875,0.0030777919164723423,-0.00047591388262526477,16.336201139958575
1638,A,1140292845345797.0,3.4898718407420235,9.690232,-0.054617725,194,1970-01-14 04:44:52.845345797,-0.99260515,1.2503741,1.2367158,9.749336664776889,2.0194470390993104,-59.534950256347656,-78.47103118896484,71.10343170166016,16386106.000000002,49905.00000000186,0.18724540602298767,0.01113011253000037,0.0025912795714875965,0.009414639702779282,0.0015348605263308878,7.118081810238605e-05,16.386106479912996
1638,A,1140292895251137.0,3.410863210742024,10.702979,-0.734571,194,1970-01-14 04:44:52.895251137,-2.1366992,0.05621267,1.1110146,10.773876917776326,2.4089410073645072,-59.76719665527344,-78.42164611816406,71.23143768310547,16436011.0,49904.99999999814,0.17219059137214926,0.019792597477499202,-0.019692231660561763,0.00896882672500182,0.0007715989214621042,-0.00042671150700260724,16.436011819867417
1638,A,1140292945156477.0,3.3605849407420236,9.378986,-0.2605191,194,1970-01-14 04:44:52.945156477,-2.6054156,-0.81836945,0.117122896,9.42969483171545,2.7334294902528744,-60.084739685058594,-78.43706512451172,71.4225845336914,16485917.0,49906.0,0.16896794572398144,0.012026472644999927,-0.024830483265299998,0.00851292897615975,0.0007939812567667207,-0.0011109753055450285,16.48591716005467
1638,A,1140292995061817.0,1.4571946407420238,9.845855,0.98686004,194,1970-01-14 04:44:52.995061817,-2.413668,-2.166994,-1.8195279,9.941857177791574,3.719185124343558,-60.1734504699707,-78.66717529296875,71.40103912353516,16535822.0,49905.0,0.12021564500698069,-0.009361154947500044,0.01812402230535,0.007215853547714332,6.650633984686582e-05,-0.00016734296710315235,16.53582250000909
1638,A,1140293044967157.0,1.4117047407420236,12.2999115,-0.18869302,194,1970-01-14 04:44:53.044967157,-1.3121845,-2.4258535,-3.3886623,12.342560756773006,4.369167603668208,-60.75536346435547,-79.06563568115234,71.91178894042969,16585726.999999998,49904.99999999814,0.07158621181647802,0.06352323859124762,0.01991626256654926,0.004785935832387175,0.001351479392120561,0.0009492002082660307,16.58572783996351
1638,A,1140293094872497.0,2.654295480742024,10.7317095,0.48886606,194,1970-01-14 04:44:53.094872497,-1.4314941,-1.4074607,-3.234199,10.74540699138779,3.8065948237211034,-60.734954833984375,-79.24114227294922,71.81813049316406,16635632.999999998,49906.0,0.10145890352669144,0.08562923881299996,0.0074902178671199995,0.004317994763158107,0.0037218017686681897,0.0006838739062613489,16.63563317991793
1638,A,1140293144777837.0,1.5601453107420236,9.580099,1.8391958,194,1970-01-14 04:44:53.144777837,-2.3582742,-1.9315708,-2.9092934,9.792813464673806,4.213835668969762,-59.97917938232422,-79.43890380859375,70.96200561523438,16685538.000000002,49905.000000003725,0.10516083384951355,0.017761401596251284,0.05809096356165434,0.0051556789968801395,0.002579854954812034,0.0016364144296016137,16.685538519872352
1638,A,1140293194683177.0,0.7916065407420236,11.593622,1.0036194,194,1970-01-14 04:44:53.194683177,-2.3305774,-1.6098609,-2.8325944,11.750273135546797,4.005849993403514,-60.053436279296875,-79.63180541992188,70.9202651977539,16735443.0,49904.99999999814,0.058682088074153496,0.039268273252498515,0.07093534627799736,0.004088290509300149,0.0014230329616633762,0.0032195289962737884,16.735443860059604
1638,A,1140293244588517.0,0.8897688407420237,14.006978,0.8575731,194,1970-01-14 04:44:53.244588517,-1.1140453,-0.68521136,-2.517276,14.11632129890316,2.836774576610052,-59.936622619628906,-79.83870697021484,70.74456024169922,16785349.0,49906.0,0.04195535989417143,0.14973297179999998,0.0464423364525,0.0025112062391536116,0.004716148067794994,0.0029289253171741005,16.785349200014025
1638,A,1140293294493857.0,2.290376830742024,13.195343,0.6013935,194,1970-01-14 04:44:53.294493857,-2.3433604,0.58777964,-1.7588078,13.209670277225875,2.9883486655388003,-59.3692626953125,-80.10780334472656,70.05827331542969,16835254.0,49905.0,0.07935258486770569,0.1896969147525,0.036404864086500004,0.0030269364916707384,0.008469624244201255,0.002067244771449397,16.835254539968446
1638,A,1140293344399197.0,-0.08706555925797632,13.403639,1.0371382,194,1970-01-14 04:44:53.344399197,-3.5492399,-0.23140873,-1.1324322,13.675356866755624,3.732700973245655,-59.67326354980469,-80.1264877319336,70.1796875,16885159.0,49905.0,0.054978124501705694,0.17464209835499994,0.04088546224425,0.0033518870255402375,0.009091169224564892,0.0019285868677680394,16.885159879922867
1638,A,1140293394304537.0,-3.1061539592579765,13.049297,0.7977181,194,1970-01-14 04:44:53.394304537,-1.7713134,-0.96218014,-1.240024,14.193373804350225,2.366643467742021,-59.82143783569336,-80.2043228149414,70.24019622802734,16935065.0,49906.0,-0.07968040664552857,0.1710013120079999,0.0457851692539,-0.0006163960463348122,0.008624840018787935,0.002162692267773337,16.935065219877288
1638,A,1140293444209877.0,-2.380710559257976,13.425187,1.2574048,194,1970-01-14 04:44:53.444209877,0.6841211,-0.5584449,-1.006731,14.312841535546218,1.339175004307585,-59.7802848815918,-80.2618179321289,70.23314666748047,16984970.0,49905.0,-0.1369109868982693,0.17153556200999998,0.051280454162249994,-0.005404496747401616,0.008547151348934141,0.0024220299682914826,16.98497056006454
1638,A,1140293494115217.0,-0.9370069592579764,12.237662,0.2614169,194,1970-01-14 04:44:53.494115217,1.0963784,0.077517964,0.30354416,12.69227871568331,1.140260359654483,-60.71519470214844,-80.14179992675781,71.20917510986328,17034875.0,49905.0,-0.0827853463807693,0.15128323967249996,0.03789839846925,-0.005481972756145211,0.008055136148982579,0.0022252353202875034,17.03487590001896
1638,A,1140293544020557.0,-0.5850594592579763,14.763545,-1.6850691,194,1970-01-14 04:44:53.544020557,2.2734957,2.3284216,1.9472471,15.160088449929672,3.792374073548581,-60.296504974365234,-79.99977111816406,70.89952087402344,17084781.0,49906.0,-0.037980123341228564,0.18468231827099998,-0.0355243933466,-0.003013460765973013,0.008383348567364153,5.9238549825485445e-05,17.08478123997338
1638,A,1140293593925897.0,1.0094789407420237,11.979089,-2.4416368,194,1970-01-14 04:44:53.593925897,3.0468776,3.4863641,2.7600439,12.306418677102835,5.390365486409784,-59.68436050415039,-79.79302978515625,70.43247985839844,17134686.0,49905.0,0.010590327111730692,0.17822657488499993,-0.10297162896975,-0.0006834438904165457,0.009055484156475089,-0.0034558219968487233,17.134686579927802
1638,A,1140293643831237.0,1.8618147407420236,7.7221985,-0.8016087,194,1970-01-14 04:44:53.643831237,2.7976058,2.8557277,3.3193078,7.783687291334874,5.196112314017256,-59.33113098144531,-79.57754516601562,70.21562194824219,17184591.0,49905.0,0.07164595558723069,0.0025273763437499495,-0.08092708333875,0.0020520008440458337,0.004510262968035381,-0.0045887326188778456,17.184591919882223
1638,A,1140293693736577.0,2.043774060742024,8.308778,-0.96680856,194,1970-01-14 04:44:53.693736577,1.9571121,1.3238773,3.4599226,8.373265717658901,4.189749786731,-59.4013671875,-79.39497375488281,70.38658142089844,17234497.0,49906.0,0.09745615736343144,-0.08905784339550002,-0.04412731588878,0.004219605024457872,-0.0021591947443423197,-0.003120482423924556,17.234497260069475
1638,A,1140293743641057.0,1.7660466407420237,9.647137,-0.6100725,194,1970-01-14 04:44:53.743641057,1.9773521,1.1523697,3.1339517,9.688460398836447,3.880661091977163,-59.46188735961914,-79.23077392578125,70.54878997802734,17284401.0,49904.0,0.09506264614342995,-0.04102320892000001,-0.03934633620912,0.004803729185103206,-0.003245782417376357,-0.002082834567146801,17.284401739947498
1638,A,1140293793545537.0,2.5633158107420235,11.892898,-1.2229881,194,1970-01-14 04:44:53.793545537,2.8444774,1.1630224,1.9525735,11.956481285397913,3.6409086853304586,-59.317970275878906,-79.11717987060547,70.54706573486328,17334306.0,49905.0,0.10802841657065568,0.048408723337499994,-0.0457394446215,0.005067629742373221,0.0001842870485026683,-0.0021231029461760455,17.33430622005835
1638,A,1140293843450017.0,2.9583591107420237,12.766781,-0.7154174,194,1970-01-14 04:44:53.843450017,2.6996014,1.2035024,0.5794476,12.798165275244424,3.011980289914508,-58.99197006225586,-79.06138610839844,70.35253143310547,17384210.0,49904.0,0.13777683264086993,0.12624911040799996,-0.048367094035999994,0.006133332578325987,0.004358062267617715,-0.0023481463525819395,17.384210699936375
1638,A,1140293893354497.0,4.260804840742024,11.931205,-0.53345805,194,1970-01-14 04:44:53.893354497,0.0992909,1.1747403,0.25667253,12.084251445161465,1.206546411425396,-58.76166534423828,-79.02012634277344,70.12300109863281,17434115.0,49905.0,0.18013618849940569,0.12720749566499998,-0.031162564666124996,0.007932724660002728,0.00632437596303653,-0.0019844638087647736,17.43411518004723
1638,A,1140293943258977.0,4.505013440742024,11.572075,-1.8981531,194,1970-01-14 04:44:53.943258977,-3.344709,0.59630173,1.5637519,11.910744592504098,3.740050006702531,-59.00529098510742,-78.93777465820312,70.2008285522461,17484019.0,49904.0,0.21872469775958994,0.09739464255999997,-0.0606735614148,0.009952376833934459,0.005604272552990198,-0.00229149501797124,17.484019659925252
1638,A,1140293993163457.0,3.245663270742024,8.715792,-0.14320318,194,1970-01-14 04:44:53.993163457,-4.367363,-0.8279568,1.6798658,8.756044032237703,4.751980759898432,-59.62405776977539,-78.88668823242188,70.60884857177734,17533924.0,49905.0,0.1933987606433057,0.017164001317499972,-0.0509369425767,0.010283510595798254,0.002858524561353317,-0.0027849611008479037,17.533924140036106
1638,A,1140294043067937.0,-0.2642365592579763,9.515455,1.0610802,194,1970-01-14 04:44:54.043067937,-2.3838406,-2.5025525,-1.4157926,9.943414372088595,3.7349610048405286,-60.43952941894531,-78.8711166381836,71.30594635009766,17583828.0,49904.0,0.07439255930494995,-0.03415312485600004,0.022902867403039998,0.0066819290153488755,-0.0004239126105326537,-0.0006995062437331643,17.58382861991413
1638,A,1140294092972417.0,1.6750670007420236,9.003097,-0.028281508,194,1970-01-14 04:44:54.092972417,-0.14465465,-1.8985475,-3.6059763,9.033854886718865,4.077802429456896,-60.746456146240234,-79.25164794921875,71.5989761352539,17633733.0,49905.0,0.03520374659113069,-0.026984831220000043,0.025770909362129994,0.002734701822871952,-0.0015255448489863922,0.0012145324147329042,17.633733100024983
1638,A,1140294142876897.0,2.505854974742024,7.679103,0.079457566,194,1970-01-14 04:44:54.142876897,-0.6059142,-0.5776197,-2.9412513,7.680001106892839,3.0580607818258647,-60.52775192260742,-79.39395141601562,71.34558868408203,17683637.0,49904.0,0.10432236513227794,-0.07280494560000003,0.0012769449992159998,0.0034814555397224916,-0.0024899545112126416,0.0006748980620243052,17.683637579903007
1638,A,1140294192781377.0,2.2544637907420237,7.116465,1.247828,194,1970-01-14 04:44:54.192781377,-2.1143286,-1.3030647,-2.0996923,7.226917810393267,3.2522408883481155,-59.555660247802734,-79.62779998779297,70.28675079345703,17733542.0,49905.0,0.11878185399574069,-0.11988258948000005,0.033119093085614996,0.005567008027791885,-0.004808035719083702,0.0008582671403117453,17.73354206001386
1638,A,1140294242685857.0,-0.08467125925797658,10.377368,0.6971616,194,1970-01-14 04:44:54.242685857,-2.257074,-2.10947,-2.5620172,10.69794352624901,4.013499577111207,-60.3128547668457,-79.71029663085938,70.92535400390625,17783446.0,49904.0,0.05414066324558994,-0.05255307898400002,0.0485313804992,0.004314762650205682,-0.004302614799513729,0.002037342616888304,17.783446539891884
1638,A,1140294292590337.0,0.3702270407420234,14.660595,0.24705169,194,1970-01-14 04:44:54.292590337,-0.34812015,-0.97815907,-3.4664266,14.805169515261744,3.6185765403327936,-60.529788970947266,-79.95730590820312,71.11402130126953,17833351.0,49905.0,0.007125330637480678,0.1356907717575,0.023560482118725,0.0015287397123673195,0.002074493278930758,0.0017988722019737734,17.833351020002738
1638,A,1140294342494817.0,1.2848120407420236,15.690102,0.41943422,194,1970-01-14 04:44:54.342494817,-1.1886138,-0.74167037,-3.4813404,15.736658952384294,3.75268020006482,-60.38309860229492,-80.26903533935547,70.90167999267578,17883255.0,49904.0,0.04129653516118994,0.26825139154399996,0.01663015642632,0.0012082223954084292,0.010079164858699027,0.0010028368129759626,17.88325549988076
1638,A,1140294392399297.0,-1.0830533592579763,15.55842,3.1368532,194,1970-01-14 04:44:54.392399297,-0.7273543,-2.3896344,-2.2594821,16.253344620123794,3.3681829231222373,-60.180397033691406,-80.25882720947266,70.67417907714844,17933159.0,49904.0,0.005034282620389948,0.2906539209439999,0.08873648370383999,0.0011560465652859812,0.013945805357200573,0.002629108404527752,17.933159979991615
1638,A,1140294442303777.0,0.7652703407420236,16.587927,0.86714995,194,1970-01-14 04:44:54.442303777,-0.61869735,-2.2735207,-1.2133924,16.692731905975393,2.650283739640583,-60.654754638671875,-80.45067596435547,71.12291717529297,17983064.0,49905.0,-0.007929480769519309,0.31306272351750003,0.09990988860037499,-7.224243181615037e-05,0.015064239570925574,0.004707198604920924,17.983064459869638
1638,A,1140294492208257.0,-0.08945955925797655,14.01416,1.0730513,194,1970-01-14 04:44:54.492208257,-0.33427173,0.561148,0.8766564,14.277335797024868,1.093229669850829,-60.83016586303711,-80.36354064941406,71.27890014648438,18032968.0,49904.0,0.01686283061958994,0.274524074824,0.048411901589999994,0.0002229049454589624,0.014661465792217106,0.003700925308830236,18.032968939980492
1638,A,1140294542112737.0,-0.14213205925797645,15.651794,-1.9556139,194,1970-01-14 04:44:54.542112737,0.957894,3.2168522,2.0825357,15.980123449580153,3.9500194852247668,-60.26366424560547,-80.19383239746094,70.75273895263672,18082873.0,49905.0,-0.005778789861019317,0.251170717185,-0.022022143276499997,0.00027657452702823347,0.013117399297604573,0.0006584904443176086,18.082873419858515
1638,A,1140294592017217.0,0.4612067407420237,15.091551,-2.3386862,194,1970-01-14 04:44:54.592017217,2.4247632,4.624067,2.675888,15.396712191430376,5.867013617259401,-59.38421630859375,-79.96190643310547,69.98301696777344,18132777.0,49904.0,0.007961551452389947,0.27804874444,-0.1071513760952,5.446426722787997e-05,0.013205084006467,-0.003223137655362658,18.13277789996937
1638,A,1140294641921697.0,1.7756234407420237,9.062951,-1.3450924,194,1970-01-14 04:44:54.641921697,1.9315457,3.566259,3.103059,9.184811204810895,5.106666936833701,-58.87742233276367,-79.73725128173828,69.5662841796875,18182682.0,49905.0,0.0558145051034807,0.11364621115499998,-0.0919194855165,0.001591372051210362,0.009773768379484238,-0.004967315674365944,18.182682380080223
1638,A,1140294691826177.0,1.7564698407420236,7.7964187,-1.4049475,194,1970-01-14 04:44:54.691826177,1.1560332,2.0503876,3.4769669,7.949682463732442,4.198785645092115,-58.83148956298828,-79.53546142578125,69.57835388183594,18232586.0,49904.0,0.08813279155958995,-0.06838420724560003,-0.0686189955848,0.003591772946336939,0.0011293775215473476,-0.004005756180439637,18.232586859958246
1638,A,1140294741730657.0,1.9982842107420236,8.265682,-1.7521068,194,1970-01-14 04:44:54.741730657,0.68199056,1.5465176,3.5494049,8.459827759702149,3.9312978715918847,-58.93427658081055,-79.34356689453125,69.71759796142578,18282491.0,49905.0,0.09369050046965569,-0.08827943228325003,-0.07877639742075,0.004536945694359752,-0.003909149465343631,-0.003677883543970986,18.2824913400691
1638,A,1140294791644337.0,1.5314149407420237,9.797971,-1.7257705,194,1970-01-14 04:44:54.791644337,1.3349977,1.5688882,2.9613788,9.98834189693472,3.607408133299304,-58.91618347167969,-79.17619323730469,69.7671127319336,18332405.0,49914.0,0.08809070172358738,-0.03834261207900003,-0.08679738377610001,0.004536713463136767,-0.0031601063611486745,-0.004132224857329786,18.332405020017177
1638,A,1140294841558017.0,0.8227311407420237,12.340613,-1.6802807,194,1970-01-14 04:44:54.841558017,2.798671,1.1044328,1.4114192,12.556405152002318,3.3233169174915416,-58.72047805786133,-79.08722686767578,69.7103271484375,18382318.0,49913.0,0.05875124668255662,0.06335417159599996,-0.08500311677280001,0.0036646610853979327,0.0006242009850860087,-0.004287539191948623,18.382318699965253
1638,A,1140294891471697.0,2.2855884207420236,12.623129,-1.067365,194,1970-01-14 04:44:54.891471697,2.597336,0.76141775,-0.052254148,12.668881158862966,2.707146428048226,-58.415245056152344,-79.06966400146484,69.53173065185547,18432232.0,49914.0,0.07757433129595738,0.13386290909399995,-0.06857299373489999,0.003402277449609774,0.004921946682780328,-0.0038327989899406686,18.43223237991333
1638,A,1140294941385377.0,6.279116840742024,12.721292,-2.7816133,194,1970-01-14 04:44:54.941385377,-1.6828965,-0.0055726646,0.81700164,13.58183828829171,1.8707387214856286,-58.61090850830078,-79.03494262695312,69.64531707763672,18482146.0,49914.0,0.21374934921085736,0.14336351489699997,-0.09605895143309999,0.007270565094408575,0.006918739863543385,-0.004108719455557776,18.482146059861407
1638,A,1140294991299057.0,4.993430640742023,9.223363,-0.06180033,194,1970-01-14 04:44:54.991299057,-5.3335576,-0.82263047,2.264696,9.576014886816935,5.8525554704851945,-59.358985900878906,-78.95913696289062,70.13573455810547,18532059.0,49913.0,0.2813233312216566,0.05851438250749998,-0.070961652257095,0.012355281349214034,0.005038165746575403,-0.004168249695994351,18.532059740042314
1638,A,1140295041212737.0,-1.1046011592579763,11.725304,2.234239,194,1970-01-14 04:44:55.041212737,-2.8451,-2.7859128,-0.631758,12.445598071266817,4.031751766883453,-59.9515380859375,-78.84410095214844,70.59744262695312,18581973.0,49914.0,0.09705351736939735,0.033658682318999975,0.05421755188719,0.009443151010286933,0.0023003631788749593,-0.0004178825129317191,18.58197341999039
1638,A,1140295091126417.0,2.0174378407420237,10.85142,0.393098,194,1970-01-14 04:44:55.091126417,0.23884054,-2.8658078,-4.4869504,10.865973819487674,5.329411134651603,-59.902435302734375,-79.31637573242188,70.5632095336914,18631887.0,49914.0,0.02278166505979737,0.07429010086799993,0.06557044950900001,0.002990726647885413,0.002694077781997957,0.002989549150844714,18.631887099938467
1638,A,1140295141040097.0,2.7021795107420234,8.550592,0.8096891,194,1970-01-14 04:44:55.141040097,-0.037062947,-1.0804244,-3.6560438,8.593497795015828,3.8125249918753483,-59.661903381347656,-79.50153350830078,70.31661987304688,18681800.0,49913.0,0.1177851304323116,-0.004941087522000056,0.030017356261150003,0.003508055231698818,0.001730708651569446,0.002385537074702749,18.681800779886544
1638,A,1140295190953777.0,2.8314663907420234,7.9520416,3.6587892,194,1970-01-14 04:44:55.190953777,-1.5571953,-1.2423446,-1.8781173,8.76307777184255,2.7378096902543354,-59.77390670776367,-79.61392211914062,70.35133361816406,18731714.0,49914.0,0.13810320076333735,-0.07730097324480004,0.11151981293310001,0.006386205081649811,-0.0020525151105570297,0.003532343131580898,18.73171446006745
1638,A,1140295240867457.0,3.7508398407420236,10.664672,1.6356887,194,1970-01-14 04:44:55.240867457,-3.1380477,-2.4247882,-1.764134,10.871225006028384,4.34040435354709,-60.26554870605469,-79.75093078613281,70.69158935546875,18781628.0,49914.0,0.16427461661914736,-0.02453987868480002,0.13213428495030002,0.007546443188414671,-0.002541642141607029,0.0060808753208760145,18.781628140015528
1638,A,1140295290781137.0,1.7109799907420236,13.391668,-0.64359134,194,1970-01-14 04:44:55.290781137,-4.0179563,1.0756707,-1.764134,13.425825492838374,4.518097946426591,-60.51570510864258,-80.02399444580078,70.72406768798828,18831541.0,49913.0,0.13630790662443162,0.11121464920999993,0.02475927776484,0.007501487741328378,0.0021630989106121517,0.0039155141979003915,18.831541819963604
1638,A,1140295340694817.0,-1.7725835592579764,16.700455,0.65646017,194,1970-01-14 04:44:55.340694817,-3.0208685,1.6764798,-2.7260678,17.231034942699335,4.400872261756428,-60.58633041381836,-80.01663970947266,70.62059020996094,18881455.0,49914.0,-0.0015374402594526349,0.261851913711,0.00032116739031000136,0.003363466529070781,0.009310622210819396,0.0006259326697370786,18.88145549991168
1638,A,1140295390608497.0,-8.198621559257976,13.463494,1.8463784,194,1970-01-14 04:44:55.390608497,-0.5228235,-1.4117217,-4.2664404,17.245765004203744,4.524247590169585,-60.361351013183594,-80.23705291748047,70.36570739746094,18931369.0,49914.0,-0.24885136614280262,0.26364447519300005,0.06246334219149,-0.006248953441381084,0.01311481337787713,0.0015669130056329827,18.931369179859757
1638,A,1140295440522177.0,2.9248402407420238,13.0876045,-0.35868135,194,1970-01-14 04:44:55.440522177,1.622619,-1.2487363,-0.796874,13.10227269001999,2.197098754716021,-60.482208251953125,-80.30255126953125,70.57064819335938,18981282.0,49913.0,-0.13161512347554338,0.1734750897152499,0.037127711428325,-0.009495111948160252,0.010908974421632741,0.002485444129662913,18.981282860040665
1638,A,1140295490435857.0,1.2369281407420236,14.356531,1.0131962,194,1970-01-14 04:44:55.490435857,-0.9254935,0.86474836,3.02636,14.440730746648978,3.280729003478486,-60.568016052246094,-80.23999786376953,70.6158218383789,19031196.0,49914.0,0.10386525349669737,0.19576608967349993,0.016334727111450002,-0.00069255350506206,0.00921515211400503,0.0013342620786371648,19.03119653998874
1638,A,1140295540349537.0,-1.8132848592579767,16.432304,-1.3235446,194,1970-01-14 04:44:55.540349537,-1.4613215,2.5851505,2.9432695,17.020214603623412,4.181064336223822,-60.41086196899414,-80.04827117919922,70.38214874267578,19081110.0,49914.0,-0.014384134624002641,0.27923975509499993,-0.007745365018799997,0.002233180283705842,0.01185472086788745,0.0002143647097462662,19.081110219936818
1638,A,1140295590263217.0,-1.4828851592579766,11.548133,-0.9979332,194,1970-01-14 04:44:55.590263217,0.7341885,2.3039205,2.454313,12.230404670249115,3.4453932614175553,-60.1525993347168,-79.88462829589844,70.15715789794922,19131023.0,49913.0,-0.08226086706709339,0.20914637599049993,-0.057935960715699994,-0.0024119209847038377,0.012188408480435278,-0.001639176005693049,19.131023899884894
1638,A,1140295640176897.0,0.09249974074202383,7.420529,-0.7010522,194,1970-01-14 04:44:55.640176897,2.5419421,1.5007112,2.8122418,7.808330433522388,4.077046441632115,-60.05345153808594,-79.72529602050781,70.18555450439453,19180937.0,49914.0,-0.034699848889902636,-0.015756302466000034,-0.0424015786278,-0.00291898858813875,0.004826436064950944,-0.0025041239693957295,19.1809375800658
1638,A,1140295690090577.0,1.5769047007420236,7.276877,0.057909753,194,1970-01-14 04:44:55.690090577,3.3036063,0.59843224,3.4663143,7.325710260864976,4.825688609686249,-60.62485885620117,-79.6673355102539,70.92108917236328,19230851.0,49914.0,0.04166332664611737,-0.12235403845800004,-0.016050906049779,0.00017378751436185108,-0.0034468197784402695,-0.0014587986600983394,19.23085126001388
1638,A,1140295740004257.0,2.3215014447420237,8.584111,-1.3570634,194,1970-01-14 04:44:55.740004257,2.355521,1.3718143,3.3608532,8.691269176473979,4.327318787318046,-60.630191802978516,-79.48726654052734,71.0462646484375,19280764.0,49913.0,0.09729057296977263,-0.09331265297800004,-0.0324223279913555,0.0034678029957639586,-0.0053822857848225365,-0.0012097222653475732,19.280764939961955
1638,A,1140295789917937.0,2.6399302707420236,9.66629,-1.9436429,194,1970-01-14 04:44:55.789917937,1.7973224,1.902316,3.1850843,9.862228925156018,4.122370188557094,-60.51572036743164,-79.3017578125,71.02122497558594,19330678.0,49914.0,0.12382245132333537,-0.033681942243000036,-0.08237572712909999,0.0055183177472830965,-0.0031694041129304985,-0.0028650150616412076,19.33067861991003
1638,A,1140295839835677.0,1.8402669407420236,10.544962,-0.20784664,194,1970-01-14 04:44:55.839835677,2.2362113,0.96381795,2.0122283,10.56289627525091,3.1588999272390352,-60.78738784790039,-79.40221405029297,71.39949035644531,19380596.0,49918.0,0.11182124220143032,0.015256238667999963,-0.05369902742886,0.0058814309466846265,-0.00045988713552842683,-0.0033962897990121228,19.380596359958872
1638,A,1140295889753417.0,1.5625395107420235,11.445182,0.15846622,194,1970-01-14 04:44:55.889753417,2.5579212,-0.8513926,0.028705947,11.4783035121343,2.696044186606994,-61.05743408203125,-79.58307647705078,71.79769134521484,19430514.0,49918.0,0.08493064622259032,0.05965560409599998,-0.0012324859027800002,0.004910730383175131,0.0018697246835466745,-0.0013710356412444027,19.430514100007713
1638,A,1140295939671157.0,5.122717440742024,12.498631,-0.9883564,194,1970-01-14 04:44:55.939671157,0.11100881,-1.6524714,-0.3228313,12.825784291426038,1.6873662115780514,-61.404441833496094,-79.63695526123047,72.15612030029297,19480431.0,49917.0,0.16685398562361461,0.10841505676049998,-0.02071281405753,0.006284166733933506,0.0041947915889869545,-0.0005477217690593971,19.480431840056553
1638,A,1140295989588897.0,4.878508840742024,10.544962,-0.63640875,194,1970-01-14 04:44:55.989588897,-2.6416345,-1.0729676,1.2111495,10.846595357925542,3.09780170662847,-61.95137023925781,-79.60913848876953,72.57786560058594,19530349.0,49918.0,0.24962060675956033,0.08594863768699995,-0.04055251337885,0.010394789351291664,0.00485112344971515,-0.0015291213074846081,19.530349579872563
1638,A,1140296039506637.0,0.7940007407420235,11.129148,0.64688337,194,1970-01-14 04:44:56.039506637,-2.6405692,-1.8175875,0.040423855,11.265797817179406,3.2059108078981158,-62.66717529296875,-79.68717193603516,73.16678619384766,19580267.0,49918.0,0.14158016664426032,0.05176771148999998,0.00026143604057999974,0.00976398010338596,0.003437262359108741,-0.0010056249992858807,19.580267319921404
1638,A,1140296089424377.0,0.2409400407420237,9.71178,1.8032827,194,1970-01-14 04:44:56.089424377,-0.07541247,-2.7891085,-2.484253,10.115138759850733,3.7358166755627544,-62.56200408935547,-79.7227554321289,73.07156372070312,19630185.0,49918.0,0.025831086965060333,0.03097232195199996,0.061153694941129995,0.004178417478835034,0.0020651084946788764,0.0015328602541724997,19.630185059970245
1638,A,1140296139342117.0,3.5186022407420237,8.538621,1.0443208,194,1970-01-14 04:44:56.139342117,-0.36090332,-2.3012176,-2.807028,8.672195699815731,3.6476375699513763,-62.790340423583984,-79.90021514892578,73.28522491455078,19680102.0,49917.0,0.0938325360324196,-0.03368396664150008,0.07107191195475,0.002986624534582603,-6.767858398288874e-05,0.003300152809710821,19.680102800019085
1638,A,1140296189259857.0,2.2760116207420236,7.4013753,1.2550106,194,1970-01-14 04:44:56.189259857,-1.906602,-1.1635151,-1.3785083,7.508392502297972,2.624725453738143,-61.83642578125,-80.10255432128906,72.2554931640625,19730020.0,49918.0,0.1446277673687803,-0.09135003234830005,0.05738901241259999,0.005951730712590548,-0.0031207235807864213,0.0032062562112846883,19.730020540067926
1638,A,1140296239177597.0,1.4691656407420237,10.142736,1.757793,194,1970-01-14 04:44:56.239177597,-2.3082068,-1.3073258,-1.0536027,10.3376886950646,2.8542946638984508,-61.2461051940918,-80.19329071044922,71.56583404541016,19779938.0,49918.0,0.09347587926938034,-0.051312926063300054,0.0751965650524,0.005942828916441851,-0.0035607247789951266,0.0033092034279489347,19.779938279883936
1638,A,1140296289095337.0,1.7660466407420237,12.752416,0.3907038,194,1970-01-14 04:44:56.289095337,-1.9683874,0.047690555,-1.3667904,12.775115946408757,2.3968603094563368,-61.11967849731445,-80.41144561767578,71.33826446533203,19829856.0,49918.0,0.08074766333356033,0.08224369876799995,0.05362433163119999,0.004348445399826795,0.0007720011559366046,0.0032152407603259717,19.829856019932777
1638,A,1140296339013077.0,1.0813050407420237,12.656648,0.5439327,194,1970-01-14 04:44:56.339013077,-1.6019363,0.2682003,-1.9899701,12.73879917166299,2.568679098110893,-60.9571418762207,-80.57009887695312,71.08901977539062,19879773.0,49917.0,0.0710656269423196,0.14498552384399999,0.023327125085250002,0.0037890320053505493,0.0056713005525616,0.0019205929324575175,19.879773759981617
1638,A,1140296388930817.0,0.9304702407420236,14.679749,1.7673697,194,1970-01-14 04:44:56.388930817,-1.3089887,-0.9589843,-2.6269982,14.860532705736787,3.0877535275953325,-60.396968841552734,-80.7341537475586,70.46814727783203,19929691.0,49918.0,0.050211899250560334,0.19309273272299998,0.05768779660159999,0.00302696577624809,0.008438095205655752,0.002022051430382089,19.929691500030458
1638,A,1140296438848557.0,0.2768533407420235,16.587927,0.5966051,194,1970-01-14 04:44:56.438848557,-1.5177805,-1.5512713,-3.166022,16.73635604354479,3.8384626606061882,-60.70010757446289,-80.9564208984375,70.6907958984375,19979609.0,49918.0,0.03013358927026033,0.2912135252839999,0.05900244703319999,0.002005343047991163,0.01208779989359671,0.002912471790880973,19.9796092400793
1638,A,1140296488766297.0,-3.798078059257976,14.483424,2.030732,194,1970-01-14 04:44:56.488766297,-1.6903534,-0.9302222,-1.8418984,15.8918228803497,2.667432787192015,-60.75643539428711,-81.05949401855469,70.6622543334961,20029526.0,49917.0,-0.08788448713708041,0.28630771393349996,0.06557439301035001,-0.0014413757844090292,0.014414063849009971,0.0031092510622269427,20.02952697989531
1638,A,1140296538684037.0,-0.7454710592579765,13.2551985,-0.95723176,194,1970-01-14 04:44:56.538684037,-0.12761042,0.16273911,0.112861834,13.66136024189448,0.23559760353198003,-60.735191345214844,-81.05055236816406,70.63428497314453,20079444.0,49918.0,-0.11340244244903967,0.20313187897749999,0.026793492490159998,-0.005023920475539971,0.012215922799465647,0.002305410054207229,20.07944471994415
1638,A,1140296588601777.0,-0.2905725592579764,14.67496,-1.9412487,194,1970-01-14 04:44:56.588601777,1.433002,2.6852853,3.1019938,15.048809124340062,4.3458736071863076,-60.4078483581543,-80.84950256347656,70.37537384033203,20129362.0,49918.0,-0.025858612674539667,0.20791242600149998,-0.07234317380114,-0.0034758166748294164,0.01025925480797086,-0.0011368744958407497,20.12936245999299
1638,A,1140296638519517.0,0.3534677407420235,10.374974,-1.8095676,194,1970-01-14 04:44:56.638519517,2.2074492,4.162807,3.4716406,10.732313337520324,5.852698740358844,-59.72354507446289,-80.59524536132812,69.79383087158203,20179280.0,49918.0,0.00156980083466033,0.13602490270599996,-0.0936166240317,-0.0006062244547115483,0.00858433178721049,-0.004142190594109853,20.17928020004183
1638,A,1140296688437257.0,2.1491189207420236,7.0590043,-0.21981764,194,1970-01-14 04:44:56.688437257,1.4809389,2.8344223,3.8455484,7.06759465047011,5.001536993466415,-59.89964294433594,-80.56694793701172,70.03645324707031,20229197.0,49917.0,0.06246080919064959,-0.054060652599450046,-0.05065041151254,0.0015981079803166977,0.0020457047362843262,-0.0036006888066309143,20.22919793985784
1638,A,1140296738354997.0,2.319107244742024,7.2122335,-0.5885247,194,1970-01-14 04:44:56.738354997,0.34643224,1.153435,3.960597,7.236900226366405,4.139656530745687,-60.17369079589844,-80.36656188964844,70.33190155029297,20279115.0,49918.0,0.11152245686431633,-0.13300057574980004,-0.02017541646406,0.004342448337465894,-0.004668861198368933,-0.0017677418404679593,20.27911567990668
1638,A,1140296788272737.0,1.4404352407420236,8.519467,-1.3067852,194,1970-01-14 04:44:56.788272737,0.25695005,0.11480222,3.2063897,8.674520615091113,3.2187167918563477,-60.59495544433594,-80.224365234375,70.7723159790039,20329033.0,49918.0,0.09383442089519634,-0.09654888722050002,-0.047305039794099994,0.005125502311999677,-0.005729325046275719,-0.001684244707747415,20.329033419955522
1638,A,1140296838197037.0,0.39416904074202375,10.528203,-1.8071734,194,1970-01-14 04:44:56.838197037,2.3746958,-0.8801548,1.2601516,10.87245834735906,2.828751432961765,-60.87710952758789,-80.19087982177734,71.17912292480469,20378957.0,49924.0,0.04579539207440479,-0.013787261460000033,-0.07773063457320001,0.0034854393913471837,-0.0027542109433626423,-0.003121140503556543,20.378957720007747
1638,A,1140296888121337.0,1.4356468407420238,14.404415,-3.7416883,194,1970-01-14 04:44:56.888121337,4.1654053,-0.3123688,-0.5678421,14.9149288681888,4.215521347474584,-60.667484283447266,-80.22331237792969,71.1777572631836,20428882.0,49925.0,0.04567677894154553,0.13311547682499994,-0.13851346018625,0.0022833740689856595,0.00297873057604881,-0.00539799321543277,20.428882020059973
1638,A,1140296938045637.0,5.656624340742024,13.750798,-3.4567783,194,1970-01-14 04:44:56.938045637,3.177905,-0.08866329,-0.42403144,14.54350760691185,3.2072954385474213,-60.47047424316406,-80.24388885498047,71.13908386230469,20478806.0,49924.0,0.1770372732322048,0.21355522690599998,-0.1796881232692,0.005559388170361157,0.008653594106533222,-0.007942947926214944,20.478806319879368
1638,A,1140296987969937.0,8.761904440742024,10.291177,-2.9970915,194,1970-01-14 04:44:56.987969937,-1.9534737,0.45249104,2.1027758,12.454665597931614,2.9055935199090754,-60.75264358520508,-80.1412582397461,71.32630920410156,20528730.0,49924.0,0.3599153154434048,0.11088057994999995,-0.1611014979476,0.01340341051852057,0.008098566610739471,-0.008506790524813762,20.528730619931594
1638,A,1140297037894237.0,5.144265140742023,9.347861,-1.6084546,194,1970-01-14 04:44:57.037894237,-5.1535277,-1.0133128,2.7994587,9.868876091047179,5.95169048240219,-61.65052032470703,-80.04295349121094,71.97620391845703,20578654.0,49924.0,0.3471258050930048,0.0009744665559999478,-0.11496364174820001,0.017649160450829857,0.0027921256708827694,-0.006891138017086561,20.57865491998382
1638,A,1140297087818537.0,-0.4988682592579763,10.884939,-1.067365,194,1970-01-14 04:44:57.087818537,-3.9668233,-1.4404838,-0.87250775,11.319772399138389,4.3095185862570995,-62.09444046020508,-80.1153793334961,72.22550964355469,20628579.0,49925.0,0.1159607196540455,0.015796269999999946,-0.066795146765,0.01155979737399824,0.00041863951127914733,-0.004537153758260754,20.628579220036045
1638,A,1140297137742837.0,1.0238441407420236,9.192238,-0.04504092,194,1970-01-14 04:44:57.137742837,-0.8296197,0.06793058,-3.1425862,9.297674173729177,3.2509585409164585,-62.32254409790039,-80.31175994873047,72.39629364013672,20678503.0,49924.0,0.013104447953604789,0.01191129227399994,-0.02776787657504,0.0032217247138221668,0.0006916361694835852,-0.0023604821886140785,20.67850351985544
1638,A,1140297187667137.0,2.4843071607420235,6.48679,5.0522146,194,1970-01-14 04:44:57.187667137,-1.648808,-0.38374153,-3.282136,8.22238009492593,3.6929990665049917,-62.053035736083984,-80.46586608886719,72.03933715820312,20728427.0,49924.0,0.08757047278764479,-0.09787530306400005,0.12498906940016001,0.002513047371543072,-0.002145833637339983,0.002426835415300646,20.728427819907665
1638,A,1140297237591437.0,-0.3169088592579765,8.5889,-0.021098902,194,1970-01-14 04:44:57.237591437,-2.0014105,-0.15151389,-2.384118,9.014257592611745,3.1165075142372403,-61.85744857788086,-80.57457733154297,71.73958587646484,20778352.0,49925.0,0.05410368010079552,-0.11293808837500001,0.125589225611325,0.0035365410414776913,-0.005262429283796039,0.006255060689224194,20.77835211995989
1638,A,1140297287515737.0,0.5473979407420235,10.813112,1.1472715,194,1970-01-14 04:44:57.287515737,-0.83281547,-0.8503274,-3.323681,11.033760990540737,3.5303673582253565,-61.54670715332031,-80.69026947021484,71.38521575927734,20828276.0,49924.0,0.005753468452004782,-0.0049421764560000124,0.028111520391276,0.0014941541421750013,-0.0029425271707114228,0.0038366780217169256,20.828276420012116
1638,A,1140297337440037.0,0.3031894407420235,12.266393,2.5119665,194,1970-01-14 04:44:57.337440037,1.2955829,-1.3520669,-3.9468608,12.698526275052403,4.368561562737174,-60.423763275146484,-80.77786254882812,70.33525848388672,20878200.0,49924.0,0.021232362216604784,0.08685540381,0.091341898956,0.000673620305149832,0.002044717981210548,0.002981796253746704,20.878200720064342
1638,A,1140297387364337.0,2.3981159007420234,15.639823,2.24621,194,1970-01-14 04:44:57.387364337,0.9046308,-2.2479544,-4.64674,15.80031564038773,5.240596196654346,-59.12246322631836,-81.15953063964844,69.09200286865234,20928125.0,49925.0,0.06743133458679551,0.20734391689999998,0.11877598088124999,0.0022132675314548798,0.007343950543223374,0.005245067575437353,20.928125019883737
1638,A,1140297437288637.0,-0.25465955925797656,17.351677,1.8248307,194,1970-01-14 04:44:57.437288637,-1.7468123,-1.9869645,-2.903967,17.6510936247182,3.928410043870235,-59.17670822143555,-81.2923812866211,69.06095886230469,20978049.0,49924.0,0.05350495719612478,0.33427862299999994,0.10162131795340001,0.0030188117154852563,0.013519981840983797,0.005501557373510534,20.978049319935963
1638,A,1140297487212937.0,-0.4390130592579764,14.354137,0.07466917,194,1970-01-14 04:44:57.487212937,-0.9414725,0.22026339,0.33763263,14.636158868781923,1.0241495115808332,-60.11872100830078,-81.24271392822266,69.9454116821289,21027973.0,49924.0,-0.01731545590339522,0.302185329068,0.04741531575494,0.0009033623312691153,0.015887413171521418,0.003720252450627584,21.027973619988188
1638,A,1140297537137237.0,0.6671080407420236,15.608699,-1.3929765,194,1970-01-14 04:44:57.537137237,0.11526987,1.9087075,3.6388872,15.768394670780353,4.110711801842828,-61.39625930786133,-81.17698669433594,71.21484375,21077897.0,49924.0,0.005693706927804786,0.25867711223199996,-0.032907587571460006,-0.0002901020979286884,0.0140002482597306,0.00036214191091602757,21.077897920040414
1638,A,1140297587061537.0,-0.34563925925797623,17.366043,-3.8997056,194,1970-01-14 04:44:57.587061537,1.127271,4.2000914,4.1598015,18.01200707043871,6.0179278988034755,-60.811553955078125,-80.89342498779297,70.67996978759766,21127822.0,49925.0,0.008024664457795531,0.333866997175,-0.13211857692125,0.0003424448457130479,0.014791382331072236,-0.004119465631149274,21.12782221985981
1638,A,1140297636985837.0,1.0453919407420236,14.232033,-3.454384,194,1970-01-14 04:44:57.636985837,2.823172,4.7763996,3.9073336,14.70956602226256,6.7861291722272075,-59.98790740966797,-80.60552978515625,69.98848724365234,21177746.0,49924.0,0.01746722643520479,0.29949597311200005,-0.18357278459520002,0.0006363285804710741,0.015810006464304097,-0.007880287766173626,21.177746519912034
1638,A,1140297686910137.0,1.1866497407420236,10.197803,-0.38501757,194,1970-01-14 04:44:57.686910137,1.1251405,2.3103123,3.8870938,10.27925143615107,4.659719120104771,-60.71653366088867,-80.49042510986328,70.76227569580078,21227670.0,49924.0,0.05571622445320479,0.12056236623199997,-0.09583914199034001,0.00182680530107648,0.01048549626670493,-0.006974680511428251,21.22767081996426
1638,A,1140297736834437.0,-1.5164039592579766,12.790723,-2.2357354,194,1970-01-14 04:44:57.736834437,-1.0501294,-0.21010344,6.063429,13.568027879540221,6.157279143443571,-61.68310546875,-80.22978973388672,71.68942260742188,21277595.0,49925.0,-0.008231489679704477,0.08458608027499996,-0.06542054601362499,0.0011853376917835014,0.005121018095930985,-0.004025444961798976,21.277595120016485
1638,A,1140297786758737.0,-7.322343559257975,14.533702,-1.0721534,194,1970-01-14 04:44:57.786758737,1.098509,1.1640877,7.7955484,17.529371965224524,7.958165432630492,-62.37676239013672,-79.85820007324219,72.4494400024414,21327519.0,49924.0,-0.2206328155571952,0.19281709685,-0.08257152022559999,-0.005712910787323489,0.006924538107394249,-0.003694177957463534,21.32751942006871
1638,A,1140297836683037.0,-8.038209559257975,14.370896,0.3883096,194,1970-01-14 04:44:57.836683037,4.614947,1.2738099,5.6788683,17.77735329439521,7.427642468703775,-62.558197021484375,-79.57695770263672,72.86835479736328,21377443.0,49924.0,-0.38343012694439516,0.232261375276,-0.0170701089356,-0.015078619170724698,0.010610808821209213,-0.0024872543471218746,21.377443719888106
1638,A,1140297886610207.0,-2.754206159257976,11.303924,2.4018333,194,1970-01-14 04:44:57.886610207,5.5662284,2.659719,4.9555535,12.661490186859888,7.912933353143435,-62.263187408447266,-79.29574584960938,72.85136413574219,21427370.0,49927.0,-0.26941646978917294,0.15164876906999997,0.06965173228414999,-0.01629733601755843,0.00958374088838137,0.0013126213544615275,21.427370890043676
1638,A,1140297936537377.0,-1.2817721592579763,6.5274916,4.345925,194,1970-01-14 04:44:57.936537377,2.9584606,3.199808,4.395225,8.671425651272985,6.1894477265133565,-61.914180755615234,-79.02668762207031,72.6466293334961,21477298.0,49928.0,-0.10075416274343224,-0.04415094096160004,0.1684510382012,-0.009240939670543956,0.0026835757808980954,0.0059439975623962775,21.477298059966415
1638,A,1140297986464547.0,0.7293573407420235,1.3823522,4.9444757,194,1970-01-14 04:44:57.986464547,2.589879,2.801399,3.622908,5.405077386197698,5.261251939254192,-61.592491149902344,-78.80082702636719,72.4507827758789,21527225.0,49927.0,-0.013790207322022987,-0.2918272142987,0.23192091787445,-0.0028594283821289914,-0.0083871906788405,0.009994685325494489,21.527225229889154
1638,A,1140298036391717.0,1.7061915907420238,0.8939351,5.068974,194,1970-01-14 04:44:58.036391717,2.3097146,0.5888449,2.3595045,5.196367278172813,3.353920293511672,-61.628684997558594,-78.68305206298828,72.60543823242188,21577152.0,49927.0,0.06079982575110201,-0.43246050198645003,0.24997075158594997,0.0011735246096543142,-0.01808075640548434,0.012029702690574694,21.577152400044724
1638,A,1140298086318887.0,3.202567680742024,0.31693244,6.2900167,194,1970-01-14 04:44:58.086318887,2.0934658,-0.61277336,0.9288544,6.3465079825798485,2.3708354525134574,-61.76851272583008,-78.65666198730469,72.85479736328125,21627079.0,49927.0,0.12253981207369202,-0.45905710816520995,0.28356016433944997,0.0045767990488392455,-0.022255399861020965,0.01331879901970372,21.627079569967464
1638,A,1140298136246057.0,5.591980940742024,1.1405379,5.533449,194,1970-01-14 04:44:58.136246057,1.477743,-1.1720372,-0.058645736,6.479612642203981,1.8870174600633194,-61.945701599121094,-78.68692779541016,73.11087036132812,21677006.0,49927.0,0.219542714512417,-0.45290103916741004,0.29515508600195,0.008539577152432334,-0.022765667210937857,0.014446758151897537,21.677006739890203
1638,A,1140298186173227.0,5.177784240742024,-1.0286089,4.3076177,194,1970-01-14 04:44:58.186173227,0.4529587,-1.1241003,-0.2514586,5.217517255509994,1.2377416919049549,-62.14215087890625,-78.72440338134766,73.33428955078125,21726933.0,49927.0,0.268851033107977,-0.4864904604085,0.24566746856544996,0.012192017318721705,-0.02345049969966323,0.013500823840943288,21.726933910045773
1638,A,1140298236100397.0,3.6526776407420236,-1.5218145,5.3251534,194,1970-01-14 04:44:58.236100397,1.1815996,-1.1251656,0.06492494,5.673996788440759,1.6329085981700027,-62.340579986572266,-78.74771118164062,73.59685516357422,21776861.0,49928.0,0.22044365040936778,-0.5529631697576001,0.2404724977404,0.012214752479326994,-0.025948920423466523,0.012135998118859239,21.776861079968512
1638,A,1140298286027567.0,4.923998540742024,-1.7851766,7.3985324,194,1970-01-14 04:44:58.286027567,1.0537678,-0.7448662,-0.024557274,8.012385983083949,1.2906801663950644,-62.451072692871094,-78.76606750488281,73.76322937011719,21826788.0,49927.0,0.21410385585647698,-0.57183867232485,0.31762773046829995,0.010847826672667416,-0.028078990784825245,0.013932135046887882,21.82678824989125
1638,A,1140298335954737.0,8.046037440742024,0.9753379,12.0361,194,1970-01-14 04:44:58.335954737,1.3509766,-1.0836203,-0.80752665,13.322103297831967,1.910882000223947,-62.5319709777832,-78.8268814086914,73.91455841064453,21876715.0,49927.0,0.323777493223777,-0.50950100838745,0.4851564459173999,0.01342740105776492,-0.026994023119461506,0.02004030278720442,21.87671542004682
1638,A,1140298385881907.0,5.467482440742024,-2.2089503,13.479804,194,1970-01-14 04:44:58.385881907,2.448199,-0.46363637,-2.2094147,13.995556460827489,3.330187734011983,-62.25359344482422,-78.93549346923828,73.75560760498047,21926642.0,49927.0,0.337344753561427,-0.5200798831474,0.6369662695039999,0.01650392520762244,-0.02570194258583023,0.028012110406422118,21.92664258996956
1638,A,1140298435809077.0,7.018925140742024,0.3552397,11.576414,194,1970-01-14 04:44:58.435809077,-0.38220862,1.1001718,-0.3207008,12.461762113635318,1.2080192141841886,-61.985904693603516,-78.92400360107422,73.46337127685547,21976569.0,49927.0,0.31170443566037703,-0.5355597045631,0.6254908980430001,0.016202539435138504,-0.026352458847811067,0.03151534950205953,21.9765697598923
1638,A,1140298485736247.0,4.904844940742024,-3.937564,11.365725,194,1970-01-14 04:44:58.485736247,0.16001098,0.14889067,0.919267,12.282578245042906,0.9448935191981207,-62.05434036254883,-78.87992095947266,73.54126739501953,22026496.0,49927.0,0.297659034429127,-0.57871195266305,0.5727160869264999,0.015211844985579336,-0.027816120515164994,0.029911440069286116,22.02649693004787
1638,A,1140298535663417.0,5.869708240742024,-3.5113962,10.142287,194,1970-01-14 04:44:58.535663417,-0.016822923,-0.13873072,0.059598614,11.273897338628815,0.15192504138786117,-62.09341812133789,-78.88048553466797,73.58023071289062,22076424.0,49928.0,0.26897594562256777,-0.6752502424328,0.536926011568,0.014145475642010508,-0.0313039122383728,0.027701105346816697,22.07642409997061
1638,A,1140298585590587.0,5.043708740742024,-2.347814,10.956316,194,1970-01-14 04:44:58.585590587,-0.63574153,-1.2817595,1.2718695,11.50826980372786,1.9143476000552357,-62.5637092590332,-78.85395812988281,74.02714538574219,22126351.0,49927.0,0.272437084817277,-0.6355509938277,0.5266949759905,0.013515564185385066,-0.03272218666138899,0.026551702522916616,22.126351269893348
1638,A,1140298635517757.0,3.4324110407420236,-1.837849,9.036166,194,1970-01-14 04:44:58.635517757,-0.04025874,-0.6969293,0.27691257,9.276650707023983,0.7510071815694458,-62.75511932373047,-78.85762786865234,74.22017669677734,22176278.0,49927.0,0.21159361616507702,-0.5937733983005,0.49908232440699996,0.012083100403972993,-0.03068823946289232,0.02560699163847299,22.176278440048918
1638,A,1140298685444927.0,4.703732240742024,-0.8586206,7.479935,194,1970-01-14 04:44:58.685444927,-0.62721944,0.593106,0.4612033,7.8679726222608455,0.9787172406169228,-62.70641326904297,-78.82355499267578,74.1385726928711,22226205.0,49927.0,0.203106612807327,-0.5565979188596001,0.4122996873135,0.010352369165952608,-0.028717294375926163,0.0227512848495847,22.226205609971657
1638,A,1140298735372097.0,4.093210640742024,-1.4811131,5.078551,194,1970-01-14 04:44:58.735372097,-0.7209627,0.81787676,0.7775868,5.548615807194354,1.3391604985488585,-62.649147033691406,-78.77027130126953,74.04344940185547,22276132.0,49927.0,0.21960248362192702,-0.54769254221995,0.313503765261,0.010552298528711682,-0.02756695492515935,0.01811859448834353,22.276132779894397
1638,A,1140298785299267.0,5.503395440742024,-1.8186954,5.114464,194,1970-01-14 04:44:58.785299267,-0.32788014,0.6634134,0.9171365,6.243127595543612,1.1784575024744124,-62.62339782714844,-78.71422576904297,74.00047302246094,22326059.0,49927.0,0.239564875915127,-0.5716593694897499,0.2544533299525,0.011462424379803247,-0.027942941447965094,0.014178196946362208,22.326059950049967
1638,A,1140298835226437.0,6.532902440742024,-2.1395185,7.953987,194,1970-01-14 04:44:58.835226437,-0.41097075,0.246895,0.5336413,9.206771610366754,0.717375170636852,-62.65045928955078,-78.68489837646484,74.00711822509766,22375987.0,49928.0,0.3004741403133678,-0.5881072517996,0.32624081076399997,0.013481534001128144,-0.028952413933867334,0.014496448528846705,22.375987119972706
1638,A,1140298885158847.0,6.015754640742024,-2.2783823,10.637887,194,1970-01-14 04:44:58.885158847,-0.26183373,0.17871808,0.43883276,11.458171241536684,0.5413605504040878,-62.674217224121094,-78.66130065917969,74.01799011230469,22425919.0,49932.0,0.31328977269633074,-0.5996309113728,0.4641647262839999,0.015323229852200134,-0.029653070981762137,0.019733264637940364,22.42591952998191
1638,A,1140298935091257.0,5.273552140742024,-0.9807249,12.809428,194,1970-01-14 04:44:58.935091257,0.023657126,-0.5552491,0.31313154,13.160154043304178,0.6378970010935633,-62.83187484741211,-78.66011810302734,74.18000030517578,22475851.0,49932.0,0.2818488331065307,-0.5707004703552001,0.58538566629,0.014858230432474237,-0.02921849327622125,0.02620307510100248,22.475851939991117
1638,A,1140298985023667.0,5.065256540742023,0.32890347,12.716054,194,1970-01-14 04:44:58.985023667,0.28571218,-0.05990115,-0.13641004,12.992572948740232,0.32222243339729856,-62.815345764160156,-78.66755676269531,74.1777114868164,22525784.0,49933.0,0.25812386694627143,-0.505617099732095,0.637281946353,0.013481228415868282,-0.026871882613584454,0.030525730951051454,22.525784350000322
1638,A,1140299034956077.0,6.4610764407420245,1.4948797,11.092786,194,1970-01-14 04:44:59.034956077,0.34536698,0.03916844,-0.37929034,11.900420263596244,0.5144644590092396,-62.74604797363281,-78.68348693847656,74.12464141845703,22575716.0,49932.0,0.2877664292157307,-0.44380102937778004,0.5944114994399999,0.013628697133980544,-0.023703173011357142,0.030750458567668032,22.575716760009527
1638,A,1140299084888487.0,5.187360940742024,1.1692683,10.192566,194,1970-01-14 04:44:59.084888487,-0.22774528,-0.27614984,-1.203805,10.626259673363583,1.2558953478372727,-62.68067169189453,-78.74335479736328,74.04637145996094,22625649.0,49933.0,0.29082071188482145,-0.422828948958,0.5314207407079999,0.014445295858286933,-0.02163671735412025,0.02810809062365504,22.625649170018733
1638,A,1140299134820897.0,3.552121140742024,1.2913725,10.060884,194,1970-01-14 04:44:59.134820897,-0.65065527,-0.42422158,-1.260264,10.206476744528796,1.4803991282800963,-62.66237258911133,-78.80904388427734,73.99454498291016,22675581.0,49932.0,0.21818990964633075,-0.4279012417872,0.5056476327,0.012707959177146745,-0.021239329942144662,0.025891449010504126,22.675581580027938
1638,A,1140299184753307.0,3.3797386407420236,1.4900913,7.4344454,194,1970-01-14 04:44:59.184753307,-1.3217719,-0.26656246,-1.4754474,7.642883558706262,1.9987700044971712,-62.616554260253906,-78.8807144165039,73.88048553466797,22725513.0,49932.0,0.17306081130453072,-0.4198915747692001,0.43678839380039997,0.009767965499259207,-0.021165995458147086,0.023528857837608982,22.725513990037143
1638,A,1140299234685717.0,2.1730609407420234,-2.1897967,5.8039937,194,1970-01-14 04:44:59.234685717,-1.0533252,0.61015016,-1.240024,6.208237903872791,1.7376526451736738,-62.385311126708984,-78.92156982421875,73.5911636352539,22775446.0,49933.0,0.13863397075112147,-0.5068125948691,0.33051748979015,0.007781927776192439,-0.02313655965127462,0.019156942342663463,22.77544640004635
1638,A,1140299284618127.0,3.1570778407420237,-3.3581672,5.3179708,194,1970-01-14 04:44:59.284618127,-0.8924703,-0.15257916,-1.018449,6.332639373385164,1.3627259453204066,-62.34366989135742,-78.97029876708984,73.5032730102539,22825378.0,49932.0,0.13307224481853072,-0.6278440667274,0.277670965707,0.006783417377911936,-0.028327838213418215,0.015184032979941845,22.825378810055554
1638,A,1140299334550537.0,3.8633673407420237,-2.1538837,8.574085,194,1970-01-14 04:44:59.334550537,-1.1726348,-0.25058347,-0.79580873,8.957638804705129,1.439158081779932,-62.364410400390625,-79.01130676269531,73.46466827392578,22875311.0,49933.0,0.17527594462352147,-0.62696001879485,0.3468360111307,0.0076983750717049965,-0.03132806620119125,0.015591753437218438,22.87531122006476
1638,A,1140299384482947.0,4.2895352407420235,-1.6056116,11.514165,194,1970-01-14 04:44:59.384482947,-1.6871575,0.56540906,-0.99927425,11.77503813490437,2.0407686938135337,-62.19984436035156,-79.0423583984375,73.21111297607422,22925243.0,49932.0,0.20354536584933072,-0.5831931596597999,0.5015232495,0.009457652837265226,-0.030212684253298785,0.021180137300906055,22.925243630073965
1638,A,1140299434415357.0,0.9089224407420236,-2.3071127,13.331364,194,1970-01-14 04:44:59.434415357,-0.9617125,0.7848535,-0.4037914,13.613576684558739,1.3053480163666928,-62.02007293701172,-79.0418930053711,72.9790267944336,22975176.0,49933.0,0.12978729370477146,-0.58703043123595,0.6203058997784999,0.008322149844757492,-0.02921638728209874,0.02800814745546167,22.97517604008317
1638,A,1140299484347767.0,-1.3320503592579764,-5.824195,10.159047,194,1970-01-14 04:44:59.484347767,-2.4349732,0.3097456,-0.21737014,12.296365168125622,2.4642010062495348,-62.04481887817383,-79.04422760009766,72.88021850585938,23025108.0,49932.0,-0.01056381161366928,-0.6923398280381999,0.586461601026,0.002976533453886457,-0.03194075789303842,0.03012815742508514,23.025108449859545
1638,A,1140299534280177.0,-2.4094409592579766,-6.1833253,9.34023,194,1970-01-14 04:44:59.534280177,-2.1430907,-0.99200755,0.38130847,12.19798220238041,2.392135630974388,-62.42464065551758,-79.05044555664062,73.15794372558594,23075040.0,49932.0,-0.09341007225806928,-0.7891133518098,0.48681894958199995,-0.002595811984741825,-0.03698596008808516,0.026795522226479324,23.07504085986875
1638,A,1140299584212587.0,-7.832308559257976,-2.8386254,8.760833,194,1970-01-14 04:44:59.584212587,-2.776923,-2.17019,-0.06929838,13.780667194092713,3.525028829598366,-63.05506134033203,-79.10318756103516,73.65857696533203,23124973.0,49933.0,-0.25570063935402854,-0.7145899321515501,0.45192018938949996,-0.00871607258146344,-0.03754220803902105,0.02343703071313195,23.124973269877955
1638,A,1140299634144997.0,-6.019896559257976,-1.9192519,8.763227,194,1970-01-14 04:44:59.634144997,-3.7377915,-1.340349,1.8598955,12.316606737868334,4.384841161341366,-63.76817321777344,-79.05005645751953,74.19451904296875,23174905.0,49932.0,-0.34583415298886927,-0.6081187646718,0.43750568195999995,-0.015017917625632784,-0.03302274532489176,0.022205406304111615,23.17490567988716
1638,A,1140299684077407.0,-7.609647559257976,1.9425954,5.8877907,194,1970-01-14 04:44:59.684077407,-3.9252782,-1.292412,1.9941188,11.790709813715697,4.588534353543915,-64.48829650878906,-78.98851013183594,74.7281494140625,23224838.0,49933.0,-0.3402820132349285,-0.48876059450724996,0.36578463340705,-0.017129919264026447,-0.02738523852094375,0.02005534765861145,23.224838089896366
1638,A,1140299734009817.0,-6.194673559257977,-1.3063363,4.7696986,194,1970-01-14 04:44:59.734009817,0.18664259,-0.06416221,1.0449682,9.93268291696577,1.0634428920281673,-64.6089859008789,-78.94271850585938,74.8606185913086,23274770.0,49932.0,-0.3446386810448693,-0.4734487553094,0.26607487786379996,-0.017099730053389432,-0.02402251862752248,0.01577500455838804,23.27477049990557
1638,A,1140299783942227.0,-0.11819005925797654,-2.098817,5.092916,194,1970-01-14 04:44:59.783942227,2.7954752,-0.23993084,1.5733393,6.06481731159441,3.216775552431757,-64.69634246826172,-78.87677001953125,75.0920639038086,23324702.0,49932.0,-0.15760695309986927,-0.5743466572878001,0.2462300361036,-0.012539064502057542,-0.0261592602709017,0.012790204482110107,23.324702909914777
1638,A,1140299833874637.0,1.6966147907420237,-2.297536,4.891803,194,1970-01-14 04:44:59.833874637,3.2577999,-0.19732027,1.3506991,5.452593448871842,3.5322207654864517,-64.72510528564453,-78.81998443603516,75.28741455078125,23374635.0,49933.0,0.039407741058596464,-0.5991049471745,0.2492834869135,-0.0029510206274284377,-0.029296979482808017,0.012371238372406427,23.374635319923982
1638,A,1140299883807047.0,3.7197152407420235,-1.6726491,4.5039425,194,1970-01-14 04:44:59.883807047,2.6804266,-0.6745587,0.21193142,4.9773652928128245,2.772116722743916,-64.76831817626953,-78.82475280761719,75.46807098388672,23424567.0,49932.0,0.13522409556603074,-0.5884532412066,0.234574182153,0.0043598584331704425,-0.029648577731122547,0.012079990565914238,23.424567729933187
1638,A,1140299933741407.0,4.852172640742024,1.3608044,4.5302787,194,1970-01-14 04:44:59.933741407,0.9621551,-1.8846991,-1.4956875,5.319188796491463,2.591315154830278,-64.99274444580078,-78.93243408203125,75.7458267211914,23474502.0,49935.0,0.214018610680953,-0.4971489825472501,0.22556191781100002,0.008719717268221567,-0.02710477352157425,0.011488448075851171,23.474502089899033
1638,A,1140299983675767.0,3.2719995407420237,6.130054,4.2693105,194,1970-01-14 04:44:59.983675767,-0.46529925,-3.7723477,-2.6728046,7.518747289414525,4.646611129794166,-65.61217498779297,-79.13265228271484,76.35308074951172,23524436.0,49934.0,0.20283620685511225,-0.30232893832720004,0.2196993435564,0.01040761422942294,-0.019960565250472396,0.011116837912559876,23.52443644986488
1638,A,1140300033610127.0,1.0597571407420237,11.258434,-1.8047792,194,1970-01-14 04:45:00.033610127,-3.4139512,-6.6134076,-3.8318124,11.482948058025949,8.371081719139585,-66.9760971069336,-79.44105529785156,77.56745910644531,23574370.0,49934.0,0.10815096906661222,-0.05521482010400004,0.061531952967099984,0.007764416821237695,-0.008926795016751771,0.007021501780302224,23.574370810063556
1638,A,1140300083544487.0,0.5354269407420236,19.510649,-7.3952403,194,1970-01-14 04:45:00.083544487,-4.4184957,-3.5582294,-5.063258,20.950041145540773,7.603991207813621,-67.55775451660156,-79.74331665039062,77.9342269897461,23624305.0,49935.0,0.03982775855445295,0.27886407980249994,-0.22970148686625,0.003694658881878945,0.0055839628915222966,-0.004198772837627028,23.624305170029402
1638,A,1140300133478847.0,-6.443670559257976,19.510649,-3.0449758,194,1970-01-14 04:45:00.133478847,-4.1330047,-2.9105487,-5.9303837,21.64464579139635,7.792462538538088,-67.88948059082031,-80.07288360595703,78.06127166748047,23674239.0,49934.0,-0.14751111842348777,0.48489154716599997,-0.26066087536870003,-0.0026885304458501924,0.01906868673852254,-0.012242877097919996,23.674239529995248
1638,A,1140300183413207.0,-4.490002159257976,16.774675,-1.7616836,194,1970-01-14 04:45:00.183413207,-1.0682389,-4.422159,-6.2531586,18.227248757706946,7.732956552671699,-68.46146392822266,-80.4452896118164,78.5874252319336,23724173.0,49934.0,-0.27298100676318776,0.41658248430799993,-0.1200078652398,-0.010498426889535728,0.022507102143811356,-0.00950415644677242,23.724173889961094
1638,A,1140300233347567.0,2.1874261507420236,10.056545,-2.0346224,194,1970-01-14 04:45:00.233347567,-1.3782308,-3.5571642,-4.0469956,10.262922635291318,5.5615744776321785,-69.08766174316406,-80.6983413696289,79.15233612060547,23774108.0,49935.0,-0.057489566492622046,0.18054548534999992,-0.094784270055,-0.008251024037764431,0.014908792582436112,-0.005362822637972919,23.77410824992694
1638,A,1140300283281927.0,5.103563740742024,13.061268,-3.5501523,194,1970-01-14 04:45:00.283281927,-2.913277,-2.2575417,-0.56997263,13.798740123762741,3.729416335690748,-69.81971740722656,-80.76464080810547,79.74649810791016,23824042.0,49934.0,0.1820341446206822,0.08782923717099997,-0.1394350699349,0.003109504482123278,0.006700511697181805,-0.005847754261527833,23.824042609892786
1638,A,1140300333216287.0,0.7796355407420237,14.643835,-4.3641806,194,1970-01-14 04:45:00.333216287,-5.18229,0.0732569,0.85322064,15.36804108148259,5.2525690550453135,-70.14732360839844,-80.72329711914062,79.81588745117188,23873976.0,49934.0,0.1468858364608122,0.2023601066009999,-0.1975971495143,0.008212145167661672,0.0072451573459555215,-0.008414683422988177,23.87397696985863
1638,A,1140300383150647.0,-0.6401259592579764,13.39885,-1.2277765,194,1970-01-14 04:45:00.383150647,-5.2046604,0.649565,-0.5241663,13.798445490856729,5.271164470836482,-71.57659149169922,-80.70670318603516,80.96324920654297,23923911.0,49935.0,0.0034832054757029493,0.21079273773749993,-0.13961718889425,0.003754339054549942,0.010315393641021495,-0.008419398994215472,23.923911330057308
1638,A,1140300433085007.0,-2.3639512592579766,12.18499,-0.7226,194,1970-01-14 04:45:00.433085007,-4.375885,0.42266363,-2.2211325,13.110157937491312,4.925489179757278,-71.45596313476562,-80.8053970336914,80.61935424804688,23973845.0,49934.0,-0.0750027959146878,0.14939853327999997,-0.0486950500755,-0.0017856296144901345,0.008992895463493921,-0.004701591670357749,23.973845690023154
1638,A,1140300483019367.0,-6.771676559257976,11.96233,3.005172,194,1970-01-14 04:45:00.483019367,-3.957236,0.7955062,-1.606475,15.381925511526994,4.344342159586356,-71.26097869873047,-80.86878967285156,80.221435546875,24023780.0,49935.0,-0.22809378755879706,0.11353521209999998,0.05699011641,-0.0075675639478742325,0.006564798287775148,0.00020710706870662876,24.023780049989
1638,A,1140300532953727.0,-5.026303559257977,9.474754,3.7593455,194,1970-01-14 04:45:00.532953727,-3.5119555,0.8658136,0.16932085,12.623058817699864,3.6210680985269987,-71.19879150390625,-80.8468017578125,79.98058319091797,24073714.0,49934.0,-0.2945601696189878,0.045866476227999976,0.1688897084225,-0.013049101348857754,0.003979781952485175,0.005639541586593028,24.073714409954846
1638,A,1140300582888087.0,-8.373397559257976,7.6623435,6.2876225,194,1970-01-14 04:45:00.582888087,-0.41416654,-0.46470162,1.7480427,14.65364856283726,1.8555685919710665,-71.5282211303711,-80.77144622802734,80.29331970214844,24123648.0,49934.0,-0.3345503378259878,-0.0614912867175,0.250842650056,-0.015707002039378706,-0.0003901046434913472,0.010479457794132709,24.123648769920692
1638,A,1140300632822447.0,-7.238545559257975,13.836989,2.792088,194,1970-01-14 04:45:00.632822447,4.545705,-1.5896208,2.4681616,17.10360329152793,5.411298357929657,-71.99970245361328,-80.67913055419922,81.00135040283203,24173583.0,49935.0,-0.38979118981154703,0.04742158419375,0.22669767190875004,-0.01808499709129015,-0.00035128529776172826,0.011922987988654897,24.173583129886538
1638,A,1140300682756807.0,-2.038339559257976,14.852131,0.5343559,194,1970-01-14 04:45:00.682756807,7.06399,0.093496926,2.8623092,15.515877558831205,7.622434673493509,-72.36592864990234,-80.36193084716797,81.7175521850586,24223517.0,49934.0,-0.23161599075398775,0.22692805903999994,0.0830513248513,-0.015514673077179707,0.006849687542617035,0.007733503202108169,24.223517489852384
1638,A,1140300732691167.0,-0.3911290592579766,15.697284,-1.565359,194,1970-01-14 04:45:00.732691167,9.350047,1.9278823,3.1062548,16.023543537216703,10.039368901847633,-72.87522888183594,-80.22466278076172,82.67295837402344,24273451.0,49934.0,-0.060656542998487786,0.27337404430499995,-0.025741054397699997,-0.007297168350198056,0.012491042614214612,0.0014308655224150313,24.27345185005106
1638,A,1140300782625527.0,7.904779940742024,15.072397,-6.547693,194,1970-01-14 04:45:00.782625527,7.2578683,1.8969896,1.2612169,17.324526491523464,7.6069632489909305,-72.09943389892578,-80.13599395751953,82.25390625,24323386.0,49935.0,0.18759707838345296,0.2788790103675,-0.20256262580999998,0.0031693878172241183,0.013788378142535643,-0.005700172135585749,24.323386210016906
1638,A,1140300832559887.0,3.9830774407420235,4.9688663,-5.4128413,194,1970-01-14 04:45:00.832559887,10.7455435,4.057346,0.3802432,7.512235459078102,11.49231684932392,-70.4967041015625,-80.05299377441406,81.1723403930664,24373320.0,49934.0,0.29680413524351223,0.011017020811099981,-0.2986186598681,0.01209404510062444,0.0072378342104361055,-0.01251299315952512,24.373320569982752
1638,A,1140300882494247.0,12.951756940742024,12.505814,-0.16475101,194,1970-01-14 04:45:00.882494247,0.9397845,2.357184,-0.25252387,16.350957723385758,2.5501528623233605,-69.79405212402344,-80.0247802734375,80.50663757324219,24423254.0,49934.0,0.42281201000251223,-0.05306285694990001,-0.13925574720377,0.017966656298357492,-0.0010497583908774203,-0.010932410321363377,24.423254929948598
1638,A,1140300932428607.0,5.845766340742024,11.457153,-0.1479916,194,1970-01-14 04:45:00.932428607,-6.8931046,0.4301205,2.6737576,11.959451758312468,7.406002590778589,-70.2823715209961,-79.89183044433594,80.65254211425781,24473189.0,49935.0,0.4693271625304529,0.10893237857249999,-0.007808401115175001,0.022274484790216806,0.001394922281112265,-0.003671824123153259,24.473189289914444
1638,A,1140300982367387.0,0.8777978407420237,12.8888855,0.09382278,194,1970-01-14 04:45:00.982367387,-5.535958,1.8000505,1.1909094,12.981086230681651,5.941824465542769,-70.46809387207031,-79.89397430419922,80.5515365600586,24523128.0,49939.0,0.16788403582956593,0.11850620832574997,-0.00135256835099,0.01591084501745049,0.005679027795555853,-0.00022874482708540696,24.52312806993723
1638,A,1140301032306167.0,3.9423760407420234,11.438,1.9038392,194,1970-01-14 04:45:01.032306167,-2.336969,0.3523562,-0.58275586,11.694956692232392,2.4341699593503696,-70.43692779541016,-79.91551971435547,80.40119171142578,24573066.0,49938.0,0.12035492164677518,0.11802560404950001,0.04987962197862,0.007197038529226762,0.005905962823197617,0.0012116720020282936,24.573066849960014
1638,A,1140301082244947.0,3.607187740742024,10.901698,0.6157588,194,1970-01-14 04:45:01.082244947,-2.1292422,0.2799182,-1.7311109,10.98349226680678,2.758400169128999,-70.30487060546875,-79.99234008789062,80.1589584350586,24623005.0,49939.0,0.18850883284176592,0.06840888921099997,0.062913102261,0.0077121735177016265,0.004655176079468054,0.0028163779279011913,24.6230056299828
1638,A,1140301132183727.0,2.5872578407420237,11.282376,1.925387,194,1970-01-14 04:45:01.132183727,-1.592349,-1.1560582,-2.3585517,11.446716188449356,3.0716139114740852,-70.46924591064453,-80.12281036376953,80.24500274658203,24672944.0,49939.0,0.15467220894686592,0.06452303574299993,0.06345114005309999,0.008569059022941243,0.0033192437001389008,0.0031552519484619192,24.672944410005584
1638,A,1140301182122507.0,2.7021795107420234,11.593622,1.8990508,194,1970-01-14 04:45:01.182122507,-1.3281634,-1.7739116,-2.4704044,11.751529661439132,3.3186862282013765,-70.78276062011719,-80.26873016357422,80.49577331542969,24722883.0,49939.0,0.1320746059478809,0.08180003206099994,0.0954942996471,0.007159924594514381,0.0036536138415319743,0.003968788156594143,24.72288319002837
1638,A,1140301232061287.0,3.6287355407420234,7.8993692,2.0498855,194,1970-01-14 04:45:01.232061287,-1.6498733,-2.0444887,-2.5673435,8.250129864343597,3.673318472100238,-71.1876220703125,-80.4234619140625,80.82276916503906,24772821.0,49938.0,0.15807661792050517,-0.002671902727200067,0.0986009904747,0.007244785908769733,0.001975750261335649,0.004846365299051224,24.772821970051154
1638,A,1140301282000067.0,2.422057917642024,8.04781,3.0841806,194,1970-01-14 04:45:01.282000067,-1.2791612,-1.9922909,-3.5388646,8.618551097738772,4.257820928942575,-71.47760009765625,-80.62293243408203,81.05192565917969,24822760.0,49939.0,0.15108528725912046,-0.09120910896560003,0.12819506348395,0.007719618191382662,-0.0023441619214633717,0.0056629840693205105,24.82276075007394
1638,A,1140301331938847.0,3.0277909407420234,8.457218,3.9317281,194,1970-01-14 04:45:01.331938847,-1.5337595,-1.143275,-2.811289,9.346293648166414,3.4004178818177992,-71.61371612548828,-80.77438354492188,81.11214447021484,24872699.0,49939.0,0.13608000106942048,-0.07727990335400005,0.17518373228464998,0.007170373666919502,-0.0042070863931142535,0.007575216840944056,24.872699529863894
1638,A,1140301381877627.0,2.9392054407420236,12.752416,5.155165,194,1970-01-14 04:45:01.381877627,-2.168657,-0.4359395,-2.577996,13.764812918436705,3.3969368271025076,-71.59823608398438,-80.90362548828125,80.98663330078125,24922638.0,49939.0,0.1489929161474659,0.04019175616299995,0.22689517726045003,0.007118128206447044,-0.000926072491285677,0.010039709331886373,24.92263830988668
1638,A,1140301431816407.0,1.4045221407420236,11.473912,6.9867296,194,1970-01-14 04:45:01.431816407,-3.4885197,0.2767224,-2.7036972,13.47200623445259,4.422253219031864,-71.42049407958984,-81.02742004394531,80.63004302978516,24972577.0,49939.0,0.10846070584586591,0.11551709699599998,0.3031770372147,0.006428488214362499,0.0038879722089536486,0.01323563815933726,24.972577089909464
1638,A,1140301481755187.0,-1.1644561592579765,11.414058,10.084826,194,1970-01-14 04:45:01.481755187,-2.0536084,-0.041791655,-2.1604125,15.646987108406027,2.981012608684245,-71.31588745117188,-81.1303939819336,80.42020416259766,25022515.0,49938.0,0.005994207491675173,0.08209732293,0.4262596717764,0.0028578247311250634,0.004934234451132294,0.018213305186798777,25.02251586993225
1638,A,1140301531693967.0,-2.691956959257976,10.336666,9.567678,194,1970-01-14 04:45:01.531693967,-1.7638565,0.947839,-0.32815763,14.983748955496349,2.029107181161327,-71.08273315429688,-81.13070678710938,80.094970703125,25072454.0,49939.0,-0.09629270736278407,0.05370250291799996,0.490713198628,-0.0022547083925316537,0.0033908537515116347,0.022896354087562666,25.072454649955034
1638,A,1140301581632747.0,-0.20916955925797653,9.034221,9.59641,194,1970-01-14 04:45:01.581632747,0.35495436,0.577127,0.5815782,13.439398236308687,0.8929173391346198,-70.9509506225586,-81.09379577636719,79.97955322265625,25122393.0,49939.0,-0.07243967860408407,-0.0057208370535000415,0.47851769531599997,-0.004213163311399713,0.0011980782058036306,0.024201210806334705,25.12239342997782
1638,A,1140301631571527.0,-1.4517605592579765,11.270405,9.22052,194,1970-01-14 04:45:01.631571527,1.2710818,1.519886,1.6095583,15.06736960122934,2.5527201798054815,-70.6002426147461,-80.99278259277344,79.68885040283203,25172332.0,49939.0,-0.04147259459428409,0.01759415890699998,0.469849333635,-0.0028443325056266536,0.00029647091002096674,0.023680250529391992,25.172332210000604
1638,A,1140301681510307.0,-0.7430768592579762,11.011831,6.5222545,194,1970-01-14 04:45:01.681510307,2.4663084,1.6029767,2.8282208,13.183370612680088,4.080569116949999,-70.30059051513672,-80.83270263671875,79.51028442382812,25222270.0,49938.0,-0.054802895502924824,0.066972750684,0.39308133649050003,-0.0024039027122372096,0.0021115511655776784,0.02154651590236361,25.22227099002339
1638,A,1140301731449087.0,2.2855884207420236,10.770017,1.781735,194,1970-01-14 04:45:01.731449087,4.3241296,1.4005764,3.2681751,10.917222257242958,5.598274692625678,-70.0205078125,-80.6552505493164,79.445556640625,25272209.0,49939.0,0.03851574243447592,0.054479653635999964,0.20734646582025,-0.0004066820685426349,0.0030326058096682386,0.014992382009798272,25.272209770046175
1638,A,1140301781387867.0,2.3789622857420234,9.333496,1.1496657,194,1970-01-14 04:45:01.781387867,8.307154,1.6519787,3.6282344,9.404122029083902,9.214224116349301,-68.51419830322266,-80.62026977539062,78.36661529541016,25322148.0,49939.0,0.1164714988655534,0.012572467853499952,0.07319560977865,0.0038699539216410822,0.0016742579475320682,0.007004995356666733,25.32214855006896
1638,A,1140301831326647.0,5.319041940742023,10.889728,-0.36107555,194,1970-01-14 04:45:01.831326647,7.5050097,3.1049995,2.087862,11.274958140534183,8.386021716114163,-67.50945281982422,-80.4654312133789,77.72844696044922,25372087.0,49939.0,0.1922153165331934,0.015561591667999966,0.019690701750424994,0.007707755437099008,0.0007024933992220921,0.002319324755725238,25.372087329858914
1638,A,1140301881265427.0,7.931116140742024,9.778817,2.069039,194,1970-01-14 04:45:01.881265427,0.6628158,2.6970031,1.2654779,11.414271378649751,3.051980475286115,-66.88565826416016,-80.35479736328125,77.12942504882812,25422026.0,49939.0,0.3308498222156159,0.02668103437749996,0.042646993364774996,0.013060674981988391,0.0010547772510431104,0.001556541078178986,25.4220261098817
1638,A,1140301931204207.0,7.358901940742024,9.036615,2.17199,194,1970-01-14 04:45:01.931204207,-1.165178,2.112173,0.87772167,10.525064462141373,2.5669651114887766,-66.47747802734375,-80.27262878417969,76.65623474121094,25471964.0,49938.0,0.38177646147657524,-0.01958987839200005,0.10589425310100001,0.01779356567751032,0.00017705907380194733,0.003708926383003936,25.471964889904484
1638,A,1140301981142987.0,4.035749940742024,8.517074,2.8710968,194,1970-01-14 04:45:01.981142987,-2.2144635,0.92759895,-0.045862563,9.132165594263853,2.4013312515265945,-66.3351821899414,-80.25623321533203,76.39952087402344,25521903.0,49939.0,0.28451876015471594,-0.051095362514500066,0.1259233558526,0.016637058536522524,-0.0017649751228148544,0.005788369786766915,25.52190366992727
1638,A,1140302031085207.0,4.138700640742024,10.257658,0.6061819,194,1970-01-14 04:45:02.031085207,-4.428083,-0.5605754,-0.36331135,10.418403001875193,4.478187018315892,-66.66425323486328,-80.2840576171875,76.5087661743164,25571845.0,49942.0,0.20412420547023818,-0.020607767228000076,0.08683112641770001,0.01220190349462073,-0.0017904988527999712,0.005312692176771662,25.571845890022814
1638,A,1140302081027427.0,2.8051302007420236,11.73488,-2.7073932,194,1970-01-14 04:45:02.081027427,-5.8289056,0.004014715,0.38770005,12.04932370614196,5.841786365523639,-66.99913024902344,-80.26618194580078,76.5528335571289,25621788.0,49943.0,0.1733978718581189,0.059745262666999956,-0.052470397977949994,0.00942729255400507,0.0009773219673549856,0.0008580389302332175,25.62178810988553
1638,A,1140302130969647.0,1.3350904407420237,9.208998,1.448941,194,1970-01-14 04:45:02.130969647,-3.7271388,-0.086532764,0.37811267,9.385133152628203,3.747268437799119,-66.43116760253906,-80.25215911865234,75.81129455566406,25671730.0,49942.0,0.10338544963849815,0.03355797753799996,-0.03142480988619999,0.006911556321092025,0.002329875211159053,-0.0020949472355756894,25.671730329981074
1638,A,1140302180911867.0,3.1091937907420237,9.33589,2.5143607,194,1970-01-14 04:45:02.180911867,0.74164563,-3.1768649,-0.66052014,9.693127274204436,3.3284824903694066,-67.1719970703125,-80.34505462646484,76.60049438476562,25721672.0,49942.0,0.11097822154438815,-0.026347201752000074,0.0989676067507,0.005352875233107853,0.00018006028215220314,0.0016866111805034299,25.72167255007662
1638,A,1140302230854087.0,6.650218040742024,10.834661,-0.07377134,194,1970-01-14 04:45:02.230854087,-1.2173756,-3.5337284,-2.1593473,11.63165694904038,4.316482424203672,-67.95700073242188,-80.51228332519531,77.33485412597656,25771614.0,49942.0,0.24370227284398815,0.014247229020999957,0.060943956908560006,0.008856726625372143,-0.00030214841906580394,0.003993151656135382,25.771614769939333
1638,A,1140302280796307.0,3.5593037407420236,8.758887,-0.37304655,194,1970-01-14 04:45:02.280796307,-4.1852026,-1.9262444,-1.759873,8.84062932233449,4.931885163677995,-68.50838470458984,-80.62975311279297,77.6816635131836,25821556.0,49942.0,0.25494196840543815,-0.00016111289200003082,-0.01115748953119,0.012451645348239424,0.00035174440585725717,0.0012432178768803065,25.82155699003488
1638,A,1140302330738527.0,1.7444988407420237,8.82832,2.1648073,194,1970-01-14 04:45:02.330738527,-4.006238,-2.496161,-2.2498946,9.11488169131101,5.22903321481841,-69.1717300415039,-80.77970123291016,78.1508560180664,25871499.0,49943.0,0.1324439061635289,-0.05026246039950005,0.044742953568625,0.00967360636679896,-0.0012591522604486942,0.0008386794152108082,25.871499209897593
1638,A,1140302380680747.0,0.07095194074202382,13.109152,0.8527847,194,1970-01-14 04:45:02.380680747,-1.2919441,-3.745716,-3.6443257,13.345117053582346,5.383364906623115,-69.95709991455078,-80.97657012939453,78.88019561767578,25921441.0,49942.0,0.04533362146443815,0.05836901331199996,0.075352289832,0.004439282642397966,0.00020242873277803513,0.002998898322957007,25.921441429993138
1638,A,1140302430622967.0,2.6447186807420238,16.171335,3.4720414,194,1970-01-14 04:45:02.430622967,0.9142184,-2.6239927,-3.7156985,16.541400536200822,4.639778908035823,-70.29545593261719,-81.19596099853516,79.26895904541016,25971383.0,49942.0,0.06781301108907815,0.2417314408769999,0.1079952325431,0.002825384561493856,0.007493808441553516,0.004578370981228622,25.971383649855852
1638,A,1140302480565187.0,2.781188180742024,16.743551,6.3379006,194,1970-01-14 04:45:02.480565187,-1.4826266,-2.7294538,-1.9995575,17.906602149037347,3.694093918292854,-70.99200439453125,-81.33552551269531,79.898681640625,26021325.0,49942.0,0.13549032023811816,0.33248601830599994,0.244964061682,0.005076687486571419,0.014338784173258689,0.008813746536094971,26.021325869951397
1638,A,1140302530507407.0,0.28643014074202355,16.056414,4.0059485,194,1970-01-14 04:45:02.530507407,-3.293576,0.432251,0.62099296,16.68548658721599,3.379366220335784,-71.08895874023438,-81.29914855957031,79.83016967773438,26071268.0,49943.0,0.07660303091493889,0.3296229259975,0.25830142780065,0.005296289118318564,0.01653385350267485,0.012567294170615995,26.071268090046942
1638,A,1140302580449627.0,-1.7749775592579762,13.650242,3.170372,194,1970-01-14 04:45:02.580449627,-2.8759923,1.8852717,0.43244117,14.627811527699965,3.465917837743871,-70.69853973388672,-81.2478256225586,79.2896957397461,26121210.0,49942.0,-0.03717051758776185,0.2523733069759999,0.17919989920549997,0.0009846692902929378,0.014533027933581267,0.010924845636670571,26.121210309909657
1638,A,1140302630391847.0,-2.0335512592579765,11.198579,3.6300588,194,1970-01-14 04:45:02.630391847,-1.5071276,1.592324,0.7488247,12.586260633802437,2.3168227715964487,-70.36878967285156,-81.18596649169922,78.87979125976562,26171152.0,49942.0,-0.09510277312716185,0.131068309191,0.1698135575068,-0.0033029963424423604,0.009574920597306155,0.008715215027562843,26.1711525300052
1638,A,1140302680334067.0,-3.798078059257976,14.610316,1.6213235,194,1970-01-14 04:45:02.680334067,-0.21496184,1.7425263,1.8002404,15.960783650946292,2.5146514662354376,-70.04959869384766,-81.07183074951172,78.54584503173828,26221094.0,49942.0,-0.14562161571266186,0.15504231704499996,0.1311322674133,-0.006011128713719238,0.007144468447739154,0.007514918194079818,26.221094749867916
1638,A,1140302730276287.0,-1.0255925592579764,12.711715,0.75462246,194,1970-01-14 04:45:02.730276287,1.9304807,2.7193737,2.2668262,13.191849075478784,4.0324000389756245,-69.72175598144531,-80.75801086425781,78.30363464355469,26271036.0,49942.0,-0.12045187901496186,0.19282683610099993,0.05932974656716,-0.006644121236843491,0.008686640623208763,0.004756026951106067,26.27103696996346
1638,A,1140302780218507.0,0.9472296407420235,9.848249,0.07706337,194,1970-01-14 04:45:02.780218507,3.0245073,2.5201693,2.7238247,9.957968065743522,4.787287196810515,-69.5283203125,-80.61421966552734,78.25060272216797,26320979.0,49943.0,-0.001956839619721118,0.07391474102599994,0.020768442703845,-0.003056729317385986,0.006660937293226877,0.0020001719333809015,26.320979190059006
1638,A,1140302830160727.0,-1.1644561592579765,9.939229,2.148048,194,1970-01-14 04:45:02.830160727,5.3382616,1.9949939,3.1456695,10.781750943966816,6.509398910368147,-69.0357666015625,-80.43180084228516,78.0218505859375,26370921.0,49942.0,-0.005424363393861862,0.004681513137999923,0.05556325602027,-0.00018431602045218057,0.001962627062729241,0.0019060788488398754,26.37092140992172
1638,A,1140302880102947.0,3.722109440742024,8.507497,-1.2972084,194,1970-01-14 04:45:02.880102947,6.100991,1.8447917,2.1166239,8.703872665260251,6.716058690371987,-68.45034790039062,-80.29971313476562,77.73746490478516,26420863.0,49942.0,0.06386716009193814,-0.028798405054000036,0.021246315651600005,0.001459375076347663,-0.0006022229080344389,0.0019180118142182658,26.420863630017266
1638,A,1140302930045167.0,2.8769562407420235,9.228151,-1.4456489,194,1970-01-14 04:45:02.930045167,4.924939,1.741461,1.4433769,9.351901511259593,5.419506199248748,-67.88993072509766,-80.20039367675781,77.41869354248047,26470805.0,49942.0,0.16478526913233815,-0.04655473379200001,-0.0684918896383,0.005709679810159404,-0.0018816432301234673,-0.0011797692280218854,26.47080584987998
1638,A,1140302979987387.0,5.352560740742024,11.30153,0.7091326,194,1970-01-14 04:45:02.979987387,4.743844,-0.0013116068,0.7200623,11.69748220428723,4.7981816693961985,-67.73159790039062,-80.16704559326172,77.49872589111328,26520748.0,49943.0,0.20550338330312887,0.023215529091499966,-0.018391916785449998,0.009246663084292266,-0.0005828149501785368,-0.0021696189721106727,26.520748069975525
1638,A,1140303029929607.0,6.607122440742023,10.5880575,0.5511153,194,1970-01-14 04:45:03.029929607,0.059876382,-0.5967944,0.4654641,11.399473968730502,0.7592137810798615,-67.93861389160156,-80.15677642822266,77.71186828613281,26570690.0,49942.0,0.2986452487248381,0.05717328946249995,0.0314696503109,0.012589095490370364,0.002007389188111932,0.00032656408386401203,26.57069029007107
1638,A,1140303079869947.0,4.8713262407420235,11.172243,-0.20784664,194,1970-01-14 04:45:03.079869947,-3.7388566,-0.32089093,1.508358,11.440031929390212,4.044399030818278,-68.37232208251953,-80.09273529052734,77.96234130859375,26620630.0,49940.0,0.2866168635766566,0.05394270348499995,0.0085714184402,0.014613994944168323,0.0027745663438990724,0.000999825486714967,26.620630630059168
1638,A,1140303129810287.0,3.9375876407420236,10.219351,-2.1495442,194,1970-01-14 04:45:03.129810287,-5.1556582,0.8008325,1.7416509,10.552756834778904,5.500499252409212,-68.59976959228516,-79.99700164794922,77.9315414428711,26670570.0,49940.0,0.21995857962065665,0.04473610217999995,-0.0588640492748,0.012649188816636913,0.0024640097774550475,-0.001255806991939962,26.670570970047265
1638,A,1140303179750627.0,1.9791306107420237,7.9999256,-0.18629882,194,1970-01-14 04:45:03.179750627,-5.0565886,0.1989581,0.88304776,8.014195073801563,5.136968555641215,-69.24252319335938,-80.14008331298828,78.3168716430664,26720511.0,49941.0,0.1477434130986824,-0.03447735365970002,-0.05832716813091,0.009181702609198256,0.00025616607992614947,-0.0029263232942292813,26.720511310035363
1638,A,1140303229690967.0,0.6311950407420237,10.961554,-1.4600141,194,1970-01-14 04:45:03.229690967,-2.769466,-3.8884616,-0.60832244,11.202002368782608,4.812497452553935,-70.37540435791016,-80.23573303222656,79.32603454589844,26770451.0,49940.0,0.06517983151755667,-0.01594385438800002,-0.0411084336124,0.005316693418067489,-0.00125901756495107,-0.0024829069755304507,26.77045165002346
1638,A,1140303279631307.0,2.3765680857420235,9.6567135,0.11776479,194,1970-01-14 04:45:03.279631307,-1.0607818,-2.1914952,-1.4733171,9.657526375570884,2.845799099723431,-70.81439208984375,-80.57295227050781,79.71992492675781,26820391.0,49940.0,0.07510384526830666,0.025426139474999963,-0.0335159652707,0.0035028834093430074,0.00023677265862238854,-0.0018633712401110068,26.820391990011558
1638,A,1140303329571647.0,4.390091740742024,7.171532,2.6053405,194,1970-01-14 04:45:03.329571647,-0.8637079,-2.246889,-1.2975485,7.880509909830044,2.734617637750415,-71.37384796142578,-80.67074584960938,80.2431869506836,26870332.0,49941.0,0.16896687919721992,-0.06921209574225003,0.06799730064394499,0.006094568025266431,-0.0010933572209713676,0.0008610161849376141,26.870332329999655
1638,A,1140303379511987.0,5.2591869407420235,7.5474215,0.5989993,194,1970-01-14 04:45:03.379511987,-2.2730527,-1.9400929,-1.1675863,8.086220581431661,3.208424349358325,-71.938232421875,-80.75662231445312,80.69990539550781,26920272.0,49940.0,0.24094248867665669,-0.12187973110500004,0.080012364806,0.010235436915810699,-0.004771562916375834,0.0036958013462851263,26.920272669987753
1638,A,1140303429452327.0,1.4667714407420236,10.880151,0.35718498,194,1970-01-14 04:45:03.429452327,-3.1700053,-1.1954731,-1.367856,10.9276118304224,3.653644696955042,-72.28479766845703,-80.93771362304688,80.8913345336914,26970213.0,49941.0,0.16795054376484742,-0.02927610088875003,0.02387639956374,0.010210263466580579,-0.0037744367027999362,0.002594154390694593,26.97021300997585
1638,A,1140303479392667.0,3.0110315407420236,15.67813,3.2014966,194,1970-01-14 04:45:03.479392667,-1.8629259,-1.2625847,-1.7108711,16.012601622907315,2.8269582512623193,-72.5947494506836,-81.038330078125,81.11085510253906,27020153.0,49940.0,0.11181074044765665,0.1737482765699999,0.0888602790526,0.006985639266786226,0.003607470226760809,0.002815034865050009,27.020153349963948
1638,A,1140303529333007.0,-0.8364505592579765,18.70919,1.3771149,194,1970-01-14 04:45:03.529333007,-4.531413,-1.299869,-0.4304233,19.04023548221311,4.733775175366157,-73.0094223022461,-81.03597259521484,81.3053207397461,27070093.0,49940.0,0.054299287107656656,0.36923938039999993,0.114327929155,0.004147767388056173,0.013558401794540896,0.005073609558943771,27.070093689952046
1638,A,1140303579273347.0,-5.629641559257976,12.733262,-1.2277765,194,1970-01-14 04:45:03.579273347,-3.9124947,1.7467873,1.2015618,15.113897375681503,4.450014764940518,-72.78974914550781,-80.95284271240234,80.88483428955078,27120034.0,49941.0,-0.1614615532454026,0.29571194766599995,0.0037290545171999997,-0.0026758953665925846,0.01660416713747205,0.00294794191078667,27.120034029940143
1638,A,1140303629213687.0,-4.784489159257976,13.463494,-1.57733,194,1970-01-14 04:45:03.629213687,-3.4235382,2.1941984,3.0125113,15.350867965921958,5.060666434181321,-72.58828735351562,-80.77639770507812,80.50741577148438,27169974.0,49940.0,-0.2600408440413433,0.16472099731999998,-0.070043509305,-0.010524914860250045,0.011497010636300419,-0.001655871936051366,27.16997436992824
1638,A,1140303679154027.0,-5.603306559257977,8.49792,-1.2421417,194,1970-01-14 04:45:03.679154027,-0.4589074,2.2996595,1.6063623,11.752481027575408,2.8424337558817974,-72.0898666381836,-80.66500854492188,79.97911834716797,27219914.0,49940.0,-0.25938325909134335,0.05896450758,-0.07040220834899999,-0.012970019855223187,0.005585427057352999,-0.0035069295698203795,27.21991470991634
1638,A,1140303729094367.0,-6.383816559257976,10.944794,-2.1878514,194,1970-01-14 04:45:03.729094367,2.55153,0.46314368,0.658277,14.215175171966013,2.675469307981862,-71.89035034179688,-80.62650299072266,79.90621948242188,27269855.0,49941.0,-0.2993244578309026,-0.003927510063000023,-0.08564864270355,-0.013951211045406942,0.001374301346498248,-0.003896667776207699,27.269855049904436
1638,A,1140303779034707.0,-1.798919559257976,10.032603,-2.8247092,194,1970-01-14 04:45:03.779034707,4.116403,-0.05457483,1.1685386,11.243932805065567,4.279396514716589,-71.81008911132812,-80.57176208496094,80.03348541259766,27319795.0,49940.0,-0.20432292087934334,0.03439360308999996,-0.12516363818200002,-0.012576075046394842,0.0007607383428841884,-0.005263982653712184,27.319795389892533
1638,A,1140303828975047.0,-0.6616737592579764,8.090905,-0.7800608,194,1970-01-14 04:45:03.828975047,4.18245,0.17978334,1.85883,8.692757615427963,4.580443103100568,-71.72413635253906,-80.48075866699219,80.15835571289062,27369735.0,49940.0,-0.061441015163343334,-0.03686800524000005,-0.0900111069,-0.006636125482985886,-6.178582168550222e-05,-0.00537291338469754,27.36973572988063
1638,A,1140303878915387.0,-0.4102825592579764,6.7142396,-1.3786112,194,1970-01-14 04:45:03.878915387,4.9078946,0.24263395,1.822611,7.415422064291593,5.241012449491296,-71.58067321777344,-80.39044952392578,80.26172637939453,27419676.0,49941.0,-0.026767285251502602,-0.11972993676570005,-0.053903119176000006,-0.0022026053655089103,-0.003910328910853334,-0.0035936101822307584,27.41967606986873
1638,A,1140303928855727.0,1.4931076407420236,8.31596,-2.0106804,194,1970-01-14 04:45:03.928855727,5.340392,0.99151486,1.0183363,8.60557831014804,5.526291455502732,-71.13296508789062,-80.32636260986328,80.07846069335938,27469616.0,49940.0,0.027038142284656657,-0.11410791598800002,-0.084630611252,6.763300117856759e-06,-0.00583893118325989,-0.0034591872487871596,27.469616409856826
1638,A,1140303978796067.0,2.704573710742024,9.855432,-1.0482115,194,1970-01-14 04:45:03.978796067,5.6887336,1.1342603,0.38769978,9.915121359975892,5.813651823022867,-70.57206726074219,-80.28941345214844,79.79798126220703,27519556.0,49940.0,0.10481610334655667,-0.03567234176000001,-0.076380530743,0.0032924005134113963,-0.0037400130359675605,-0.00402044821561515,27.519556750077754
1638,A,1140304028736407.0,4.811471240742024,10.85142,-1.3714286,194,1970-01-14 04:45:04.028736407,3.8990893,1.0618223,-0.19499984,11.196263098190583,4.045786561813636,-70.06592559814453,-80.28071594238281,79.4822769165039,27569497.0,49941.0,0.1876794004610324,0.027638647865999955,-0.06041962311705,0.007303758977827402,-0.0002006053533801284,-0.0034159682419623786,27.569497090065852
1638,A,1140304078681927.0,5.012584240742024,10.166678,-0.3107973,194,1970-01-14 04:45:04.078681927,0.45722002,0.7592872,0.1714511,10.496795961077042,0.9027528335396409,-69.8522720336914,-80.25971984863281,79.2886962890625,27619442.0,49945.0,0.2453312255113604,0.035413452304999926,-0.04200938628775,0.010813357857095581,0.0015745685715202946,-0.0025579084373613683,27.61944261007011
1638,A,1140304128627447.0,4.279958440742024,11.217732,-0.9093477,194,1970-01-14 04:45:04.128627447,-2.1548083,-0.3997205,0.89796144,11.407288656650856,2.3683982003869226,-70.15845489501953,-80.22433471679688,79.49005126953125,27669388.0,49946.0,0.2320626683847011,0.04456207092999994,-0.030470681085,0.011921957712266344,0.0019972287417476518,-0.0018100447224996857,27.669388130074367
1638,A,1140304178572967.0,4.129123640742024,9.89374,-0.43769,194,1970-01-14 04:45:04.178572967,-3.2957065,-0.7970641,0.8500246,10.049922399983227,3.495645052669996,-70.62349700927734,-80.19764709472656,79.79473876953125,27719333.0,49945.0,0.2099958022798604,0.03774523451999995,-0.03363889896325,0.011039305158670763,0.0020554191853501226,-0.0016009764877549233,27.719333650078624
1638,A,1140304228518487.0,3.2696053407420234,10.722133,-0.5957073,194,1970-01-14 04:45:04.228518487,-3.285054,-1.8069348,-0.08527761,10.77227519352319,3.7501820522655103,-71.27486419677734,-80.2311782836914,80.28904724121094,27769279.0,49946.0,0.1847684588546011,0.02536939642899993,-0.0258070307729,0.009858447893310907,0.001576161678689374,-0.0014845432033008738,27.769279170082882
1638,A,1140304278464007.0,2.0030726107420236,11.581652,-1.1631331,194,1970-01-14 04:45:04.278464007,-2.7843797,-1.5725766,-1.2986138,11.647353370836843,3.4514004807020138,-71.72898864746094,-80.3177490234375,80.60855102539062,27819224.0,49945.0,0.13167195014343538,0.06752027091249996,-0.043922641889000004,0.007902308113703467,0.002319687217685606,-0.001741324250549298,27.81922468985431
1638,A,1140304328409527.0,1.8618147407420236,8.28723,-0.028281508,194,1970-01-14 04:45:04.328409527,-2.0184546,-1.473507,-1.528711,8.306012435854212,2.9295629661830382,-72.31996154785156,-80.5648193359375,81.09955596923828,27869170.0,49946.0,0.09651783182861111,0.0067147901859999455,-0.029753197005584,0.005698583425187916,0.0018538721808128381,-0.0018399067247144463,27.869170209858567
1638,A,1140304378355047.0,2.0102552407420236,7.564181,1.3100772,194,1970-01-14 04:45:04.378355047,-1.4879528,-2.359807,-1.7470901,7.687685399926656,3.29165861379865,-71.61795806884766,-80.7694091796875,80.34754180908203,27919115.0,49945.0,0.09669526761261037,-0.09361163880250008,0.03200964291847,0.004825014125795904,-0.0021700315520755496,5.6349095559545606e-05,27.919115729862824
1638,A,1140304428300567.0,0.7748471407420237,9.64953,0.9365818,194,1970-01-14 04:45:04.428300567,-1.4101886,-2.620797,-2.3489645,9.833364217753278,3.7914170207244693,-71.89251708984375,-80.88069152832031,80.56299591064453,27969061.0,49946.0,0.06955236177280111,-0.05959279519700003,0.056105815207000004,0.004151702048641881,-0.0038259743302695164,0.0022005073357673622,27.96906124986708
1638,A,1140304478246087.0,2.2784058207420235,11.892898,0.2685995,194,1970-01-14 04:45:04.478246087,-0.8700995,-1.7440842,-2.5737352,11.896765857255348,3.228469562549557,-72.04784393310547,-81.23123168945312,80.68028259277344,28019006.0,49945.0,0.07624735958066037,0.048507283229999996,0.03009639001425,0.003640983541499317,-0.0002768329475959084,0.002152684569887666,28.01900676987134
1638,A,1140304528191607.0,2.9559649407420236,13.712491,0.5223849,194,1970-01-14 04:45:04.528191607,-1.4911486,-1.1475362,-2.0688,13.73292523482995,2.7964793790751257,-72.27198791503906,-81.34723663330078,80.83161163330078,28068952.0,49946.0,0.1307179410265411,0.14997257949699996,0.0197532534212,0.005168544452063642,0.00495663761188137,0.0012448951455134927,28.068952289875597
1638,A,1140304578137127.0,1.6319713407420235,16.04205,1.8607436,194,1970-01-14 04:45:04.578137127,-1.6690478,-1.2764331,-1.2868959,16.16878853969488,2.46396085092626,-71.7114486694336,-81.52607727050781,80.20101928710938,28118897.0,49945.0,0.11457223878936039,0.2535842751225,0.05951267646625,0.0061255090154526005,0.010077823551985464,0.0019794684341143455,28.118897809879854
1638,A,1140304628082647.0,0.21220964074202353,15.1178875,1.7386394,194,1970-01-14 04:45:04.628082647,-1.4101886,-0.9185043,-0.60193086,15.376765646164074,1.7873451812419416,-71.40521240234375,-81.5330581665039,79.83341217041016,28168843.0,49946.0,0.0460547316506011,0.2886863191875,0.08988739165899999,0.004011337332797158,0.013542123551703627,0.0037309679012918675,28.168843329884112
1638,A,1140304678028167.0,-0.6760389592579763,14.95987,2.363526,194,1970-01-14 04:45:04.678028167,-0.743333,0.72945976,0.13416685,15.458508588421703,1.0500743945012563,-70.45336151123047,-81.3800277709961,78.85059356689453,28218788.0,49945.0,-0.011582977656639631,0.26165579916875,0.1024413254515,0.0008608458766142028,0.013743418550651455,0.004802928888041961,28.21878884988837
1638,A,1140304727973687.0,-2.3519802592579766,13.875297,1.5016134,194,1970-01-14 04:45:04.727973687,0.6883824,1.5539745,0.6859738,14.749387780090625,1.8328303602806373,-70.01435852050781,-81.32131958007812,78.44135284423828,28268734.0,49946.0,-0.07561872394399889,0.230629825491,0.09652412623619999,-0.002177688094072746,0.012293848904627936,0.004968764224996931,28.268734369892627
1638,A,1140304777919207.0,-0.5323870592579762,13.599963,-0.8662521,194,1970-01-14 04:45:04.777919207,2.5632477,2.8269653,1.0066184,13.943536969502238,3.9465494019685017,-70.3634262084961,-81.18476104736328,78.8956069946289,28318679.0,49945.0,-0.07202986286163963,0.19666493035000004,0.015866560064250003,-0.0036871543340038083,0.010670618290239376,0.0028066764136379877,28.318679889896885
1638,A,1140304827864727.0,1.1483426407420236,10.786777,-1.0458173,194,1970-01-14 04:45:04.827864727,3.1992106,3.5161915,1.5829265,10.911635454357132,5.010409906607129,-70.5162353515625,-81.1584243774414,79.18338012695312,28368625.0,49946.0,0.015382258736401115,0.11953925802,-0.0477501091262,-0.0014146606178195814,0.00789656719616401,-0.0007962278707240773,28.368625409901142
1638,A,1140304877810247.0,2.1658783407420237,8.675091,-0.5574001,194,1970-01-14 04:45:04.877810247,2.8008018,3.014452,2.088927,8.696674877943536,4.614653572535672,-70.33959197998047,-81.22064208984375,79.13070678710938,28418570.0,49945.0,0.08276438346011038,-0.003449501370000015,-0.0400363465215,0.0024509670222523836,0.002899051447942125,-0.0021922472636621885,28.4185709299054
1638,A,1140304927755767.0,2.2544637907420237,9.268852,-1.2038345,194,1970-01-14 04:45:04.927755767,1.9592428,2.8322918,2.2519126,9.348156349016884,4.114804922197144,-69.63493347167969,-81.06635284423828,78.51669311523438,28468516.0,49946.0,0.1103892040495511,-0.04135671146100001,-0.043983311665799996,0.004823624540878776,-0.0011189455530285638,-0.002098222923911443,28.468516449909657
1638,A,1140304977701287.0,2.0557450407420235,9.759664,-1.136797,194,1970-01-14 04:45:04.977701287,1.8250196,2.4541228,1.7054319,9.832373461182268,3.5017014754832556,-69.00874328613281,-80.94331359863281,77.97509765625,28518461.0,49945.0,0.10763669004423537,-0.014271384189999998,-0.05845142013375,0.0054446516402570835,-0.001389172618644598,-0.0025580513398642626,28.518461969913915
1638,A,1140305027646807.0,2.0461682607420237,10.427647,-1.9484313,194,1970-01-14 04:45:05.027646807,1.8079753,2.2336133,1.0055531,10.614682372836,3.0444934055219415,-68.38276672363281,-80.85584259033203,77.43268585205078,28568407.0,49946.0,0.1024370808779611,0.014666917602999992,-0.07704740633589999,0.0052461722812400125,9.877655922848839e-06,-0.0033838121934265694,28.568407489918172
1638,A,1140305077592327.0,2.4651535487420237,11.670237,-1.1918635,194,1970-01-14 04:45:05.077592327,1.2071662,2.104716,0.47611675,11.731030086109774,2.4726032505658893,-67.77297973632812,-80.79444122314453,76.87613677978516,28618353.0,49946.0,0.11266123954824511,0.06237965713199997,-0.0784225820404,0.005371650356003648,0.0019240841108571537,-0.0038825520197213396,28.61835300992243
1638,A,1140305127541437.0,4.3565728407420234,10.336666,-1.3833997,194,1970-01-14 04:45:05.127541437,-0.13932806,0.8498347,0.8787867,10.607225608543764,1.2304053761766256,-67.64067077636719,-80.7376937866211,76.73503875732422,28668302.0,49949.0,0.17036920571416933,0.06011119897349995,-0.0643159107884,0.00706854385520617,0.003059147885806808,-0.0035648224891528654,28.668302119942382
1638,A,1140305177490547.0,6.092369040742024,9.295189,-2.8797758,194,1970-01-14 04:45:05.177490547,-3.523673,0.76567876,1.8087626,10.401183105570626,4.034124132646751,-67.80986785888672,-80.6395034790039,76.72795867919922,28718251.0,49949.0,0.26095709901912334,0.0007955626974999603,-0.10647067652475001,0.010772158797561618,0.0015211159193523874,-0.004265309624852265,28.718251229962334
1638,A,1140305227439657.0,2.8865330407420235,8.04781,1.3938743,194,1970-01-14 04:45:05.227439657,-3.10822,-1.5683156,1.1770607,8.180976583582577,3.6750669764084374,-68.538818359375,-80.61402893066406,77.30925750732422,28768200.0,49949.0,0.22424359003402336,-0.05636747147450002,-0.03710964701175,0.012117644608757814,-0.001387880635751188,-0.00358584679016232,28.768200339982286
1638,A,1140305277388767.0,1.1148238407420237,10.875362,1.2526164,194,1970-01-14 04:45:05.277388767,-0.5281496,-3.914028,-1.831246,11.024716443230698,4.353391677448764,-68.92290496826172,-80.78666687011719,77.68647766113281,28818149.0,49949.0,0.09993188743662333,-0.01690344088600001,0.06609478198715,0.008096120462090666,-0.001829904400747308,0.0007238892534431275,28.818149450002238
1638,A,1140305327337877.0,5.017372640742024,10.008661,-0.054617725,194,1970-01-14 04:45:05.327337877,-0.14998071,-2.8967004,-3.0776055,10.340499248879254,4.229068814096374,-69.43321228027344,-80.98198699951172,78.19572448730469,28868098.0,49949.0,0.15314854102682335,0.03206783241349999,0.0299194179087875,0.00632055716066035,0.0003787230962035482,0.0023979066353010912,28.86809856002219
1638,A,1140305377286987.0,4.703732240742024,7.9640126,0.36436757,194,1970-01-14 04:45:05.377286987,-2.8610787,-1.8346317,-1.8536166,8.29316566003015,3.8713743427927687,-69.91767883300781,-81.10074615478516,78.54135131835938,28918047.0,49949.0,0.2427797338626234,-0.04064166317680003,0.007735847503952499,0.009888110701226487,-0.00021412713639803682,0.0009404214260504752,28.918047670042142
1638,A,1140305427236097.0,2.2089739607420236,7.920917,0.031573534,194,1970-01-14 04:45:05.427236097,-3.0485651,-1.453267,-0.75958997,7.923773543142994,3.461605272810811,-70.4859390258789,-81.34529876708984,78.96089935302734,28967996.0,49949.0,0.17264138102896334,-0.09278202570480003,0.009888431101848,0.010374934633859932,-0.0033321899179735207,0.0004401575460405646,28.967996780062094
1638,A,1140305477185207.0,-0.40310005925797654,12.295123,-0.10010756,194,1970-01-14 04:45:05.477185207,-1.8991449,-1.8591328,-1.569191,12.615323101786112,3.0863386907001713,-71.76966857910156,-81.3635482788086,80.14541625976562,29017945.0,49949.0,0.04510079775261333,0.015385290979999954,-0.001711603032337,0.005438002043980487,-0.0019329447513845195,0.00020421219262200247,29.017945890082046
1638,A,1140305527134317.0,-0.44619555925797627,14.873679,1.8822914,194,1970-01-14 04:45:05.527134317,1.0111575,-1.9965519,-3.092519,15.263708003730775,3.8173724922465793,-71.4652328491211,-81.44392395019531,79.90135192871094,29067895.0,49950.0,-0.021211158072435923,0.18903082994999995,0.044510041404,0.0005966437510124307,0.005105292620226748,0.0010688909983322835,29.067894999869168
1638,A,1140305577083427.0,1.4763482407420236,15.625458,5.51669,194,1970-01-14 04:45:05.577083427,3.2780402,-1.8985475,-2.2030232,16.597532522014422,4.382161724800961,-71.67142486572266,-81.57850646972656,80.27554321289062,29117844.0,49949.0,0.02572754814372334,0.2722004970065,0.1847858609743,0.00011279458383536764,0.011519021775075107,0.005726550513946853,29.11784410988912
1638,A,1140305627032537.0,7.552832140742023,15.855302,4.192696,194,1970-01-14 04:45:05.627032537,-0.64532864,-0.23886557,0.16825531,17.18492920807541,0.7083894857201585,-71.79813385009766,-81.57430267333984,80.37101745605469,29167793.0,49949.0,0.2254992654373733,0.29671604061999995,0.24248706065699996,0.006274264055781098,0.014208406068953024,0.0106709275812809,29.167793219909072
1638,A,1140305676981647.0,1.4140989407420237,16.511312,2.0618565,194,1970-01-14 04:45:05.676981647,-3.4373868,1.1108245,1.2377808,16.669890069026447,3.8185940333404296,-70.78057098388672,-81.56861877441406,79.18952941894531,29217742.0,49949.0,0.22394462029452333,0.318839801343,0.15620432141125,0.011224636324211253,0.015373199375104942,0.009957117921463508,29.217742329929024
1638,A,1140305726930757.0,-2.438171559257976,12.031761,2.6819549,194,1970-01-14 04:45:05.726930757,-2.0557387,1.6967199,0.5485547,13.249596629258228,2.7213658851072915,-70.4065933227539,-81.5145492553711,78.70752716064453,29267691.0,49949.0,-0.025575701611126652,0.22334877663849995,0.11847431780930001,0.00495416455965849,0.013540888640798969,0.006859961675213627,29.267691439948976
1638,A,1140305776879867.0,-1.9880615592579765,12.778752,0.17283143,194,1970-01-14 04:45:05.776879867,0.843911,1.4421217,0.18849534,13.518571571219198,1.6814967340835383,-69.93196868896484,-81.48114776611328,78.27029418945312,29317640.0,49949.0,-0.11054295901837666,0.13012995691849996,0.071296861198585,-0.0033994954898915303,0.008827954631219293,0.004739440310132424,29.317640549968928
1638,A,1140305826828977.0,0.7341457407420235,11.564892,-0.94047236,194,1970-01-14 04:45:05.826828977,2.6303594,2.26131,0.6359064,11.724810331021038,3.5265692165090594,-70.36907958984375,-81.46930694580078,78.81852722167969,29367589.0,49949.0,-0.03131592060952667,0.118470137078,-0.019171448406285,-0.003542854589267072,0.006208663047515588,0.0013018061217812964,29.36758965998888
1638,A,1140305876778087.0,1.9360349707420237,7.8658504,-0.10250176,194,1970-01-14 04:45:05.876778087,2.0423334,2.7087212,1.1791912,7.881352453897348,3.591488290701007,-69.8639144897461,-81.5043716430664,78.4039306640625,29417538.0,49949.0,0.06668642817895833,-0.004227123931200042,-0.02604775715994,0.0008833607412927709,0.0028531621318347556,-0.001129327049413686,29.417538770008832
1638,A,1140305926727197.0,2.2329159907420237,6.4676366,0.2829647,194,1970-01-14 04:45:05.926727197,1.250842,2.4402745,1.9440511,6.476507950710247,3.3613806722425026,-68.9550552368164,-81.52188110351562,77.55490112304688,29467487.0,49949.0,0.10411746578758335,-0.13152852891850003,0.004506971695030001,0.004265741849867395,-0.003390429552094834,-0.0005379703465933947,29.467487880028784
1638,A,1140305976676307.0,2.0102552407420236,7.303213,-0.09053075,194,1970-01-14 04:45:05.976676307,1.1070313,2.0226908,1.931268,7.315222913731967,3.0077553855671724,-68.80621337890625,-81.53862762451172,77.45362854003906,29517436.0,49949.0,0.10597107992069835,-0.14558011666480003,0.004805941684275001,0.005246856384791481,-0.0069206498691201275,0.00023258535519145277,29.517436990048736
1638,A,1140306026625417.0,1.7373162407420235,9.106047,-0.41135377,194,1970-01-14 04:45:06.026625417,1.617293,1.7957895,1.0769259,9.140814714095535,2.6458015742398486,-68.96565246582031,-81.5903549194336,77.68186950683594,29567386.0,49950.0,0.09359559775006408,-0.07968873150000003,-0.012534565886999999,0.004984177774827291,-0.005626089482915882,-0.00019302238946305683,29.56738610006869
1638,A,1140306076574527.0,2.0318030407420236,10.887333,-1.5725416,194,1970-01-14 04:45:06.076574527,1.4447201,1.5220165,0.25241122,11.007139082222478,2.113637106411162,-68.44580841064453,-81.55091094970703,77.2293701171875,29617335.0,49949.0,0.09413186949542333,0.009824468809999968,-0.049546794918065004,0.004688399630722426,-0.0017448250285514064,-0.001550450945426096,29.61733520985581
1638,A,1140306126523637.0,3.2097502807420235,9.496302,-0.5526117,194,1970-01-14 04:45:06.126523637,0.3315188,1.0980413,0.2406933,9.545147518098052,1.1719781038586088,-68.116455078125,-81.5194320678711,76.91315460205078,29667284.0,49949.0,0.13090517342740332,0.019570892307499962,-0.05307464109085,0.005620187628476134,0.000734134446229002,-0.002562919053604648,29.667284319875762
1638,A,1140306176469227.0,4.038144140742023,10.726921,-1.5126866,194,1970-01-14 04:45:06.176469227,-1.7968795,-0.25164875,1.1685386,10.953332945144718,2.158143992088288,-68.42906188964844,-81.46978759765625,77.13838958740234,29717229.0,49945.0,0.18099804344051035,0.015563436367499987,-0.05157566179675001,0.0077890030832339745,0.0008773920228364364,-0.0026133796888605913,29.717229909962043
1638,A,1140306226414817.0,2.922446040742024,10.695797,0.75462246,194,1970-01-14 04:45:06.226414817,-1.9609302,-1.4617891,0.93204993,10.734179969546068,2.6174017066862043,-69.09334564208984,-81.452880859375,77.71096801757812,29767175.0,49946.0,0.1738268186022011,0.045518736614,-0.018931135768220003,0.008861041279792634,0.001525405105866999,-0.001760766255589996,29.767175500048324
1638,A,1140306276360407.0,1.7732292407420236,12.773964,0.6851906,194,1970-01-14 04:45:06.276360407,0.14190175,-3.3377197,-0.25571993,12.808635100130823,3.350507660791176,-69.8009033203125,-81.64215850830078,78.44035339355469,29817121.0,49946.0,0.1172650988045011,0.09663954145299997,0.03595645154738,0.007269438453397573,0.0035501186781671896,0.00042517321095296266,29.817121089901775
1638,A,1140306326305997.0,4.086028040742024,12.285546,-0.66513914,194,1970-01-14 04:45:06.326305997,0.6841213,-3.140646,-1.1686516,12.415909880038631,3.420149969316002,-70.64373779296875,-81.75032806396484,79.3266830444336,29867066.0,49945.0,0.14632030246186037,0.13633761347499995,0.0005007350848500006,0.006582386433124213,0.005818022001439479,0.0009104270931733638,29.867066679988056
1638,A,1140306376251587.0,5.012584240742024,8.756494,-0.34192193,194,1970-01-14 04:45:06.376251587,-1.2738347,-1.3254353,-0.51564443,9.138812106032324,1.909272834248737,-71.0820083618164,-81.79641723632812,79.70516204833984,29917012.0,49946.0,0.2272196445055011,0.03601206491999996,-0.02514933610111,0.009328413095615917,0.004304088518558333,-0.0006155495131790609,29.917012270074338
1638,A,1140306426197177.0,4.260804840742024,8.222587,1.4297873,194,1970-01-14 04:45:06.426197177,-2.4658656,-1.3083911,-0.21310934,8.546702957431155,2.799606404232174,-71.61231994628906,-81.82733917236328,80.11636352539062,29966957.0,49945.0,0.2315797088373604,-0.06545089972750003,0.027166717952325004,0.011457366851354608,-0.0007351613022302954,5.0379068279466675e-05,29.96695785992779
1638,A,1140306476142767.0,2.2855884207420236,8.794801,-0.425719,194,1970-01-14 04:45:06.476142767,-3.245639,-1.2732373,-1.166521,8.806114768732522,3.6764217636002114,-72.60891723632812,-82.10639953613281,80.94853210449219,30016903.0,49946.0,0.1634830789190411,-0.06449556947600002,0.0250745976559,0.009865902998640614,-0.0032451531754190068,0.001304622374684203,30.01690345001407
1638,A,1140306526088357.0,1.6702786007420236,10.758046,-0.0067336923,194,1970-01-14 04:45:06.526088357,-2.6789184,-0.9962686,-2.4927752,10.784096099183117,3.79250354184931,-73.05101013183594,-82.34259796142578,81.25529479980469,30066849.0,49946.0,0.0987898671275211,-0.0011775518690000388,-0.010799641084807899,0.006549742281620798,-0.0016400548593486863,0.00035648849044988304,30.06684903986752
1638,A,1140306576033947.0,0.9879311407420237,13.324631,0.010025719,194,1970-01-14 04:45:06.576033947,-2.0269766,-1.6886904,-3.301311,13.401301917856763,4.2259867158713025,-73.74099731445312,-82.5689468383789,81.84321594238281,30116794.0,49945.0,0.06638214276921038,0.11194365138249998,8.221013676575003e-05,0.0041247580171461275,0.0027661064201008776,-0.00026764104434998256,30.1167946299538
1638,A,1140306625979537.0,-0.5587232592579765,17.41632,2.9070098,194,1970-01-14 04:45:06.625979537,-0.7614425,-3.1917787,-3.7156987,17.90664442793756,4.95718294798181,-73.33838653564453,-82.68074035644531,81.41926574707031,30166740.0,49946.0,0.010718608424301111,0.27822296932299995,0.072847128015987,0.0019254370595555624,0.009743631018878448,0.0018212643616886944,30.166740220040083
1638,A,1140306675925127.0,-1.1692445592579763,14.698902,1.0754455,194,1970-01-14 04:45:06.675925127,0.12698804,-2.866873,-2.5534954,15.168797499602771,3.841279151305357,-74.11400604248047,-82.66943359375,82.20769500732422,30216685.0,49945.0,-0.043151676347889634,0.31253638139499995,0.09945186497925,-0.0008099347887218144,0.014752737885805254,0.004302736602573556,30.216685809893534
1638,A,1140306725870717.0,3.0517329407420237,14.574404,1.2813468,194,1970-01-14 04:45:06.725870717,-0.27142087,-0.2441919,0.12244895,14.644281870302773,0.38508793548132536,-73.12696075439453,-82.87263488769531,81.21674346923828,30266631.0,49946.0,0.047011382350801115,0.241571470738,0.0588561741079,9.63884380107084e-05,0.013837735391317408,0.003953426660123396,30.266631399979815
1638,A,1140306775816307.0,0.43726464074202354,14.94311,-0.7226,194,1970-01-14 04:45:06.775816307,-0.7081793,1.5539745,2.205041,15.091302357625072,2.7890070776675593,-73.78282928466797,-82.76119995117188,81.82707214355469,30316576.0,49945.0,0.08712899210361037,0.24766511836500002,0.013953304462999997,0.003349820501062791,0.01221746072137467,0.0018182347036118,30.316576990066096
1638,A,1140306825761897.0,-1.1860039592579765,14.667777,-3.071312,194,1970-01-14 04:45:06.825761897,0.251624,4.4951696,2.7568479,15.413478543884619,5.279211561765124,-72.41146087646484,-82.5639877319336,80.45706939697266,30366522.0,49946.0,-0.018698267001298893,0.250001881051,-0.094745364376,0.0017089204979800245,0.012428237976415768,-0.002017620112207349,30.366522579919547
1638,A,1140306875707487.0,-0.1301610592579765,11.708544,-2.218976,194,1970-01-14 04:45:06.875707487,1.7003835,4.9383197,2.5896013,12.186629450494598,5.829608940524401,-70.8634262084961,-82.36333465576172,78.98130798339844,30416468.0,49946.0,-0.03286858900739889,0.16922506433299997,-0.132114362224,-0.0012877790951052097,0.01046935450707463,-0.0056653679523817994,30.416468170005828
1638,A,1140306925653077.0,1.0382093407420236,9.015067,-0.95244336,194,1970-01-14 04:45:06.925653077,2.3640432,3.3233786,2.9699008,9.169851186292671,5.045181496462227,-71.51262664794922,-82.20149230957031,79.72738647460938,30466413.0,49945.0,0.02267623570936037,0.028059375697499965,-0.0791982699676,-0.000254528542735267,0.00492668567866166,-0.005277004707404732,30.46641375985928
1638,A,1140306975598667.0,1.6774611907420236,8.24174,-0.95004916,194,1970-01-14 04:45:06.975598667,2.4524603,1.6296083,3.325699,8.329423273335152,4.441898082251098,-72.64156341552734,-82.13997650146484,80.96395874023438,30516359.0,49946.0,0.06781844018275111,-0.05851655878900003,-0.047510945701959996,0.0022599235410536997,-0.000760607233344031,-0.003164309242915922,30.51635934994556
