Subject-id_accel,Activity_accel,Timestamp_accel,accel_x,accel_y,accel_z,Segment_accel,DateTime,gyro_x,gyro_y,gyro_z,accel_magnitude,gyro_magnitude,Roll,Pitch,Yaw,Time_Difference,Difference_Microseconds,vx,vy,vz,dx,dy,dz,Time_diff
1631,A,1553887928488595.0,0.47802734,7.648926,0.4224412219182566,159,1970-01-18 23:38:07.928488595,-1.2540283,1.9374084,1.624115,7.714210354697144,2.8220361122452795,92.77894592285156,6.697365760803223,4.285926342010498,15005505.0,50354.0,0.049151544969380005,-0.019521842968000063,0.10482485350647189,-0.0016296407292608792,0.0006802003054726857,0.004916782164489837,15.00550542701967
1631,A,1553887978842599.0,-3.3391113,2.81633,1.8301560619182566,159,1970-01-18 23:38:07.978842599,-0.5385895,2.0539246,0.8407593,4.399980060646458,2.2837603010237086,92.54669189453125,7.624312877655029,4.359964847564697,15055859.0,50354.0,-0.07203351086092,-0.22998544968800005,0.05671364181515189,-0.0005760992552513024,-0.006281845107200115,0.004067054696712522,15.05585943092592
1631,A,1553888029196603.0,-2.3355713,1.88414,0.4241196919182566,159,1970-01-18 23:38:08.029196603,1.0962372,0.1334076,0.16020203,3.126721563149286,1.1158845266503703,92.97017669677734,8.559499740600586,4.4185566902160645,15106213.0,50354.0,-0.1428714838202,-0.3751254668100001,0.05675590065434189,-0.005410663051086559,-0.015234877544670152,0.0028568226707544452,15.10621343483217
1631,A,1553888079550607.0,-1.0269928,4.8489685,3.7339341219182565,159,1970-01-18 23:38:08.079550607,2.3318024,-0.91922,-1.170517,5.520796618201973,2.7662931674597977,92.37699890136719,8.700925827026367,4.269803524017334,15156567.0,50354.0,-0.0846592763457,-0.32394972729550003,0.1046873208709619,-0.005728541948696865,-0.017600616161994178,0.004064655988342574,15.156567438971251
1631,A,1553888129904611.0,0.93096924,13.080078,7.719224621918257,159,1970-01-18 23:38:08.129904611,2.3793488,-1.1863098,-1.8072052,14.598965686219493,3.214750735056222,91.79766845703125,8.512551307678223,4.110229969024658,15206921.0,50354.0,-0.0024175851701199974,-0.042069596269500034,0.2883561776935719,-0.0021923341423838003,-0.009215268509396007,0.009895656163359268,15.206921442877501
1631,A,1553888180258615.0,6.9018097,5.515976,7.946550121918257,159,1970-01-18 23:38:08.180258615,0.16845703,-1.4815826,0.49588013,11.05462260961415,1.5714203367998003,90.90513610839844,7.502382755279541,3.9106459617614746,15257275.0,50354.0,0.19720587537238002,-0.025276348442000024,0.39441721072557195,0.0049041847824223,-0.001695568850001437,0.017190185600228784,15.257275447016582
1631,A,1553888230612619.0,-3.0891724,10.415115,-7.809522878081743,159,1970-01-18 23:38:08.230612619,2.5830536,-0.73280334,-1.4454651,14.179074069492232,3.049350093201193,91.94163513183594,7.744603157043457,3.996102809906006,15307629.0,50354.0,0.09599076930210002,-0.09237212189300004,0.0034499349180719214,0.007381811922969384,-0.0029620355376242967,0.010017101125870023,15.307629450922832
1631,A,1553888280966623.0,0.39320374,5.267151,3.4616868219182564,159,1970-01-18 23:38:08.280966623,0.99108887,-0.46948242,0.06828308,5.706108790212032,1.0987872723786072,91.39651489257812,7.468100070953369,3.8939056396484375,15357983.0,50354.0,-0.06787640295281999,-0.09863678891800004,-0.10946546838602811,0.0007078354015758232,-0.004809031347488549,-0.002669153086122733,15.357983454829082
1631,A,1553888331320627.0,-2.6507416,4.703766,-6.811003378081742,159,1970-01-18 23:38:08.331320627,0.66056824,0.683197,-1.4623413,9.745789004648445,1.7440041909902018,92.62066650390625,7.83098840713501,4.088198184967041,15408337.0,50354.0,-0.056838030701219996,-0.24243142269100004,-0.08432574293452809,-0.003139935296107765,-0.008587074363679796,-0.004879081327417644,15.408337458968163
1631,A,1553888381674630.0,1.2219543,10.130737,-2.216734178081744,159,1970-01-18 23:38:08.381674630,1.8863068,-0.9921875,-0.31739807,10.793972814922878,2.154838953082623,93.11690521240234,7.502551078796387,4.09317684173584,15458691.0,50354.0,-0.0359725778521,-0.11998091796900005,-0.22729134845152812,-0.0023366926915469374,-0.009124455500796822,-0.007845583509826738,15.45869146194309
1631,A,1553888432028634.0,-0.3288269,9.015442,0.09253092191825663,159,1970-01-18 23:38:08.432028634,0.41577148,-0.04647827,-0.26383972,9.102213477087654,0.4946084825528791,93.25142669677734,7.380817890167236,4.106295585632324,15509045.0,50354.0,0.0224862685498,-0.011425851317000035,-0.05348106538042813,-0.0003395448093040071,-0.0033084282303136245,-0.007069007063047163,15.50904546584934
1631,A,1553888482382638.0,-0.14482117,9.031631,-0.48553297808174345,159,1970-01-18 23:38:08.482382638,0.6477814,-0.4189453,-0.04888916,9.208056799408514,0.7729980960801621,93.48072814941406,7.224556922912598,4.110678672790527,15559399.0,50354.0,-0.01192503745839,-0.039098043079000014,-0.009894612768028109,0.0002659001151884296,-0.0012720400892080933,-0.0015956094487436828,15.55939946998842
1631,A,1553888532736642.0,-0.947525,8.630005,-0.6848585780817433,159,1970-01-18 23:38:08.532736642,0.75538635,-0.28868103,-0.34335327,8.906418535124489,0.8785423967389827,93.7534408569336,7.217043876647949,4.126947402954102,15609753.0,50354.0,-0.02750199952209,-0.048802190428,-0.02946694820952811,-0.000992654510057545,-0.0022130641790057397,-0.000991006020731933,15.60975347389467
1631,A,1553888583090646.0,-1.1394501,9.739563,-0.6486952780817434,159,1970-01-18 23:38:08.583090646,0.83883667,-0.35772705,-0.95158386,9.998225129727206,1.318001306467824,93.98262023925781,7.250406742095947,4.135919094085693,15660107.0,50354.0,-0.0525437720927,-0.03097858646400001,-0.03357488543662811,-0.002015312391945568,-0.0020086406198098843,-0.0015872042457092752,15.660107478033751
1631,A,1553888633444650.0,0.2594757,11.384628,0.5097520219182566,159,1970-01-18 23:38:08.633444650,0.45262146,-0.8487549,-1.0486908,11.415143215427463,1.423026162911695,94.00038146972656,7.092639446258545,4.096898078918457,15710461.0,50354.0,-0.0221551154688,0.03837455680699996,-0.0034981743604281072,-0.0018806938921358857,0.00018620834532570967,-0.0009333884265104844,15.710461481940001
1631,A,1553888683798654.0,3.298996,12.50769,0.8032395619182566,159,1970-01-18 23:38:08.683798654,-0.2844391,-0.73327637,-0.37451172,12.94507324761793,0.8711250569387528,93.94023132324219,6.580666542053223,4.056494235992432,15760815.0,50354.0,0.0895916419909,0.10806769028599995,0.0330571891062519,0.0016978494282469119,0.003686976455060459,0.0007442073142556056,15.760815485846251
1631,A,1553888734152658.0,0.9842529,12.885117,1.2621476419182567,159,1970-01-18 23:38:08.734152658,-1.4327698,-0.15306091,0.67996216,12.922717218196615,1.5933001854622166,93.77323150634766,6.275541305541992,4.036102771759033,15811169.0,50354.0,0.10783935755530001,0.14584550183899997,0.0520002536309919,0.004970720275574678,0.006392772438131123,0.002141491235795587,15.811169489985332
1631,A,1553888784506662.0,-3.2647247,12.277634,0.5089280219182566,159,1970-01-18 23:38:08.784506662,-3.173355,0.4576416,1.4090576,12.729039374018296,3.50215092624423,93.61474609375,6.417600631713867,4.054014205932617,15861523.0,50354.0,-0.0574154385086,0.14005338192699998,0.0445903719884119,0.0012695230098387661,0.007198076196576581,0.0024318621812197292,15.861523493891582
1631,A,1553888834860666.0,-5.879135,12.879028,0.7305619219182566,159,1970-01-18 23:38:08.834860666,-2.9937286,0.4293213,1.7493591,14.169004093339979,3.4938495917604206,93.4422836303711,6.773941993713379,4.066744804382324,15911877.0,50354.0,-0.2302149556669,0.139900079174,0.031206638315971896,-0.007241670434156564,0.007048388290139876,0.001908341328433471,15.911877498030663
1631,A,1553888885214670.0,-3.8295135,10.989304,-0.21444537808174347,159,1970-01-18 23:38:08.885214670,-2.0482788,-1.3197021,2.0893097,11.735886349363744,3.209715672421459,93.43620300292969,6.978531360626221,4.0064616203308105,15962231.0,50354.0,-0.2444346432845,0.10746379476399999,0.012994266224171894,-0.011950252952799398,0.0062278802541370255,0.0011128461736072002,15.962231501936913
1631,A,1553888935568673.0,0.89712524,9.727417,2.900865321918257,159,1970-01-18 23:38:08.935568673,-1.7973938,0.044387817,2.2250214,9.89860200353675,2.860649398481825,93.02852630615234,6.569312572479248,3.9648728370666504,16012585.000000002,50354.00000000186,-0.07382873922202272,0.028115684617001042,0.06763599492597441,-0.008012917181367018,0.0034134845523755893,0.0020300280849773087,16.01258550491184
1631,A,1553888985922677.0,-0.3929596,6.037964,1.6761491219182567,159,1970-01-18 23:38:08.985922677,-1.0263519,1.7821198,1.3952942,6.062265059347406,2.4851951852398417,92.82234954833984,6.424841403961182,4.032150745391846,16062939.0,50353.99999999814,0.012693378318279533,-0.09654420256299645,0.11523549265246763,-0.0015392049814734853,-0.0017228247963262627,0.004604155442762265,16.06293950905092
1631,A,1553889036276681.0,-2.0785065,2.8412323,1.7666795019182566,159,1970-01-18 23:38:09.036276681,0.01524353,1.7100067,0.50053406,3.550813226136491,1.7818219957312893,92.5877685546875,7.101876258850098,4.088073253631592,16113292.999999998,50353.99999999814,-0.062224101999697704,-0.26991767475489004,0.0866800962623287,-0.0012470350301270192,-0.009226410685232087,0.005083628782107639,16.11329351295717
1631,A,1553889086630685.0,-1.16745,2.8197021,1.4539353619182567,159,1970-01-18 23:38:09.086630685,1.6075745,0.27275085,-0.45896912,3.0555849170276383,1.693913059262354,92.53831481933594,7.504401206970215,4.086398124694824,16163647.000000002,50354.000000003725,-0.08172344680050604,-0.35094385461122596,0.08108542042681789,-0.0036241674361429978,-0.015631430724851857,0.004223832413682955,16.16364751686342
1631,A,1553889136984689.0,-2.1409302,8.7421875,4.324998621918256,159,1970-01-18 23:38:09.136984689,2.7072754,-0.62709045,-1.6945953,9.494475427684897,3.2548787619062636,92.15135955810547,7.740896224975586,3.990053176879883,16214001.0,50353.99999999814,-0.08329508829539692,-0.20237550554079253,0.1454962209110465,-0.0041546716581093955,-0.013930921530546855,0.005704645983963201,16.2140015210025
1631,A,1553889187338693.0,0.011642456,12.294952,6.372163621918257,159,1970-01-18 23:38:09.187338693,1.6637726,-0.72647095,-1.1384125,13.299161872353261,2.1428677807697123,91.6292495727539,7.62190055847168,3.8752121925354004,16264354.999999998,50353.99999999814,-0.053609077530686014,0.03618286119149863,0.2693224538130619,-0.003446836183003163,-0.004184232206782017,0.01044388977352849,16.26435552490875
1631,A,1553889237692697.0,1.3150635,6.447754,1.3024918807072567,159,1970-01-18 23:38:09.237692697,0.94351196,-1.5423431,-0.20129395,6.580495699700827,1.8192185990384042,91.62622833251953,7.164351463317871,3.792444944381714,16314709.0,50354.00000000186,0.03340247585421323,-0.02158409103800083,0.19322480158960972,-0.0005087416104085741,0.00036755323615462776,0.011645552249273494,16.314709529047832
1631,A,1553889288046701.0,0.6345825,9.949005,-5.428922878081743,159,1970-01-18 23:38:09.288046701,2.17247,-1.6552277,-0.98309326,12.02901220665818,2.9027361226271875,92.49808502197266,6.990230560302734,3.8056211471557617,16365063.0,50354.0,0.049086237342,-0.08064799865700005,-0.10389115322089744,0.0020768183321410606,-0.0025738973222510374,0.0022491532649790693,16.365063532954082
1631,A,1553889338400705.0,0.8276825,5.8453064,-2.937895078081743,159,1970-01-18 23:38:09.338400705,0.5471039,0.73088074,-0.21138,7.268659944229617,0.9371183692032493,93.31983947753906,6.69188117980957,3.9368743896484375,16415417.000000002,50354.00000000186,0.03681544590500136,-0.09581582188220358,-0.2106513756823359,0.0021627466791098336,-0.004442829609715694,-0.007919237250197,16.415417536860332
1631,A,1553889388754709.0,-3.1566925,6.518463,-4.656278878081743,159,1970-01-18 23:38:09.388754709,1.1059418,0.25177002,-0.8267212,9.378797072690372,1.4035538288528446,94.23439025878906,7.088352680206299,4.05500602722168,16465771.0,50353.99999999814,-0.05863748476999783,-0.1821865778161933,-0.191198517694321,-0.0005494134725039959,-0.00699926641720628,-0.010117374765543715,16.465771540999413
1631,A,1553889439108712.0,-0.4600067,9.07077,-1.7215863780817433,159,1970-01-18 23:38:09.439108712,1.5613403,-1.0259552,-0.29092407,9.572639739638898,1.890768208775601,94.65994262695312,7.003823757171631,4.047873497009277,16516124.999999998,50353.99999999814,-0.09105763575839664,-0.10097908075899632,-0.16057551355442215,-0.0037688740495432477,-0.007129261785947285,-0.00885661478474928,16.51612554397434
1631,A,1553889489462716.0,0.1887207,9.398682,-1.0220320780817433,159,1970-01-18 23:38:09.489462716,0.5410156,0.6660309,-0.15733337,9.68370691089462,0.8723811257207064,94.9224624633789,6.808746337890625,4.109720706939697,16566479.000000002,50354.000000003725,-0.006830167622000506,-0.02846380699600213,-0.06907608187083321,-0.002464521225708441,-0.003258983585007837,-0.005781938218022082,16.56647954788059
1631,A,1553889539816720.0,-0.7133484,8.505569,-0.9375441780817433,159,1970-01-18 23:38:09.539816720,0.67329407,0.17147827,-0.1547699,8.824469566947137,0.711816987522332,95.20271301269531,6.7638258934021,4.1479878425598145,16616833.0,50353.99999999814,-0.013208551602899512,-0.04269387257299845,-0.04933625140142628,-0.0005045148339252891,-0.001791536898508661,-0.002981267314795567,16.61683355201967
1631,A,1553889590170724.0,-1.9955292,9.197952,-0.6835768780817433,159,1970-01-18 23:38:09.590170724,0.80033875,-0.1976471,-0.6443634,9.619192600588622,1.0463320133444893,95.41350555419922,6.928060054779053,4.161526679992676,16667186.999999998,50353.99999999814,-0.06820141133519748,-0.04774765178299826,-0.04081496483102659,-0.002049658636892392,-0.0022770462587108444,-0.002269737171084382,16.66718755592592
1631,A,1553889640524728.0,-1.0181732,10.884628,-0.37039017808174335,159,1970-01-18 23:38:09.640524728,0.72528076,-0.7207947,-1.0228424,11.059398116268556,1.446300022682717,95.52928924560547,6.941547870635986,4.140307426452637,16717541.0,50354.00000000186,-0.0758759853248028,0.012149916660000416,-0.026535728573029084,-0.0036274366157089616,-0.0008962441771917498,-0.0016956884078339722,16.71754155983217
1631,A,1553889690878732.0,1.803894,11.396805,-0.03742817808174337,159,1970-01-18 23:38:09.690878732,0.12478638,-0.5635376,-0.76646423,11.61621894784719,0.9594861557712843,95.56187438964844,6.590628623962402,4.1192169189453125,16767895.0,50354.0,0.019782092581600005,0.06751043864099997,-0.010267642753128105,-0.001412275937595617,0.002005608765413287,-0.0009265984798786595,16.76789556397125
1631,A,1553889741232736.0,1.8380585,12.895035,0.8765275219182567,159,1970-01-18 23:38:09.741232736,-0.8107147,-0.2858734,0.0927887,13.032337447151914,0.8646338349100965,95.42840576171875,6.2242560386657715,4.094395160675049,16818249.0,50354.0,0.09169343809250001,0.11812645567999998,0.021126004179771896,0.0028066194357818162,0.004673780088319816,0.00027338096563861073,16.8182495678775
1631,A,1553889791586740.0,-1.4507141,11.821991,1.3360917339182565,159,1970-01-18 23:38:09.791586740,-2.5286713,0.17939758,1.0231781,11.910716711423145,2.7337255640376847,95.16307830810547,6.192477703094482,4.0834760665893555,16868603.0,50354.0,0.009752169958800004,0.12883136360199998,0.05570711500419589,0.0025540960739075806,0.006217657016062913,0.0019344274416947572,16.868603572016582
1631,A,1553889841940744.0,-4.7180786,13.503754,-0.26486037808174334,159,1970-01-18 23:38:09.841940744,-3.2107697,0.63757324,1.5773621,14.389863899282126,3.6336775995289674,95.03987121582031,6.432075500488281,4.111753940582275,16918957.0,50354.0,-0.1553116938079,0.144157081865,0.026970391845895895,-0.0036647521319487903,0.006873030091522659,0.002081571589964761,16.918957575922832
1631,A,1553889892294748.0,-3.7064514,13.026657,-1.3679487780817434,159,1970-01-18 23:38:09.892294748,-2.4301453,-0.86808777,1.7597046,13.804446616694785,3.123418453361128,95.07084655761719,6.576858997344971,4.078230381011963,16969311.0,50354.0,-0.21210439181000004,0.174486957747,-0.04110923612472811,-0.009250434787601871,0.008022500985311324,-0.0003559736824081587,16.969311579829082
1631,A,1553889942648752.0,1.458664,9.297867,2.0190293519182565,159,1970-01-18 23:38:09.942648752,-1.7876587,-0.87272644,2.0702972,9.438828276298677,2.871150564336291,94.74131774902344,6.097604751586914,3.9998252391815186,17019665.0,50354.0,-0.056592543369800005,0.06859534074799997,0.01639225560748189,-0.006764982737021826,0.006120083029208614,-0.0006222994184827081,17.019665583968163
1631,A,1553889993002755.0,1.142456,7.0077057,2.2558915219182567,159,1970-01-18 23:38:09.993002755,-1.3291931,1.4338684,1.7099304,7.163947575275135,2.597420808889143,94.37422180175781,5.632796287536621,4.033387660980225,17070019.0,50354.0,0.06548839824,-0.08294379613210004,0.1076296828405819,0.00022397093806702517,-0.0003612510612054874,0.0031225003443069023,17.07001958694309
1631,A,1553890043356759.0,-2.2052612,3.1237335,1.0879075319182567,159,1970-01-18 23:38:10.043356759,-0.42803955,2.1853638,0.9352112,3.8297425283733,2.415295589223001,94.35467529296875,6.283734321594238,4.138334274291992,17120373.0,50354.0,-0.0267582465204,-0.23838995526160006,0.08418682877844191,0.0009751090298443691,-0.008090219858839188,0.004829364313032163,17.12037359084934
1631,A,1553890093710763.0,-2.244629,1.2849426,0.5793015719182566,159,1970-01-18 23:38:10.093710763,0.6461029,0.8889618,0.04133606,2.6855947173537307,1.0997321078808118,94.7276382446289,7.3899970054626465,4.223095893859863,17170727.0,50354.0,-0.11203488556540002,-0.3824719618303,0.0419753236072919,-0.0034943946865241874,-0.01563144048662277,0.00317638451061562,17.17072759498842
1631,A,1553890144064767.0,-1.6073608,2.0220642,4.768983621918257,159,1970-01-18 23:38:10.144064767,2.8233185,-0.49967957,-1.1438904,4.323080285091555,3.086955178218465,93.65483093261719,7.901822566986084,4.042178630828857,17221081.0,50354.0,-0.0969815471946,-0.41020868979640007,0.1346537763252219,-0.005262406727598521,-0.01995732076600543,0.0044469908490009005,17.22108159889467
1631,A,1553890194418771.0,7.2175446,12.744202,10.655885621918255,159,1970-01-18 23:38:10.194418771,1.190094,-1.6511688,0.32537842,17.37797153269259,2.0612018948009765,92.8603744506836,7.1628923416137695,3.8472166061401367,17271435.0,50354.0,0.1412475975326,-0.12169891588260005,0.3883519329520719,0.0011144863493598258,-0.013391837788180186,0.013167714742474424,17.27143560303375
1631,A,1553890244772775.0,4.844803,10.869293,1.9076249219182566,159,1970-01-18 23:38:10.244772775,0.96162415,-1.699646,0.44487,11.91552982009826,2.002854674727855,92.75948333740234,6.404709815979004,3.743988513946533,17321789.0,50354.0,0.30369372552519996,0.10104776361499998,0.31631150496217186,0.011202287690626232,-0.000519934060641367,0.017741311376366916,17.32178960694
1631,A,1553890295126779.0,-6.066696,12.214386,2.1790482819182566,159,1970-01-18 23:38:10.295126779,-0.59155273,1.2108307,-1.2365875,13.666177358300569,1.8289872229157844,92.5827865600586,6.953367233276367,3.789787769317627,17372143.0,50354.0,-0.030763600061000016,0.08770858618299997,0.1028901712529919,0.0068715617688121615,0.004752318618864245,0.010554240602069179,17.37214361084625
1631,A,1553890345480783.0,-5.0234222,7.2069244,-3.393980378081743,159,1970-01-18 23:38:10.345480783,0.2762146,0.9516754,-1.9664612,9.961487753323658,2.202033202139277,93.2367935180664,7.636693954467773,3.922746419906616,17422497.0,50354.0,-0.2792159059214,-0.004498868059200051,-0.030588345385108094,-0.007804354022118886,0.0020949710732029105,0.0018203430698757108,17.422497614985332
1631,A,1553890395834787.0,-1.9241791,9.360214,-1.9960768780817435,159,1970-01-18 23:38:10.395834787,1.9543304,-0.32388306,-0.9744568,10.109229769227477,2.207685123378188,93.72808837890625,7.776833534240723,3.962347984313965,17472851.0,50354.0,-0.1749197579301,-0.07635835650320005,-0.1357054715384281,-0.011433773608789216,-0.0020357423428075476,-0.004186779428683871,17.472851618891582
1631,A,1553890446188791.0,1.2375488,10.412827,-0.46041707808174337,159,1970-01-18 23:38:10.446188791,1.1490021,0.5223694,-0.2190094,10.63326325084685,1.2810311210697145,93.93608856201172,7.429311752319336,4.008624076843262,17523205.0,50354.0,-0.0172872910631,0.004356653256999944,-0.06184714833432812,-0.004839196872501797,-0.0018127868826295804,-0.0049737823105363834,17.523205623030663
1631,A,1553890496542795.0,0.647171,9.289139,-1.2285443780817433,159,1970-01-18 23:38:10.496542795,0.5665436,-0.05319214,0.08013916,9.64950780957262,0.5746506237917481,94.24639129638672,7.148938179016113,4.041429042816162,17573559.0,50354.0,0.0474515904046,0.0025671979819999777,-0.04252298258182811,0.0007594465645209456,0.00017432180264430105,-0.0026277267860760653,17.573559626936913
1631,A,1553890546896798.0,-0.8673706,8.797668,-0.2189772780817434,159,1970-01-18 23:38:10.546896798,0.64845276,-0.28349304,0.05480957,8.970290740315699,0.7098333428655237,94.41636657714844,7.108089923858643,4.044258117675781,17623913.0,50354.0,-0.0055439653291999985,-0.03809766016100003,-0.03644425273722811,0.001055108276523346,-0.0008945504462806844,-0.0019881580836278788,17.62391362991184
1631,A,1553890597250802.0,-2.2300262,8.877823,-0.4369642780817433,159,1970-01-18 23:38:10.597250802,0.8907471,0.015197754,-0.5776367,9.317425219265687,1.061755868866259,94.6241226196289,7.306046485900879,4.067770481109619,17674267.0,50354.0,-0.07798315923360001,-0.04845336309300006,-0.016514640559528105,-0.002102962415117616,-0.0021790951124659604,-0.001333346056532431,17.67426763405092
1631,A,1553890647604806.0,1.1962585,10.722214,0.7471330219182566,159,1970-01-18 23:38:10.647604806,0.81147766,-0.53544617,-1.0709534,10.803023371939876,1.446423098065813,94.6203384399414,7.023290157318115,4.039952278137207,17724621.0,50354.0,-0.02602716938290001,9.315489999289551e-07,0.007809118463571895,-0.002618668043577621,-0.0012198868689832912,-0.00021917892980988953,17.72462163795717
1631,A,1553890697958810.0,2.7824097,12.230621,0.2997758219182567,159,1970-01-18 23:38:10.697958810,0.18113708,-0.40005493,-0.9395294,12.58313564572105,1.0370969492928765,94.62909698486328,6.586564064025879,4.023850440979004,17774975.0,50354.0,0.1001709292714,0.08441432679499994,0.026358023961271897,0.0018667174427127646,0.0021253229593268847,0.0008602261448302921,17.77497564186342
1631,A,1553890748312814.0,2.3366852,13.4157715,2.0547349219182567,159,1970-01-18 23:38:10.748312814,-0.546463,-0.003768921,0.07991028,13.638508540673726,0.5522876677820923,94.40814208984375,6.178403854370117,4.0019145011901855,17825329.0,50354.0,0.12888345229730003,0.15223002397249996,0.059279516997571904,0.005766902164755161,0.005957994819273346,0.0021560963687208105,17.8253296460025
1631,A,1553890798666818.0,-1.0117035,12.248962,-2.218199078081743,159,1970-01-18 23:38:10.798666818,-2.5248566,0.93592834,1.3143921,12.784982261775992,2.9964127387129307,94.5758056640625,6.071342468261719,4.0747551918029785,17875683.0,50354.0,0.0333590642609,0.15269179532949997,-0.004115537059728098,0.004084779839385802,0.007677016644566452,0.0013888635228950935,17.87568364990875
1631,A,1553890849020822.0,-5.84256,15.71994,-0.8360731780817432,159,1970-01-18 23:38:10.849020822,-3.215683,1.8340607,1.8444366,16.90637205920537,4.135981404599524,94.49891662597656,6.322447776794434,4.167043685913086,17926037.0,50354.0,-0.17256979213950002,0.21070384565399997,-0.0768974125934281,-0.003504908495799513,0.009149212053041578,-0.0020396630334175137,17.926037654047832
1631,A,1553890899374826.0,-9.950455,9.861923,1.1044480619182566,159,1970-01-18 23:38:10.899374826,-1.7561188,-1.1845245,1.8893585,14.011006219238135,2.8384374349870636,94.34383392333984,7.133023738861084,4.092494487762451,17976391.0,50354.0,-0.39762073865500003,0.15060536475099998,0.0067568744503518985,-0.01435568699381313,0.009096681990366685,-0.0017659283288282293,17.976391657954082
1631,A,1553890949728830.0,3.0840302,7.1782684,1.4510361919182566,159,1970-01-18 23:38:10.949728830,-2.7091827,-0.7305298,2.1886597,7.814144191323142,3.5585918525550833,94.07565307617188,6.30293083190918,4.033576488494873,18026745.0,50354.0,-0.17287597718960002,-0.06444830112220001,0.06433942705884191,-0.014363395814819496,0.002169176390982297,0.0017899915830969727,18.026745661860332
1631,A,1553891000082834.0,3.342041,7.234268,1.2393052319182567,159,1970-01-18 23:38:11.000082834,-1.8916931,1.4545288,1.6684113,7.969182026156733,2.911658132505384,93.90655517578125,5.475099563598633,4.092819690704346,18077099.0,50354.0,0.16178919460240002,-0.13060477105720003,0.0677347260279319,-0.00027913192519793444,-0.004910851198260755,0.0033252309522657044,18.077099665999413
1631,A,1553891050436837.0,-1.4425049,5.141861,1.1583726219182566,159,1970-01-18 23:38:11.050436837,-0.7433777,2.5969696,0.68348694,5.342314188875548,2.7863983752026584,93.8261489868164,5.685759544372559,4.21518611907959,18127453.0,50354.0,0.0478246203897,-0.18187540016700005,0.0603663353260419,0.005277447020056103,-0.007867313270911686,0.003225200421708999,18.12745366897434
1631,A,1553891100790841.0,-2.6833344,0.83709717,0.3227708219182567,159,1970-01-18 23:38:11.100790841,0.44885254,1.1389465,0.3005371,2.976716081321665,1.260551578081243,94.3014907836914,6.908417701721191,4.320645332336426,18177807.0,50354.0,-0.1038762560561,-0.3429369701539101,0.0372907484854719,-0.001411212031172953,-0.013213201047569557,0.0024587123991224834,18.17780767288059
1631,A,1553891151144845.0,-1.0436096,0.19703674,3.627687221918257,159,1970-01-18 23:38:11.151144845,2.6949768,-0.6755829,-0.5246277,2.5562763560449304,2.8274628964706046,93.11353302001953,7.514125347137451,4.12382173538208,18228161.0,50354.0,-0.09383326908800001,-0.46743281054793,0.09946068216967191,-0.0049777327145530065,-0.02040267996873023,0.003442990769604556,18.22816167701967
1631,A,1553891201498849.0,-6.241287,15.689499,0.26291062191825665,159,1970-01-18 23:38:11.201498849,2.36409,-2.1434479,-1.2727203,16.91729114709935,3.4355650758130754,93.23362731933594,7.933417797088623,4.021836757659912,18278515.0,50354.0,-0.1834118416982,-0.09349388967402006,0.0979535819142719,-0.006980200154264158,-0.014122451531488037,0.004970298926841453,18.27851568092592
1631,A,1553891251852853.0,7.578354,2.7514954,5.8789536219182565,159,1970-01-18 23:38:11.251852853,0.54826355,0.48646545,0.29592896,9.270723705141156,0.790452720704399,92.52912139892578,6.704108238220215,3.9515254497528076,18328869.0,50354.0,0.033663335859000006,-0.029180283991200057,0.1546337160670719,-0.0037702181315135384,-0.003088567670369247,0.006359390401276294,18.32886968483217
1631,A,1553891302206857.0,-5.568741,15.754623,-9.539747378081744,159,1970-01-18 23:38:11.302206857,2.3012238,-1.3052979,-1.8266754,19.91915769964649,3.2149924731476447,93.37130737304688,7.0596022605896,3.9782555103302,18379223.0,50354.0,0.050596026501,-0.027540657043200037,-0.09216780439892813,0.0021213979661377203,-0.0014280631324230912,0.0015727042580688559,18.37922368897125
1631,A,1553891352560861.0,0.49179077,4.0495605,5.350084021918257,159,1970-01-18 23:38:11.352560861,1.6328125,-1.2003174,-0.04536438,5.7466445922078915,2.027041303938278,92.3715591430664,6.825547695159912,3.7880492210388184,18429577.0,50354.0,-0.12782237594071003,0.00514072797949998,-0.1054831543181281,-0.0019443277998435792,-0.0005639630140367764,-0.004976258187619325,18.4295776928775
1631,A,1553891402914865.0,-5.815048,2.5277557,-2.1321393780817433,159,1970-01-18 23:38:11.402914865,-0.065597534,-0.9032898,-2.0700378,7.211166284911373,2.2594893212139247,93.0302734375,8.014443397521973,3.8329572677612305,18479931.0,50354.0,-0.13402364727971003,-0.32787211003260003,0.08101819229787192,-0.006592497326620516,-0.0081254080059509,-0.0006159543487839898,18.479931697016582
1631,A,1553891453268869.0,-0.5869751,7.9850464,-5.074049378081743,159,1970-01-18 23:38:11.453268869,1.7155609,-0.5839691,0.27523804,10.235506319027358,1.8330098444980216,93.95187377929688,7.920741081237793,3.9191551208496094,18530285.0,50354.0,-0.1611837355887,-0.22878838152830006,-0.1814302143139281,-0.00743243627847796,-0.014015041196028784,-0.002528073478298247,18.530285700922832
1631,A,1553891503622873.0,0.73680115,10.793671,1.2881028429182566,159,1970-01-18 23:38:11.503622873,0.7580261,-0.74812317,0.15486145,10.818799203072633,1.0762313480233519,93.88714599609375,7.622466087341309,3.867690086364746,18580639.0,50354.0,0.0037721704608500014,-0.020677432020200046,-0.09531877591581112,-0.00396315097522388,-0.006280800787710588,-0.006967709327014144,18.580639704829082
1631,A,1553891553976877.0,-0.029968262,9.08667,-0.8505079780817433,159,1970-01-18 23:38:11.553976877,0.5263519,-0.909729,-0.05670166,9.338298157237457,1.0525532073588326,94.14447021484375,7.445540904998779,3.8531482219696045,18630993.0,50354.0,0.017795931621176,0.007058145356999955,0.011017325911988897,0.0005430201061191688,-0.00034289278031938866,-0.002122457606746232,18.630993708968163
1631,A,1553891604330880.0,0.9556885,8.768539,-0.2623426780817433,159,1970-01-18 23:38:11.604330880,0.6194,-1.0579529,-0.6482544,8.95819603185852,1.3867784486852146,94.31837463378906,7.146664142608643,3.82122802734375,18681347.0,50354.0,0.023306858432126,-0.04392860300700003,-0.028018240970228103,0.0010348449451719846,-0.000928287512254052,-0.00042803203842128846,18.68134771194309
1631,A,1553891654684884.0,1.2265778,10.505066,0.4706742519182566,159,1970-01-18 23:38:11.654684884,0.59580994,-1.2723389,-1.1255188,10.609090439172741,1.8001745277082035,94.34611511230469,6.866257190704346,3.7621657848358154,18731701.0,50354.0,0.05494291863510001,-0.00821764691500004,0.005245164034481897,0.0019700946372215493,-0.0013128861342861957,-0.0005733577580112822,18.73170171584934
1631,A,1553891705038888.0,3.5826416,11.719788,-0.9237959780817435,159,1970-01-18 23:38:11.705038888,0.09538269,-0.7649689,-0.89245605,12.455723234260839,1.179301944669154,94.50094604492188,6.341648101806641,3.74489426612854,18782055.0,50354.0,0.12108171683380001,0.06608594915799994,-0.01140824569961811,0.004431772247200496,0.0014569502455720085,-0.00015516790708313446,18.78205571998842
1631,A,1553891755392892.0,2.7084198,10.704559,1.7019059419182567,159,1970-01-18 23:38:11.755392892,-0.5013275,0.01637268,-0.039413452,11.049102451293892,0.5031408819656665,94.31463623046875,5.842192649841309,3.728855848312378,18832409.0,50354.0,0.1583900528678,0.07110858441899995,0.019590474559511895,0.007036260745777185,0.0034541467718681267,0.00020600397600554582,18.83240972389467
1631,A,1553891805746896.0,2.5836182,11.131439,-0.3029921780817433,159,1970-01-18 23:38:11.805746896,-2.0334625,0.80122375,0.77989197,11.539564432068728,2.3205949067730014,94.31180572509766,5.33949089050293,3.7757506370544434,18882763.0,50354.0,0.133237640726,0.05629572164599997,0.0352204518321119,0.007342310441611104,0.003207658213798503,0.0013799746937619125,18.88276372803375
1631,A,1553891856100900.0,-2.5795746,14.585495,2.6456162219182566,159,1970-01-18 23:38:11.856100900,-3.2103577,2.1239777,1.9477692,14.872622280454726,4.314102767495834,93.92487335205078,5.352568626403809,3.852785587310791,18933117.0,50354.0,0.00010180571720000371,0.15400604731799997,0.0589802455516719,0.003357087243100447,0.005294767637206627,0.0023716909580315253,18.93311773194
1631,A,1553891906454904.0,-5.9696503,18.517105,-2.9544203780817435,159,1970-01-18 23:38:11.906454904,-2.1460876,0.075424194,1.1786041,19.915849827560063,2.4495894391614117,94.03285217285156,5.595080852508545,3.8728246688842773,18983471.0,50354.0,-0.21524383530729999,0.33995496019999993,-0.00777476223972811,-0.005416630878989947,0.012436456286280683,0.0012892004533448089,18.98347173584625
1631,A,1553891956808908.0,5.38974,10.037689,-2.528623878081743,159,1970-01-18 23:38:11.956808908,-2.5134583,0.22892761,2.9981537,12.020059432857279,3.919031268729926,94.27984619140625,4.68599796295166,3.9080798625946045,19033825.0,50354.0,-0.014600401623099998,0.22545484853800002,-0.1380466052374281,-0.00578678835319668,0.014235322754596626,-0.0036713445689723623,19.033825739985332
1631,A,1553892007162912.0,4.074997,7.573471,2.9053056219182567,159,1970-01-18 23:38:12.007162912,-1.4823151,1.6301727,1.3709259,8.748264075866194,2.5950258015680903,93.85641479492188,3.8473501205444336,3.9585421085357666,19084179.0,50354.0,0.238293683449,-0.05007302468000004,0.009483716264571907,0.005631925756530685,0.0044155881792728655,-0.0032368278556696006,19.084179743891582
1631,A,1553892057516916.0,-3.4108582,4.857025,0.5786301819182567,159,1970-01-18 23:38:12.057516916,-1.1526184,2.3361816,1.1520233,5.979013227935937,2.8484085605720275,93.90206146240234,4.518586158752441,4.078155517578125,19134533.0,50354.0,0.0167210225676,-0.18050660220800005,0.08771505173319191,0.006420505253379939,-0.005805303266159179,0.0024471733818796997,19.134533748030663
1631,A,1553892107870920.0,-2.2668304,1.9673767,0.4746415219182566,159,1970-01-18 23:38:12.107870920,0.49873352,0.8726349,0.7149658,3.1135834812734764,1.2334516155241926,94.25038146972656,5.4461469650268555,4.147413730621338,19184887.0,50354.0,-0.1429471658822,-0.3216512383991001,0.02651822168749189,-0.0031779956102316845,-0.012642827952964961,0.002876051124912556,19.184887751936913
1631,A,1553892158224923.0,0.22636414,2.2951355,2.7714250219182563,159,1970-01-18 23:38:12.158224923,1.7734528,-0.6386719,-0.15971375,2.7343549676479006,1.8917042875715306,93.47605895996094,5.229297161102295,4.035850524902344,19235241.0,50354.0,-0.05137281902802,-0.3861519303406001,0.08172621737417189,-0.00489239426008461,-0.017820360379359433,0.002725270242255509,19.23524175491184
1631,A,1553892208578927.0,0.7078247,9.120605,6.057710621918257,159,1970-01-18 23:38:12.208578927,4.106598,-1.3659363,-2.4008179,10.310126176081022,4.9491267611794,92.93661499023438,5.143101692199707,3.9077351093292236,19285595.0,50354.0,0.023520072424680002,-0.20605510143150005,0.22229114810487188,-0.0007012486012322912,-0.014909996438926165,0.007654245210665886,19.28559575905092
1631,A,1553892258932931.0,19.181702,19.574722,12.365785621918256,159,1970-01-18 23:38:12.258932931,-0.68499756,-0.9805603,2.391098,29.55510512624797,2.6735874410136735,92.3125228881836,4.017327308654785,3.806098699569702,19335949.0,50354.0,0.5007586137259,0.22899304787900004,0.46384836493107195,0.013199764481213154,0.0005775086777087074,0.017274934519705958,19.33594976295717
1631,A,1553892309286935.0,-0.16334534,5.3078613,-5.868070878081743,159,1970-01-18 23:38:12.309286935,2.6954346,-3.233841,-1.2371521,8.922826050635171,4.387897060630818,93.55459594726562,4.049788951873779,3.725355386734009,19386303.0,50354.0,0.4788251656288201,0.13299959974409997,0.16359296410557192,0.024662980812813793,0.00911388888920679,0.015797090341155583,19.38630376686342
1631,A,1553892359640939.0,-2.8817444,11.318787,5.6107806219182565,159,1970-01-18 23:38:12.359640939,-1.5757904,1.7283325,-0.4098816,12.4491314273212,2.374500271911328,92.90507507324219,4.306259632110596,3.770899772644043,19436657.0,50354.0,-0.07666622438398,-0.07486007575090003,-0.006477796779428093,0.010125155663721339,0.001463778795576795,0.0039556885677703236,19.4366577710025
1631,A,1553892409994943.0,-2.686081,1.5842438,-11.782728378081744,159,1970-01-18 23:38:12.409994943,2.113144,-0.1255188,-1.3334808,13.451670879427004,2.5018600236340323,94.39800262451172,4.639059543609619,3.8765172958374023,19487011.0,50354.0,-0.14018114009580002,-0.16860959354840002,-0.15539112865692814,-0.005459566095507422,-0.006129835863948478,-0.004075373935711141,19.48701177490875
1631,A,1553892460348947.0,-1.485672,13.430954,6.158448921918257,159,1970-01-18 23:38:12.460348947,0.9875488,-1.7707977,-0.6050873,14.358907117885654,2.115917712796984,93.85263061523438,4.718058109283447,3.742361545562744,19537365.0,50354.0,-0.10503222528100002,-0.11543156498940006,-0.14160248386782812,-0.006173736900091696,-0.007151304248506194,-0.007477408182535789,19.537365779047832
1631,A,1553892510702951.0,7.32222,9.070663,-4.763426078081743,159,1970-01-18 23:38:12.510702951,0.784729,1.3007813,0.010253906,13.141042902062084,1.5191894998514657,94.49125671386719,3.832364797592163,3.85138201713562,19587719.0,50354.0,0.146946768996,0.07305401120899996,0.03512249013927193,0.0010552824671125549,-0.0010669396715291336,-0.002680846802103859,19.587719782954082
1631,A,1553892561056955.0,-1.7691498,10.075287,-2.423475478081744,159,1970-01-18 23:38:12.561056955,0.9815674,-0.844635,0.2780609,10.886873665047437,1.3244624222968993,94.92323303222656,3.963228464126587,3.834372043609619,19638073.0,50354.0,0.1398096484254,-0.011431616850000059,-0.1809446204795281,0.007219666321418588,0.0015514670227765406,-0.0036713637755766302,19.638073786860332
1631,A,1553892611410959.0,0.993103,8.267212,-1.3090803780817433,159,1970-01-18 23:38:12.611410959,0.6395111,-1.0496368,-0.5980072,8.726584542981406,1.3668666614521294,95.26313018798828,3.739001512527466,3.8053879737854004,19688427.0,50354.0,-0.019538530283600006,-0.031660102677000035,-0.09397455879062812,0.0030280659414560988,-0.0010849202225312814,-0.006921640176484724,19.688427790999413
1631,A,1553892661764962.0,1.3764954,9.80896,-0.6105635780817433,159,1970-01-18 23:38:12.661764962,0.7013855,-1.4617462,-0.95921326,10.088119679833166,1.883808284031185,95.4368667602539,3.5064589977264404,3.745844602584839,19738781.0,50354.0,0.0596593789168,-0.038365417556,-0.048330875884328106,0.0010101226060380763,-0.0017630325229062423,-0.0035828239288113726,19.73878179397434
1631,A,1553892712118966.0,3.3355255,10.781464,1.5399491519182567,159,1970-01-18 23:38:12.712118966,0.27633667,-1.2355499,-0.8354492,11.288139330596112,1.5168786623712982,95.28753662109375,3.048224449157715,3.6790292263031006,19789135.0,50354.0,0.11863455019930003,0.024935905047999977,0.023399140592481896,0.0044889062533560505,-0.0003381148364139166,-0.000627706299442812,19.78913579788059
1631,A,1553892762472970.0,5.5707703,11.543671,1.3315446149182566,159,1970-01-18 23:38:12.762472970,-0.4396057,-1.0146637,-0.32792664,12.817592084312098,1.1533999639291954,95.14102172851562,2.379206895828247,3.6243231296539307,19839489.0,50354.0,0.22423380935660003,0.06861072389499996,0.07229559856764291,0.008632396688538897,0.0023552234768979097,0.002409306447834462,19.83948980201967
1631,A,1553892812826974.0,4.2194214,12.527206,0.7735917219182566,159,1970-01-18 23:38:12.812826974,-1.296341,0.44595337,0.57829285,13.229290470568024,1.4878834016335014,95.01239776611328,1.8356789350509644,3.6418848037719727,19889843.0,50354.0,0.24648765643090004,0.11256327022899995,0.0530010175525329,0.01185135434413189,0.004561417650059947,0.0031545929040576667,19.88984380592592
1631,A,1553892863180978.0,-0.29833984,10.154892,0.1983048219182566,159,1970-01-18 23:38:12.863180978,-2.9633331,1.6911926,1.7731018,10.219101406469674,3.845174308794545,94.89644622802734,1.735994815826416,3.719468116760254,19940197.0,50354.0,0.09872107043612,0.07759798134599996,0.024469439284171897,0.008691320116330965,0.004787689830903773,0.0019504736917777168,19.94019780983217
1631,A,1553892913534982.0,-1.9267578,17.529388,-0.30462477808174326,159,1970-01-18 23:38:12.913534982,-2.380066,1.9765167,2.5081787,17.708038123527032,3.9827494047289216,94.78858947753906,1.7153395414352417,3.8075454235076904,19990551.0,50354.0,-0.05602128328228,0.20353791756,-0.0026768175363281036,0.0010750525411722296,0.007078158526756362,0.0005486728377454632,19.99055181397125
1631,A,1553892963888986.0,-6.625366,8.434372,-0.7728559780817432,159,1970-01-18 23:38:12.963888986,-1.5287323,-1.4314575,2.174591,10.92433572666836,3.0190957316141103,94.8882064819336,2.447675943374634,3.7330880165100098,20040905.0,50354.0,-0.21531682091260002,0.16022038551999998,-0.0271277329979281,-0.006831479449314495,0.009158342796645161,-0.0007503891688009685,20.0409058178775
1631,A,1553893014242990.0,7.921158,7.199478,5.841371321918257,159,1970-01-18 23:38:13.014242990,-2.6038818,0.95687866,1.7138214,11.626641502649683,3.2608282673935154,94.12654876708984,1.347692847251892,3.753756523132324,20091259.0,50354.0,0.03262415518400001,-0.09985575855000005,0.12761001081177192,-0.0045996532450489624,0.0015198002132236885,0.002529842308519146,20.091259822016582
1631,A,1553893064596994.0,-2.148056,5.631134,-0.7665388780817433,159,1970-01-18 23:38:13.064596994,-0.85417175,2.2871552,0.8946533,6.37217700980852,2.600210148158412,94.45980834960938,1.7467385530471802,3.8745710849761963,20141613.0,50354.0,0.145349389054,-0.17043288167600004,0.12776905643847192,0.004480839923280126,-0.006805057094970005,0.00642967877615939,20.141613825922832
1631,A,1553893114955635.0,-3.8022766,2.9183197,0.6404893219182567,159,1970-01-18 23:38:13.114955635,-0.12272644,1.5233154,0.6935272,4.8386076922681935,1.6782525328722355,94.58490753173828,2.8044919967651367,3.9529294967651367,20191972.0,50359.0,-0.14982639970169997,-0.27824723056085005,-0.00317386479941851,-0.00011272888960376166,-0.011297540886067768,0.0031372446278755454,20.19197246688418
1631,A,1553893165309639.0,-1.0523682,2.4326477,-0.15287617808174336,159,1970-01-18 23:38:13.165309639,1.2049255,-0.58143616,-0.12463379,3.0237899122052725,1.3436692488538837,95.23969268798828,3.252026319503784,3.956127643585205,20242326.0,50354.0,-0.12222539212960001,-0.35874789377020005,0.012276636122371896,-0.006849447962936641,-0.01603762624528285,0.0002291804735979974,20.24232647102326
1631,A,1553893215663642.0,1.4436035,5.9359894,5.943223621918257,159,1970-01-18 23:38:13.215663642,2.3891907,-1.4254456,-1.245575,7.671798611807639,3.048210038719584,94.39021301269531,2.9924588203430176,3.837900161743164,20292680.0,50354.0,0.009850131148099999,-0.2827720237333,0.1457835775934719,-0.002829271945731226,-0.01615154696298562,0.0039794820007238,20.29268047399819
1631,A,1553893266017646.0,7.108612,16.019196,7.4470386219182565,159,1970-01-18 23:38:13.266017646,0.093933105,-1.2789001,-0.3499756,18.57155478749165,1.3292448286866911,93.82439422607422,2.404420852661133,3.748682975769043,20343034.0,50354.0,0.2153191296435,0.0592965028158,0.3371266325130719,0.005669086478950113,-0.005626443190139898,0.012158230359852454,20.34303447790444
1631,A,1553893316371650.0,-1.0411987,4.382492,0.6478593219182567,159,1970-01-18 23:38:13.316371650,0.7283783,0.26559448,-1.3064423,4.55179686194419,1.519166501390368,93.97529602050781,2.7377402782440186,3.771516799926758,20393388.0,50354.0,0.1527592646541,0.020184098775999967,0.20380524553197188,0.009267109733230677,0.002001083106276748,0.01361904189354007,20.39338848204352
1631,A,1553893366725654.0,-9.1909485,15.629608,1.9161546219182566,159,1970-01-18 23:38:13.366725654,0.9402771,-0.14680481,-2.7857056,18.142072132229004,2.9437779071959396,93.88832092285156,3.5433785915374756,3.7668371200561523,20443742.0,50354.0,-0.25761477005440003,0.01037544169999997,0.06455417906397189,-0.002639947059463354,0.0007693975505642504,0.006756485233052076,20.44374248594977
1631,A,1553893417079658.0,3.5775146,2.3973541,-3.140272378081743,159,1970-01-18 23:38:13.417079658,2.2000885,-0.7606354,-0.07525635,6.1874013988912155,2.329081178873062,94.9857177734375,2.6844322681427,3.782036781311035,20494096.0,50354.0,-0.1413294253003,-0.03960437520830007,-0.030819612746928106,-0.010044218006445284,-0.0007358968589384717,0.0008493351761642114,20.49409648985602
1631,A,1553893467433662.0,-2.4148865,8.553238,-1.1332838780817436,159,1970-01-18 23:38:13.467433662,0.06086731,-0.3582611,-1.5376434,9.215339728186178,1.5800009717602728,95.25019836425781,3.0739505290985107,3.7840282917022705,20544450.0,50354.0,0.029271487673700004,-0.21776614269830005,-0.10759532586142811,-0.002821282695624908,-0.006479817529334473,-0.0034848729093425847,20.5444504939951
1631,A,1553893517787666.0,0.41235352,7.535385,-2.179914778081743,159,1970-01-18 23:38:13.517787666,1.3128662,-0.380661,-0.29081726,8.311384504790723,1.3975318009753293,95.79435729980469,2.946880578994751,3.7914891242980957,20594804.0,50354.0,-0.05041777283746001,-0.08840593872900004,-0.08341640256622812,-0.0005324000215679857,-0.007708494494095136,-0.004809102286623101,20.59480449790135
1631,A,1553893568141670.0,0.08621216,10.573242,1.3128525989182567,159,1970-01-18 23:38:13.568141670,0.49273682,-0.64656067,-0.31881714,10.57359856378114,0.8731979400641878,95.67125701904297,2.8810465335845947,3.753451347351074,20645158.0,50354.0,0.01255238812536,-0.03754829802100003,-0.0218300244847991,-0.0009533367908965421,-0.0031711498186547515,-0.0026497892938637125,20.64515850204043
1631,A,1553893618495674.0,1.149826,9.013809,0.5000779219182566,159,1970-01-18 23:38:13.618495674,0.45570374,-0.895401,-0.17630005,9.122208953565945,1.0200443897600684,95.67742156982422,2.6425065994262695,3.7089781761169434,20695512.0,50354.0,0.031119732754320003,-0.0003260169730000193,0.04564415172310089,0.0010995329873877036,-0.0009535616286039393,0.0005995682814787243,20.69551250594668
1631,A,1553893668849678.0,0.7214966,9.310257,-0.028181378081743258,159,1970-01-18 23:38:13.668849678,0.5450134,-0.6351166,-0.67155457,9.432501972585246,1.0730322652478839,95.76467895507812,2.503847122192383,3.683391571044922,20745866.0,50354.0,0.047114289100200005,-0.03212419031800003,0.011880939284171898,0.0019696979682312502,-0.0008169988689655084,0.0014483092162901072,20.74586650985293
1631,A,1553893719203682.0,1.5989227,11.842026,0.22906662191825666,159,1970-01-18 23:38:13.719203682,0.39456177,-0.8383179,-0.9659424,11.997597368363023,1.3384695035463838,95.76832580566406,2.3033828735351562,3.645864248275757,20796220.0,50354.0,0.05842119671610001,0.039081829090999984,0.0050576877840718985,0.0026570669263969856,0.00017517247138781978,0.0004264638136971741,20.79622051399201
1631,A,1553893769557685.0,2.735672,11.985413,0.9089677219182566,159,1970-01-18 23:38:13.769557685,-0.26757813,-0.6542511,-0.4519348,12.299954281481382,0.8389801076047911,95.65908813476562,1.9547981023788452,3.6120927333831787,20846574.0,50354.0,0.10913209076190002,0.10643423170299997,0.028652290674771895,0.004218489118833607,0.003663657862610537,0.0008487161276583101,20.84657451696694
1631,A,1553893819911689.0,2.9646149,13.135529,1.1889817519182566,159,1970-01-18 23:38:13.819911689,-0.80548096,0.13821411,0.42152405,13.46640058444198,0.919557090046081,95.49315643310547,1.5705212354660034,3.6131584644317627,20896928.0,50354.0,0.1435161232813,0.13900075673399995,0.05282007390278189,0.006360924084965648,0.006179316703878347,0.0020512297229690717,20.89692852087319
1631,A,1553893870265693.0,-0.4126892,11.69545,1.2250840419182567,159,1970-01-18 23:38:13.870265693,-1.9221191,1.1062164,1.1263123,11.702984776959067,2.487335111187284,95.27073669433594,1.520674228668213,3.659440040588379,20947282.0,50354.0,0.0642498333489,0.13170035828299995,0.060778934491421896,0.005230923490078546,0.006815441972783007,0.0028600822343408687,20.94728252501227
1631,A,1553893920619697.0,-2.3695068,11.810501,-0.19392227808174334,159,1970-01-18 23:38:13.920619697,-2.7919312,1.2406464,1.7437744,12.13843919184705,3.5177880086016784,95.18047332763672,1.670454502105713,3.7143735885620117,20997636.0,50354.0,-0.07004734869200001,0.09834012832699995,0.0259615597281119,-0.00014596404379322894,0.0057917293313799675,0.0021838654229652025,20.99763652891852
1631,A,1553893970973701.0,-1.3377686,14.981125,-2.6359388780817437,159,1970-01-18 23:38:13.970973701,-1.9962463,-0.09327698,2.091507,15.547824534108019,2.89276708642618,95.31707763671875,1.6489053964614868,3.707158327102661,21047990.0,50354.0,-0.0933380727458,0.181063567802,-0.07124741432872811,-0.0041135547555394905,0.007034546857439833,-0.0011401619612797145,21.04799053282477
1631,A,1553894021327705.0,2.9567719,9.429672,1.3973405119182567,159,1970-01-18 23:38:14.021327705,-1.6502533,-0.21925354,2.730713,9.882824153744695,3.1981559620087983,95.09365844726562,1.046435832977295,3.6807196140289307,21098344.0,50354.0,0.0407616460841,0.12112143606899999,-0.03118419106489811,-0.0013237166940616208,0.0076081118424601675,-0.0025789205289953277,21.09834453696385
1631,A,1553894071681709.0,3.2586365,7.222229,2.892091521918257,159,1970-01-18 23:38:14.071681709,-1.0870667,1.36969,1.791626,8.081223861388525,2.503535186536209,94.64573669433594,0.3510287404060364,3.7365005016326904,21148698.0,50354.0,0.1564853372868,-0.07422428852300005,0.10799503031590191,0.00496608730032915,0.0011807294837656405,0.0019338664998225226,21.1486985408701
1631,A,1553894122035713.0,-1.239151,5.084427,0.7912614219182567,159,1970-01-18 23:38:14.122035713,-0.28929138,2.1496582,0.95599365,5.258158812725329,2.3703678487124877,94.65877532958984,0.6236967444419861,3.839956045150757,21199052.0,50354.0,0.050844586433500004,-0.18362452188800008,0.0927357770669719,0.005219945489505994,-0.00649185949971775,0.005053799537478614,21.19905254500918
1631,A,1553894172389717.0,-2.496704,3.5541687,0.30934308191825666,159,1970-01-18 23:38:14.172389717,0.68740845,0.8228607,0.14013672,4.455553864554734,1.0813271517113823,94.91934204101562,1.4031842947006226,3.884626865386963,21249406.0,50354.0,-0.09405762133500001,-0.27597527606110006,0.027709919593091898,-0.0010879745797150657,-0.011571344112964494,0.0030324613048104266,21.24940654891543
1631,A,1553894222743721.0,-1.4836273,5.2656097,2.2741868219182564,159,1970-01-18 23:38:14.222743721,2.128601,-0.70103455,-1.0997314,5.556259190392707,2.496357508379091,94.65877532958984,1.8106505870819092,3.844515085220337,21299760.0,50354.0,-0.10021280114009999,-0.27141363922320005,0.0650455323888919,-0.0048911464266555935,-0.013781610720112825,0.002335304014550406,21.29976055305451
1631,A,1553894273097724.0,5.5189514,12.278702,5.591554421918257,159,1970-01-18 23:38:14.273097724,1.983963,-1.2216492,-1.1507721,14.128748555155859,2.5986173976497677,94.22181701660156,1.2753657102584839,3.7734341621398926,21350114.0,50354.0,0.1015973548657,-0.05175606432910007,0.19803576729607192,3.485890914943139e-05,-0.00813644362633626,0.006623597882168334,21.35011455602944
1631,A,1553894323451728.0,10.196625,15.572128,3.488786421918257,159,1970-01-18 23:38:14.323451728,0.22270203,-1.1245117,0.15635681,18.74145891814682,1.1569659500764866,93.97783660888672,0.4663216471672058,3.712844133377075,21400468.0,50354.0,0.3956710670228,0.20773114690999994,0.2286157414252719,0.012519727057886766,0.003926984654139316,0.010741805035077275,21.40046855993569
1631,A,1553894373805732.0,-4.2519073,11.046707,-0.5878279780817433,159,1970-01-18 23:38:14.373805732,0.43063354,0.20835876,-0.98916626,11.986730276118815,1.0987759137167399,94.13334655761719,1.0121468305587769,3.7284996509552,21450822.0,50354.0,0.1496701575329,0.176713208795,0.0730374307404719,0.01373005601063886,0.009679155543584783,0.0075947219156169326,21.45082256384194
1631,A,1553894424159736.0,-8.885712,10.749817,-3.0882399780817433,159,1970-01-18 23:38:14.424159736,0.41389465,0.88591003,-1.5275421,14.621656388451637,1.8137062137583455,94.50860595703125,1.936160922050476,3.7874655723571777,21501176.0,50354.0,-0.3307658411161,0.05530188474799996,-0.09255236293232812,-0.004559446025574228,0.00584144401013211,-0.0004913274477943638,21.50117656798102
1631,A,1553894474513740.0,-0.7965393,7.941864,-2.345594678081743,159,1970-01-18 23:38:14.474513740,1.5159607,-0.52897644,-1.2635651,8.775881885077087,2.043171475906409,95.07566833496094,2.085937738418579,3.783416271209717,21551530.0,50354.0,-0.2437700409801,-0.02286874746300006,-0.1368076551382281,-0.014465089903536028,0.0008165690974244425,-0.005774597174962395,21.55153057188727
1631,A,1553894524867744.0,-0.4795227,9.746536,1.5601670519182567,159,1970-01-18 23:38:14.524867744,0.47273254,0.13249207,-0.9661865,9.761726813265412,1.0837649910243394,94.93539428710938,2.152064085006714,3.7882344722747803,21601884.0,50354.0,-0.032127412974,-0.04812835320000002,-0.019774711343918096,-0.006946270198202376,-0.0017874940033923532,-0.003942274240920995,21.60188457602635
1631,A,1553894575221748.0,1.5973358,8.774124,-0.5984175780817433,159,1970-01-18 23:38:14.575221748,0.74812317,-0.03504944,-0.06236267,9.11866944158693,0.7515356567353882,95.15176391601562,1.8520456552505493,3.792912244796753,21652238.0,50354.0,0.028143180418700002,-0.027174543180000007,0.024213966502781896,-0.00010031102304478805,-0.0018959010221592607,0.0001117671271347139,21.6522385799326
1631,A,1553894625575752.0,1.2034149,9.691086,0.6352250219182567,159,1970-01-18 23:38:14.625575752,0.5129852,-0.4708252,-0.14979553,9.78828789823024,0.7122281131646384,95.1466064453125,1.6396735906600952,3.769164562225342,21702592.0,50354.0,0.0705145003739,-0.028570607830000018,0.0009267010134718967,0.0024839044293152907,-0.0014034956669787707,0.0006329665860567217,21.70259258383885
1631,A,1553894675929756.0,1.9134521,8.977478,0.7270676819182567,159,1970-01-18 23:38:14.675929756,0.5054474,-0.50149536,-0.43067932,9.197146602490923,0.8321414224420942,95.13510131835938,1.3254071474075317,3.7451112270355225,21752946.0,50354.0,0.07847336045900001,-0.023450764172000038,0.034298443404491896,0.0037510673721899233,-0.0013097420828943555,0.0008868634610110746,21.75294658797793
1631,A,1553894726283760.0,-0.23016357,8.80069,-0.4815351780817434,159,1970-01-18 23:38:14.726283760,0.6177826,-0.34501648,-0.89094543,8.98263980395487,1.137750179772447,95.32345581054688,1.375107765197754,3.7356441020965576,21803300.0,50354.0,0.04238015531981,-0.045868264264000064,0.006181771849091895,0.0030427289667631,-0.0017452451789331746,0.0010191703794394792,21.80330059188418
1631,A,1553894776637764.0,-0.65301514,10.624115,-0.5836775780817434,159,1970-01-18 23:38:14.776637764,0.6028595,-0.41467285,-1.0229797,10.809987325268787,1.2577283553611498,95.47148895263672,1.480286717414856,3.7227158546447754,21853654.0,50354.0,-0.022235790381670003,-0.004410884515000056,-0.026818861561928108,0.0005071746760475507,-0.001265878128808886,-0.0005195800077000773,21.85365459602326
1631,A,1553894826991767.0,2.0948334,11.503525,-1.2371199780817432,159,1970-01-18 23:38:14.826991767,0.14990234,-0.074142456,-0.55329895,11.965323451127935,0.5780203658957788,95.65032958984375,1.221319556236267,3.7256855964660645,21904008.0,50354.0,0.03630065833202001,0.06363839227999996,-0.045842220071528106,0.0003541111803859621,0.0014911709629994027,-0.0018293880522855274,21.90400859899819
1631,A,1553894877345771.0,2.885086,13.143906,-0.8162673780817433,159,1970-01-18 23:38:14.877345771,-0.5597534,-0.25305176,0.2796936,13.622593816956003,0.6749722749355098,95.70771026611328,0.8755801916122437,3.713367462158203,21954362.0,50354.0,0.1253794307338,0.12707917028699994,-0.0516981334661281,0.0040706196024101506,0.004801696072749357,-0.0024557734810175705,21.95436260290444
1631,A,1553894927699775.0,-0.6467743,11.955521,-0.3279402780817433,159,1970-01-18 23:38:14.927699775,-1.8894653,0.100494385,1.2088318,12.083503574890317,2.2453179200308937,95.66460418701172,0.8697556853294373,3.7131428718566895,22004716.0,50354.0,0.0563539736709,0.13845907357899995,-0.028807716159228103,0.004575501922697132,0.006685456365814279,-0.0020268957760175934,22.00471660704352
1631,A,1553894978053779.0,-2.4018555,12.553955,-1.5767347780817433,159,1970-01-18 23:38:14.978053779,-2.7104034,1.0958252,1.6373444,13.101929410235547,3.350823203915414,95.70764923095703,1.0242153406143188,3.7623493671417236,22055070.0,50354.0,-0.07675535247460001,0.12360587725199995,-0.0479540038890281,-0.0005136455141407553,0.006598009267072085,-0.0019326298256549467,22.05507061094977
1631,A,1553895028407783.0,-1.2075348,12.94635,-1.4222853780817435,159,1970-01-18 23:38:15.028407783,-2.1964417,0.37265015,2.3194427,13.284970702728518,3.2160595010629396,95.75148010253906,1.0117878913879395,3.7720963954925537,22105424.0,50354.0,-0.0908736195831,0.148551978985,-0.07550633047172811,-0.004220394629496713,0.006852118346478948,-0.0031083608382007594,22.10542461485602
1631,A,1553895078761787.0,1.3787537,9.644287,1.3449570919182567,159,1970-01-18 23:38:15.078761787,-1.7314911,-0.0009460449,2.6194916,9.74243491607535,3.140031618766079,95.51639556884766,0.6538646221160889,3.7570371627807617,22155778.0,50354.0,0.004310778245300005,0.07529526774899999,-0.001946894260738106,-0.0021793926563617905,0.005635802131021918,-0.001950039839089302,22.1557786189951
1631,A,1553895129115791.0,1.5252075,7.948303,2.1040055519182568,159,1970-01-18 23:38:15.129115791,-1.3600006,1.1700592,1.7729034,8.132910126362654,2.522266169387474,95.17371368408203,0.2757967412471771,3.8047409057617188,22206132.0,50354.0,0.07311303113240002,-0.05054056157000003,0.0868345324838719,0.0019492992487023535,0.0006232492374686819,0.00213721606754384,22.20613262290135
1631,A,1553895179469795.0,-0.59329224,5.618973,1.3502824079182567,159,1970-01-18 23:38:15.179469795,-0.44935608,1.3981476,0.91693115,5.650410485084097,1.7313290651574729,95.0110855102539,0.3675007224082947,3.869422674179077,22256486.0,50354.0,0.02346283050102,-0.15188589214800002,0.08696860796480389,0.0024314904683446163,-0.005096490825258088,0.00437584166707631,22.25648662704043
1631,A,1553895229823799.0,-1.1863098,4.521103,0.7845170219182567,159,1970-01-18 23:38:15.229823799,0.69244385,0.49923706,-0.02003479,4.702763594464132,0.8538837861738623,95.08283996582031,0.7187397480010986,3.894834041595459,22306840.0,50354.0,-0.044805040561080006,-0.23817250654800004,0.053747845244993896,-0.0005373328226821308,-0.009820500303969195,0.0035428181424630788,22.30684063094668
1631,A,1553895280177803.0,-0.24821472,5.069916,1.9792344219182567,159,1970-01-18 23:38:15.280177803,1.7335052,0.034088135,-1.1791992,5.120904208647289,2.096834049860756,94.85537719726562,0.8292375802993774,3.897595167160034,22357194.0,50354.0,-0.03611702384004,-0.25199611463700006,0.06958297010147191,-0.0020373748154269987,-0.012340975375574749,0.00310509993797797,22.35719463485293
1631,A,1553895330531807.0,3.4990387,13.567184,10.217027621918255,159,1970-01-18 23:38:15.330531807,0.90016174,-0.46847534,-1.508316,16.606654480826496,1.8179046889768296,94.0349349975586,0.5884580016136169,3.8698389530181885,22407548.0,50354.0,0.08184599534446,-0.024242933300000033,0.30706528947767187,0.0011513183155667825,-0.006954870509909852,0.009482873231424103,22.40754863899201
1631,A,1553895380885810.0,4.093643,10.449112,9.427232621918256,159,1970-01-18 23:38:15.380885810,-0.057495117,-0.9031067,-0.3386383,13.854728963770059,0.9662211435746083,93.11788177490234,0.1744610071182251,3.819913387298584,22457902.0,50354.0,0.1911609471609,0.11118908439199994,0.4945835401590719,0.006873495791457449,0.002189043246043282,0.0201831125837643,22.45790264196694
1631,A,1553895431239814.0,-5.332062,6.3164215,1.5258652919182567,159,1970-01-18 23:38:15.431239814,1.4490814,-0.74580383,-2.1741333,8.269097183815814,2.717152160413089,93.09180450439453,1.205309271812439,3.7880563735961914,22508256.0,50354.0,-0.03117967516299999,-0.07136336307050006,0.2757661461766619,0.004027848485091129,0.0010026921857114025,0.01939509405287477,22.50825664587319
1631,A,1553895481593818.0,0.3922577,8.375641,0.4323441719182567,159,1970-01-18 23:38:15.481593818,1.937973,-1.0262756,-0.76472473,8.429849271762412,2.3224523393512153,93.25858306884766,1.1496286392211914,3.740279197692871,22558610.0,50354.0,-0.1243694528611,-0.12356714243750005,0.0493018396710119,-0.003916260396262765,-0.00490776533717492,0.008184236679686884,22.55861065001227
1631,A,1553895531947822.0,-1.4975739,3.9876099,0.6394517219182566,159,1970-01-18 23:38:15.531947822,0.40100098,-0.701004,-0.3948822,4.310842414025271,0.8989662651366849,93.4224853515625,1.6420905590057373,3.710005283355713,22608964.0,50354.0,-0.027828545967399997,-0.18219963209070006,0.026984605219121896,-0.0038318890165051447,-0.007698290082296495,0.0019206638229988986,22.60896465391852
1631,A,1553895582301826.0,-2.640976,6.2154694,-1.8381025780817433,159,1970-01-18 23:38:15.582301826,0.8972931,-0.9241028,-0.85401917,7.447821950502375,1.5454609781560125,93.99784851074219,2.1600866317749023,3.684251546859741,22659318.0,50354.0,-0.10419627083230001,-0.23658627246390007,-0.0301784326056281,-0.0033239888125660474,-0.010543772718971169,-8.041099211006673e-05,22.65931865782477
1631,A,1553895632655830.0,0.556839,10.273163,-0.9766828780817434,159,1970-01-18 23:38:15.632655830,0.7190857,-0.42991638,-0.37823486,10.537671266600142,0.9192246444999252,94.2448959350586,2.0515201091766357,3.671863317489624,22709672.0,50354.0,-0.052472317249000006,-0.07833490206520004,-0.07086785342982811,-0.003944445042122891,-0.007928770411119154,-0.002544042343514681,22.70967266196385
1631,A,1553895683009834.0,0.5645447,10.772034,-0.2763044780817434,159,1970-01-18 23:38:15.683009834,0.4691925,-0.010879517,-0.27189636,10.901741923984961,0.5423906309364617,94.37053680419922,1.939907193183899,3.6758620738983154,22760026.0,50354.0,0.028233077414900002,0.036385724868999963,-0.03154646266612811,-0.0006102713413031358,-0.0010561544342687294,-0.0025784852363478898,22.7600266658701
1631,A,1553895733363838.0,-0.81295776,8.516647,-0.8276045780817431,159,1970-01-18 23:38:15.733363838,0.65504456,0.0388031,-0.49853516,8.816542540063347,0.8240912339731743,94.6431884765625,2.0489916801452637,3.6880743503570557,22810380.0,50354.0,-0.006254295611619999,-0.007838078463000026,-0.027793118307028103,0.0005533597894611806,0.0007187440935638604,-0.001493992630161154,22.81038067000918
1631,A,1553895783717842.0,-1.5234375,9.598114,-1.4458906780817433,159,1970-01-18 23:38:15.783717842,0.8611908,0.019851685,-0.7086487,10.099414685471212,1.1154490859800232,94.96492767333984,2.2504770755767822,3.7024593353271484,22860734.0,50354.0,-0.05882342346102,-0.037393862303,-0.0572397900644281,-0.0016384617330918573,-0.0011388045726655827,-0.002140873534068153,22.86073467391543
1631,A,1553895834071846.0,-0.41915894,10.712036,-0.14214927808174327,159,1970-01-18 23:38:15.834071846,0.7312317,-0.34022522,-0.75154114,10.817132405273993,1.1023915295943807,95.06881713867188,2.288714647293091,3.691452741622925,22911088.0,50354.0,-0.048908750569880005,0.01787944654999997,-0.039982081976328104,-0.0027123729455759697,-0.0004913144454132819,-0.0024477550723701193,22.91108867805451
1631,A,1553895884425849.0,3.3955536,11.865097,0.49965072191825666,159,1970-01-18 23:38:15.884425849,0.11427307,-0.43391418,-0.34103394,12.36749127736069,0.5635991468803168,95.04499053955078,1.8596652746200562,3.670273780822754,22961442.0,50354.0,0.07493668835482001,0.07495527754099997,0.009000813851471898,0.0006553053896114345,0.0023372998484391056,-0.0007800153875795048,22.96144268102944
1631,A,1553895934779853.0,2.8105621,13.901093,0.45768902191825667,159,1970-01-18 23:38:15.934779853,-0.75302124,0.058258057,0.69792175,14.20750900058554,1.0283626588998724,94.96891784667969,1.4958903789520264,3.6691014766693115,23011796.0,50354.0,0.15625137497890002,0.15524616562999996,0.024102942730571897,0.0058206218705530695,0.005795781734716266,0.0008334532794661166,23.01179668493569
1631,A,1553895985133857.0,-1.9296112,11.9470825,-0.15301347808174337,159,1970-01-18 23:38:15.985133857,-2.3162994,0.7746277,1.63591,12.189119372463692,2.9396415618485956,94.90277862548828,1.600846529006958,3.7018282413482666,23062150.0,50354.0,0.022179700809299995,0.15731031456349998,0.007670816167171896,0.004492359195119511,0.007869234501831747,0.0007999679277684956,23.06215068884194
1631,A,1553896035487861.0,-4.9356995,12.320206,-1.5257703780817435,159,1970-01-18 23:38:16.035487861,-2.760971,0.37420654,1.5253143,13.570098987470404,3.1764091536205252,94.95149993896484,2.007126808166504,3.719336986541748,23112504.0,50354.0,-0.17284792749390002,0.1175083225645,-0.04226674114662811,-0.003793373943238175,0.006919108826971655,-0.000871021603207769,23.11250469298102
1631,A,1553896085841865.0,-0.13334656,11.813843,-1.3230726780817432,159,1970-01-18 23:38:16.085841865,-2.055313,-0.93740845,2.4242096,12.102816897749191,3.313583907920933,95.03580474853516,1.8564969301223755,3.668656587600708,23162858.0,50354.0,-0.12762337265262,0.114153751673,-0.07172532162502811,-0.007564965923788935,0.005832556043077538,-0.0028699781644019886,23.16285869688727
1631,A,1553896136195869.0,2.1999664,9.387909,1.5632188219182566,159,1970-01-18 23:38:16.136195869,-1.7491913,0.3433075,2.341278,9.645759381628324,2.9426370684873695,94.78755950927734,1.3669838905334473,3.6713271141052246,23213212.0,50354.0,0.05203128771168,0.04032731010399999,0.006046159463371897,-0.0019031819225580463,0.0038893696923595292,-0.0016536042657440187,23.21321270102635
1631,A,1553896186549873.0,0.63442993,7.8515625,1.3753678569182566,159,1970-01-18 23:38:16.186549873,-1.2292023,1.706665,1.4280853,7.87748996569503,2.542257135033036,94.59545135498047,1.1395933628082275,3.747645139694214,23263566.0,50354.0,0.07136159640041001,-0.05943102604450003,0.0739847968130669,0.0031066626432900905,-0.00048097425623396954,0.0020149393861718995,23.2635667049326
1631,A,1553896236903877.0,-2.3982544,4.6405487,1.2609727159182567,159,1970-01-18 23:38:16.236903877,-0.25543213,1.224411,0.89250183,5.223795457175205,1.5365504829034045,94.49348449707031,1.7224918603897095,3.8027899265289307,23313920.0,50354.0,-0.04440780868119,-0.17895531631760003,0.0663751466023049,0.0006786155134068022,-0.006001852941650593,0.0035338422953688155,23.31392070883885
1631,A,1553896287257881.0,-0.89585876,3.5411835,0.8117387019182567,159,1970-01-18 23:38:16.287257881,0.8798981,0.16140747,0.30082703,3.685561993057085,0.9438060922318905,94.62006378173828,2.01318097114563,3.812457799911499,23364274.0,50354.0,-0.08293588702932,-0.2874777284006001,0.0521846553668699,-0.0032061322269035107,-0.011743384766870126,0.002984980134177914,23.36427471297793
1631,A,1553896337611885.0,1.679718,5.290207,3.2605149219182565,159,1970-01-18 23:38:16.337611885,2.5159454,-0.66638184,-1.170929,5.885716324003383,2.8539657908783607,94.16603088378906,1.621764898300171,3.7651607990264893,23414628.0,50354.0,0.019735224085480004,-0.27112128138150005,0.10252712948733189,-0.0015912030909370598,-0.014063847269283935,0.0038951786072742387,23.41462871688418
1631,A,1553896387965889.0,6.8313904,16.466507,9.355439621918256,159,1970-01-18 23:38:16.387965889,0.26036072,-1.6282959,0.3395996,19.561798502633394,1.6835863894662155,93.50131225585938,1.0773341655731201,3.666736125946045,23464982.0,50354.0,0.2142841761868,0.05429958837799994,0.3176318875501719,0.005891906440655194,-0.005458919764749122,0.010578343571953234,23.46498272102326
1631,A,1553896438319892.0,0.7417755,7.1032867,-0.48650957808174344,159,1970-01-18 23:38:16.438319892,0.760025,-1.1130371,-0.14556885,7.362566431522882,1.3556105180662077,93.80138397216797,0.9175078868865967,3.6161515712738037,23515336.0,50354.0,0.19066959786430002,0.09994749598489996,0.22329305171367186,0.010195521169284546,0.0038834788430047312,0.013618867195845796,23.51533672399819
1631,A,1553896488673896.0,-9.637497,15.963867,-1.9356825780817435,159,1970-01-18 23:38:16.488673896,-0.020141602,1.5995331,-2.606659,18.926491302490344,3.0583627914960867,93.96692657470703,1.7518309354782104,3.70845365524292,23565690.0,50354.0,-0.22396758020550003,0.08729252870489998,-0.06098353191572811,-0.0008383433014043928,0.004714142101615093,0.00408646677995283,23.56569072790444
1631,A,1553896539027900.0,-2.7337189,4.208374,-5.850797878081743,159,1970-01-18 23:38:16.539027900,1.9060974,-0.003326416,-1.0486145,8.738018472196284,2.1755024093161595,95.18523406982422,2.22809100151062,3.7513070106506348,23616044.0,50354.0,-0.3114701027143,0.014407311656999957,-0.1960402184448281,-0.013480714542871804,0.002560496880791555,-0.006471086962827725,23.61604473204352
1631,A,1553896589381904.0,-3.3837585,9.086792,6.012544321918257,159,1970-01-18 23:38:16.589381904,0.60150146,-1.4133759,-1.1886597,10.77981206590215,1.9422531563848806,94.47931671142578,2.6978063583374023,3.6548426151275635,23666398.0,50354.0,-0.15401972849980003,-0.15873680561800002,0.004072290216471894,-0.011719637480477397,-0.003633783669456099,-0.004833176529005325,23.66639873594977
1631,A,1553896639735908.0,7.3051605,10.009506,-0.01797317808174337,159,1970-01-18 23:38:16.639735908,0.9335327,0.23164368,-0.06600952,12.461908680820779,0.9641054678736465,94.58792114257812,1.8069136142730713,3.6687052249908447,23716752.0,50354.0,0.09872913815400002,-0.012681705254000013,0.1509253176883719,-0.001392051193136207,-0.004315803848224345,0.0039023747742202523,23.71675273985602
1631,A,1553896690089912.0,0.28250122,10.116119,-0.1610701780817434,159,1970-01-18 23:38:16.690089912,0.661499,-0.4942932,0.3297577,10.225343016117,0.8891832405508607,94.71123504638672,1.707869291305542,3.6455023288726807,23767106.0,50354.0,0.19103455912444003,0.01323366062499995,-0.004507774578128107,0.007295380606379285,1.389658037566542e-05,0.0036863544828866085,23.7671067439951
1631,A,1553896740443916.0,0.3890381,8.540726,-1.0615523780817433,159,1970-01-18 23:38:16.740443916,0.663147,-0.70098877,-0.30046082,8.870399335045102,1.010656174784573,95.01069641113281,1.621095061302185,3.619530439376831,23817460.0,50354.0,0.01690734545964,-0.023745813435000068,-0.030781968096528105,0.005235353331713383,-0.000264664471297373,-0.0008884898513198194,23.81746074790135
1631,A,1553896790797920.0,0.49917603,10.050919,-0.5018446780817434,159,1970-01-18 23:38:16.790797920,0.7536926,-0.76605225,-0.8918762,10.223782314149751,1.396542781711775,95.17631530761719,1.5586905479431152,3.5888121128082275,23867814.0,50354.0,0.02236256715101,-0.025387353835000043,-0.039361647683028106,0.000988698589798335,-0.0012370257523567929,-0.001766005814481887,23.86781475204043
1631,A,1553896841151924.0,2.0566406,11.634033,1.1934220569182565,159,1970-01-18 23:38:16.841151924,0.5050354,-0.99993896,-1.0227051,11.81492222999393,1.5168600464594788,95.0863265991211,1.3266022205352783,3.5406970977783203,23918168.0,50354.0,0.06434779529351001,0.05249283650399999,0.01741184366696689,0.0021831067952656803,0.0006824347371574117,-0.0005526302157123732,23.91816875594668
1631,A,1553896891505928.0,4.966446,11.538284,0.4376237219182566,159,1970-01-18 23:38:16.891505928,-0.16481018,-0.90431213,-0.6792908,12.59148736544696,1.1429692974272796,95.0589370727539,0.769138753414154,3.498371124267578,23968522.0,50354.0,0.17682025132820003,0.089940225109,0.041064839573766894,0.006071887909794794,0.003586037192230501,0.0014722674539519546,23.96852275985293
1631,A,1553896941859932.0,4.6208496,12.659073,1.2339494019182566,159,1970-01-18 23:38:16.941859932,-0.9690094,0.13546753,0.45367432,13.476241175677663,1.0784948111141395,94.89913177490234,0.23684760928153992,3.5023646354675293,24018876.0,50354.0,0.24137934132120004,0.11574765718899997,0.042085196538831894,0.010529011144133947,0.005178603812616746,0.0020934684592068997,24.01887676399201
1631,A,1553896992213935.0,0.730484,9.968323,1.0796983019182567,159,1970-01-18 23:38:16.992213935,-2.6455078,1.4017639,1.7071075,9.997534720442186,3.4464285235240695,94.67683410644531,0.03538721054792404,3.564924955368042,24069230.0,50354.0,0.13473052604719998,0.07622074909199995,0.05825070823949189,0.009469318130734207,0.004833188564936736,0.002526157074603858,24.06923076696694
1631,A,1553897042567939.0,-3.155838,17.267593,-2.954710378081743,159,1970-01-18 23:38:17.042567939,-2.728424,2.3336487,2.2301178,18.06246723592494,4.226539859112242,94.76543426513672,0.16406093537807465,3.6723663806915283,24119584.0,50354.0,-0.061063137658000005,0.19224945713199995,-0.047207179041568105,0.001854723837474888,0.006759274382101646,0.00027804293461612716,24.11958477087319
1631,A,1553897092921943.0,-2.814743,10.329987,-0.41743307808174346,159,1970-01-18 23:38:17.092921943,-1.6765289,-1.0349274,3.0028229,10.843869187350615,3.5914856598029705,94.79434967041016,0.3866107165813446,3.6087050437927246,24169938.0,50354.0,-0.150321317837,0.20135507166,-0.08490045579582811,-0.005322026435997615,0.009909781221396182,-0.0033260739223011245,24.16993877501227
1631,A,1553897143275947.0,5.49411,8.085312,3.0413987219182568,159,1970-01-18 23:38:17.143275947,-1.8322601,0.5247345,1.8301697,9.928814878892265,2.6423558617908283,94.35523986816406,-0.5069766044616699,3.6282808780670166,24220292.0,50354.0,0.06745842295900001,-0.02982721707700006,0.06606358301487189,-0.002086239104343406,0.004318556794836189,-0.0004742559460061348,24.22029277891852
1631,A,1553897193629951.0,-1.1016693,5.331009,0.32661602191825667,159,1970-01-18 23:38:17.193629951,-1.1639557,1.9794617,1.2307129,5.530428203609179,2.6053244971703218,94.44357299804688,-0.2782468795776367,3.7211709022521973,24270646.0,50354.0,0.11058847950390001,-0.15568648618300004,0.0847965072055719,0.004482686863308434,-0.004670678506977023,0.003798204491480113,24.27064678282477
1631,A,1553897243983955.0,-2.6670532,3.3437042,0.7516038219182566,159,1970-01-18 23:38:17.243983955,-0.21775818,1.6606598,0.8724518,4.3124229141525205,1.8884866268036404,94.52924346923828,0.5630657076835632,3.800733804702759,24321000.0,50354.0,-0.0948851263825,-0.27506594576360005,0.027146341008271898,0.0003953633215374879,-0.01084505397911955,0.0028183850894799457,24.32100078696385
1631,A,1553897294337959.0,-1.5292664,3.3227234,-0.5115034780817433,159,1970-01-18 23:38:17.294337959,0.90878296,-0.3346405,0.19084167,4.082850758755765,0.9870619411338888,95.11687469482422,1.0794953107833862,3.7912774085998535,24371354.0,50354.0,-0.1056507385692,-0.3256285523148001,0.0060450063567718945,-0.005048891471888951,-0.01512368537811988,0.0008356585526097075,24.3713547908701
1631,A,1553897344691963.0,1.5632629,5.133896,5.878236621918257,159,1970-01-18 23:38:17.344691963,3.0398254,-0.86857605,-1.4367828,7.052535615715273,3.4726513835244965,94.24951934814453,0.8190608024597168,3.7372019290924072,24421708.0,50354.0,0.0008559298804999997,-0.28055689336620004,0.1351182403623719,-0.0026384188983554,-0.01526193096591054,0.0035540670626478836,24.42170879500918
1631,A,1553897395045967.0,15.044861,19.067017,10.278657621918256,159,1970-01-18 23:38:17.395045967,-0.20037842,-1.5757904,0.75050354,25.893451008553708,1.756850152826469,93.66566467285156,-0.059627775102853775,3.6521310806274414,24472062.0,50354.0,0.4181427354303,0.11583718660099997,0.4067821263770719,0.010549129396530013,-0.004147148057227443,0.013643425533398977,24.47206279891543
1631,A,1553897445399971.0,-1.9503021,0.14277649,-4.857755878081743,159,1970-01-18 23:38:17.445399971,1.1686401,-0.6659546,-0.35728455,6.463167014816914,1.391713857895319,95.08436584472656,0.39302965998649597,3.6242313385009766,24522416.0,50354.0,0.3296817094253,-0.009824229302270058,0.13648204320457188,0.01882797604812944,0.002669088225910123,0.013677761997557047,24.52241680305451
1631,A,1553897495753974.0,-7.5891266,19.217072,1.7508866519182567,159,1970-01-18 23:38:17.495753974,-0.47869873,1.2685089,-3.5602875,20.66619873994771,3.8097131632367116,94.91242980957031,1.0817451477050781,3.7011325359344482,24572770.0,50354.0,-0.2401741963799,-0.006046294567270012,-0.0782216465071181,0.0022535306559440357,-0.00039957217946341033,0.001466822007651794,24.57277080602944
1631,A,1553897546107978.0,1.6452332,1.3987885,-7.629209378081742,159,1970-01-18 23:38:17.546107978,3.0984497,-0.59609985,0.024917603,9.189037836069154,3.155367880539348,96.43539428710938,0.8203888535499573,3.6936917304992676,24623124.0,50354.0,-0.14964940413180003,0.025576319808500014,-0.14799853127661808,-0.009814588790083073,0.0004917074454984478,-0.005695545416061126,24.62312480993569
1631,A,1553897596461982.0,-6.481247,4.8320007,0.9748856819182566,159,1970-01-18 23:38:17.596461982,-0.45370483,-1.8280182,-2.1936646,8.09086579197675,2.891308179629029,96.3724594116211,2.074579954147339,3.613903284072876,24673478.0,50354.0,-0.1217563194426,-0.33659662031160004,-0.1675359076983081,-0.006833181902432669,-0.00783055810576655,-0.007944210570071717,24.67347881384194
1631,A,1553897646815986.0,4.919098,10.855911,-4.731397878081743,159,1970-01-18 23:38:17.646815986,1.5075989,0.45231628,0.3154602,13.358741342479659,1.6052911256897575,96.96241760253906,1.4846292734146118,3.6502082347869873,24723832.0,50354.0,-0.039330225372999995,-0.09849464712910003,-0.0945777075628081,-0.004055675938822362,-0.010954292840354506,-0.006599234491429123,24.72383281798102
1631,A,1553897697169990.0,-1.5224915,9.561539,1.3974931019182566,159,1970-01-18 23:38:17.697169990,0.4492798,-1.1312714,0.22297668,9.682460252826491,1.2374756235861062,96.79780578613281,1.6691527366638184,3.587618112564087,24774186.0,50354.0,0.0855163618505,0.020580938649999977,-0.08393772054946809,0.0011628283580940178,-0.001961633438378302,-0.004494482933582778,24.77418682188727
1631,A,1553897747523994.0,2.3179321,8.352203,-0.6139204780817433,159,1970-01-18 23:38:17.747523994,0.66929626,-0.7003174,-0.29185486,8.877200122691153,1.011721900374983,96.97798156738281,1.2739347219467163,3.558241605758667,24824540.0,50354.0,0.0200268079862,-0.04245491766600006,0.019728007950331895,0.002657260386978596,-0.0005507211696858342,-0.001616607934108452,24.82454082602635
1631,A,1553897797877998.0,0.99263,9.387466,-0.21136307808174326,159,1970-01-18 23:38:17.797877998,0.634552,-0.5985718,-0.797287,9.560415412279536,1.181782975350483,97.06346130371094,1.13682222366333,3.5344767570495605,24874894.0,50354.0,0.08335002199170001,-0.04683755358700006,-0.020778164093528104,0.002602718448353589,-0.002248116548736784,-2.643978121725094e-05,24.8748948299326
1631,A,1553897848232002.0,1.218216,12.15036,2.0040299619182567,159,1970-01-18 23:38:17.848232002,0.5189514,-0.80096436,-1.1421356,12.231413468651985,1.4883978602307681,96.83222961425781,1.027894139289856,3.496877908706665,24925248.0,50354.0,0.055662469742,0.04878864520199994,0.0451339741343519,0.003499917504379365,4.912263359085214e-05,0.0006132062293978207,24.92524883383885
1631,A,1553897898586006.0,6.209381,12.895767,0.6677110219182566,159,1970-01-18 23:38:17.898586006,-0.16349792,-0.47280884,-0.8712616,14.326902885424797,1.0046773336056865,96.73345947265625,0.4301386773586273,3.4774811267852783,24975602.0,50354.0,0.187004609669,0.13711713947899992,0.0672664227500519,0.0061096290583307475,0.004680549940913534,0.0028299047923586347,24.97560283797793
1631,A,1553897948940010.0,3.750473,13.279144,1.3696305519182566,159,1970-01-18 23:38:17.948940010,-0.84121704,0.43266296,0.3408661,13.798776132207504,1.0055013890947804,96.52293395996094,0.011132140643894672,3.496471643447876,25025956.0,50354.0,0.250759244158,0.16553653424699993,0.05129414880448189,0.01102158054780238,0.007619911543399498,0.002984999510028497,25.02595684188418
1631,A,1553897999294014.0,0.34957886,9.680374,0.17592022191825674,159,1970-01-18 23:38:17.999294014,-2.716156,1.1103973,1.3019104,9.751972902014026,3.2102112500287965,96.38994598388672,-0.1114187017083168,3.544379472732544,25076310.0,50354.0,0.10322700567922,0.084582584686,0.0389123318328819,0.008912311812151689,0.00629724905737614,0.002271128563006908,25.07631084602326
1631,A,1553898049648017.0,-3.2833252,16.146149,0.5661942719182567,159,1970-01-18 23:38:18.049648017,-2.7881012,2.825943,2.479599,16.49304288474621,4.68058472217857,96.15795135498047,0.03777670860290527,3.6708781719207764,25126664.0,50354.0,-0.07386293160218001,0.156765169571,0.0186842166113219,0.0007392992930376358,0.00607641240892849,0.001450108300179719,25.12666484899819
1631,A,1553898100002021.0,-7.0647125,12.796036,0.6732346819182566,159,1970-01-18 23:38:18.100002021,-1.7342377,-1.0014801,2.1206512,14.63026470847357,2.91679692520044,95.99772644042969,0.6284893155097961,3.60884428024292,25177018.0,50354.0,-0.2605325451729,0.23520819174500002,0.031205102770741896,-0.008419074918766188,0.009868713317852933,0.0012560633940822204,25.17701885290444
1631,A,1553898150356025.0,6.3137054,8.332397,5.448671121918257,159,1970-01-18 23:38:18.150356025,-2.4573975,0.94055176,2.0115356,11.246450305559902,3.3120560919635262,95.23896026611328,-0.29126015305519104,3.644218683242798,25227372.0,50354.0,-0.018908105756699996,0.038481357641,0.1541312224231919,-0.007035477268454539,0.006890681784891322,0.004666212659407672,25.22737285704352
1631,A,1553898200710029.0,-0.7504425,6.4563446,-0.5827619780817435,159,1970-01-18 23:38:18.200710029,-0.9929352,2.332672,1.2210541,6.767693411989448,2.813938891680104,95.4614028930664,-0.1969868689775467,3.753587484359741,25277726.0,50354.0,0.1400662700333,-0.12113305273680003,0.12250899451437192,0.0030503991019919584,-0.0020809217274269575,0.006964970741837044,25.27772686094977
1631,A,1553898251064033.0,-3.9936066,3.9934998,0.6884782219182566,159,1970-01-18 23:38:18.251064033,-0.39627075,1.8339996,1.0197449,5.681014730078259,2.1355244557676536,95.50029754638672,0.7539054751396179,3.840139627456665,25328080.0,50354.0,-0.1194409241907,-0.23037346754120006,0.002661617871071891,0.00051928433227914,-0.00884987966103921,0.003151420508028319,25.32808086485602
1631,A,1553898301418037.0,-2.6199036,2.0765533,-0.4355757780817433,159,1970-01-18 23:38:18.301418037,0.9953613,-0.22488403,0.27453613,3.767863403333461,1.0567341345684391,96.13204956054688,1.7260197401046753,3.840649366378784,25378434.0,50354.0,-0.1665083463054,-0.34064347310130005,0.006367324828471895,-0.007199344783280311,-0.014376493514556225,0.0002273216903464139,25.3784348689951
1631,A,1553898351772041.0,0.44578552,5.4847717,5.135911621918257,159,1970-01-18 23:38:18.351772041,2.339508,-1.0124512,-1.3191223,6.706464734134339,2.8702680635792066,95.30814361572266,1.6688764095306396,3.7694523334503174,25428788.0,50354.0,-0.054737770900160014,-0.30309772047500005,0.1183403555402719,-0.0055703134928843856,-0.01620747203067051,0.003139765268643863,25.42878887290135
1631,A,1553898402126045.0,0.6654053,16.228378,10.636750621918257,159,1970-01-18 23:38:18.402126045,0.54678345,-1.0295715,-2.128189,18.733170789570785,2.426556826972563,94.50845336914062,1.6942163705825806,3.70379376411438,25479142.0,50354.0,0.027976451275140004,0.05320276999689994,0.39710831731307195,-0.0006737697441991288,-0.006291605168187127,0.012977451236428638,25.47914287704043
1631,A,1553898452480049.0,0.5861206,0.79530334,4.526918121918257,159,1970-01-18 23:38:18.452480049,0.3053131,-0.25276184,-0.7009125,3.3723979224406135,0.8052223105751888,93.13119506835938,1.473952054977417,3.6554269790649414,25529496.0,50354.0,0.031509667584299995,-0.06486397490282005,0.3817756879635719,0.0014976820145241208,-0.00029359415591635046,0.019609962600850066,25.52949688094668
1631,A,1553898502834053.0,-3.9905853,16.38533,6.872804421918257,159,1970-01-18 23:38:18.502834053,1.3773804,-1.3742371,-2.5674133,17.76041559324919,3.2213840855038476,92.6772232055664,1.894006609916687,3.578737497329712,25579850.0,50354.0,-0.0857142077519,-0.06091239439882004,0.28701081448617194,-0.0013647077077996654,-0.003166671649907393,0.016838037772177204,25.57985088485293
1631,A,1553898553188057.0,3.4326477,0.76434326,0.6311814519182566,159,1970-01-18 23:38:18.553188057,2.1712494,-1.9506989,0.65026855,3.580213409377721,2.9903844807283013,93.03766632080078,0.48333868384361267,3.483734369277954,25630204.0,50354.0,-0.014047194955199996,-0.06169187633298004,0.1889278523455819,-0.002511692835956657,-0.003086807724214531,0.011982707814823067,25.63020488899201
1631,A,1553898603542060.0,-4.763397,5.2025757,-1.5045759780817434,159,1970-01-18 23:38:18.603542060,0.012954712,-1.2153015,-1.8424072,7.591856768472799,2.2071678348229646,93.51435089111328,1.4689207077026367,3.436053991317749,25680558.0,50354.0,-0.03350427512610001,-0.34324008134408,-0.021989453985218108,-0.0011972033622368904,-0.01019497189843534,0.004203008055518879,25.68055889196694
1631,A,1553898653896064.0,3.2677917,10.583267,-3.7258589780817433,159,1970-01-18 23:38:18.653896064,1.5370483,-0.5062103,0.13146973,12.16421645212322,1.6235918927690087,94.10530853271484,1.0464997291564941,3.4213979244232178,25730912.0,50354.0,-0.03765485463810001,-0.09602903834210007,-0.1316866608913281,-0.001791573410073264,-0.011059478626338957,-0.003869103544246804,25.73091289587319
1631,A,1553898704250068.0,-1.3089905,8.634598,0.39512799191825665,159,1970-01-18 23:38:18.704250068,0.64546204,-1.1092224,-0.03804016,8.780263110354788,1.2839169098954755,94.18331146240234,1.2400602102279663,3.367191791534424,25781266.0,50354.0,0.04931673781240001,-0.009621012895000043,-0.08385781403863811,0.00029361123267935104,-0.0026599513399964696,-0.005426763245311759,25.78126690001227
1631,A,1553898754604072.0,0.64256287,9.109543,-0.9303724780817435,159,1970-01-18 23:38:18.754604072,0.6898804,-1.0063171,-0.44360352,9.401184809061167,1.2982269273948064,94.45488739013672,1.1375802755355835,3.3235270977020264,25831620.0,50354.0,-0.01677864844051,-0.046724962043000015,-0.01347585042813811,0.0008192114761160749,-0.0014186226110140276,-0.0024505696702800247,25.83162090391852
1631,A,1553898804958076.0,1.4141693,10.131165,-0.10850357808174338,159,1970-01-18 23:38:18.804958076,0.72291565,-1.180893,-0.93011475,10.326240564265367,1.6680014276467168,94.57600402832031,0.9643440246582031,3.269787311553955,25881974.0,50354.0,0.05178234584409001,-0.009045894684000045,-0.02615578246602811,0.0008812880895299337,-0.0014041428598156806,-0.000997805621376423,25.88197490782477
1631,A,1553898855312080.0,2.9227448,11.638336,-0.1449720780817434,159,1970-01-18 23:38:18.855312080,0.48239136,-1.2493439,-1.0139008,12.08670384157545,1.679748920794563,94.66026306152344,0.6502093076705933,3.212352991104126,25932328.0,50354.0,0.1091904862957,0.05462152667699997,-0.006381756595228107,0.004052812994783493,0.0011474576866877591,-0.0008191976209452479,25.93232891196385
1631,A,1553898905666084.0,4.5646515,12.021469,0.6252457919182567,159,1970-01-18 23:38:18.905666084,-0.30848694,-0.84451294,-0.39892578,12.87673878866523,0.9836198838609433,94.61099243164062,0.1505773365497589,3.1717212200164795,25982682.0,50354.0,0.18851017664510003,0.10221371048499998,0.012091851293261896,0.007495209590860522,0.003948640766027673,0.00014376305421239674,25.9826829158701
1631,A,1553898956020088.0,4.6153564,11.864151,1.4954850419182566,159,1970-01-18 23:38:18.956020088,-1.199295,0.097076416,0.7879181,12.73172595919394,1.438244506290921,94.42207336425781,-0.4118178188800812,3.173980951309204,26033036.0,50354.0,0.2311250588983,0.10789905473999996,0.053393640203501895,0.010565156325276184,0.005290009090069824,0.001648728219414022,26.03303692000918
1631,A,1553899006374092.0,-0.8644104,11.77652,0.3007218219182566,159,1970-01-18 23:38:19.006374092,-2.7701569,1.2877197,1.8130646,11.850617761507253,3.552350562678022,94.29413604736328,-0.3923548460006714,3.231086015701294,26083390.0,50354.0,0.09443756744199999,0.10173197376699995,0.0452231002108119,0.008196690243369734,0.005277880404720737,0.0024828736734111784,26.08339092391543
1631,A,1553899056728096.0,-5.1162567,15.623703,0.8299882219182566,159,1970-01-18 23:38:19.056728096,-2.8598938,1.800766,2.3789368,16.446866672428474,4.1329276587461194,94.08997344970703,-0.06267809122800827,3.3117949962615967,26133744.0,50354.0,-0.1505752555767,0.196386214471,0.028467886773671895,-0.0014133785741673424,0.007505721625268125,0.0018553179793083484,26.13374492805451
1631,A,1553899107082099.0,-4.550644,12.330917,3.073671121918257,159,1970-01-18 23:38:19.107082099,-2.4768066,-1.3479004,2.1750946,13.262616816920229,3.561241769533891,93.68016815185547,0.3262958824634552,3.23573637008667,26184098.0,50354.0,-0.24338355892389998,0.21034426774000003,0.0982824312997719,-0.009918701072681608,0.010240253350626349,0.003191192758135095,26.18409893102944
1631,A,1553899157436103.0,4.1237793,6.999649,3.498643621918257,159,1970-01-18 23:38:19.157436103,-2.0782318,0.014892578,2.11026,8.415687216751731,2.961834983757658,93.12677001953125,-0.4875679016113281,3.2310779094696045,26234452.0,50354.0,-0.01074717255190001,-0.006783539818000055,0.1654711683055719,-0.0063982494263662175,0.0051250484468921935,0.006640524377263742,26.23445293493569
1631,A,1553899207790107.0,-1.2146454,4.845291,1.0693833619182567,159,1970-01-18 23:38:19.207790107,-0.90644836,1.2533112,1.0746613,5.000654036251617,1.8834368858843715,93.07206726074219,-0.1848752796649933,3.2906525135040283,26284806.0,50354.0,0.0732432642003,-0.19524914562000006,0.1150092153720519,0.0015734640994317665,-0.005086576921272529,0.007061654619851534,26.28480693884194
1631,A,1553899258144111.0,-1.7802887,2.4568634,1.0837571419182566,159,1970-01-18 23:38:19.258144111,0.03416443,0.51016235,0.23774719,3.0419473750442694,0.5638763676442234,93.1147232055664,0.6439085006713867,3.3156630992889404,26335160.0,50354.0,-0.0754034558357,-0.3096228586712001,0.054209618465091904,-5.438714480446586e-05,-0.012711162452039548,0.00426042257951777,26.33516094298102
1631,A,1553899308498115.0,-1.1342926,1.259903,1.8573319719182566,159,1970-01-18 23:38:19.308498115,1.571701,-0.72094727,-1.220459,1.7837712104548,2.1164898228440534,92.6926498413086,1.6063388586044312,3.2738161087036133,26385514.0,50354.0,-0.0733804133901,-0.3998921723472001,0.0740478006190619,-0.003745931475497967,-0.017863459935950263,0.0032291370402817406,26.38551494688727
1631,A,1553899358852119.0,7.693878,8.631592,9.299302621918256,159,1970-01-18 23:38:19.358852119,2.1519318,-1.2393799,-1.2404633,14.058782493787433,2.7759002516340785,91.94371795654297,0.8635605573654175,3.1956939697265625,26435868.0,50354.0,0.1651506816158,-0.24443103038500008,0.2808905891690219,0.0023105000431184485,-0.016222125275188605,0.008936283839694586,26.43586895102635
1631,A,1553899409206123.0,11.664932,12.989792,5.293290821918257,159,1970-01-18 23:38:19.409206123,0.86027527,-1.6556244,0.8074188,17.908990277143197,2.033000445804765,91.63196563720703,-0.1225544884800911,3.108936309814453,26486222.0,50354.0,0.48739675937,0.05089238496799994,0.3673977251354719,0.016429186921699486,-0.0048727224756638125,0.01632195488924424,26.4862229549326
1631,A,1553899459560127.0,-8.034729,6.838516,-6.693235678081743,159,1970-01-18 23:38:19.459560127,0.46524048,1.3978882,-2.1186523,13.238337749508748,2.580547944182623,92.49942779541016,0.8517217636108398,3.187389373779297,26536576.0,50354.0,0.091397620931,0.0057481105159999605,-0.0352464116436281,0.014572306112838277,0.0014260377548006656,0.008362573619784151,26.53657695883885
1631,A,1553899509914131.0,-10.021164,13.53212,-4.5177748780817435,159,1970-01-18 23:38:19.509914131,0.14068604,2.890091,-3.2943878,17.816209673568288,4.38467895368871,92.9301986694336,1.79849112033844,3.348780393600464,26586930.0,50354.0,-0.45459321806100006,0.019402302571999992,-0.28225961277252815,-0.009144175548942013,0.0006332119503165748,-0.007993849176725567,26.58693096297793
1631,A,1553899560268135.0,2.2196808,5.454788,-4.624723678081743,159,1970-01-18 23:38:19.560268135,2.0390015,-2.0032806,0.23606873,8.355441243594065,2.8681681827644665,93.9965591430664,1.3812370300292969,3.274580717086792,26637284.0,50354.0,-0.19641794252640002,-0.015435817284000045,-0.2301806861485281,-0.016390507990108973,9.986420009597468e-05,-0.012901709405935434,26.63728496688418
1631,A,1553899610622139.0,1.8190918,10.959839,3.9037492219182566,159,1970-01-18 23:38:19.610622139,0.10826111,-0.5922394,-0.44265747,11.41024912183161,0.7472707746176034,93.57962799072266,1.1444146633148193,3.2372727394104004,26687638.0,50354.0,0.1016841777502,-0.08019813602100004,-0.0181519738828281,-0.002385111995770388,-0.0024077760423599874,-0.006252271381609455,26.68763897102326
1631,A,1553899660976142.0,4.832123,9.066116,-2.484419178081743,159,1970-01-18 23:38:19.660976142,0.9048004,0.022979736,0.23960876,10.949175850841131,0.9362714296482229,94.04525756835938,0.4760863184928894,3.243352174758911,26737992.0,50354.0,0.1674576350196,0.010724269034999958,0.0357344725136719,0.006776183420105254,-0.0017491435491065242,0.00044267456802875435,26.73799297399819
1631,A,1553899711330146.0,-0.8576355,9.518845,-0.4605543780817434,159,1970-01-18 23:38:19.711330146,0.8078613,-0.6674042,-0.08482361,9.718653563732286,1.0513150293935505,94.2455825805664,0.5973445773124695,3.211906671524048,26788346.0,50354.0,0.10006567178750002,-0.025555636903000042,-0.0741455992235281,0.0067354342954823575,-0.00037340934881263817,-0.0009670769371740497,26.78834697790444
1631,A,1553899761684150.0,0.4367218,10.010101,-0.8808729780817435,159,1970-01-18 23:38:19.761684150,0.81788635,-0.93629456,-0.8130951,10.254748336093694,1.4854996554176396,94.48665618896484,0.5656701326370239,3.170252561569214,26838700.0,50354.0,-0.010597344224900001,-0.0017889265580000044,-0.033773116546128114,0.0022525440830435807,-0.0006884540742575982,-0.002717069506932635,26.83870098204352
1631,A,1553899812038154.0,1.2436218,10.900925,-0.37968277808174333,159,1970-01-18 23:38:19.812038154,0.60624695,-1.1255188,-1.1398315,11.099838795409084,1.7127591138073075,94.62288665771484,0.452459454536438,3.119520902633667,26889054.0,50354.0,0.04230601081720001,0.033007701602000006,-0.03173701227292811,0.0007983290987943373,0.0007859950992827881,-0.0016493485132773786,26.88905498594977
1631,A,1553899862392158.0,4.3454285,10.51886,0.4255997919182566,159,1970-01-18 23:38:19.862392158,-0.09327698,-0.68852234,-0.6649933,11.414818330713945,0.9617586478539645,94.62139892578125,-0.06735250353813171,3.087918996810913,26939408.0,50354.0,0.1407155194031,0.04581672694499999,0.0011560526573618942,0.004607933066356494,0.001984562637527819,-0.0007699368202411107,26.93940898985602
1631,A,1553899912746162.0,3.6080933,11.5394745,0.16475082191825674,159,1970-01-18 23:38:19.912746162,-0.8705139,0.11753845,0.39968872,12.143814433432388,0.965070365422569,94.60194396972656,-0.5117186307907104,3.0922141075134277,26989762.0,50354.0,0.2002458183586,0.06189348770649999,0.014863257404561897,0.008584383600826322,0.002711820074280815,0.0004033181694290553,26.9897629939951
1631,A,1553899963100166.0,-0.20947266,13.644165,0.7484299919182567,159,1970-01-18 23:38:19.963100166,-2.0884705,1.1147614,1.5657959,13.65701596289346,2.838330285353877,94.44017028808594,-0.5594070553779602,3.142068386077881,27040116.0,50354.0,0.08556707185328001,0.14057929169149996,0.0229911533499619,0.007195911136864503,0.005097657166903445,0.0009530604995666457,27.04011699790135
1631,A,1553900013454170.0,-4.6622314,14.991348,-0.42396377808174335,159,1970-01-18 23:38:20.013454170,-2.728531,1.2862701,1.8962402,15.794224037254953,3.5630182548242786,94.35420989990234,-0.2227177619934082,3.198101043701172,27090471.0,50355.0,-0.12265732897064999,0.22749162855749994,0.008169248098868813,-0.0009338399485725826,0.009267105594569194,0.0007845410074779352,27.09047100204043
1631,A,1553900063808174.0,-0.4564972,14.560669,-1.5313551780817434,159,1970-01-18 23:38:20.063808174,-2.503296,-0.113464355,2.2761078,14.840891957421567,3.3852668640289507,94.39512634277344,-0.28617149591445923,3.183135747909546,27140825.0,50354.0,-0.1288742299622,0.25056193200900007,-0.04922906535932811,-0.006332810059252364,0.01203595449438277,-0.0010337630191665837,27.14082500594668
1631,A,1553900114162178.0,4.397156,9.950165,0.7915513219182566,159,1970-01-18 23:38:20.114162178,-2.054657,0.22219849,2.4373474,10.890445770387046,3.1955672274095632,94.25908660888672,-0.980317234992981,3.1858649253845215,27191179.0,50354.0,0.09921396660760001,0.12364006761799999,-0.018626041686628108,-0.0007467564504787638,0.009421283744608981,-0.00170838803009604,27.19117900985293
1631,A,1553900164516182.0,-0.90493774,6.7733,0.9387528719182566,159,1970-01-18 23:38:20.164516182,-1.4449615,1.42453,1.322937,6.843157178495199,2.422263768327316,94.15640258789062,-0.8378332257270813,3.2523646354675293,27241533.0,50354.0,0.08792357913202,-0.07242252169500003,0.0435638686882219,0.004711561989086413,0.00128950415370337,0.0006278596704191269,27.24153301399201
1631,A,1553900214870185.0,-3.3999481,3.791809,0.4142930219182567,159,1970-01-18 23:38:20.214870185,-0.6184082,0.7745056,0.8782959,5.169751704142431,1.3242701062152729,94.29454040527344,0.07301367074251175,3.2864277362823486,27291887.0,50354.0,-0.10838411079368,-0.22747145070700006,0.0340656364691219,-0.000515134805645614,-0.007550430543165157,0.001954478051346445,27.29188701696694
1631,A,1553900265224189.0,-0.98535156,2.0792084,1.6426102919182566,159,1970-01-18 23:38:20.265224189,0.6510773,-0.3244171,-0.043899536,2.325879657439882,0.7287491163690802,94.02220153808594,0.6815904378890991,3.2685816287994385,27342241.0,50354.0,-0.11040868953982001,-0.3456545949202,0.0517866547324619,-0.0055085463339965305,-0.014429594450756016,0.0021615031355822754,27.34224102087319
1631,A,1553900315578193.0,2.443161,7.6003265,4.622880621918257,159,1970-01-18 23:38:20.315578193,2.075882,-0.50079346,-1.6878662,8.646333402184954,2.721942776144497,93.4887924194336,0.3482168912887573,3.2434964179992676,27392595.0,50354.0,0.036703268270879996,-0.24976754982270005,0.15774626473766193,-0.001855681391288103,-0.014990943338191995,0.005275410313499308,27.39259502501227
1631,A,1553900365932197.0,11.348389,16.011627,8.756898621918257,159,1970-01-18 23:38:20.365932197,1.4466705,-0.80615234,-0.58992004,20.993488024540707,1.7580508480846984,92.98699951171875,-0.4007776081562042,3.2048494815826416,27442949.0,50354.0,0.34722985435,0.10100895326950002,0.3368627020220719,0.009666284228225895,-0.0037452951854199173,0.01245276995610982,27.44294902891852
1631,A,1553900416286201.0,8.97702,11.477325,1.5992600719182566,159,1970-01-18 23:38:20.416286201,1.1211548,-1.897171,0.3554535,14.57408513945966,2.2321722781779836,92.95653533935547,-1.2879942655563354,3.110036849975586,27493303.0,50354.0,0.511732822393,0.198620144504,0.26073700743472195,0.02162610331235851,0.00754376179464341,0.0150457678849937,27.49330303282477
1631,A,1553900466640205.0,-8.792297,12.789352,-2.254331878081743,159,1970-01-18 23:38:20.466640205,-0.20622253,0.3535614,-2.513092,15.922402388514907,2.546205961016029,93.2060775756836,-0.3465224504470825,3.1303751468658447,27543657.0,50354.0,0.004650770970999999,0.11749292682899996,-0.0164927428637781,0.013000989730125428,0.00795877879695094,0.006149337849102653,27.54365703696385
1631,A,1553900516994209.0,-5.8062286,9.877808,-5.979719378081743,159,1970-01-18 23:38:20.516994209,0.54818726,0.7698364,-1.8477631,13.576220387970208,2.075424252656039,93.94231414794922,0.3624206781387329,3.174240827560425,27594011.0,50354.0,-0.3675470790312,0.07722188731999995,-0.2073087084764281,-0.009136640348031657,0.004902334875829371,-0.0056346491403923725,27.5940110408701
1631,A,1553900567348213.0,-1.5691986,5.506256,-4.042265378081743,159,1970-01-18 23:38:20.567348213,1.2656708,-1.4315948,-0.7715454,7.832464901315674,2.060744659005778,94.91089630126953,0.6865251064300537,3.113950252532959,27644365.0,50354.0,-0.1856911306144,-0.10614462067200005,-0.25232351020592814,-0.013928878404247272,-0.0007281876576033066,-0.011572160369765685,27.64436504500918
1631,A,1553900617702217.0,2.3744354,10.640213,-1.2628462780817433,159,1970-01-18 23:38:20.617702217,0.6578522,-0.5364227,-0.51361084,11.19968560877521,0.9921264662761676,95.15396118164062,0.39421483874320984,3.091325521469116,27694719.0,50354.0,0.020273446913599998,-0.08694954998700007,-0.1335667961672281,-0.004164721022535042,-0.004861531934681646,-0.009715560243556956,27.69471904891543
1631,A,1553900668056221.0,2.454605,10.351776,-0.8592359780817433,159,1970-01-18 23:38:20.668056221,0.79255676,-0.29408264,0.20466614,10.856212664884552,0.8697810332684697,95.35489654541016,0.05197688937187195,3.0762720108032227,27745073.0,50354.0,0.12158075015080001,0.03504610705299993,-0.05342766496342811,0.003571463119490399,-0.0013067729827493215,-0.0047079595478865316,27.74507305305451
1631,A,1553900718410224.0,-0.22424316,8.355103,0.47966168191825664,159,1970-01-18 23:38:20.718410224,0.6417694,-0.82289124,-0.2063446,8.398515080709386,1.0637650349556793,95.39366912841797,0.10304871201515198,3.0362932682037354,27795427.0,50354.0,0.05615382004568,-0.022486107417000065,-0.009556542054508106,0.004474823273836777,0.00031622311083556867,-0.00158575338009058,27.79542705602944
1631,A,1553900768764228.0,0.91947937,8.849533,-0.5527937780817433,159,1970-01-18 23:38:20.768764228,0.7370453,-0.7269592,-0.7459564,9.088548007633603,1.2759923210653308,95.59049224853516,-0.003806442953646183,3.0037167072296143,27845781.0,50354.0,0.01750396205917,-0.060308079428000066,-0.0018412467851081048,0.0018544819800538083,-0.0020845092421965684,-0.0002869621296150174,27.84578105993569
1631,A,1553900819118232.0,0.90293884,11.121429,-0.5965559780817433,159,1970-01-18 23:38:20.819118232,0.7939148,-0.7067871,-1.1508484,11.31847190952402,1.5666208073966115,95.7322769165039,-0.057234108448028564,2.9740779399871826,27896135.0,50354.0,0.04588302327317,0.009339710273999923,-0.028937178810928107,0.0015958941297123243,-0.0012832306301902617,-0.0007749084212314037,27.89613506384194
1631,A,1553900869472236.0,3.8022919,12.537689,0.049745321918256646,159,1970-01-18 23:38:20.869472236,0.2819214,-0.93070984,-0.9577179,13.16132230680209,1.3648897603950276,95.74591827392578,-0.4173807203769684,2.9325156211853027,27946489.0,50354.0,0.11846359434098001,0.10219641388599995,-0.013767051890228105,0.004137754791671455,0.002808144997976317,-0.00107516441636301,27.94648906798102
1631,A,1553900919826240.0,4.6040497,13.205063,0.5510117819182566,159,1970-01-18 23:38:20.919826240,-0.2690277,-0.2570343,-0.14282227,14.004844229044297,0.3985482850944574,95.67386627197266,-0.8700315356254578,2.9211556911468506,27996843.0,50354.0,0.21164646246320004,0.154656067104,0.015125261603291895,0.008311180900158841,0.006466774913885229,3.419564594580703e-05,27.99684307188727
1631,A,1553900970180244.0,1.4906158,10.979538,0.6257340719182566,159,1970-01-18 23:38:20.970180244,-1.4434662,0.5410156,0.75349426,11.100908550007704,1.7158222955302649,95.548095703125,-1.080949068069458,2.9453911781311035,28047197.0,50354.0,0.1534453932935,0.11542649937699999,0.029626930362041896,0.009191917652386436,0.006799868776292137,0.0011267259371112088,28.04719707602635
1631,A,1553901020534248.0,-1.6371155,13.16922,0.9103562619182566,159,1970-01-18 23:38:21.020534248,-2.5213623,1.9960632,1.7316742,13.276379813242267,3.652428189739145,95.32512664794922,-0.973242998123169,3.0379583835601807,28097551.0,50354.0,-0.003688422946899998,0.11452408016599995,0.038674146335001894,0.003770431242416348,0.00578946574115411,0.0017196162080014715,28.0975510799326
1631,A,1553901070888252.0,-4.1464233,12.626343,0.0628068219182567,159,1970-01-18 23:38:21.070888252,-2.0841522,0.67555237,2.4169006,13.347439640225534,3.262126592831403,95.2273178100586,-0.6286437511444092,3.0599687099456787,28147905.0,50354.0,-0.14561215636760003,0.15598568965099996,0.024501326961751897,-0.0037589406854011674,0.006810624474682608,0.0015905688911923704,28.14790508383885
1631,A,1553901121242256.0,0.06707764,10.48877,1.1323563819182567,159,1970-01-18 23:38:21.121242256,-2.4636536,0.87265015,2.4983673,10.490363979326249,3.615652985395207,94.99639892578125,-0.7504377365112305,3.0934646129608154,28198259.0,50354.0,-0.10270568568182002,0.08850000000099999,0.0300906239829919,-0.0062518983092782485,0.006155416208368404,0.0013744615489358148,28.19825908797793
1631,A,1553901171596260.0,0.9585266,7.768173,1.0779588019182567,159,1970-01-18 23:38:21.171596260,-1.9841614,1.8305359,1.7333832,7.830306076542226,3.2081732279415665,94.81304931640625,-1.0013526678085327,3.178591251373291,28248613.0,50354.0,0.02582163795048,-0.03381414608900005,0.055649105383451906,-0.001935709669731948,0.0013768257439424226,0.002158669166258956,28.24861309188418
1631,A,1553901221950264.0,-2.1002502,4.5283356,0.9534165619182566,159,1970-01-18 23:38:21.221950264,-1.1372223,1.0289917,1.2162933,5.003870215574601,1.9574135663959902,94.74640655517578,-0.44240671396255493,3.224595546722412,28298967.0,50354.0,-0.028745175077200005,-0.18388000297780005,0.051143937535311906,-7.360589423942952e-05,-0.005480885591054826,0.0026887284415657168,28.29896709602326
1631,A,1553901272304267.0,-2.1375122,2.1849213,1.2436845079182566,159,1970-01-18 23:38:21.272304267,0.033172607,-0.4430542,0.57670593,3.05717124234334,0.7280021811024892,94.6907958984375,0.540020227432251,3.200099468231201,28349321.0,50354.0,-0.10669414394480001,-0.3244495310287,0.055316413635273905,-0.0034099557350168947,-0.012798212677681652,0.002680352261421839,28.34932109899819
1631,A,1553901322658271.0,1.1261139,3.1605072,2.8330094219182564,159,1970-01-18 23:38:21.322658271,1.5800476,-0.20111084,-0.8801575,3.6877457787788046,1.8198003222984427,94.07687377929688,0.13618780672550201,3.1893091201782227,28399675.0,50354.0,-0.025463974999100008,-0.35888734665550004,0.1026389230714939,-0.0033273449606505707,-0.017204372569455107,0.003976841512266294,28.39967510290444
1631,A,1553901373012275.0,5.858963,15.006348,10.124513621918256,159,1970-01-18 23:38:21.373012275,0.77404785,-1.1534424,-1.580307,18.36698844562826,2.104031762701405,93.3461685180664,-0.24080532789230347,3.1379754543304443,28450029.0,50354.0,0.1758632811113,-0.03608228662960007,0.32623155767467193,0.00378660332998686,-0.009944150457218966,0.010797672093746219,28.45002910704352
1631,A,1553901423366279.0,1.2499542,5.899811,6.813325621918257,159,1970-01-18 23:38:21.423366279,0.09118652,0.3383484,-0.3678131,8.169431561535946,0.5080168282093422,92.32563018798828,-0.4382758140563965,3.1620044708251953,28500383.0,50354.0,0.1789812083444,0.03288516514299994,0.42644397864207195,0.00893391971102616,-8.049392766813154e-05,0.018950111977846663,28.50038311094977
1631,A,1553901473720283.0,-3.026123,9.177048,-2.4883406780817436,159,1970-01-18 23:38:21.473720283,1.6537933,-2.3302917,-2.115921,10.380073516474354,3.555617156620603,92.87993621826172,0.10012219101190567,3.048879623413086,28550737.0,50354.0,-0.04471860187760001,-0.11387912095700008,0.1088901459309719,0.003380329643014624,-0.0020391848255290816,0.013478107254375525,28.55073711485602
1631,A,1553901524074287.0,-0.5516205,9.067627,4.796708821918257,159,1970-01-18 23:38:21.524074287,1.1596832,-3.119461,-0.73942566,9.733231901823057,3.4092011324575253,92.35686492919922,0.2230689823627472,2.8933849334716797,28601091.0,50354.0,-0.0900768480995,-0.03412301752500006,0.05811778475737189,-0.0033937450440734477,-0.0037262498405613177,0.004204758670940432,28.6010911189951
1631,A,1553901574428291.0,-2.2714539,2.9094238,-6.930708378081744,159,1970-01-18 23:38:21.574428291,1.2723083,-1.6405487,-1.2171783,9.022726024437219,2.4065933311034233,93.70682525634766,0.6466597318649292,2.8239283561706543,28651445.0,50354.0,-0.07107654416880001,-0.19192299200840005,-0.05372770682552812,-0.004057358957138989,-0.005691160382022414,0.00011052899209003073,28.65144512290135
1631,A,1553901624782295.0,2.138794,11.190689,2.262300221918257,159,1970-01-18 23:38:21.624782295,1.1714935,-1.2625885,-0.5481262,11.433600544547373,1.8074758842100604,93.55420684814453,0.3943744897842407,2.7606592178344727,28701799.0,50354.0,-0.0033399783023000044,-0.13847066003440003,-0.11753651214772812,-0.001873584786254885,-0.008318320977481579,-0.0043119192410896725,28.70179912704043
1631,A,1553901675136299.0,3.0781555,10.069778,-0.17431477808174334,159,1970-01-18 23:38:21.675136299,0.6358032,-0.36956787,-0.14350891,10.63279751949496,0.7492802726056286,93.70040893554688,-0.02136130817234516,2.7429184913635254,28752153.0,50354.0,0.13134713756150002,0.04180557765899997,0.0525692095194719,0.0032228362486688786,-0.0024337367789654474,-0.0016356817782716068,28.75215313094668
1631,A,1553901725490303.0,0.48010254,9.069794,-1.8474562780817434,159,1970-01-18 23:38:21.725490303,0.60969543,-0.57185364,-0.10406494,9.613206485135585,0.84236251975105,94.11206817626953,-0.08524324744939804,2.7143499851226807,28802507.0,50354.0,0.08958626267308,-0.011592195756000052,-0.0509021298810281,0.005562440217706022,0.0007606823161718289,4.197206405709955e-05,28.80250713485293
1631,A,1553901775844307.0,0.2946167,8.451935,-0.5587293780817433,159,1970-01-18 23:38:21.775844307,0.68588257,-0.6045227,-0.62205505,8.659451022933261,1.1058187373505648,94.35322570800781,-0.0986199676990509,2.686095952987671,28852861.0,50354.0,0.019505106305480004,-0.05232462896700003,-0.060580536265228115,0.0027465933967732053,-0.0016092338960509728,-0.0028067990855642926,28.85286113899201
1631,A,1553901826198310.0,-0.846405,11.147476,-0.7280409780817434,159,1970-01-18 23:38:21.826198310,0.74172974,-0.8662567,-1.1850433,11.36246559152153,1.6446553743475403,94.53890228271484,0.07295742630958557,2.647428274154663,28903215.0,50354.0,-0.013892374029099997,-1.4829253000037891e-05,-0.032397017257128104,0.00014131176052241943,-0.0013177505396049418,-0.0023408958650323625,28.90321514196694
1631,A,1553901876552314.0,3.5571442,12.230667,-0.9905683780817436,159,1970-01-18 23:38:21.876552314,0.14050293,-1.0429688,-1.0246124,12.942200179896295,1.4687939138442074,94.69186401367188,-0.2672153413295746,2.599229097366333,28953569.0,50354.0,0.06824828083840001,0.09512230631099997,-0.04326942776012811,0.0013685186657377464,0.0023945209498892643,-0.00190505408619946,28.95356914587319
1631,A,1553901926906318.0,2.4526215,12.32753,-0.8838331780817434,159,1970-01-18 23:38:21.926906318,-0.42156982,-0.15985107,-0.17793274,12.75787202729116,0.4846994302440275,94.8022689819336,-0.5265253186225891,2.591127872467041,29003923.0,50354.0,0.1513078710289,0.12483252586899997,-0.047191807979528114,0.005527765235563013,0.005537802809795859,-0.002277542532217325,29.00392315001227
1631,A,1553901977260322.0,1.8766632,10.2018585,0.37776349191825664,159,1970-01-18 23:38:21.977260322,-1.600174,0.08457947,0.7654877,10.414167081099231,1.7758608999222802,94.73152160644531,-0.8101818561553955,2.5922279357910156,29054277.0,50354.0,0.1089984008919,0.07375321426449996,-0.012741316488538108,0.0065537310081499826,0.0049997931793411285,-0.0015089362747325035,29.05427715391852
1631,A,1553902027614326.0,-2.1643677,10.44278,2.4437425219182565,159,1970-01-18 23:38:22.027614326,-2.5756683,2.0121002,2.0155487,10.725606254366516,3.8399285108627503,94.33464813232422,-0.6100903153419495,2.687265634536743,29104631.0,50354.0,-0.007243536196500001,0.026300863514499992,0.0710370569103619,0.0025618822284360857,0.002519061516241882,0.0014677118566002575,29.10463115782477
1631,A,1553902077968330.0,-5.2150116,14.186356,-0.6906416780817433,159,1970-01-18 23:38:22.077968330,-2.2345123,0.49427795,1.8085022,15.245378417889976,2.916853804720479,94.30880737304688,-0.19786636531352997,2.704066753387451,29154985.0,50354.0,-0.18579063263610002,0.12661855707199998,0.0441378199452719,-0.004860021268698371,0.0038500522521063103,0.002899757874594292,29.15498516196385
1631,A,1553902128322334.0,2.416626,11.364258,-0.5793440780817434,159,1970-01-18 23:38:22.128322334,-2.2491913,0.2383728,2.4073029,11.769778683619693,3.3031485507200458,94.32078552246094,-0.6080674529075623,2.706435441970825,29205339.0,50354.0,-0.07045495425120002,0.14981860867799995,-0.031974431382928103,-0.006451495141061554,0.006959858522087749,0.0003062376338341297,29.2053391658701
1631,A,1553902178676338.0,2.6025696,8.406265,1.0807359019182567,159,1970-01-18 23:38:22.178676338,-1.3360748,1.2004242,1.7249756,8.802717121433318,2.490312219729896,94.18608856201172,-1.1074923276901245,2.761092185974121,29255693.0,50354.0,0.1263682876212,0.004293257570999938,0.012623541948731897,0.0014077299942564898,0.0038800744565510707,-0.0004871973432847579,29.25569317000918
1631,A,1553902229030342.0,-2.1993408,5.1956024,0.6707322219182567,159,1970-01-18 23:38:22.229030342,-0.9495697,1.403305,1.3206177,5.6771899070192955,2.14825013621235,94.200927734375,-0.5981807708740234,2.8250997066497803,29306047.0,50354.0,0.0101520914976,-0.15101498447020006,0.044096712953831906,0.003437173585074028,-0.003694012918141162,0.001428045857681849,29.30604717391543
1631,A,1553902279384346.0,-3.0669098,1.0383301,-0.20324537808174337,159,1970-01-18 23:38:22.279384346,0.33259583,0.22257996,0.559021,3.5708911855706345,0.6875073113560252,94.78936004638672,0.6079998016357422,2.83437442779541,29356401.0,50354.0,-0.13258839135619999,-0.33651748144750004,0.011769916267271896,-0.0030825787215399717,-0.012274604894409936,0.0014065541238997305,29.35640117805451
1631,A,1553902329738349.0,1.9411774,4.371994,1.6777818019182567,159,1970-01-18 23:38:22.329738349,1.8161621,0.12834167,-0.6512604,4.798265854706426,1.9336640003741494,94.65962982177734,0.046770576387643814,2.8417835235595703,29406755.0,50354.0,-0.0283425646348,-0.35725347013430003,0.037124403542931894,-0.004051758678985407,-0.01746707124797498,0.001231012289861501,29.40675518102944
1631,A,1553902380092353.0,3.5185852,18.187744,11.469880621918255,159,1970-01-18 23:38:22.380092353,1.291748,-0.88604736,-1.6641235,21.1317433667554,2.2853883352549125,93.93717193603516,-0.10639391094446182,2.8047096729278564,29457109.0,50354.0,0.1374604429802,0.07451732362599996,0.33101869684493185,0.0027472608231021356,-0.007118447960639472,0.009268738838465245,29.45710918493569
1631,A,1553902430446357.0,2.0937042,4.1400604,3.0449540219182567,159,1970-01-18 23:38:22.430446357,0.4474182,0.26872253,0.044052124,4.9557970985762285,0.5237704014639929,93.37480163574219,-0.7124212384223938,2.8220221996307373,29507463.0,50354.0,0.1413006102238,0.06867793137879992,0.3654399918278719,0.007018367036517109,0.0036052269352558467,0.017534740404715178,29.50746318884194
1631,A,1553902480800361.0,2.6979675,10.558701,-6.416395378081743,159,1970-01-18 23:38:22.480800361,1.8773651,-2.2411041,-1.6191559,13.354631421003024,3.3419624675091173,94.23007202148438,-0.8988210558891296,2.7040774822235107,29557817.0,50354.0,0.1206399183909,-0.12339848423220005,-0.08488277902412811,0.006594876688932303,-0.0013776993591900553,0.007063588946759858,29.55781719298102
1631,A,1553902531154365.0,-3.159134,9.830292,9.200853121918257,159,1970-01-18 23:38:22.531154365,-1.038269,0.29449463,-0.87002563,12.99996614499331,1.3862446394185746,93.23014068603516,-0.49228885769844055,2.7332935333251953,29608171.0,50354.0,-0.011610788970500002,0.019864476760999946,0.07010429261657192,0.0027450263914174113,-0.002606675706102405,-0.00037207795228304225,29.60817119688727
1631,A,1553902581508369.0,-3.2476501,0.32832336,-11.641065878081744,159,1970-01-18 23:38:22.581508369,1.9065857,-1.1893616,-1.1399841,13.348794696528145,2.5197646309232655,94.71036529541016,-0.08176901936531067,2.6705362796783447,29658525.0,50354.0,-0.16130360328569998,-0.23770574108128004,-0.0614372365619281,-0.004353465653834347,-0.005484589511791692,0.00021821047028776737,29.65852520102635
1631,A,1553902631862373.0,-3.8131409,11.701096,1.7816483719182568,159,1970-01-18 23:38:22.631862373,1.6005249,-1.0171204,-0.7573395,12.316058488431551,2.042003178713593,94.62295532226562,0.4055154323577881,2.6228291988372803,29708879.0,50354.0,-0.17776953500700002,-0.19060450877328003,-0.24823055455267812,-0.00853684440279531,-0.010783567160588259,-0.0077965059768924415,29.7088792049326
1631,A,1553902682216377.0,11.433563,10.809906,0.19711472191825674,159,1970-01-18 23:38:22.682216377,0.4688263,-0.16508484,0.32832336,15.773466820384686,0.5956906350541404,94.66735076904297,-0.6553905606269836,2.613016128540039,29759233.0,50354.0,0.1918593672117,0.07329029735399996,0.049819318413521906,0.0003547397054177313,-0.0029536199009032147,-0.004995399692275536,29.75923320883885
1631,A,1553902732570381.0,-0.18099976,8.720474,-1.5315229780817432,159,1970-01-18 23:38:22.732570381,0.7107239,-0.86756897,0.20223999,9.171203924817952,1.1396075610899004,95.03374481201172,-0.6175799369812012,2.5652987957000732,29809587.0,50354.0,0.28330578469348,-0.0017528227400000565,-0.0335963966654281,0.011963233029516717,0.0018010989983566754,0.0004084445008517577,29.80958721297793
1631,A,1553902782924385.0,0.060943604,9.570862,-0.45881487808174337,159,1970-01-18 23:38:22.782924385,0.7303467,-0.6157837,-0.786026,9.731765579476562,1.2371066001208546,95.2051773071289,-0.5692847967147827,2.536695718765259,29859941.0,50354.0,-0.0030226538396120003,-0.032948233528000054,-0.0501107362046281,0.007056688385507836,-0.0008736684936594388,-0.0021074944842694055,29.85994121688418
1631,A,1553902833278389.0,1.1980896,10.915329,-1.4336378780817431,159,1970-01-18 23:38:22.833278389,0.777359,-0.7947235,-1.1667786,11.316631496385284,1.611596958842753,95.46398162841797,-0.6451559066772461,2.5000619888305664,29910295.0,50354.0,0.03169867897710801,0.022311630806999962,-0.047646283041928104,0.000721976284886737,-0.0002677977467066193,-0.002461228473570546,29.91029522102326
1631,A,1553902883632392.0,3.6134796,10.785049,-1.1866285780817434,159,1970-01-18 23:38:22.883632392,0.26545715,-0.8785858,-1.1382751,11.643460029075731,1.4622074783449073,95.65631103515625,-1.0135549306869507,2.4591190814971924,29960649.0,50354.0,0.1211408777484,0.052881216905999985,-0.0659704485668281,0.003848041519678115,0.0018931303268701998,-0.0028605284517136554,29.96064922399819
1631,A,1553902933986396.0,4.3243866,11.144363,0.4296891219182566,159,1970-01-18 23:38:22.933986396,-0.33580017,-0.32191467,-0.21014404,11.985779247182254,0.510442285161368,95.61235809326172,-1.4946062564849854,2.4448039531707764,30011003.0,50354.0,0.1998516573174,0.05864760592399999,-0.019057464687828107,0.008081629055351647,0.0028079611723909096,-0.0021407477720124797,30.01100322790444
1631,A,1553902984340400.0,2.6843414,12.518494,-0.6801893780817434,159,1970-01-18 23:38:22.984340400,-1.2672119,0.4824829,0.91215515,12.955668460073605,1.6342101351923939,95.63127899169922,-1.802553653717041,2.4621496200561523,30061357.0,50354.0,0.17645874485600002,0.10229055068899999,-0.006306844949428108,0.009474366995519694,0.004051939969045501,-0.0006385972237371997,30.06135723204352
1631,A,1553903034694404.0,-2.7596893,11.814804,0.7780473219182567,159,1970-01-18 23:38:23.034694404,-2.7590942,2.0727234,2.1259918,12.144155165413896,4.0532239305333775,95.4154052734375,-1.54917573928833,2.5567824840545654,30111711.0,50354.0,-0.0018970340782999923,0.11917024374599999,0.002463769451971894,0.004394940192250154,0.005575718421489995,-9.67571117994551e-05,30.11171123594977
1631,A,1553903085048408.0,-5.586075,13.843079,-2.4484999780817436,159,1970-01-18 23:38:23.085048408,-2.2712555,0.59532166,1.7136841,15.391715159773897,2.906840659502721,95.5273208618164,-1.0820757150650024,2.572681427001953,30162065.0,50354.0,-0.2101213077811,0.15251932029099996,-0.04205698652422811,-0.005337985792994114,0.006840328153759548,-0.0009968384262281948,30.16206523985602
1631,A,1553903135403772.0,4.648697,12.768997,-1.6015455780817434,159,1970-01-18 23:38:23.135403772,-2.09906,-0.48431396,3.1267242,13.895719237301495,3.7969747323779393,95.59455108642578,-1.6891460418701172,2.529918909072876,30212420.0,50355.0,-0.023600834594999995,0.1765465434899999,-0.10197002199030618,-0.005884539239674257,0.008285055785346124,-0.0036262400068746868,30.21242060395889
1631,A,1553903185757776.0,3.1255646,8.385666,1.6449906619182566,159,1970-01-18 23:38:23.185757776,-1.4917755,0.86439514,1.8653107,8.95577267464546,2.5400702958757577,95.3333740234375,-2.2465834617614746,2.5705959796905518,30262774.0,50354.0,0.19573258430320004,0.039141750350999996,0.001093816875751894,0.004333761062403353,0.005430384174034855,-0.0025397602161691332,30.26277460786514
1631,A,1553903236111780.0,-2.1521301,6.6463165,0.5412614219182567,159,1970-01-18 23:38:23.236111780,-1.2924652,1.2827148,1.1026611,7.027420263952434,2.1287754820091505,95.2952651977539,-1.815651535987854,2.6281023025512695,30313128.0,50354.0,0.024508160406500005,-0.11500897659750002,0.0550432687147519,0.005545001229556118,-0.0019101091552081312,0.0014133634039121142,30.31312861200422
1631,A,1553903286465784.0,-1.1300964,3.2031403,0.9808213519182567,159,1970-01-18 23:38:23.286465784,-0.20907593,-0.0016326904,0.4160614,3.411845214469118,0.4656420285511899,95.29522705078125,-1.3193308115005493,2.625771999359131,30363482.0,50354.0,-0.0826366165905,-0.24548942614640004,0.038321477996881896,-0.0014635001413445682,-0.009076268285883171,0.0023506442279588044,30.36348261591047
1631,A,1553903336819788.0,2.0397186,3.4119568,3.2438676219182567,159,1970-01-18 23:38:23.336819788,0.9323883,0.18211365,-0.685791,4.423901014617438,1.1716751338038256,94.61323547363281,-1.9220921993255615,2.6583616733551025,30413836.0,50354.0,0.022901558129400004,-0.32692090031330007,0.1063649942942819,-0.0015039495668751149,-0.014411574789275872,0.003642771312874631,30.41383662004955
1631,A,1553903387173792.0,0.74017334,5.160553,6.0212876219182565,159,1970-01-18 23:38:23.387173792,1.9206696,-0.3361206,-1.5531769,7.031809233246928,2.492851229576713,93.66638946533203,-1.961267352104187,2.6831657886505127,30464190.0,50354.0,0.06998933937338,-0.27763912076540004,0.23326881357407192,0.0023387141264274926,-0.015221007650698433,0.008550960380701545,30.4641906239558
1631,A,1553903437527795.0,12.333435,17.628998,8.096193021918257,159,1970-01-18 23:38:23.437527795,0.3903656,-1.6765137,-0.4149933,22.56213136888574,1.7706786628284479,93.18671417236328,-2.6807191371917725,2.6209802627563477,30514544.0,50354.0,0.32915423717618003,0.08030332552699995,0.3554358101698719,0.010049237826788272,-0.0049683233167171995,0.014821816312001275,30.51454462693073
