Subject-id_accel,Activity_accel,Timestamp_accel,accel_x,accel_y,accel_z,Segment_accel,DateTime,gyro_x,gyro_y,gyro_z,accel_magnitude,gyro_magnitude,Roll,Pitch,Yaw,Time_Difference,Difference_Microseconds,vx,vy,vz,dx,dy,dz,Time_diff
1618,A,775434866238148.0,17.021994582306615,5.741470433167041,1.5067243829666535,89,1970-01-09 23:23:54.866238148,-1.6656342,0.47047424,2.714264,12.163921468254253,3.2191477692720505,-97.16170501708984,29.228282928466797,-80.02153778076172,15005481.0,50354.0,0.6907796738385673,-0.30675385224930685,0.10850757492274288,0.02641060068186302,-0.018450110809806863,0.005478724399202063,15.005481814034283
1618,A,775434916592152.0,16.840552282306614,10.464935833167042,2.3335218629666534,89,1970-01-09 23:23:54.916592152,-1.3908081,-1.7561646,0.94259644,7.857087234398547,2.430421634618044,-96.93275451660156,28.03200340270996,-79.80696868896484,15055835.0,50354.0,0.8525573424103673,-0.08544050943250683,0.09668587973386288,0.03885659605809943,-0.009874277444063023,0.005166155607889363,15.055835818056948
1618,A,775434966946156.0,15.447668982306613,11.306564833167041,0.33605480296665347,89,1970-01-09 23:23:54.966946156,0.07420349,0.43423462,0.2930298,6.618048284273696,0.5290863132068004,-97.1547622680664,26.89801025390625,-79.93169403076172,15106189.0,50354.0,0.8129205467791673,0.054671872276293165,0.06721193171820287,0.041931736816124915,-0.0007746619776819916,0.004126455198928659,15.106189821963198
1618,A,775435017300160.0,7.423102282306614,11.630936133167042,8.807505402966653,89,1970-01-09 23:23:55.017300160,-0.24978638,1.2263641,-0.8878021,10.18150288321309,1.5344558351958928,-96.00802612304688,27.2025089263916,-79.453857421875,15156543.0,50354.0,0.5758174081291672,0.08402826182939317,0.23020741530478286,0.03496425549072714,0.003492053276378865,0.007488126899997712,15.156543825985864
1618,A,775435067654163.0,5.944983282306614,9.765320433167041,-9.868092597033348,89,1970-01-09 23:23:55.067654163,-2.3623352,-4.355072,-2.3845215,15.379301833227476,5.4984745617584965,-97.15708923339844,27.293642044067383,-79.72225952148438,15206897.0,50354.0,0.33656829026026724,0.04522435157059317,-0.026702403785017183,0.02297113472835079,0.003254193047571456,0.005123645675033141,15.206897828960791
1618,A,775435118008167.0,-1.2963797176933856,10.298630433167041,-4.0592545970333465,89,1970-01-09 23:23:55.118008167,-0.21540833,-0.46990967,-2.4248505,16.56902978239236,2.4793377732659074,-97.64610290527344,27.947162628173828,-79.90989685058594,15257251.0,50354.0,0.11703789194626726,0.011680890961693146,-0.3506488203050172,0.011420442849413919,0.0014327032912353729,-0.009500571768914797,15.257251832983457
1618,A,775435168362171.0,3.4475772823066144,10.230408433167042,1.3398542629666537,89,1970-01-09 23:23:55.168362171,0.3204651,-0.51649475,-0.73757935,11.433063653526801,0.9557656640840343,-97.56639099121094,28.52422332763672,-79.85275268554688,15307605.0,50354.0,0.054160701084267265,0.023390411537693185,-0.06846634221079713,0.004310266976729768,0.0008829901830270496,-0.010552062446660657,15.307605837006122
1618,A,775435218716175.0,0.386618282306614,3.501907433167041,1.0908308029666536,89,1970-01-09 23:23:55.218716175,-0.38485718,1.2870483,-0.33055115,18.266544712362816,1.3834277857180566,-97.53341674804688,28.833009719848633,-79.88187408447266,15357959.0,50354.0,0.09653354173026726,-0.14773068343330684,0.06119735790500288,0.003794028951341536,-0.003130515025515865,-0.00018301121786698185,15.357959841028787
1618,A,775435269070179.0,10.262137282306615,12.90309193316704,1.8793745249666536,89,1970-01-09 23:23:55.269070179,-0.4194641,1.5278778,0.72125244,4.770339446300836,1.740852028498575,-97.42650604248047,28.874370574951172,-79.89065551757812,15408313.0,50354.0,0.2681037188502673,-0.08044053095380688,0.07478085954137688,0.009180472309636119,-0.005744666664624362,0.003423523580647503,15.408313845051453
1618,A,775435319424183.0,10.564032482306613,7.574448433167042,1.1514540029666533,89,1970-01-09 23:23:55.319424183,0.35908508,1.7717743,1.6273956,9.734827886967894,2.4323944383505025,-97.38507843017578,28.52968978881836,-79.9655532836914,15458667.0,50354.0,0.5243404761636672,0.02209383380319316,0.07630716984777687,0.01995136749786583,-0.0014689947941610017,0.003803943315930724,15.458667848957703
1618,A,775435369778187.0,9.853354382306614,7.524185433167041,0.0015669029666534051,89,1970-01-09 23:23:55.369778187,2.2534943,-0.65730286,-0.4426422,10.11000460832919,2.3887686633739795,-97.3626708984375,28.196393966674805,-79.97759246826172,15509021.0,50354.0,0.5140485490903672,-0.11333089514730683,0.029029607348682866,0.026143520488820828,-0.00229707549346075,0.002652064039475267,15.509021852980368
1618,A,775435420132191.0,10.616736382306614,11.438950133167042,-1.5342911970333464,89,1970-01-09 23:23:55.420132191,1.8479614,-0.9767914,-1.1272736,6.892402984449912,2.374832319188216,-97.8776626586914,27.916942596435547,-80.21442413330078,15559375.0,50354.0,0.5153754751806673,-0.016034335846406827,-0.038589399551717134,0.02591780865907184,-0.003257028420728729,-0.00024068688829579377,15.559375857003033
1618,A,775435470486195.0,8.918097482306614,10.039597033167041,-0.03276539703334658,89,1970-01-09 23:23:55.470486195,-0.15151978,-1.9055328,-1.5007782,8.16607125114239,2.4302980683863304,-98.02322387695312,27.832233428955078,-80.18644714355469,15609729.0,50354.0,0.49182851220936724,0.04729618200679318,-0.03945378386881713,0.0253583747905189,0.0007870795007800473,-0.0019648932289787913,15.609729861025698
1618,A,775435520840199.0,7.479590282306614,8.323273433167042,0.05570510296665354,89,1970-01-09 23:23:55.520840199,-1.2386322,-1.6943359,-1.6964417,10.298164419403124,2.6986845518519833,-98.13356018066406,27.810394287109375,-80.12437438964844,15660083.0,50354.0,0.41284458484966724,-0.03114721026910682,0.0005775529762828695,0.02277695456465531,0.00040658266143972954,-0.0009787868651813351,15.660083865048364
1618,A,775435571194203.0,6.123175582306614,8.536560433167041,1.1633711029666536,89,1970-01-09 23:23:55.571194203,-0.69358826,0.21252441,-1.7690277,10.73207742934718,1.9119859577473277,-98.09854125976562,27.95304298400879,-80.09005737304688,15710437.0,50354.0,0.34247683617336727,-0.06898916274730682,0.030692681636782876,0.01901672741709694,-0.0025211334634342468,0.0007872906968531563,15.71043786907103
1618,A,775435621548206.0,5.164816782306614,8.824280433167042,-1.0737351970333464,89,1970-01-09 23:23:55.621548206,0.20993042,-1.2344971,-1.5558014,11.492630220297459,1.9971409232679966,-98.04986572265625,27.88469123840332,-80.00852966308594,15760791.0,50354.0,0.28419778376386723,-0.056375309508306826,0.0022567632036828746,0.015777786906159753,-0.0031563013179795847,0.0008295681727484061,15.760791872045957
1618,A,775435671902210.0,2.569281282306614,8.536331433167042,-1.2506760970333464,89,1970-01-09 23:23:55.671902210,0.4267578,-1.2974243,-2.15773,13.539181301683099,2.553670062281212,-97.98666381835938,27.786909103393555,-79.91886138916016,15811145.0,50354.0,0.19472138697276725,-0.05638107504130681,-0.05852170315071713,0.012057747961636247,-0.002838867493805623,-0.0014165823930464816,15.811145876068622
1618,A,775435722256214.0,-2.2828757176933863,7.107330433167041,0.07310010296665359,89,1970-01-09 23:23:55.722256214,-1.0060577,-0.70884705,-1.6062622,17.99755226259342,2.0235351470068004,-98.01261901855469,27.71230697631836,-79.8665771484375,15861499.0,50354.0,0.00721083290026723,-0.09960872519130683,-0.029647830802617126,0.005084047499743389,-0.003927355200456514,-0.0022198443563430964,15.861499879974872
1618,A,775435772610218.0,-1.6819847176933855,10.836990833167043,19.79154540296665,89,1970-01-09 23:23:55.772610218,-1.0461578,1.8576965,0.42643738,23.704392077460287,2.1742426883111174,-98.11483001708984,27.720388412475586,-79.9738540649414,15911853.0,50354.0,-0.09982329118173276,-0.04168502347750681,0.5001321799028828,-0.0023317038621524576,-0.003557352710234721,0.01184538445729739,15.911853883997537
1618,A,775435822964222.0,-2.0312887176933856,3.811096433167041,-1.9557389970333465,89,1970-01-09 23:23:55.822964222,0.6541748,3.3836212,3.6607666,20.115004016692726,5.027728034979621,-98.18407440185547,27.87759017944336,-80.19248962402344,15962207.0,50354.0,-0.09348908528273274,-0.1246743068955068,0.4490520978821828,-0.004867025702245848,-0.004188428860801364,0.0238976125617946,15.962207888020203
1618,A,775435873318226.0,2.5223602823066145,-0.8429105668329591,-1.7586565970333463,89,1970-01-09 23:23:55.873318226,-0.33654785,5.094162,5.099579,20.87259201457155,7.2159169143515385,-98.43964385986328,28.118478775024414,-80.55953979492188,16012561.000000002,50354.00000000186,0.01236370878226772,-0.41873918444332237,-0.09351733787182058,-0.002042493604152283,-0.01368152147143821,0.008951298652781221,16.012561892042868
1618,A,775435923672230.0,10.232779482306615,4.553680933167042,-2.607701297033346,89,1970-01-09 23:23:55.923672230,-0.38562012,1.3417358,4.0205994,13.513284132859495,4.2560753481618265,-98.51042938232422,28.307424545288086,-80.66846466064453,16062915.0,50353.99999999814,0.3211361538536554,-0.400043134486792,-0.10993179269891305,0.008396526041584326,-0.020614482443702727,-0.005122238760379171,16.062915896065533
1618,A,775435974026234.0,15.056494682306614,8.611313433167041,-0.6261491970333466,89,1970-01-09 23:23:55.974026234,-1.9395599,-2.5157623,1.9760437,9.165038025693889,3.7410828993887573,-98.54814910888672,28.423795700073242,-80.54374694824219,16113268.999999998,50353.99999999814,0.6367080556424437,-0.16201413683880084,-0.08141865388911411,0.024115643662482394,-0.01415091592016393,-0.004817630193746582,16.113269899971783
1618,A,775436024380238.0,15.346228582306614,11.243118833167042,2.3498030029666537,89,1970-01-09 23:23:56.024380238,-1.71521,-1.8163147,0.50260925,6.452014639422062,2.548246552381,-98.5873031616211,28.462177276611328,-80.44588470458984,16163623.000000002,50354.000000003725,0.7654493636332238,0.006405841169493642,0.04339643187198608,0.03530211734510609,-0.003917750060066437,-0.0009572854837253032,16.16362390399445
1618,A,775436074734242.0,13.621756482306614,11.072586433167043,0.9061232029666535,89,1970-01-09 23:23:56.074734242,0.19181824,0.9806824,0.07382202,6.162851569022466,1.0019889707493481,-98.60428619384766,28.458498001098633,-80.50165557861328,16213977.0,50353.99999999814,0.7293269599717402,0.0683733114904907,0.08197445408677985,0.03763398349940079,0.0018827147265203558,0.0031564627957837333,16.213977908017114
1618,A,775436125088246.0,6.3672092823066135,11.248688433167041,13.866786402966653,89,1970-01-09 23:23:56.125088246,-1.1638641,3.1383057,-1.2982025,14.67165934683937,3.590107524981327,-98.74110412597656,28.370668411254883,-80.6668930053711,16264330.999999998,50353.99999999814,0.5032621910556486,0.06851353730969068,0.37193754514856914,0.03103289705541542,0.0034464001922420388,0.011428142404747958,16.26433191203978
1618,A,775436175442249.0,4.5708682823066145,9.070160433167041,-15.102452597033349,89,1970-01-09 23:23:56.175442249,-2.7653503,-5.118576,-2.3789368,20.448820409772516,6.285405543628855,-98.73323822021484,28.291976928710938,-80.35897827148438,16314685.0,50354.00000000186,0.2753879788442774,0.018098457907693835,-0.03111036776801834,0.01960407532757116,0.0021806302035881704,0.008581005844910445,16.314685915014707
1618,A,775436225796253.0,-4.5323417176933845,10.221283433167041,0.4253645029666535,89,1970-01-09 23:23:56.225796253,0.22613525,0.7136688,-2.3290558,18.504548581477525,2.4464180400944646,-98.73139953613281,28.171457290649414,-80.37895965576172,16365039.0,50354.0,0.000969983317267292,-0.0077685177773068334,-0.3695250469443172,0.0069578644133412105,0.00026007690266275355,-0.010086797836212472,16.365039919037372
1618,A,775436276150257.0,5.607932082306614,9.626328033167042,2.8075819029666533,89,1970-01-09 23:23:56.276150257,0.4437561,-0.41163635,0.3981018,10.243062442617806,0.724464632740462,-98.69992065429688,28.194250106811523,-80.35929870605469,16415393.000000002,50354.00000000186,0.027080138609868278,0.006234113887893403,0.08139589166218587,0.0007062179197595184,-3.863168672376336e-05,-0.007254227742538489,16.415393923060037
1618,A,775436326504261.0,1.4868382823066142,3.790756433167042,0.8306837029666536,89,1970-01-09 23:23:56.326504261,0.36717224,2.0312195,-0.106781006,17.34249354761672,2.0668987140760526,-98.73490905761719,28.17357635498047,-80.47225952148438,16465747.0,50353.99999999814,0.17862503346986064,-0.15566726439110107,0.09160061316057948,0.005179039117451143,-0.00376227843021912,0.004355533001922602,16.465747926966287
1618,A,775436376858265.0,12.535330722306615,12.222092133167042,4.801173202966654,89,1970-01-09 23:23:56.376858265,0.65745544,2.2219238,1.0254211,5.632797970906758,2.533906363881121,-98.76506805419922,28.207347869873047,-80.6056900024414,16516100.999999998,50353.99999999814,0.3530361490291342,-0.09031371164540347,0.14179326132067763,0.013385633591776698,-0.006193063033670846,0.005876157577814393,16.516101930988953
1618,A,775436427212269.0,11.298407482306613,3.730057433167042,4.589945802966653,89,1970-01-09 23:23:56.427212269,2.4589996,4.36911,1.1772614,13.659428085826638,5.1499267595598015,-98.7627944946289,28.23224449157715,-80.86089324951172,16566455.000000002,50354.000000003725,0.6000620267775916,-0.0918419303684136,0.23644020321240033,0.02399615277228771,-0.004586132598982212,0.009522783936550008,16.566455935011618
1618,A,775436477566273.0,11.672659822306613,9.409760033167043,-1.9308060970333465,89,1970-01-09 23:23:56.477566273,3.5398712,1.5081177,-0.7877655,8.618906825651742,3.9275541489116326,-98.62259674072266,28.181917190551758,-80.93873596191406,16616809.0,50353.99999999814,0.5783425615282258,-0.16264801565010076,0.06694916037628039,0.029668692319774467,-0.0064072933709078995,0.007638434007071932,16.616809939034283
1618,A,775436527920277.0,11.716376282306614,10.512695833167042,-3.3102005970333463,89,1970-01-09 23:23:56.527920277,0.6526947,-3.5085754,-1.6289825,8.430555887835638,3.922970264251247,-98.4906234741211,28.12746810913086,-80.72821807861328,16667162.999999998,50353.99999999814,0.5888657620058254,0.008118471346692914,-0.13195282553651225,0.029386803961615717,-0.0038905903369267554,-0.001636597277739097,16.66716394305695
1618,A,775436578274281.0,7.628012582306614,8.318680433167042,1.4416303829666535,89,1970-01-09 23:23:56.578274281,-1.2346039,-4.4561768,-1.6069946,10.068807225630415,4.895323289342861,-98.29676818847656,28.118783950805664,-80.40293884277344,16717517.0,50354.00000000186,0.4870336784443853,-0.019351639742507514,-0.04704499227955887,0.027087920212215958,-0.00028281748070143464,-0.004506628059155389,16.7175179469632
1618,A,775436628628285.0,5.780203782306614,6.787567433167041,0.6186629029666535,89,1970-01-09 23:23:56.628628285,-1.3833008,-3.7681122,-2.4214783,12.399419796240327,4.687829755061543,-98.23170471191406,28.156530380249023,-80.15982818603516,16767871.0,50354.0,0.33757866341186726,-0.11313919746930683,0.05187200405994287,0.02076126493091487,-0.00333572180848185,0.00012152967559472797,16.767871950985864
1618,A,775436678982288.0,5.022025282306614,9.292130033167041,0.0871077029666536,89,1970-01-09 23:23:56.678982288,0.36749268,1.6101379,-2.1351776,11.005559257402554,2.6993662794092526,-98.24769592285156,28.039339065551758,-80.23280334472656,16818225.0,50354.0,0.2719677211597673,-0.08863065689010687,0.017769186545582873,0.015346549324360045,-0.0050799596232069585,0.0017533562558753218,16.81822595396079
1618,A,775436729336292.0,3.781653282306614,8.649216433167041,-1.0766038970333465,89,1970-01-09 23:23:56.729336292,0.45767212,0.13172913,-1.2743378,12.549167590947095,1.3604238904197072,-98.2234115600586,27.9753360748291,-80.2298355102539,16868579.0,50354.0,0.22165021522126727,-0.041759920017106864,-0.024912545678017126,0.012427818784265307,-0.00328284355479292,-0.0001798483528772972,16.868579957983457
1618,A,775436779690296.0,3.175589282306614,9.145325433167041,-0.6021470970333465,89,1970-01-09 23:23:56.779690296,0.056625366,0.49111938,-0.98657227,12.562169971668242,1.1035078257172313,-98.229736328125,27.923002243041992,-80.2493667602539,16918933.0,50354.0,0.17516249604926726,-0.045456019431306845,-0.04226591377761713,0.009990553631658248,-0.002195835707492712,-0.0016913520737145038,16.918933962006122
1618,A,775436830044300.0,-0.030236717693385984,7.946365433167042,-0.010090797033346588,89,1970-01-09 23:23:56.830044300,-0.8942871,-0.72624207,-0.5667267,15.692898741999867,1.2838832166350587,-98.2532730102539,27.90016746520996,-80.2041015625,16969287.0,50354.0,0.07919054151926724,-0.06315169905830682,-0.015414313458917132,0.006403846426862993,-0.002734416528413004,-0.0014522150811342232,16.969287966028787
1618,A,775436880398304.0,0.4406192823066135,8.222900433167041,4.3906050029666535,89,1970-01-09 23:23:56.880398304,-1.1533356,1.1080627,1.2375641,15.231064666413094,2.022263794604319,-98.3447265625,27.953393936157227,-80.27626037597656,17019641.0,50354.0,0.01033220182926723,-0.08637559328330684,0.11028820616278287,0.0022539141092860525,-0.003764648639284807,0.0023886399966052277,17.019641970051453
1618,A,775436930752308.0,-1.389611717693386,0.6904454331670422,2.5080214029666537,89,1970-01-09 23:23:56.930752308,1.9250793,6.7082367,3.6441193,21.540739499306518,7.873117261107437,-98.43917846679688,28.084693908691406,-80.6822509765625,17069995.0,50354.0,-0.023892782545732773,-0.26905789112330686,0.17368671702218288,-0.000341414740698453,-0.008948748836905314,0.0071496366410278836,17.069995973957703
1618,A,775436981106312.0,2.861029282306614,-2.2467345668329592,2.7040510429666536,89,1970-01-09 23:23:56.981106312,1.5151825,3.2395325,5.1708984,21.63928263722824,6.287172583123916,-98.19854736328125,28.293657302856445,-80.7790756225586,17120349.0,50354.0,0.037045880024267244,-0.5326518915183068,0.1312243479712629,0.0003311555352170624,-0.02018464719756791,0.007676745883339985,17.120349977980368
1618,A,775437031460316.0,6.548132882306614,0.8741914331670415,1.0998182529666534,89,1970-01-09 23:23:57.031460316,0.42277527,0.5954895,2.9974365,17.301606618974798,3.0851211070338995,-98.06433868408203,28.245159149169922,-80.77029418945312,17170703.0,50354.0,0.23689447581846726,-0.5280257184763069,0.09577001726371287,0.006896996339052527,-0.026704680186834386,0.005715037133520985,17.170703982003033
1618,A,775437081814320.0,15.132468282306615,10.648773733167042,0.40029430296665347,89,1970-01-09 23:23:57.081814320,-1.6672058,-2.151184,2.2467957,7.06446558642824,3.5292008584023846,-98.0988540649414,28.37150764465332,-80.66728210449219,17221057.0,50354.0,0.5458524955214673,-0.20335550600720684,0.03776833382073287,0.019707220497425532,-0.018413985088821427,0.00336209506525309,17.2210579860257
1618,A,775437132168324.0,15.145010882306615,11.416931433167042,2.0305128329666533,89,1970-01-09 23:23:57.132168324,-0.72288513,-1.5001221,0.8215332,6.19662475061296,1.8568376409330372,-98.09796905517578,28.422731399536133,-80.58943939208984,17271411.0,50354.0,0.7622960929274674,0.06207905897279319,0.06120043126139287,0.032935257011378824,-0.0035569171069854324,0.00249173659847268,17.271411990048364
1618,A,775437182522328.0,15.506033882306614,12.175293433167042,1.2970991329666535,89,1970-01-09 23:23:57.182522328,0.4165039,0.82858276,0.35697937,5.723655895997019,0.9937097964144382,-98.1007308959961,28.4345760345459,-80.63895416259766,17321765.0,50354.0,0.7717013540386674,0.10051224545969319,0.08377928646630287,0.03862145372226637,0.004093561271696709,0.003650154353230196,17.32176599407103
1618,A,775437232876331.0,13.116583782306614,11.63038683316704,-2.134343097033346,89,1970-01-09 23:23:57.232876331,-1.6698303,1.3323212,-1.1838531,6.801055834903612,2.4423188107098426,-98.21532440185547,28.366525650024414,-80.70436096191406,17372119.0,50354.0,0.7206316449419673,0.10588641206549317,-0.02107929128330712,0.03757246791533544,0.005196499000511617,0.0015785977787222839,17.372119997045957
1618,A,775437283230335.0,3.673529282306614,9.537384433167041,-11.700505597033347,89,1970-01-09 23:23:57.283230335,-1.6941528,-4.343033,-2.4100342,17.93999559916632,5.247890451791699,-98.17494201660156,28.278213500976562,-80.44068908691406,17422474.0,50355.0,0.4227330716842996,0.03947256105812631,-0.34832690299486413,0.02878706515285783,0.0036597755458199293,-0.009300724456438656,17.422474001068622
1618,A,775437333584339.0,-3.614296717693385,9.267197133167041,1.7174940329666535,89,1970-01-09 23:23:57.333584339,0.19090271,0.50953674,-1.8455505,17.988308674805833,1.9240915212498135,-98.1718978881836,28.183246612548828,-80.45442199707031,17472828.0,50354.0,0.0014912982792672613,-0.02002624990440684,-0.2513422821485071,0.010680696962572723,0.0004895997759171951,-0.01509787107435466,17.472828004974872
1618,A,775437383938343.0,2.365637282306613,7.014679433167041,2.6398420529666535,89,1970-01-09 23:23:57.383938343,0.45498657,0.811615,-0.30233765,14.357672581179585,0.9783351888350369,-98.16950988769531,28.16251564025879,-80.49755096435547,17523182.0,50354.0,-0.03143749860473276,-0.08354039368940686,0.10970465063554287,-0.0007539554855942449,-0.0026074973857614474,-0.0035660106486019015,17.523182008997537
1618,A,775437434292347.0,3.808112282306613,7.433090433167042,1.0704603429666535,89,1970-01-09 23:23:57.434292347,0.5506897,2.958252,0.13490295,13.064844251720213,3.012094428650734,-98.2208480834961,28.148113250732422,-80.66470336914062,17573536.0,50354.0,0.1554364927882672,-0.12971769807530684,0.09341428342241287,0.003121922676558847,-0.005369198976360197,0.005113925402777152,17.573536013020203
1618,A,775437484646351.0,10.226508082306614,10.605484433167042,1.7937879729666535,89,1970-01-09 23:23:57.484646351,0.8608093,2.7113647,1.2352905,6.8801334090300665,3.1013599930938085,-98.25438690185547,28.18981170654297,-80.8269271850586,17623890.0,50354.0,0.35334963691986726,-0.0393120005903068,0.07211317985025287,0.0128097083876617,-0.004255660723304155,0.004167484942815905,17.623890017042868
1618,A,775437535000355.0,9.950034082306614,5.163742433167041,0.8532057029666535,89,1970-01-09 23:23:57.535000355,1.5639496,1.3738708,0.4382019,12.237256447815513,2.127317614179042,-98.21430206298828,28.201650619506836,-80.90760803222656,17674244.0,50354.0,0.5079848020784673,-0.09644737518630682,0.06664335977897287,0.02168581717066107,-0.003418013803927801,0.003493473398245017,17.674244021065533
1618,A,775437585354359.0,11.459174082306614,10.226913933167042,-1.0827988970333464,89,1970-01-09 23:23:57.585354359,1.2509003,-2.0980988,-0.9757538,7.554268832543807,2.6303736641998166,-98.09241485595703,28.16823387145996,-80.78195190429688,17724598.0,50354.0,0.5390196339604673,-0.10597864466480683,-0.005780467847017127,0.026360430686152257,-0.005096479901791488,0.0015323450301708498,17.724598024971783
1618,A,775437635708363.0,10.175650582306615,10.642197133167041,0.4621229029666536,89,1970-01-09 23:23:57.635708363,-0.05973816,-2.897873,-1.5732422,7.016009113270909,3.2979277723670704,-98.13849639892578,27.91374969482422,-80.6659927368164,17774952.0,50354.0,0.5446999805809672,0.03195240931709318,-0.015626759502617125,0.0272848087353097,-0.001863758527349387,-0.0005389697629817416,17.77495202899445
1618,A,775437686062367.0,7.853400282306614,8.928772433167042,0.049021702966653535,89,1970-01-09 23:23:57.686062367,-0.41749573,-2.3558044,-1.981308,9.600745825022672,3.1063963762681017,-98.20896911621094,27.876588821411133,-80.5737533569336,17825306.0,50354.0,0.4539174136183673,-0.0007308992284068164,0.012869087743582874,0.02514219013375665,0.0007860639595028565,-6.942990187720537e-05,17.825306033017114
1618,A,775437736416371.0,6.469107582306614,8.971237433167042,-0.6379441970333464,89,1970-01-09 23:23:57.736416371,-0.37019348,-1.4570313,-2.2249603,10.46788254478113,2.6852247128295033,-98.18104553222656,27.7768611907959,-80.47428894042969,17875660.0,50354.0,0.3605977805073673,-0.0428006515953068,-0.014827301633117126,0.02050704904250362,-0.0010959938550886377,-4.930195109680387e-05,17.87566003703978
1618,A,775437786770374.0,4.367377282306615,8.359253433167043,-0.9488267970333466,89,1970-01-09 23:23:57.786770374,-0.35050964,-0.6010437,-2.012329,12.317204461057363,2.1292201721014243,-98.1754150390625,27.681543350219727,-80.42451477050781,17926014.0,50354.0,0.2728301794363673,-0.05713943145830679,-0.03995013331761713,0.015947815747503407,-0.0025161914710408297,-0.0013791314797546364,17.926014040014707
1618,A,775437837124378.0,3.2556672823066144,8.215118933167041,0.4928084029666535,89,1970-01-09 23:23:57.837124378,-0.5496063,-0.3201599,-1.484436,12.944947509553458,1.6149673943035816,-98.1890640258789,27.610361099243164,-80.39470672607422,17976368.0,50354.0,0.19192539300326728,-0.07617622693280682,-0.011481175107417132,0.01170115104731268,-0.0033564883313130676,-0.0012948860522170877,17.976368044037372
1618,A,775437887457890.0,1.8011392823066146,8.367569433167041,0.8808394029666535,89,1970-01-09 23:23:57.887457890,-0.58525085,0.18177795,-1.1605988,13.90046305691134,1.3124600394272448,-98.21869659423828,27.551626205444336,-80.3955078125,18026701.0,50333.0,0.12726212240833884,-0.07593517322865335,0.034569907508020574,0.008032832606606186,-0.003828111552163388,0.0005810625839597865,18.026701556053013
1618,A,775437937811894.0,-1.3900847176933855,8.435333433167042,8.412715002966653,89,1970-01-09 23:23:57.937811894,-0.64704895,0.1975708,-0.5204468,17.667950390988093,0.8535639614809089,-98.25419616699219,27.524457931518555,-80.40233612060547,18077055.0,50354.0,0.01034912077326727,-0.07042251453430683,0.23398381927818288,0.0034646382695832974,-0.003684847504808049,0.006761377179296244,18.077055559959263
1618,A,775437988165898.0,-3.007012717693385,7.426743433167042,8.112711902966653,89,1970-01-09 23:23:57.988165898,0.43450928,1.592102,1.1456909,19.355000487872925,2.0090283052144704,-98.2778549194336,27.5696964263916,-80.5004653930664,18127409.0,50354.0,-0.11070572213073274,-0.09410969073630682,0.4160606732106829,-0.002526678152376908,-0.004142427332098239,0.016366170187392174,18.127409563981928
1618,A,775438038519902.0,0.5026312823066146,1.8647314331670426,5.477839402966653,89,1970-01-09 23:23:58.038519902,1.1966248,3.3267212,3.9172974,19.74533126778442,5.2767607274303465,-98.319091796875,27.73950958251953,-80.71821594238281,18177763.0,50354.0,-0.06305281139873273,-0.2595377372903068,0.3421693102294829,-0.004374718598671353,-0.008903781295426053,0.019089956293073054,18.177763568004593
1618,A,775438088873906.0,7.271140282306614,0.10897843316704225,12.323435402966652,89,1970-01-09 23:23:58.088873906,0.42034912,4.3176575,5.3560944,20.590721143545434,6.892503673680732,-98.43157196044922,27.973011016845703,-81.00390625,18228117.0,50354.0,0.19572024668226726,-0.44377710669530684,0.4481826957889828,0.003340168018133549,-0.017707357827025795,0.01989869245552691,18.22811757202726
1618,A,775438139227910.0,12.847907022306615,4.7241364331670415,4.087733402966654,89,1970-01-09 23:23:58.139227910,-0.8953552,1.1011505,3.6924286,12.530526407265459,3.9557834020475955,-98.51986694335938,28.14749526977539,-81.09644317626953,18278471.0,50354.0,0.5065372539882473,-0.37178586701030686,0.4131839970269829,0.017680737094381546,-0.020533428988986236,0.02168662922502757,18.278471576049924
1618,A,775438189581914.0,15.596609982306614,10.224930433167042,0.8536177029666534,89,1970-01-09 23:23:58.189581914,-2.088913,-2.5111847,1.5211029,7.544514711899949,3.6032430047765995,-98.56381225585938,28.241355895996094,-80.9683837890625,18328825.0,50354.0,0.7161476046251473,-0.11709654350630681,0.12440839679408289,0.03078353668530944,-0.012308592449576784,0.013534963699232976,18.32882558007259
1618,A,775438239935918.0,14.445013982306614,12.284821033167042,2.8040876629666536,89,1970-01-09 23:23:58.239935918,-0.81134033,-1.3819122,0.6404877,5.199529121669931,1.7257401175856808,-98.57022094726562,28.283329010009766,-80.896240234375,18379179.0,50354.0,0.7563579665570673,0.07325881266789319,0.09209004799810287,0.03707327276565462,-0.0011037025493187398,0.0054507813445328615,18.37917958397884
1618,A,775438290289921.0,14.159216782306615,10.961807733167042,3.2476607029666535,89,1970-01-09 23:23:58.290289921,-0.16418457,1.3330688,0.10223389,6.436867578912373,1.347026639240686,-98.61429595947266,28.278423309326172,-80.97193908691406,18429533.0,50354.0,0.7201687179606673,0.09181117244999319,0.15236486860910287,0.037174512336103006,0.004155967015313026,0.006154641435419619,18.429533587070182
1618,A,775438340643925.0,8.104620882306614,10.570862433167042,-7.808934597033347,89,1970-01-09 23:23:58.340643925,-1.6087646,-1.1630249,-1.1117401,12.531305318510908,2.275239878821831,-98.65934753417969,28.232196807861328,-80.8971939086914,18479887.0,50354.0,0.5605366408819673,0.048658836777793195,-0.11483919283091715,0.03224431881958101,0.003536613422327978,0.0009447839390673819,18.479887590976432
1618,A,775438390997929.0,-1.7951137176933862,11.689026433167042,-6.024861297033346,89,1970-01-09 23:23:58.390997929,-1.1234131,-2.9005432,-1.9723053,17.295668895280386,3.6830959863579364,-98.6307144165039,28.15650177001953,-80.71769714355469,18530241.0,50354.0,0.15885446188346725,0.0669680219876932,-0.34829347922491716,0.018112109794325346,0.002911137423138651,-0.011660291284349741,18.530241594999097
1618,A,775438441351933.0,0.6334902823066138,10.210144433167041,3.6986799029666537,89,1970-01-09 23:23:58.441351933,0.3093567,-1.044693,-0.7352295,13.89998189726466,1.3144000341426274,-98.58467102050781,28.127971649169922,-80.65288543701172,18580595.0,50354.0,-0.029246193232732774,0.057886224901693185,-0.058566268958417114,0.003263147379819542,0.003143455373934081,-0.010243507880011807,18.580595599021763
1618,A,775438491705937.0,1.8961862823066138,4.065964433167041,1.9686231829666534,89,1970-01-09 23:23:58.491705937,1.0386353,2.3968658,-0.36325073,16.83491052263084,2.6373623267312483,-98.59459686279297,28.09211540222168,-80.7841567993164,18630949.0,50354.0,0.06368966686726724,-0.13403960707230686,0.14268568979454288,0.0008671833356966742,-0.0019173137029095408,0.0021178746583911385,18.630949603044428
1618,A,775438542059941.0,6.475424682306614,8.541321433167042,1.0061445429666533,89,1970-01-09 23:23:58.542059941,1.0561066,4.078369,0.20854187,10.532063454466773,4.2180498529851045,-98.59400177001953,28.257789611816406,-80.98799896240234,18681303.0,50354.0,0.21077204925606727,-0.17605556374330683,0.07489572703582287,0.006910122626837193,-0.007807266115624705,0.005478047331538119,18.681303607067093
1618,A,775438592413945.0,10.376303582306614,8.995667433167041,1.0837355029666536,89,1970-01-09 23:23:58.592413945,0.81681824,2.5278473,0.62705994,8.409589026885756,2.729543584130283,-98.62284851074219,28.26987075805664,-81.13520050048828,18731657.0,50354.0,0.4242759625181673,-0.051940431312306835,0.05261690991646287,0.015988603792439902,-0.005740255167515185,0.003210385660547698,18.731657610973343
1618,A,775438642767949.0,9.962363282306613,7.785217433167041,0.8188124029666535,89,1970-01-09 23:23:58.642767949,1.610733,0.18077087,-0.4345703,9.707806986130183,1.6780912520991365,-98.54537963867188,28.24704360961914,-81.14166259765625,18782011.0,50354.0,0.5120666156503673,-0.07097686172030686,0.047900448627682876,0.023574297090549198,-0.003094688686682115,0.0025307255360659574,18.78201161499601
1618,A,775438693121953.0,10.609290082306615,10.131485433167041,-1.2083024970333465,89,1970-01-09 23:23:58.693121953,1.6104126,-1.5201263,-1.4396973,7.861593828028948,2.6413899798813767,-98.4188232421875,28.18705940246582,-81.04430389404297,18832365.0,50354.0,0.5179325167608673,-0.04238037193430684,-0.00980619209831713,0.025932288156717654,-0.002853995071722209,0.0009590990966398415,18.832365619018674
1618,A,775438743475957.0,9.329718582306613,10.218292733167042,-0.8983353970333463,89,1970-01-09 23:23:58.743475957,0.33224487,-3.363144,-1.9114685,8.09218147818525,3.882632617808382,-98.30575561523438,28.116960525512695,-80.83985137939453,18882719.0,50354.0,0.5020044211489673,0.018877164893793177,-0.05303882225891713,0.02567895228575591,-0.0005917402436590126,-0.001582248926472087,18.88271962304134
1618,A,775438793829961.0,6.604742982306614,8.361115433167042,0.7365980029666535,89,1970-01-09 23:23:58.793829961,-0.8060608,-4.077301,-2.1244202,10.631519697206889,4.6676845056264975,-98.2171401977539,28.195343017578125,-80.58759307861328,18933073.0,50354.0,0.4011819388122672,-0.02569544059620682,-0.004072062370417126,0.022739522984744,-0.0001716637273596683,-0.0014378807423127487,18.933073627064005
1618,A,775438844183964.0,4.7357852823066136,7.990479433167042,0.2972517029666535,89,1970-01-09 23:23:58.844183964,-0.5376892,-0.694046,-2.2046967,12.113560888827045,2.3730775513883926,-98.21721649169922,28.091197967529297,-80.53077697753906,18983427.0,50354.0,0.2855204801181672,-0.0817850960503068,0.02602923404628287,0.01728910680141155,-0.002706037471149274,0.0005528157112832719,18.983427630038932
1618,A,775438894537968.0,4.198676282306614,9.046860433167042,-0.9594468970333463,89,1970-01-09 23:23:58.894537968,-0.2379303,0.15711975,-1.7019348,11.961671464545107,1.7256533565433103,-98.2267837524414,28.005859375,-80.52580261230469,19033781.0,50354.0,0.22494293881226726,-0.06452009418530678,-0.016672088401017127,0.012851937498411549,-0.0036835257745620434,0.00023558485591085567,19.033781634061597
1618,A,775438944891972.0,2.8271702823066143,8.620514433167042,-1.0347185970333463,89,1970-01-09 23:23:58.944891972,-0.058395386,0.13189697,-1.2948914,13.245828556659225,1.3029008287645034,-98.22824096679688,27.94083023071289,-80.52269744873047,19084135.0,50354.0,0.17688973895726726,-0.0486577029903068,-0.05020710464411712,0.010116941328203571,-0.0028494773994904234,-0.001683817443297345,19.084135637967847
1618,A,775438995245976.0,-0.21724771769338602,7.264023433167042,-0.7143295970333463,89,1970-01-09 23:23:58.995245976,-0.39698792,-0.16448975,-1.014267,16.344748004515733,1.1015415715123915,-98.23992919921875,27.891820907592773,-80.50526428222656,19134489.0,50354.0,0.06571002040926725,-0.09354419013930682,-0.04403578638201713,0.00610793414157124,-0.003580217063324282,-0.002372753267364982,19.134489641990513
1618,A,775439045599980.0,-1.821221717693387,9.829590433167041,14.710841402966652,89,1970-01-09 23:23:59.045599980,-0.985672,0.672699,0.21330261,20.583920975039934,1.212258734601575,-98.30764770507812,27.89752960205078,-80.54467010498047,19184843.0,50354.0,-0.051322544974732785,-0.06310328368730683,0.35239017773798287,0.0003622334690152743,-0.003943913448532652,0.0077634385111691505,19.184843646013178
1618,A,775439095953984.0,-2.704506717693386,4.437470433167041,3.6637831029666534,89,1970-01-09 23:23:59.095953984,0.5661926,3.3860168,2.8188019,19.91322002136861,4.441995945700605,-98.37908935546875,28.01241111755371,-80.75745391845703,19235197.0,50354.0,-0.11394426481773279,-0.13426740856830685,0.46261792118588285,-0.004160922470144907,-0.004969201918919586,0.02051945890660617,19.235197650035843
1618,A,775439146307988.0,13.143744422306614,1.149307433167042,14.414469402966652,89,1970-01-09 23:23:59.146307988,-0.6004181,6.1576996,4.7579956,20.238692938599975,7.804888749256272,-98.59049224853516,28.20227813720703,-81.14246368408203,19285551.0,50354.0,0.26282868768904727,-0.35281089365930685,0.4551561633418829,0.003748463114631085,-0.012263170415184632,0.02310679812615556,19.28555165405851
1618,A,775439196661992.0,14.406836482306614,4.8989414331670424,3.5390730029666537,89,1970-01-09 23:23:59.196661992,-0.7595978,3.1694336,4.70018,12.404596290490078,5.719614514543248,-98.73191833496094,28.41073989868164,-81.36061096191406,19335905.0,50354.0,0.6936409754354472,-0.34119243829230683,0.4520163371541829,0.0240810367084854,-0.017472921888545778,0.02283988204498945,19.33590565796476
1618,A,775439247015996.0,14.624686282306614,8.125366433167041,0.14834120296665354,89,1970-01-09 23:23:59.247015996,-1.6916962,-0.62898254,2.549408,9.336009500770244,3.1236094857045256,-98.81017303466797,28.54151153564453,-81.34735107421875,19386259.0,50354.0,0.7309266486446673,-0.1655562008493068,0.09283802746278288,0.03586633907146504,-0.012758410487668407,0.013717798337961348,19.386259661987424
1618,A,775439297370000.0,15.830634082306613,11.130417433167041,2.3517256029666536,89,1970-01-09 23:23:59.297370000,-1.5381012,-1.9176483,1.1224823,6.7715995354601475,2.702424248290342,-98.84017944335938,28.6116886138916,-81.2492904663086,19436613.0,50354.0,0.7667736008198673,-0.008666329597306835,0.06294418197298288,0.03770759918076859,-0.004386400649054392,0.003922128686964275,19.43661366601009
1618,A,775439347724004.0,15.532095882306614,11.924637433167042,0.1550093029666535,89,1970-01-09 23:23:59.347724004,-0.16838074,0.40704346,0.5807648,6.17738654250742,0.7289198891858825,-98.86200714111328,28.63724136352539,-81.27728271484375,19486967.0,50354.0,0.7896194523190673,0.08698791636969319,0.06311206472668288,0.03918530789887895,0.0019719025901683714,0.003173718123157485,19.486967670032755
1618,A,775439398078007.0,7.629782582306614,13.08349663316704,4.080622702966654,89,1970-01-09 23:23:59.398078007,-0.30404663,1.5674744,-0.87438965,6.719658152276856,1.820433357169891,-98.915771484375,28.581947326660156,-81.35780334472656,19537321.0,50354.0,0.5831466141035673,0.1361605913880932,0.10664050701338287,0.03456213125432267,0.005618209979817788,0.004273860498699635,19.537321673007682
1618,A,775439448432011.0,3.6588662823066134,8.691910433167042,-8.534336597033347,89,1970-01-09 23:23:59.448432011,-2.9582214,-6.0488434,-2.7465363,16.102877957357965,7.272072742785182,-98.8896255493164,28.493072509765625,-80.99347686767578,19587675.0,50354.0,0.28421431246436724,0.054770223709093166,-0.11213115471091714,0.021837546048200887,0.004807065131701861,-0.00013823803708082027,19.587675677030347
1618,A,775439498786015.0,-3.6765217176933866,10.083038833167041,-3.721104597033346,89,1970-01-09 23:23:59.498786015,-0.14796448,-0.7826233,-2.3134308,18.583818222490653,2.4467028392171373,-98.8664321899414,28.38482666015625,-80.9292221069336,19638029.0,50354.0,-0.00044451089673279084,-0.020772302321506828,-0.3085552429430171,0.007144472294068332,0.0008559656667752613,-0.010591621433733102,19.638029681053013
1618,A,775439549140019.0,2.0192022823066136,8.367584433167043,0.9756727429666535,89,1970-01-09 23:23:59.549140019,0.83496094,1.1148834,-0.2990265,13.724935979774322,1.4246198140639115,-98.8531723022461,28.361465454101562,-80.98918914794922,19688383.0,50354.0,-0.04172633142473279,-0.028937858023506808,-0.06912173778983711,-0.0010617352971275388,-0.0012515527070064082,-0.009508773343911071,19.688383684959263
1618,A,775439599494023.0,5.1130282823066135,8.724731933167043,1.0930738629666537,89,1970-01-09 23:23:59.599494023,-0.010025024,2.4715576,0.16159058,11.234392212671612,2.476854655963627,-98.92024993896484,28.350360870361328,-81.12935638427734,19738737.0,50354.0,0.17956816892526722,-0.06313595084480678,0.05208483329758287,0.003470443942750956,-0.0023181422858775313,-0.0004289381444014851,19.738737688981928
1618,A,775439649848027.0,9.204108282306613,11.353363433167042,1.2255659029666535,89,1970-01-09 23:23:59.649848027,-0.33854675,2.6356506,1.5338593,6.677907584915072,3.068222993755899,-98.96613311767578,28.460186004638672,-81.26818084716797,19789091.0,50354.0,0.36046254728726723,0.012037007038193203,0.058376393386902876,0.01359635334208298,-0.00128651810821911,0.002781082304235298,19.789091693004593
1618,A,775439700202031.0,10.435309282306614,5.044983433167042,2.5096540629666535,89,1970-01-09 23:23:59.700202031,0.5646515,0.54234314,0.24874878,12.225334480549998,0.8214884987075582,-98.95347595214844,28.468250274658203,-81.30084991455078,19839445.0,50354.0,0.4944616160242672,-0.08060802094630681,0.09404163308230287,0.021524425659694504,-0.0017264124171645766,0.003837428652415193,19.83944569702726
1618,A,775439750556035.0,12.313940952306615,10.906555633167041,1.4180403029666535,89,1970-01-09 23:23:59.750556035,1.6932831,-0.9060211,-0.8930664,6.184196532590906,2.117935193814905,-98.84081268310547,28.43113136291504,-81.2420883178711,19889799.0,50354.0,0.5727578731568573,-0.09185730092690682,0.09888756105110287,0.026869385079113177,-0.004342159408801899,0.004857378320696757,19.889799701049924
1618,A,775439800910039.0,11.531378682306613,11.274078833167042,-2.538136597033346,89,1970-01-09 23:23:59.800910039,0.78074646,-2.7004242,-1.5039978,7.386010557301399,3.1880817550923957,-98.72339630126953,28.37742805480957,-81.07733154296875,19940153.0,50354.0,0.6003536124406572,0.06497263395889319,-0.02820066439571712,0.02953542787288863,-0.0006768752602536791,0.001779683997092647,19.94015370507259
1618,A,775439851264043.0,7.409445682306614,8.180435433167041,0.2519179029666534,89,1970-01-09 23:23:59.851264043,-0.6412201,-4.18869,-2.2621765,10.42102896158652,4.803512220229721,-98.68204498291016,28.334308624267578,-80.84523010253906,19990507.0,50354.0,0.47687313502786727,-0.00366289431650682,-0.05756012806051713,0.02712133782101504,0.0015435953149763617,-0.00215919947167061,19.99050770897884
1618,A,775439901618046.0,4.3658362823066135,7.4362344331670425,0.9221602029666536,89,1970-01-09 23:23:59.901618046,-1.072403,-1.4988403,-2.3769836,12.704874572021623,3.0077602088567583,-98.6861572265625,28.22814178466797,-80.74073028564453,20040861.0,50354.0,0.29646627402306724,-0.10028830277530681,0.02955976447308287,0.01947036630167538,-0.002617179289180592,-0.0007049651540408324,20.040861712070182
1618,A,775439951972050.0,4.864905282306614,9.476181433167042,-1.9310502970333465,89,1970-01-09 23:23:59.951972050,-0.31999207,0.2941742,-1.9322205,11.497095461421337,1.980507370708015,-98.70211029052734,28.130409240722656,-80.74063873291016,20091215.0,50354.0,0.23240238037226724,-0.06766530573330679,-0.02540082589831713,0.013315326111711337,-0.004228568001421365,0.00010470959649687703,20.091215715976432
1618,A,775440002326054.0,3.0960762823066137,8.473633433167041,0.00034620296665344164,89,1970-01-09 23:24:00.002326054,-0.62054443,-0.9417267,-1.5543213,12.950722197960168,1.9203747735092245,-98.7020263671875,28.060726165771484,-80.67456817626953,20141569.0,50354.0,0.20043363285226723,-0.04154671111030682,-0.048609336976317134,0.010897512304954105,-0.0027496309480716597,-0.001863353870694667,20.141569719999097
1618,A,775440052680058.0,0.5189272823066133,8.520966433167041,1.1491194029666536,89,1970-01-09 23:24:00.052680058,-0.7319031,-0.28128052,-1.8759613,14.81270496654416,2.0332318308099473,-98.72364807128906,27.97013282775879,-80.64270782470703,20191923.0,50354.0,0.09101494474626723,-0.06559615916530684,0.028940095560582874,0.0073378008381983035,-0.002697536044929125,-0.0004952124911239415,20.191923724021763
1618,A,775440103034062.0,-4.350136717693385,8.297943433167042,8.061442402966653,89,1970-01-09 23:24:00.103034062,-0.6423645,-0.17701721,-0.69781494,20.041639753929765,0.964838294214962,-98.74833679199219,27.936994552612305,-80.62682342529297,20242277.0,50354.0,-0.09645835995473274,-0.07001950629530683,0.23189431458798285,-0.0001370488647035363,-0.00341439560930187,0.00656702794431044,20.242277728044428
1618,A,775440153388066.0,-0.7513207176933854,8.26594593316704,-4.266514597033346,89,1970-01-09 23:24:00.153388066,1.6086884,6.2071075,0.74909973,17.141854259109987,6.45578905249675,-98.83353424072266,27.926572799682617,-80.98043823242188,20292631.0,50354.0,-0.12843939385073272,-0.07644015742380685,0.09554489736998288,-0.005662250747560204,-0.0036874149534561252,0.008243937039465703,20.292631732067093
1618,A,775440203742070.0,0.9971222823066146,-1.49619956683296,3.4483900029666534,89,1970-01-09 23:24:00.203742070,0.99757385,5.6022186,6.045044,21.93887323717035,8.301961442353594,-98.9560546875,28.181882858276367,-81.34698486328125,20342985.0,50354.0,0.006188545992267272,-0.3230272957348069,-0.020597922904817125,-0.003077909596532585,-0.010057392068174418,0.0018869399761094782,20.342985735973343
1618,A,775440254096074.0,9.751135782306614,-1.5087425668329573,11.041789402966653,89,1970-01-09 23:24:00.254096074,-0.19766235,2.7769165,5.82164,20.884838338083448,6.45304795752982,-99.06437683105469,28.447622299194336,-81.55452728271484,20393339.0,50354.0,0.27060889329276727,-0.5691246280993069,0.3648192469031829,0.006968929128879315,-0.022461708986371485,0.008666460274306856,20.39333973999601
1618,A,775440304450078.0,19.770041282306615,6.371887433167041,-1.9895524970333465,89,1970-01-09 23:24:00.304450078,-1.4701691,-0.4310913,2.9486084,13.457299121276401,3.3228795325863167,-99.13899230957031,28.59661293029785,-81.5568618774414,20443693.0,50354.0,0.7432546749557672,-0.3710298017003068,0.2279081685806829,0.02552604305779336,-0.023670268079064874,0.014923098139637289,20.443693744018674
1618,A,775440354804082.0,15.194815582306614,12.64822443316704,1.3715620029666535,89,1970-01-09 23:24:00.354804082,-2.0483246,-2.9939423,1.1721954,5.15340906220155,3.8122652345391197,-99.1657943725586,28.678285598754883,-81.39908599853516,20494047.0,50354.0,0.8803102012803672,-0.01459984354130686,-0.01555914666911713,0.040876492888997154,-0.009708997578248108,0.005346311324667492,20.49404774804134
1618,A,775440405158086.0,14.505927082306615,12.017075133167042,1.4821729829666535,89,1970-01-09 23:24:00.405158086,0.30610657,-0.9545288,0.24679565,5.4141380011126,1.0323442037835673,-99.12577056884766,28.69805908203125,-81.34760284423828,20544401.0,50354.0,0.7477755980669674,0.12752904718159316,0.07184848574084286,0.040990316170167844,0.0028432185600514885,0.0014171966898088389,20.544401752064005
1618,A,775440455512089.0,15.591040582306615,11.040115833167043,-2.485646197033346,89,1970-01-09 23:24:00.455512089,-0.16886902,3.090973,0.21209717,8.043240545049166,3.102839996223906,-99.21866607666016,28.68390464782715,-81.52348327636719,20594755.0,50354.0,0.7577513548919673,0.08704169695939323,-0.025264445110557122,0.0379046520946471,0.005402247625237615,0.0011728463909487041,20.594755755038932
1618,A,775440505866093.0,-1.0349817176933858,12.86729483316704,-12.266926597033347,89,1970-01-09 23:24:00.505866093,-0.830307,-2.5324554,-1.3710175,20.11837370966233,2.9970700780169306,-99.18585205078125,28.636476516723633,-81.36852264404297,20645109.0,50354.0,0.3664778940343673,0.1084476783462932,-0.3714255252362172,0.028304719800218328,0.004921836002071268,-0.009987463383420738,20.645109759061597
1618,A,775440556220097.0,-6.446770717693386,8.461090433167042,11.901103402966653,89,1970-01-09 23:24:00.556220097,-1.1838531,-3.9993134,-2.7338104,23.155313913718423,4.986956500406569,-99.12561798095703,28.533340454101562,-81.11892700195312,20695463.0,50354.0,-0.18836808106573277,0.043515555850493166,-0.009210330557017157,0.004484270761111312,0.0038259783473724904,-0.009583268941306261,20.695463762967847
1618,A,775440606574101.0,4.4372322823066135,9.372833733167042,1.2391615029666534,89,1970-01-09 23:24:00.606574101,0.5263977,1.1647644,-0.08073425,11.232595900910498,1.2807375473514129,-99.13020324707031,28.520118713378906,-81.18365478515625,20745817.0,50354.0,-0.050594149187732786,-0.044464491264206804,0.3308324495366829,-0.0060163520710915025,-2.3891346911068257e-05,0.008097480089551044,20.745817766990513
1618,A,775440656928105.0,1.4129092823066145,3.395004433167042,1.6701765229666534,89,1970-01-09 23:24:00.656928105,1.0402985,2.9530334,-0.6417084,17.661907626483995,3.1960001409962997,-99.15454864501953,28.464975357055664,-81.34371185302734,20796171.0,50354.0,0.14728901417226725,-0.1720133384862068,0.07324840347892288,0.0024344866157156248,-0.005450262319626164,0.010173543636373907,20.796171771013178
1618,A,775440707282109.0,11.100134782306615,13.176682033167042,3.4395552029666536,89,1970-01-09 23:24:00.707282109,0.56448364,3.623352,0.33987427,4.432184877529304,3.682775585769473,-99.2247314453125,28.452817916870117,-81.55022430419922,20846525.0,50354.0,0.3150409104147673,-0.0762438498371068,0.12864771566382288,0.011640080511327769,-0.0062503712304160675,0.00508313859165691,20.846525775035843
1618,A,775440757636113.0,7.594168582306614,6.922180433167041,-1.1971635970333463,89,1970-01-09 23:24:00.757636113,0.5994873,2.6752472,0.7709656,11.730172050166106,2.847932681850554,-99.47138977050781,28.394399642944336,-81.80342102050781,20896879.0,50354.0,0.4706664758108673,0.01255986031489317,0.05645669346258289,0.0197817548630028,-0.0016033718042007727,0.004660373708575518,20.89687977905851
1618,A,775440807990117.0,9.715170782306615,10.496902933167043,0.7191878029666534,89,1970-01-09 23:24:00.807990117,1.1273651,-2.2623444,-0.70718384,7.2709676563616386,2.6247406036533434,-99.375732421875,28.2518310546875,-81.68157958984375,20947233.0,50354.0,0.43579723718286734,-0.05490893808580682,-0.012033996567217127,0.022822036902043256,-0.001066222731038293,0.001118430239734624,20.94723378296476
1618,A,775440858344121.0,11.004080682306615,12.589691433167042,-0.08670519703334656,89,1970-01-09 23:24:00.858344121,1.1523285,-2.4280396,-1.1434937,5.156308208013066,2.920755914659782,-99.24880981445312,28.215057373046875,-81.53509521484375,20997587.0,50354.0,0.5216485941245673,0.08778198636119322,0.015924014569582867,0.024105613694827284,0.0008276447364294036,9.793898324556224e-05,20.997587786987424
1618,A,775440908698125.0,8.281653282306614,9.021652433167041,-2.0848130970333463,89,1970-01-09 23:24:00.908698125,0.08091736,-2.2164001,-1.6476898,9.967170459729795,2.7629438465979397,-99.17908477783203,28.151479721069336,-81.39602661132812,21047941.0,50354.0,0.4855569240270673,0.050639604522693185,-0.05467231608971712,0.025358413330503708,0.003485040393683608,-0.0009755659873724202,21.04794179101009
1618,A,775440959052129.0,6.521140282306614,8.776291433167042,-1.3178910970333464,89,1970-01-09 23:24:00.959052129,-0.9090729,-0.3605957,-1.8405914,10.774036599890973,2.084279131528899,-99.20718383789062,28.063508987426758,-81.35917663574219,21098295.0,50354.0,0.3726899335762673,-0.04537036727730681,-0.08566988349401712,0.02160808113387916,0.00013266358612709276,-0.003533395558919677,21.098295795032755
1618,A,775441009406132.0,5.266989682306614,9.170181733167041,-2.0846452970333464,89,1970-01-09 23:24:01.009406132,-0.1854248,-0.66212463,-1.8522186,11.492302009154987,1.9757290108447658,-99.19117736816406,27.977378845214844,-81.30538940429688,21148649.0,50354.0,0.2967897481190672,-0.04163084509120682,-0.08566565879341713,0.01685548994604344,-0.002190429523802068,-0.004313714948170733,21.148649798007682
1618,A,775441059760136.0,3.687140282306613,8.380295433167042,-0.06393909703334644,89,1970-01-09 23:24:01.059760136,-0.5979309,-1.7605286,-1.5095062,12.59781037603465,2.3949094514054616,-99.16858673095703,27.916912078857422,-81.1933822631836,21199003.0,50354.0,0.22543813011906721,-0.051600836383206825,-0.054094909289417126,0.013148131290401512,-0.0023472940444813125,-0.0035187518226215187,21.199003802030347
1618,A,775441110114140.0,1.2608862823066147,8.649948433167042,1.3827925029666535,89,1970-01-09 23:24:01.110114140,-0.7801056,0.4519806,-1.7436523,14.126294665505904,1.9629504714136345,-99.21202850341797,27.827234268188477,-81.20287322998047,21249357.0,50354.0,0.12457646481726724,-0.06469875017730681,0.03320477220118287,0.008812317456712094,-0.002928074690834052,-0.0005259509814704739,21.249357806053013
1618,A,775441160468144.0,-2.2122737176933853,8.454346433167041,-0.8082627970333467,89,1970-01-09 23:24:01.160468144,-0.270813,0.6455841,-1.0248718,17.34489596468638,1.2411610361178158,-99.238037109375,27.771480560302734,-81.22960662841797,21299711.0,50354.0,-0.023953081460732724,-0.06283436815030684,0.014464934406282865,0.0025333949227674692,-0.003210901320134329,0.0012001802032561648,21.299711809959263
1618,A,775441210822148.0,1.1224892823066135,10.19421443316704,-0.23302159703334646,89,1970-01-09 23:24:01.210822148,0.99638367,3.954773,1.3396149,13.544886699521816,4.292735489134367,-99.2967529296875,27.80574607849121,-81.46240234375,21350065.0,50354.0,-0.027437502729732756,-0.023954383068306863,-0.026216417189417134,-0.0012938607381633494,-0.0021850803894310376,-0.0002958670820309715,21.350065813981928
1618,A,775441261176152.0,-0.4263237176933856,0.9348304331670434,9.411448402966654,89,1970-01-09 23:24:01.261176152,0.98254395,-0.30801392,4.832901,22.04041583701927,4.941376049684578,-99.26021575927734,28.04670524597168,-81.48928833007812,21400419.0,50354.0,0.01752736042026724,-0.21327323740030682,0.2310852516929829,-0.00024950765292541333,-0.0059726798005382865,0.005157982646296275,21.400419818004593
1618,A,775441311530156.0,5.578757282306614,-0.11642456683295777,1.8063612229666535,89,1970-01-09 23:24:01.311530156,0.68099976,2.816574,4.9196625,18.558063182160865,5.709634741776598,-99.089599609375,28.12886619567871,-81.58257293701172,21450773.0,50354.0,0.12972281985626727,-0.4728641955033068,0.2824307929521229,0.0037073177888223095,-0.01727488214821428,0.01292879345602983,21.45077382202726
1618,A,775441361884160.0,14.231024682306614,5.075409433167042,-1.8878678970333465,89,1970-01-09 23:24:01.361884160,-0.43663025,2.7503662,3.0897064,12.685295975180802,4.15950067285948,-99.19738006591797,28.259536743164062,-81.76448059082031,21501127.0,50354.0,0.4987508805230673,-0.3686168380203068,-0.0020520935329771295,0.01582308235445051,-0.02118596798102402,0.007059094515275833,21.501127826049924
1618,A,775441412238164.0,13.671576482306614,9.929321833167041,0.8055830029666535,89,1970-01-09 23:24:01.412238164,-2.0032654,-3.0069275,0.95835876,7.301091075231507,3.7380659124689264,-99.22178649902344,28.330902099609375,-81.60465240478516,21551481.0,50354.0,0.7025037895214673,-0.11569508090750683,-0.027248686777917128,0.03024398882771125,-0.012193521182845566,-0.0007377057458873847,21.55148183007259
1618,A,775441462592168.0,13.184164952306613,12.30142243316704,2.0750074629666537,89,1970-01-09 23:24:01.462592168,-1.3679352,-1.4366608,0.22569275,4.800925818032461,1.996541555555066,-99.25291442871094,28.353565216064453,-81.52615356445312,21601835.0,50354.0,0.6761470020992573,0.06623424839349314,0.07252462616080288,0.03471029098063498,-0.0012452753802053226,0.0011399123258429146,21.60183583397884
1618,A,775441512946171.0,10.671881582306614,12.07028243316704,1.9489088269666535,89,1970-01-09 23:24:01.512946171,0.34976196,1.5783081,0.31451416,5.351101957395496,1.64690893616774,-99.27883911132812,28.356380462646484,-81.61753845214844,21652189.0,50354.0,0.6006236836019573,0.12013721341969313,0.10131014043165089,0.03214525555389948,0.0046922742940705905,0.004376637918498209,21.652189837070182
1618,A,775441563300175.0,3.3630742823066146,11.584076433167041,1.3147993029666534,89,1970-01-09 23:24:01.563300175,-0.5046692,0.07827759,-0.9746094,10.753158907175,1.1003098950264911,-99.30191040039062,28.30765724182129,-81.61299133300781,21702543.0,50354.0,0.3533580838033673,0.10207659317769316,0.08217037958733088,0.024018398957963857,0.005594677008702395,0.004619489052517904,21.702543840976432
1618,A,775441613654179.0,0.8445042823066142,12.27781743316704,-5.919819597033347,89,1970-01-09 23:24:01.613654179,-1.5953827,-4.167557,-1.7640076,14.916303541491136,4.798489358179932,-99.26338195800781,28.254222869873047,-81.36331176757812,21752897.0,50354.0,0.10593420552126727,0.10730170187269315,-0.11594059594371714,0.011563601968326325,0.005271517334483576,-0.000850232737204737,21.752897844999097
1618,A,775441664008183.0,2.630850282306614,11.624863133167041,1.4953565829666535,89,1970-01-09 23:24:01.664008183,-0.104400635,-0.040725708,-0.5627136,11.360210360227175,0.5737636024578978,-99.26509094238281,28.226781845092773,-81.35588836669922,21803251.0,50354.0,0.08749900187326726,0.10832858861859315,-0.11139470530515713,0.004870067862572196,0.005428923823699115,-0.005723620879542908,21.803251849021763
1618,A,775441714362187.0,4.063559282306613,5.2888794331670415,1.5808363029666535,89,1970-01-09 23:24:01.714362187,1.1333618,1.3354034,-0.20756531,14.544895279718538,1.7637728222042077,-99.24287414550781,28.205793380737305,-81.42877197265625,21853605.0,50354.0,0.16854514960826725,-0.06763190340740684,0.07744930828914287,0.006446423601850594,0.001024620443562038,-0.0008546432606721911,21.853605853044428
1618,A,775441764716191.0,5.020316282306614,8.353043433167041,-0.2951249970333467,89,1970-01-09 23:24:01.764716191,1.4503784,2.5358276,-0.87042236,11.754828475713433,3.0482214822575293,-99.23365783691406,28.14248275756836,-81.56282043457031,21903959.0,50354.0,0.2287047350902672,-0.15000650799430684,0.032370353549482866,0.010001560347055002,-0.005479482283860946,0.0027649296261110803,21.903959857067093
1618,A,775441815070195.0,9.324667882306613,11.664764933167042,0.9142714029666534,89,1970-01-09 23:24:01.815070195,0.5437622,2.5945282,-0.030014038,6.392416305054171,2.651066719873558,-99.30779266357422,28.186017990112305,-81.72333526611328,21954313.0,50354.0,0.3611636663124672,0.010519161239193187,0.015588249062182865,0.014851116742116645,-0.0035118729292534967,0.0012074537379539083,21.954313860973343
1618,A,775441865424199.0,8.074835682306613,8.418716933167042,-0.2525224970333466,89,1970-01-09 23:24:01.865424199,0.3827362,1.106247,-0.13005066,9.995151642209168,1.177787161572869,-99.43898010253906,28.140256881713867,-81.84148406982422,22004667.0,50354.0,0.43806730124626725,0.012172622948693208,0.016660852204682868,0.02012223807022626,0.0005713110504984158,0.0008119356225958786,22.00466786499601
1618,A,775441915778203.0,9.712210582306614,11.829895433167042,0.7940321029666535,89,1970-01-09 23:24:01.915778203,0.67144775,-1.7935791,-1.003479,6.0810679921312,2.1621142829133415,-99.42192840576172,28.110170364379883,-81.76402282714844,22055021.0,50354.0,0.44782446380416724,0.01633011354719321,0.013633587348582868,0.022304096968674792,0.0007176133967569324,0.0007627231046325716,22.055021869018674
1618,A,775441966132207.0,9.065268482306614,11.080002433167042,0.8017073029666535,89,1970-01-09 23:24:01.966132207,0.61994934,-2.40477,-1.269577,7.037255199012428,2.7891005173703287,-99.3512191772461,28.117204666137695,-81.63151550292969,22105375.0,50354.0,0.47276059040976726,0.08333329858069322,0.04017593102318287,0.02317756990994423,0.002509225727143797,0.001354762244045946,22.10537587304134
1618,A,775442016486211.0,7.626990282306614,8.674423433167041,-0.8370865970333463,89,1970-01-09 23:24:02.016486211,0.15849304,-0.6810608,-1.3352661,10.133213030877423,1.507282128479699,-99.53753662109375,28.09488296508789,-81.68382263183594,22155729.0,50354.0,0.4202609989166673,0.0038879800366931733,-0.0008907444867171252,0.022483604554471646,0.002195970131749937,0.0009890831414285982,22.155729877064005
1618,A,775442066840214.0,7.295172682306614,9.120911133167041,-2.8679551970333463,89,1970-01-09 23:24:02.066840214,-0.12138367,1.1517944,-1.6041412,10.683276655072966,1.9785432329750767,-99.5667724609375,28.006227493286133,-81.73307037353516,22206083.0,50354.0,0.37569529696006726,-0.04543606162340685,-0.09328183724921713,0.020039791661288546,-0.0010460560501086903,-0.0023709830903656166,22.206083880038932
1618,A,775442117194218.0,5.824164282306614,9.026352433167041,-2.226368897033346,89,1970-01-09 23:24:02.117194218,-0.03819275,-0.9610138,-1.545929,11.298870749339063,1.8206874204497605,-99.53668975830078,27.937969207763672,-81.6648941040039,22256437.0,50354.0,0.3303055467580673,-0.036575545190406844,-0.12825979771631713,0.017774983242291473,-0.0020648062247513874,-0.005577753743527256,22.256437884061597
1618,A,775442167548222.0,3.868323282306614,8.020233433167041,-0.7603654970333464,89,1970-01-09 23:24:02.167548222,-0.24362183,-1.5877686,-1.4857483,12.850871825053,2.188106198097204,-99.50090026855469,27.877838134765625,-81.56239318847656,22306791.0,50354.0,0.24402775941426724,-0.06428730764330685,-0.07519701183941711,0.01445998964950087,-0.00253942404579441,-0.005122432094184721,22.306791887967847
1618,A,775442217902226.0,1.613104782306614,8.327530433167041,-0.0314225970333466,89,1970-01-09 23:24:02.217902226,-0.75439453,-0.37147522,-1.5510254,14.168600065604974,1.7643085720511391,-99.52217864990234,27.804426193237305,-81.5271987915039,22357145.0,50354.0,0.13800591438276724,-0.08188154913730684,-0.01993484884431713,0.009618461805187937,-0.0036800933071655115,-0.002395134856434377,22.357145891990513
1618,A,775442268256230.0,3.096396282306614,10.147568433167041,-2.094822897033346,89,1970-01-09 23:24:02.268256230,0.26904297,4.327835,-0.9658356,12.417936270187985,4.442451835772537,-99.61682891845703,27.7208309173584,-81.75926208496094,22407499.0,50354.0,0.11857110830376726,-0.028321635842306837,-0.05353248280411712,0.0064598397001788795,-0.0027745855882317337,-0.0018496870089126291,22.407499896013178
1618,A,775442318610234.0,0.8198152823066138,8.784332433167041,-3.630711597033346,89,1970-01-09 23:24:02.318610234,0.77815247,4.179062,1.0009155,15.42899649349688,4.367140060102418,-99.69059753417969,27.735124588012695,-82.0014419555664,22457853.0,50354.0,0.09859845856226725,-0.016820731888306843,-0.14415178195711711,0.005467678184986151,-0.0011365493923536608,-0.004977096733893595,22.457853900035843
1618,A,775442368964238.0,-2.2481017176933857,3.020279433167042,-2.0874985970333464,89,1970-01-09 23:24:02.368964238,0.20780945,-0.32865906,3.7528687,20.823747971624126,3.7729597168097455,-99.68833923339844,27.922861099243164,-82.01885223388672,22508207.0,50354.0,-0.03595996758373276,-0.19626448704130683,-0.14396737805601711,0.0015770492873665631,-0.005364846556990884,-0.007253976091650681,22.50820790405851
1618,A,775442419318242.0,5.932425282306614,1.5345924331670417,1.7469892729666534,89,1970-01-09 23:24:02.419318242,0.5923004,2.488205,4.992874,16.899043605309757,5.609881876273435,-99.51192474365234,28.03834342956543,-82.0954360961914,22558561.0,50354.0,0.09276021438626725,-0.3787911910213068,-0.00857300325202713,0.0014300598137474108,-0.014478176806582426,-0.0038405091801926297,22.55856190796476
1618,A,775442469672246.0,14.213934882306614,4.430557433167042,1.0282240029666534,89,1970-01-09 23:24:02.469672246,-0.2544098,1.4099426,3.263092,12.767779005916914,3.563766530245044,-99.57623291015625,28.187549591064453,-82.20491790771484,22608915.0,50354.0,0.5072249098644672,-0.34328462181530683,0.06987154464817287,0.015105825473260743,-0.01817970273978742,0.0015433133767307613,22.608915911987424
1618,A,775442520026250.0,16.747076982306613,9.27546743316704,-0.2720689970333463,89,1970-01-09 23:24:02.520026250,-1.4100647,-1.2940369,1.227417,9.094587753158153,2.273624078126527,-99.61798858642578,28.258848190307617,-82.14413452148438,22659269.0,50354.0,0.7795053957153673,-0.14839261194030684,0.019037714584382873,0.0323960089035835,-0.012378957714265086,0.0022384684196980562,22.65926991601009
1618,A,775442570380254.0,15.002448082306614,11.628464433167043,0.9820051429666535,89,1970-01-09 23:24:02.570380254,-0.761734,-0.7264252,0.6027527,6.018406312590235,1.2129480925861296,-99.63953399658203,28.29463768005371,-82.10919952392578,22709623.0,50354.0,0.7993577925517673,0.03282909259869319,0.017874062346162876,0.039751038491001645,-0.0029095427264638073,0.0009293278077803503,22.709623920032755
1618,A,775442620734257.0,9.315482082306614,12.099976133167042,5.076472402966654,89,1970-01-09 23:24:02.620734257,-0.0058288574,1.6284027,-0.2928772,6.733505312851838,1.6545411397803682,-99.68167114257812,28.266529083251953,-82.19754028320312,22759977.0,50354.0,0.6122525277544674,0.10394174813859322,0.1525342891739629,0.03554011303435007,0.00344347945724266,0.004290371066222207,22.759977923007682
1618,A,775442671088261.0,4.699927282306614,11.178970833167043,-2.866047797033346,89,1970-01-09 23:24:02.671088261,-1.8009033,-2.988678,-1.8259735,10.949980742626446,3.9382265179058886,-99.68437194824219,28.2016658782959,-82.01290130615234,22810331.0,50354.0,0.35286596157286726,0.09262484777139321,0.05565186030358289,0.024298788205794303,0.004948957185225728,0.00524150268539617,22.810331927030347
1618,A,775442721442265.0,0.9135042823066133,12.466721133167042,-4.993931597033346,89,1970-01-09 23:24:02.721442265,-1.4208221,-3.5631714,-1.7366638,14.3332109194704,4.210810731896745,-99.65353393554688,28.145986557006836,-81.79713439941406,22860685.0,50354.0,0.14132936650226724,0.10185838663639321,-0.19789070120441712,0.012442355774947662,0.004896504392684839,-0.0035811472973603033,22.860685931053013
1618,A,775442771796269.0,3.019553282306614,9.909042833167042,2.5196333029666533,89,1970-01-09 23:24:02.771796269,0.5344696,0.4152527,0.09967041,11.968300067354468,0.6841248049961484,-99.63822174072266,28.14742088317871,-81.82130432128906,22911039.0,50354.0,0.09902259030426723,0.0698854093803932,-0.06229540814971713,0.006051341216518119,0.0043239935523146315,-0.006550705675209039,22.911039934959263
1618,A,775442822150273.0,5.143195282306614,5.763611433167041,1.7736921529666536,89,1970-01-09 23:24:02.822150273,1.361618,3.0237732,-0.16081238,13.536913433596581,3.320100685901484,-99.43975830078125,28.25222396850586,-81.8898696899414,22961393.0,50354.0,0.20551352061126724,-0.09887878353650682,0.10809305500403286,0.007667305664520411,-0.0007299661811284728,0.0011530473548511072,22.961393938981928
1618,A,775442872504277.0,8.145361882306613,10.168381433167042,0.5731764029666535,89,1970-01-09 23:24:02.872504277,1.1491241,3.8740997,-0.3692627,8.31680842865182,4.057769045220809,-99.52273559570312,28.304628372192383,-82.12203979492188,23011747.0,50354.0,0.33456600373346723,-0.09234941560430683,0.05908710963273288,0.013597582184427382,-0.004814552369768266,0.004209095005059851,23.011747943004593
1618,A,775442922858281.0,9.326208982306614,9.301926133167042,-0.0743150970333466,89,1970-01-09 23:24:02.922858281,0.835907,2.8429565,0.33091736,8.655700919370611,2.9817190465720644,-99.68630981445312,28.146881103515625,-82.34504699707031,23062101.0,50354.0,0.43988173965836724,-0.0032652664024068116,0.012559831099482869,0.019498270835376218,-0.0024072908488830293,0.001803855026814996,23.06210194702726
1618,A,775442973212285.0,9.412024482306613,9.180466433167041,0.1378279029666536,89,1970-01-09 23:24:02.973212285,1.2019958,0.29197693,-0.44192505,8.687073414285601,1.3135228131583279,-99.71282958984375,27.957645416259766,-82.39527893066406,23112455.0,50354.0,0.47177250393856723,-0.02813800235740684,0.0015990619149828702,0.02295271889104002,-0.0007906400975658283,0.0003564784494252039,23.112455951049924
1618,A,775443023566289.0,9.456503782306614,11.389008033167041,-0.9667710970333465,89,1970-01-09 23:24:03.023566289,1.359909,-1.267334,-1.1929626,7.099636813604852,2.208766108223268,-99.60641479492188,27.90947151184082,-82.31324005126953,23162809.0,50354.0,0.4750529361181672,0.02440845863889315,-0.02087030279701713,0.023838224104308404,-9.389872220101912e-05,-0.00048519203168697657,23.16280995507259
1618,A,775443073920293.0,8.323859282306614,10.453308433167042,-1.1202592970333465,89,1970-01-09 23:24:03.073920293,0.8217621,-2.3132477,-1.3797302,8.43823576393642,2.816036806461119,-99.49891662597656,27.860641479492188,-82.17125701904297,23213163.0,50354.0,0.4476562008777672,0.05645480167289317,-0.052545164231417134,0.02323104794214664,0.0020358943048698445,-0.0018483812133748897,23.21316395897884
1618,A,775443124274296.0,7.467734282306614,8.411667433167041,-1.6355637970333465,89,1970-01-09 23:24:03.124274296,-0.56869507,-1.6307678,-1.5422668,10.66830983376909,2.3154707043150826,-99.47818756103516,27.798019409179688,-82.0659408569336,23263517.0,50354.0,0.39758495117626724,-0.01850570261330683,-0.06938335803931714,0.021280636485264424,0.0009554444670232052,-0.003069794405210277,23.263517962070182
1618,A,775443174628300.0,6.868872582306614,9.026749433167042,-2.473164597033346,89,1970-01-09 23:24:03.174628300,-0.38505554,4.5776367e-05,-1.6417389,10.803274148536381,1.6862901253204852,-99.4903335571289,27.71706199645996,-82.05067443847656,23313871.0,50354.0,0.3609527510303672,-0.054422178556306815,-0.10344545477741712,0.019097703728456435,-0.0018361052642073628,-0.004351311020286919,23.313871965976432
1618,A,775443224982304.0,5.185461982306614,8.654739433167041,-2.322361897033346,89,1970-01-09 23:24:03.224982304,-0.035202026,-1.3314056,-1.4956512,11.984966241233614,2.0027113038097393,-99.451171875,27.654245376586914,-81.96260833740234,23364225.0,50354.0,0.30349198133326727,-0.04830235481230682,-0.12073697054111712,0.016728725026719224,-0.0025862955766215857,-0.005644240922244737,23.364225969999097
1618,A,775443275336308.0,3.6173622823066136,8.556778433167041,0.4928694029666536,89,1970-01-09 23:24:03.275336308,-0.319458,-0.5424957,-1.3730927,12.45055990237648,1.5105424724501393,-99.447265625,27.59098243713379,-81.91970825195312,23414579.0,50354.0,0.22162870651016728,-0.06013481467930685,-0.046061132523117124,0.013220963557834153,-0.0027301226162903575,-0.004199475840848226,23.414579974021763
1618,A,775443325690312.0,1.0261142823066134,8.843979433167041,-0.8347520970333464,89,1970-01-09 23:24:03.325690312,-0.54182434,0.21134949,-1.4219513,14.457361731863953,1.5362902466368085,-99.47369384765625,27.519119262695312,-81.91828918457031,23464933.0,50354.0,0.11690880946726723,-0.05537031919930685,-0.008607580588517126,0.00852335903976387,-0.002908072755661857,-0.0013763941900116156,23.464933978044428
1618,A,775443376044316.0,1.3878242823066138,9.969406433167041,-5.253880597033346,89,1970-01-09 23:24:03.376044316,1.3348083,5.5428925,-0.060836792,15.081260063031106,5.701672700143879,-99.54891967773438,27.470314025878906,-82.225830078125,23515287.0,50354.0,0.06077573124126723,-0.019804584043306855,-0.15329350533851713,0.004473563681418772,-0.0018926785389392854,-0.004076183640384942,23.515287982067093
1618,A,775443426398320.0,1.9897832823066146,2.871780433167041,10.121134402966653,89,1970-01-09 23:24:03.426398320,0.9413147,3.3933868,3.5826416,19.52170294611295,5.023591162992953,-99.60466766357422,27.618724822998047,-82.4481430053711,23565641.0,50354.0,0.08503802565426725,-0.17016663826630685,0.12254284907198289,0.0036711529573588723,-0.004782905464089144,-0.0007742092728225326,23.565641985973343
1618,A,775443476752324.0,4.4028692823066145,-0.3082575668329568,4.468226402966653,89,1970-01-09 23:24:03.476752324,0.44822693,3.3174133,4.749588,19.37469021958026,5.810742168909073,-99.68910217285156,27.825042724609375,-82.67782592773438,23615995.0,50354.0,0.16094781361926727,-0.42892738479430687,0.3673163370109829,0.006193185475389779,-0.015083390218597071,0.01233318472801083,23.61599598999601
1618,A,775443527106328.0,14.972998582306614,3.7844704331670425,-1.3269089970333463,89,1970-01-09 23:24:03.527106328,-0.3176422,2.538681,3.8764343,13.876328984854663,4.644624922337468,-99.78861999511719,27.994606018066406,-82.85649871826172,23666349.0,50354.0,0.48782622522736724,-0.4059485886643067,0.07908894832918288,0.01633418397604172,-0.021019672383767514,0.011239145869009355,23.666349994018674
1618,A,775443577460332.0,16.853049282306614,10.721481833167042,0.12156200296665354,89,1970-01-09 23:24:03.577460332,-1.6309967,-0.9562378,2.1420593,7.848361897863829,2.8570892548669566,-99.85480499267578,28.10829734802246,-82.82382202148438,23716703.0,50354.0,0.8012844070873674,-0.1282528397905068,-0.030347021269617126,0.032455938389788073,-0.013449589364206841,0.0012271754975786873,23.71670399804134
1618,A,775443627814336.0,12.697714757306613,12.312103733167042,1.8859510629666536,89,1970-01-09 23:24:03.627814336,-1.6512909,-1.0502777,1.1681366,4.752819078189341,2.2791200055722514,-99.91504669189453,28.17483901977539,-82.7765121459961,23767058.0,50355.0,0.744014361607362,0.08644910059637637,0.050544160217535834,0.03890675974881155,-0.0010525136435602192,0.0005085134658612232,23.767058002064005
1618,A,775443678168339.0,13.503683982306613,10.761475133167043,0.6295729029666535,89,1970-01-09 23:24:03.678168339,-0.21655273,1.8089905,1.1367798,6.49736799095948,2.14746595494521,-99.97891235351562,28.2152042388916,-82.88874816894531,23817412.0,50354.0,0.6596726160672423,0.08745429511769322,0.06333334689030287,0.03534062703691351,0.0043783657938931304,0.002867093996454055,23.817412005038932
1618,A,775443728522343.0,6.744803282306614,13.285294133167042,-1.6913041970333464,89,1970-01-09 23:24:03.728522343,-0.677124,0.80218506,0.056518555,7.846527801313627,1.0512811845184387,-100.03421783447266,28.211023330688477,-82.93413543701172,23867766.0,50354.0,0.5097961638611673,0.11195630981849322,-0.02673120879071713,0.02944371547225757,0.005020560800478367,0.0009215320309332702,23.867766009061597
1618,A,775443778876347.0,0.662848282306614,11.139725433167042,-6.110997597033346,89,1970-01-09 23:24:03.778876347,-1.3058167,-4.8029633,-1.4200134,15.557068179734543,5.17591071902572,-99.96611022949219,28.182804107666016,-82.65180206298828,23918120.0,50354.0,0.18650244344226724,0.12147951762159322,-0.19643855226921714,0.017530710036078572,0.005877213827459057,-0.005618745074205966,23.918120012967847
1618,A,775443829230351.0,-1.5914697176933856,11.32249503316704,-5.031834597033346,89,1970-01-09 23:24:03.829230351,-1.0670471,-1.909317,-0.8542328,16.810595047341547,2.348147056021673,-99.96513366699219,28.157251358032227,-82.5367431640625,23968474.0,50354.0,-0.02337990187873275,0.07206212468089317,-0.2805430861500171,0.004106936228945108,0.0048727979282497,-0.01200896671048106,23.968474016990513
1618,A,775443879584355.0,7.658575982306614,10.31112743316704,10.116831402966653,89,1970-01-09 23:24:03.879584355,0.7632904,4.934555,-0.56092834,11.709283095394154,5.024647836950597,-100.05422973632812,28.086750030517578,-82.80672454833984,24018828.0,50354.0,0.15275153442416725,0.05120051283489314,0.12802496458298288,0.0032571895925964044,0.003103383424734952,-0.0038399487466932213,24.018828021013178
1618,A,775443929938359.0,12.006293252306614,5.494797433167042,5.277216902966654,89,1970-01-09 23:24:03.929938359,2.689148,4.18631,-0.027526855,12.05971291046173,4.975687501215303,-100.02954864501953,28.048898696899414,-83.04003143310547,24069182.0,50354.0,0.4951024127198573,-0.09552342964030684,0.3875759541984829,0.016311018827245106,-0.001115918076409901,0.012981284332160965,24.069182025035843
1618,A,775443980292363.0,8.709738682306615,9.417694433167043,-1.8966875970333466,89,1970-01-09 23:24:03.980292363,1.1829834,0.37460327,-1.2592773,9.388761407659594,1.767924391162004,-99.97440338134766,27.983644485473633,-83.04854583740234,24119536.0,50354.0,0.5215675360177573,-0.1180173922813068,0.08511158633548288,0.02559669929936692,-0.005376317273520467,0.011900854208023656,24.11953602905851
1618,A,775444030646367.0,8.012411982306613,10.961258433167043,1.4308882029666534,89,1970-01-09 23:24:04.030646367,0.4289093,-2.053772,-1.0927734,7.647534798081021,2.36560696637418,-99.77229309082031,28.169654846191406,-82.86581420898438,24169890.0,50354.0,0.4210135872829673,0.01961169631569323,-0.011727431344417134,0.023731364941342346,-0.0024775602073262527,0.0018475928702100625,24.16989003296476
1618,A,775444081000371.0,7.175070682306614,9.661911433167042,0.8456068029666535,89,1970-01-09 23:24:04.081000371,1.7437744,-2.2934265,-1.2449341,9.237211569331327,3.138537108644793,-99.58432006835938,28.32112693786621,-82.70907592773438,24220244.0,50354.0,0.38237525104696723,0.025760347724693208,0.05731531476438287,0.020226920782632763,0.0011423319528048093,0.0011477661408644776,24.220244036987424
1618,A,775444131354375.0,6.8392857823066135,11.06793243316704,-1.0694016970333464,89,1970-01-09 23:24:04.131354375,1.3074799,-1.8858185,-1.525177,8.833766112317921,2.7553547839026575,-99.46211242675781,28.26152229309082,-82.58914184570312,24270598.0,50354.0,0.35283945270956724,0.028446079022693162,-0.005634484047917129,0.01851050059647827,0.0013647552062189467,0.001301168274948458,24.27059804101009
1618,A,775444181708379.0,5.920721982306614,9.623505133167042,-1.2126969970333465,89,1970-01-09 23:24:04.181708379,0.5099182,-1.570816,-1.2571411,10.475642952390785,2.0755440785144623,-99.38947296142578,28.212371826171875,-82.48950958251953,24320952.0,50354.0,0.3212587154896673,0.027479123607593157,-0.05745639882051713,0.016971769580752128,0.0014080288266227186,-0.0015884391579785693,24.320952045032755
1618,A,775444232062382.0,6.659018282306614,9.95770313316704,-3.3643845970333466,89,1970-01-09 23:24:04.232062382,-0.4005127,1.7793274,-1.0466614,10.662600447729591,2.102835349118425,-99.45193481445312,28.14618682861328,-82.5793685913086,24371306.0,50354.0,0.31672012064216726,-0.0004731194785068516,-0.11523718329381714,0.016062393157291202,0.0006799301659580059,-0.004347906316892594,24.371306048007682
1618,A,775444282416386.0,8.506674682306613,10.140976433167042,-2.1018418970333466,89,1970-01-09 23:24:04.282416386,-0.4397583,0.53712463,-1.1335144,8.991117683335018,1.3291896499668083,-99.48309326171875,28.085866928100586,-82.59882354736328,24421660.0,50354.0,0.38182665177006725,0.01255525544159316,-0.13762318444111715,0.017587312089022828,0.00030419193714262396,-0.006366265478462442,24.421660052030347
1618,A,775444332770390.0,7.375967882306614,8.373596433167041,-0.6252488970333465,89,1970-01-09 23:24:04.332770390,-0.6675415,-0.7098694,-1.029419,10.452404766836294,1.4174729968643531,-99.66128540039062,28.09185218811035,-82.62864685058594,24472014.0,50354.0,0.39987729184926724,-0.02732779894430683,-0.06865996492221713,0.019680960188503984,-0.00037192832776782215,-0.005193590851520667,24.472014056053013
1618,A,775444383124394.0,5.709952282306614,7.3149419331670416,2.0765638529666535,89,1970-01-09 23:24:04.383124394,-1.197586,-1.7592773,-1.1193237,11.936070942973743,2.4046110685665947,-99.66991424560547,28.051448822021484,-82.51972198486328,24522368.0,50354.0,0.32946421198446724,-0.09847886955080684,0.03653975664553287,0.018362631042021935,-0.0031674344927014775,-0.0008086904837820795,24.522368059959263
1618,A,775444433478398.0,3.0990512823066148,9.083893433167042,-0.3953445970333467,89,1970-01-09 23:24:04.433478398,0.6220703,0.08572388,-1.4456329,12.618673326883021,1.5761264299880118,-99.63460540771484,27.97947120666504,-82.51078796386719,24572722.0,50354.0,0.22178428274626724,-0.08059572198180683,0.042328057206632866,0.013878783351835702,-0.004508560991016615,0.001985654949355977,24.572722063981928
1618,A,775444483832402.0,-3.3155757176933864,11.72645643316704,13.247889402966653,89,1970-01-09 23:24:04.483832402,0.3229828,-1.4376373,-1.172821,20.245886156532567,1.883249317931147,-99.57564544677734,27.933643341064453,-82.41946411132812,24623076.0,50354.0,-0.005451435709732751,0.030472978584693153,0.32358852057898285,0.005446612089838829,-0.001261940310509131,0.009212681678908447,24.623076068004593
1618,A,775444534186406.0,-7.147011717693385,0.8871314331670419,4.475779602966654,89,1970-01-09 23:24:04.534186406,-0.5570679,-0.051864624,3.4570313,25.6506774025375,3.502010850013569,-99.61748504638672,28.104511260986328,-82.44922637939453,24673430.0,50354.0,-0.26341656386073276,-0.17589689828930685,0.4462288145623829,-0.006769289625185611,-0.0036613380264030595,0.019381691046854166,24.67343007202726
1618,A,775444584540410.0,1.766486282306614,-1.8300925668329597,-1.1875047970333463,89,1970-01-09 23:24:04.584540410,0.8269501,3.0727081,5.7160797,21.998034563956065,6.542090542972308,-99.67662048339844,28.39514923095703,-82.67241668701172,24723784.0,50354.0,-0.13546548888673274,-0.5172101324623068,0.08278889478898288,-0.01004265344202294,-0.01745035571323338,0.013319078868339336,24.723784076049924
1618,A,775444634894414.0,8.858786582306614,1.651550433167042,0.6886244029666535,89,1970-01-09 23:24:04.634894414,0.783905,1.8314209,4.268219,15.906571677520235,4.710233857670213,-99.70591735839844,28.59010124206543,-82.81600189208984,24774138.0,50354.0,0.2675124949123673,-0.4979643552993069,-0.012560311681417125,0.003324547470707401,-0.025559048078374152,0.0017681450368991832,24.77413808007259
1618,A,775444685248418.0,19.564322282306613,7.6047674331670425,0.5676680029666534,89,1970-01-09 23:24:04.685248418,-2.5263977,-0.027267456,2.2842712,11.82686522829807,3.4060716034563105,-99.84209442138672,28.702884674072266,-82.83655548095703,24824492.0,50354.0,0.7156086118843672,-0.2604228850793068,0.03162967390418287,0.024752040105821386,-0.019093915551012357,0.0004801093326825732,24.82449208397884
1618,A,775444735602421.0,15.537848382306613,11.677200833167042,0.40058420296665354,89,1970-01-09 23:24:04.735602421,-1.0175934,-1.199585,0.58984375,6.323786934783635,1.680004806351048,-99.86336517333984,28.742212295532227,-82.7749252319336,24874846.0,50354.0,0.8837673508229672,-0.008007084958506789,0.024377685788782872,0.04026748861308256,-0.006758261355642032,0.0014100972949897988,24.874846087070182
1618,A,775444785956425.0,15.680548582306614,13.264908433167042,2.7476912029666534,89,1970-01-09 23:24:04.785956425,0.49578857,1.4241333,0.26487732,4.9627947353087585,1.531052565055138,-99.87828826904297,28.743059158325195,-82.85753631591797,24925200.0,50354.0,0.7859855803780672,0.1344982849984932,0.07926412989518287,0.042039369548848446,0.003184668943406738,0.0026093899934752055,24.925200090976432
1618,A,775444836310429.0,4.185401282306614,12.433792433167042,7.069300702966654,89,1970-01-09 23:24:04.836310429,-1.1356812,0.41619873,-1.3450775,10.89252522647525,1.8089296978858251,-99.93995666503906,28.6732177734375,-82.8676986694336,24975554.0,50354.0,0.5001650197413673,0.1535469917116932,0.2471624052156829,0.032381413659207006,0.007252115931732364,0.008218440874486269,24.975554094999097
1618,A,775444886664433.0,4.864279682306614,9.289978433167041,-10.316883597033348,89,1970-01-09 23:24:04.886664433,-2.7070618,-6.0581207,-2.384491,16.432109218145428,7.050872806530318,-99.9011459350586,28.607973098754883,-82.50433349609375,25025908.0,50354.0,0.22784381764606723,0.05347017910169319,-0.08176439452391716,0.018329078498903438,0.005212071309568629,0.004164225715186586,25.025908099021763
1618,A,775444937018437.0,-3.3018577176933857,11.751938433167041,0.9259901029666535,89,1970-01-09 23:24:04.937018437,0.012435913,-0.6899719,-1.5912018,16.790744480815956,1.734398755489923,-99.87456512451172,28.535511016845703,-82.4500732421875,25076262.0,50354.0,0.039337097803067246,0.036303140943693156,-0.2364345255001172,0.006726813908262859,0.002260222878782692,-0.008011294209445114,25.076262103044428
1618,A,775444987372441.0,4.273062282306613,5.633423433167042,3.1590986029666537,89,1970-01-09 23:24:04.987372441,0.5303345,0.7855072,0.102005005,14.192910673660306,0.9532477454403656,-99.86958312988281,28.5338077545166,-82.49512481689453,25126616.0,50354.0,0.02445201732326723,-0.05575794429130683,0.10285027834928288,0.0016060185515357232,-0.0004898135838828695,-0.003363250590516556,25.126616107067093
1618,A,775445037726445.0,0.23482428230661334,3.3092654331670417,-1.3942002970333467,89,1970-01-09 23:24:05.037726445,0.5070038,3.4069977,-1.1787109,18.78748699086166,3.6406106035661847,-99.9298095703125,28.446456909179688,-82.67452239990234,25176970.0,50354.0,0.11349506003726721,-0.2683191224123068,0.04443484464848287,0.003473093566706176,-0.008159288308396882,0.0037081975417147485,25.176970110973343
1618,A,775445088080449.0,10.775763482306614,14.497833733167042,1.4183912529666536,89,1970-01-09 23:24:05.088080449,0.25743103,2.6123047,0.37443542,3.1857478048182584,2.6515294576148927,-100.01661682128906,28.60167121887207,-82.83808135986328,25227324.0,50354.0,0.27721356814966724,-0.04513986428920682,0.0006090556975328676,0.00983687113186245,-0.00789195690818401,0.0011340702790116385,25.22732411499601
1618,A,775445138434453.0,7.483618682306614,7.353241433167042,0.18316180296665352,89,1970-01-09 23:24:05.138434453,0.6521759,1.7483215,1.0470276,11.110766777205878,2.1396794776472525,-100.03948974609375,28.607744216918945,-82.94821166992188,25277678.0,50354.0,0.4597164647584673,0.0566753194627932,0.04032230128923288,0.018553687438528105,0.00029042815490538433,0.0010305287748558012,25.277678119018674
1618,A,775445188788457.0,7.967566282306614,8.177780433167042,0.22596270296665355,89,1970-01-09 23:24:05.188788457,1.5877228,-2.310257,-0.57614136,10.161458785076869,2.861833321909487,-99.91500091552734,28.561565399169922,-82.8223876953125,25328032.0,50354.0,0.3890144838540673,-0.10244466247130679,0.010300527685882873,0.021368499093217783,-0.0011523347489253467,0.0012745309651064894,25.32803212304134
1618,A,775445239142461.0,10.143271282306614,12.260712133167042,0.6570234029666535,89,1970-01-09 23:24:05.239142461,1.1038208,-2.1693726,-1.020813,5.539290137280398,2.6394425580247813,-99.92060089111328,28.474994659423828,-82.74988555908203,25378386.0,50354.0,0.45597655736426723,0.021110727342593193,0.022230941189082875,0.02127433944475401,-0.002047744484735622,0.0008190447918650127,25.378386127064005
1618,A,775445289496464.0,8.229193682306615,8.815933433167041,-0.6858109970333464,89,1970-01-09 23:24:05.289496464,0.1429596,-1.2967224,-1.2893982,9.689905631482143,1.834250295913063,-100.06591796875,28.38570785522461,-82.75657653808594,25428740.0,50354.0,0.4625635504140673,0.03717750542359317,-0.0007247852558171258,0.023126084293535132,0.001467522836354274,0.0005414604879318318,25.428740130038932
1618,A,775445339850468.0,8.416647882306613,8.506104433167042,-2.7708482970333463,89,1970-01-09 23:24:05.339850468,-0.9739227,0.68470764,-1.6823273,10.617231161474278,2.0609646096366987,-100.12483978271484,28.296894073486328,-82.77811431884766,25479094.0,50354.0,0.4190923530722673,-0.05735225263930682,-0.08702831104671713,0.02219745068207545,-0.0005079396106500227,-0.002209359705608905,25.479094134061597
1618,A,775445390204472.0,6.901648282306614,10.58157403316704,-0.9195298970333463,89,1970-01-09 23:24:05.390204472,0.09124756,-1.1347351,-1.792038,9.083809956380662,2.1230520619669138,-100.08181762695312,28.21863555908203,-82.69686889648438,25529448.0,50354.0,0.3856687425364672,-0.012898719253106834,-0.09291265179201712,0.02026147010414111,-0.0017687087193352987,-0.004530373621390812,25.529448137967847
1618,A,775445440558476.0,4.507254282306613,8.331253433167042,-1.5341080970333467,89,1970-01-09 23:24:05.440558476,0.3119049,-2.4230804,-1.734787,12.394503914320905,2.9963459791681553,-99.99417877197266,28.154342651367188,-82.54435729980469,25579802.0,50354.0,0.28724193986926727,-0.01730094288010684,-0.06177524377661713,0.016941872250929177,-0.0007603368935279207,-0.0038945771467315047,25.579802141990513
1618,A,775445490912480.0,2.3545142823066136,8.186005433167042,1.0006361029666535,89,1970-01-09 23:24:05.490912480,-0.57710266,-0.50897217,-1.8386688,13.584478277382717,1.9931891797084953,-100.0011215209961,28.068218231201172,-82.49784851074219,25630156.0,50354.0,0.1727587471512672,-0.07761417352230682,-0.013431224394617136,0.011581437297115997,-0.0023896778856635687,-0.0018934732491471655,25.630156146013178
1618,A,775445541266484.0,0.2117682823066147,9.005600433167041,1.8879652229666535,89,1970-01-09 23:24:05.541266484,-1.3182831,-0.14234924,-1.5968933,14.774517195935482,2.075620834704421,-100.05589294433594,27.990825653076172,-82.4741439819336,25680510.0,50354.0,0.06461129612926725,-0.06063613910330684,0.07272631558302288,0.005976265579674017,-0.003480728120975075,0.0014928725108504916,25.680510150035843
1618,A,775445591620488.0,-3.2094207176933853,8.154038433167042,2.8570204029666533,89,1970-01-09 23:24:05.591620488,-0.8996582,0.072647095,-0.17575073,18.167116382442508,0.919538360447628,-100.10196685791016,27.981544494628906,-82.4764633178711,25730864.0,50354.0,-0.07547189536573273,-0.06144097226230683,0.11946450310412288,-0.0002734373069764915,-0.0030735354328520555,0.0048387882420862696,25.73086415405851
1618,A,775445641974492.0,-3.309822717693386,2.896668433167042,-3.6280411970333466,89,1970-01-09 23:24:05.641974492,0.77874756,3.9329987,3.1056976,22.011178237743167,5.071516944569288,-100.1806869506836,28.099773406982422,-82.72675323486328,25781218.0,50354.0,-0.16413499197273276,-0.21524555322630684,-0.01941199053221714,-0.006032582602520546,-0.006966136652226827,0.002519022109022871,25.78121815796476
1618,A,775445692328496.0,5.156119282306614,0.5196844331670434,-0.04843609703334639,89,1970-01-09 23:24:05.692328496,0.59739685,3.8683014,5.5987396,18.24642503846773,6.831290055783025,-100.1916732788086,28.241291046142578,-82.95758819580078,25831572.0,50354.0,0.04648420860726724,-0.40745568388430675,-0.09256266883271713,-0.0029620937727923256,-0.015677749046733917,-0.0028191859988309503,25.831572161987424
1618,A,775445742682500.0,10.542380282306613,2.422379433167041,0.9734449629666535,89,1970-01-09 23:24:05.742682500,-0.293396,2.4855042,3.8300781,14.814985578286727,4.57529349803193,-100.29060363769531,28.40764617919922,-83.13519287109375,25881926.0,50354.0,0.39524112353826724,-0.4193968580373068,0.023288948217602874,0.011121318687428123,-0.020817666447960466,-0.001744104463926732,25.88192616601009
1618,A,775445793036504.0,14.813559482306614,8.837570433167041,-0.13994309703334662,89,1970-01-09 23:24:05.793036504,-1.698761,-2.2854767,1.6366577,8.766132835292007,3.2844849076123306,-100.32254028320312,28.50860023498535,-83.02395629882812,25932280.0,50354.0,0.6383864954536672,-0.20997744221530684,0.020985076478602867,0.026023642563359935,-0.015845756757460056,0.001114687119776372,25.932280170032755
1618,A,775445843390507.0,14.981543482306614,12.387482433167042,1.1973524029666534,89,1970-01-09 23:24:05.843390507,-0.99417114,-0.8657837,0.5713806,5.2997516472537685,1.436813648616601,-100.35188293457031,28.544471740722656,-82.98131561279297,25982634.0,50354.0,0.7501513073400673,0.040913956015693184,0.026622394095482865,0.034959216260937856,-0.004256511392047673,0.0011986132866437568,25.982634173007682
1618,A,775445893744511.0,14.502615882306614,11.490204433167042,1.9460096569666534,89,1970-01-09 23:24:05.893744511,-0.0206604,1.3573914,0.14309692,5.890827993477988,1.3650695928910022,-100.38993072509766,28.53929901123047,-83.05879211425781,26032988.0,50354.0,0.7423226803228673,0.1076993222336932,0.07914042658294088,0.0375760175873897,0.003741636506484801,0.0026627905362206746,26.032988177030347
1618,A,775445944098515.0,11.073965982306614,10.346207133167042,-4.207447997033347,89,1970-01-09 23:24:05.944098515,-1.1585388,0.8371124,-1.2327118,9.220700024050936,1.8874712456613583,-100.46414947509766,28.471097946166992,-83.09292602539062,26083342.0,50354.0,0.6439416016053673,0.05630613400559319,-0.05693623308785913,0.034901975826107164,0.004129165371736514,0.000559034979625673,26.083342181053013
1618,A,775445994452519.0,0.8443062823066132,9.970505433167041,-9.828755597033346,89,1970-01-09 23:24:05.994452519,-1.3699341,-3.6119843,-2.3123474,18.069402986081446,4.50223283716825,-100.4251480102539,28.390134811401367,-82.86713409423828,26133696.0,50354.0,0.30006634080616723,0.018044672282593162,-0.35338949788781715,0.023767287966095205,0.0018719302499176679,-0.010330770928774602,26.133696184959263
1618,A,775446044806523.0,-2.1618887176933868,10.44285643316704,4.171153102966653,89,1970-01-09 23:24:06.044806523,-0.5268097,-2.3961945,-1.6984253,16.329877307398046,2.983944543976049,-100.37959289550781,28.3282413482666,-82.71578979492188,26184050.0,50354.0,-0.033172772975732796,0.020478011708693147,-0.14244145799311714,0.006719579357266849,0.0009698856148486154,-0.012483535976214283,26.184050188981928
1618,A,775446095160527.0,3.7100132823066136,6.065216433167041,2.4301558029666532,89,1970-01-09 23:24:06.095160527,0.68551636,-0.07891846,-0.052703857,14.148220051934695,0.6920538271688826,-100.34297943115234,28.32636070251465,-82.71084594726562,26234404.0,50354.0,0.03897713216326722,-0.07784544944430685,0.16620115432468288,0.00014613635126455412,-0.0014443399798695462,0.0005981978745398308,26.234404193004593
1618,A,775446145514531.0,3.280051282306614,4.391876433167042,2.0864515529666536,89,1970-01-09 23:24:06.145514531,0.9168091,2.11615,0.0809021,15.728178282575183,2.307634047704969,-100.35362243652344,28.311336517333984,-82.82991027832031,26284758.0,50354.0,0.17598885554326724,-0.23019097290430685,0.11371462340033286,0.005412198672487418,-0.007755433005471048,0.007047439535782722,26.28475819702726
1618,A,775446195868535.0,10.165717082306614,12.643600933167042,1.8698530409666536,89,1970-01-09 23:24:06.195868535,0.62731934,2.60997,0.85531616,5.044094934129365,2.8172750467065124,-100.15614318847656,28.350542068481445,-82.87085723876953,26335112.0,50354.0,0.33852411011586725,-0.06456698634780683,0.09960788076145888,0.01295389293640003,-0.007421121140090466,0.005370820687281431,26.335112201049924
1618,A,775446246222539.0,8.838416082306614,7.722488433167042,1.1695814329666536,89,1970-01-09 23:24:06.246222539,1.001297,1.8285675,0.6609802,10.096524277443043,2.1870412911185033,-100.01185607910156,28.207672119140625,-82.91060638427734,26385466.0,50354.0,0.4784670606854673,0.019287831976193187,0.07652384175021888,0.0205693867072652,-0.0011399932696141168,0.004434468377676511,26.38546620507259
1618,A,775446296576543.0,8.741370182306614,7.672302433167042,0.1199141029666535,89,1970-01-09 23:24:06.296576543,1.611084,-0.29884338,-0.50593567,10.310285954364247,1.7148964758854026,-99.94364929199219,28.029285430908203,-82.89968872070312,26435820.0,50354.0,0.4426062787841672,-0.10587455035830681,0.032465629108192874,0.023189863467826987,-0.002179993808706475,0.002744027907802233,26.43582020897884
1618,A,775446346930546.0,11.011481282306613,10.756729433167042,0.03669260296665344,89,1970-01-09 23:24:06.346930546,1.0250702,-0.4581604,-1.0657349,6.77084134432725,1.5480538569876081,-99.87551879882812,27.98073959350586,-82.8637466430664,26486174.0,50354.0,0.4973175413245673,-0.02948146470130681,0.0039428870352828695,0.023664462018877612,-0.003407858391155892,0.0009166572109442889,26.486174212070182
1618,A,775446397284550.0,9.849661782306613,9.036438433167042,-1.8514298970333465,89,1970-01-09 23:24:06.397284550,-0.1547699,-0.46894836,-1.4820862,9.285555175868039,1.5621926227335536,-99.86426544189453,27.911760330200195,-82.82323455810547,26536528.0,50354.0,0.5252209989377672,0.004863387370693197,-0.04568964085271714,0.025744452828184793,-0.000619809332952859,-0.0010510580208615426,26.536528215976432
1618,A,775446447638554.0,8.190039582306614,9.104172433167042,-1.8854722970333466,89,1970-01-09 23:24:06.447638554,-0.64608765,-2.6399384,-2.0021973,9.86228742366889,3.3757218539749942,-99.8187255859375,27.83568000793457,-82.65673065185547,26586882.0,50354.0,0.4541855612568673,-0.0367430402183068,-0.09408398654001714,0.024658518966020313,-0.0008026340197443678,-0.003519080616866871,26.586882219999097
1618,A,775446497992558.0,6.009756982306614,8.404816433167042,-0.17804429703334645,89,1970-01-09 23:24:06.497992558,-0.51582336,-3.3535461,-2.2999878,11.079709976284324,4.099059534051163,-99.83350372314453,27.967182159423828,-82.4881591796875,26637236.0,50354.0,0.35750827810726726,-0.05264538731230681,-0.05195315728881714,0.02043601579367082,-0.002250532439938259,-0.0036767771701785605,26.637236224021763
1618,A,775446548346562.0,3.9754702823066133,8.272003433167042,1.4014997729666536,89,1970-01-09 23:24:06.548346562,-0.52648926,-1.4936218,-2.1295013,12.323449612825062,2.6538411423881945,-99.81120300292969,27.875003814697266,-82.38432312011719,26687590.0,50354.0,0.2513980668411672,-0.07359690622530682,0.030802938517572875,0.015330435046766734,-0.0031784022243964987,-0.0005324990580036167,26.687590228044428
1618,A,775446598700566.0,2.3640962823066136,8.734589433167042,1.1648512029666533,89,1970-01-09 23:24:06.598700566,-0.66722107,0.05607605,-2.0564728,13.214634710289317,2.1627318041716097,-99.83678436279297,27.773212432861328,-82.36762237548828,26737944.0,50354.0,0.15961126739726722,-0.06529421140430683,0.06461301852107287,0.010347982008121065,-0.003496861668560783,0.002402287550361984,26.737944232067093
1618,A,775446649054570.0,-0.8216487176933853,8.561722433167041,-0.8717850970333465,89,1970-01-09 23:24:06.649054570,-0.67604065,-0.47579956,-1.4442902,16.127904297650648,1.66414854011433,-99.85176849365234,27.706130981445312,-82.32720184326172,26788298.0,50354.0,0.03883420233426725,-0.05799995614130683,0.007378525349082867,0.004996261591430844,-0.0031041772562959155,0.0018125311000189114,26.788298235973343
1618,A,775446699408574.0,-1.242943717693386,8.052841433167043,0.4619398029666535,89,1970-01-09 23:24:06.699408574,0.21382141,2.7795563,0.3790741,16.577924974986832,2.813423180670638,-99.9146728515625,27.70094871520996,-82.48551177978516,26838652.0,50354.0,-0.05198024374573274,-0.07516432553730681,-0.01031867496871713,-0.0003309778846164667,-0.0033526771198224563,-7.402414697353186e-05,26.83865223999601
1618,A,775446749762578.0,2.437445282306614,3.541977433167041,4.644404402966654,89,1970-01-09 23:24:06.749762578,0.5554657,4.748413,4.112091,17.12965116454267,6.305970231037132,-100.02883911132812,27.862333297729492,-82.79004669189453,26889006.0,50354.0,0.030073965892267244,-0.20154644540230682,0.12856242807278287,-0.0005515343575167008,-0.006966747079946652,0.0029770229719010633,26.889006244018674
1618,A,775446800116582.0,6.410544282306614,-0.9735865668329566,7.777766402966654,89,1970-01-09 23:24:06.800116582,0.5802002,2.7185516,5.6148224,19.946745855090974,6.265252242127556,-100.09703063964844,28.115005493164062,-82.99715423583984,26939360.0,50354.0,0.2227658332682673,-0.4288048231583068,0.3127529943809829,0.006365747623464779,-0.01587035388855057,0.011110998391118461,26.93936024804134
1618,A,775446850470586.0,11.642188022306614,2.7431494331670425,1.3926954429666534,89,1970-01-09 23:24:06.850470586,-0.06736755,0.31018066,3.8063202,14.36200416243849,3.819531894559735,-100.12650299072266,28.299640655517578,-83.05239868164062,26989714.0,50354.0,0.4545136412332473,-0.4489169157143068,0.23088471789506287,0.017051865329524633,-0.022098400219595794,0.013687166681974007,26.989714252064005
1618,A,775446900824589.0,15.071783982306613,9.389374433167042,-1.1115006970333463,89,1970-01-09 23:24:06.900824589,-1.612503,-1.3538971,1.8382568,8.616026899305938,2.7950655350355653,-100.17992401123047,28.40205192565918,-82.99510192871094,27040068.0,50354.0,0.6725776731601472,-0.1880086466173068,0.007079640118362872,0.028376778022482493,-0.016035874882823035,0.00599122864170402,27.040068255038932
1618,A,775446951178593.0,15.376212082306614,11.322159433167041,2.1047010629666536,89,1970-01-09 23:24:06.951178593,-0.6518097,-0.40100098,0.8043518,6.3821106368195455,1.1102429865296564,-100.20569610595703,28.445180892944336,-82.98075866699219,27090422.0,50354.0,0.7665891969187673,0.027985088152693172,0.02500580561310288,0.03623390428797683,-0.004028913131463577,0.0008078152671811133,27.090422259061597
1618,A,775447001532597.0,13.817892982306613,10.81156973316704,3.9894972029666533,89,1970-01-09 23:24:07.001532597,-0.38853455,1.3946686,-0.23138428,6.69730567370666,1.466150839920907,-100.26115417480469,28.421411514282227,-83.05645751953125,27140776.0,50354.0,0.7350199832117672,0.06379169922079314,0.15343362974140287,0.03780601432814647,0.002310664175702265,0.004492569663920391,27.140776262967847
1618,A,775447051886601.0,8.298239682306614,11.318100433167043,-8.560902597033348,89,1970-01-09 23:24:07.051886601,-0.93666077,-0.6951904,-1.5863342,12.703889312430228,1.9690300364389552,-100.2818603515625,28.34956169128418,-83.00150299072266,27191130.0,50354.0,0.5568178720969672,0.06368950577779318,-0.11509427360641716,0.03252460168310801,0.0032095942982494083,0.0009652699694105352,27.191130266990513
1618,A,775447102240605.0,-2.2855307176933852,7.188690433167041,-0.8019913970333465,89,1970-01-09 23:24:07.102240605,-1.1005096,-2.905548,-3.0903168,18.066014175467444,4.3821670990913155,-100.24513244628906,28.22339630126953,-82.8078842163086,27241484.0,50354.0,0.15138197360206726,-0.027523726358306803,-0.23572958208861716,0.01783034751516459,0.0009105458284444088,-0.00883269221483388,27.241484271013178
1618,A,775447152594609.0,1.8834902823066138,9.96624803316704,4.250971802966654,89,1970-01-09 23:24:07.152594609,-0.12519836,-1.5688477,-1.4205933,13.058958784362424,2.120151659468461,-100.20326232910156,28.167421340942383,-82.70600128173828,27291838.0,50354.0,-0.010122172041732746,-0.06155931423310686,0.08683497968018287,0.0035564980238845423,-0.0022428437129700216,-0.00374871940483715,27.291838275035843
1618,A,775447202948613.0,1.8360352823066144,4.516007433167042,1.8221235489666534,89,1970-01-09 23:24:07.202948613,0.37696838,0.82302856,-0.004348755,16.529262961063726,0.9052624380617744,-100.20606994628906,28.159915924072266,-82.75189971923828,27342192.0,50354.0,0.09364649514026725,-0.12884945412410684,0.1529023216756249,0.0021028918826518036,-0.00479392156092957,0.006035866036235173,27.34219227905851
1618,A,775447253302617.0,5.915594982306614,8.832809933167042,2.0086469829666536,89,1970-01-09 23:24:07.253302617,-0.0011901855,2.1679688,0.5780029,10.600628252428201,2.2436972805446316,-100.26599884033203,28.169095993041992,-82.87872314453125,27392546.0,50354.0,0.19516279517216728,-0.15738602516780684,0.09644730968248487,0.0072713515021961645,-0.007206550662132511,0.006277875668703131,27.39254628296476
1618,A,775447303656621.0,9.796393282306614,10.708420433167042,1.8461561429666535,89,1970-01-09 23:24:07.303656621,-0.01373291,2.6298523,1.4070587,6.9447252023285575,2.982637406370082,-100.09539794921875,28.113636016845703,-82.92305755615234,27442900.0,50354.0,0.3955807285381673,-0.0014796430668068128,0.09705237830162287,0.014873149696455094,-0.003999760929142868,0.0048717416443758805,27.442900286987424
1618,A,775447354010625.0,7.641394582306614,5.596512433167042,0.0027571029666535463,89,1970-01-09 23:24:07.354010625,1.3661499,0.14183044,0.3661499,12.638220478503845,1.4214595218473909,-100.0172119140625,28.004722595214844,-82.92745971679688,27493254.0,50354.0,0.43903118506736727,-0.0829599052243068,0.046550088792862876,0.021013024148846544,-0.0021259345073253674,0.003615479314037868,27.49325429101009
1618,A,775447404364629.0,9.896185782306613,9.866928433167041,-0.10439009703334645,89,1970-01-09 23:24:07.404364629,1.8865814,-1.634491,-0.7048645,7.949141199024301,2.593758695651392,-100.02885437011719,27.78418731689453,-82.9007339477539,27543608.0,50354.0,0.44154366083986724,-0.10414614930830682,-0.0025588138916171274,0.02217023289540644,-0.0047107691349676135,0.0011075683281886644,27.543608295032755
1618,A,775447454718632.0,11.411459882306614,10.083984833167042,-0.8659562970333463,89,1970-01-09 23:24:07.454718632,0.4930725,-0.39726257,-1.3716888,7.608935481183251,1.5107839699390164,-99.98764038085938,27.720104217529297,-82.86515808105469,27593962.0,50354.0,0.5364625948979672,0.008834943306493186,-0.024430411163417126,0.024623263500711458,-0.0023996502335076617,-0.0006795077192105974,27.593962298007682
1618,A,775447505072636.0,9.937323482306613,9.107361433167043,-2.246968297033346,89,1970-01-09 23:24:07.505072636,-1.0068359,-0.4375763,-1.6240234,9.367846743113507,1.960266194066015,-100.01927185058594,27.643932342529297,-82.82489776611328,27644316.0,50354.0,0.5374983187708672,-0.010288675052506783,-0.07837410250481712,0.027039113923440244,-3.660060416938431e-05,-0.0025883092406251335,27.644316302030347
1618,A,775447555426640.0,7.576392282306614,8.514954433167041,-0.45016959703334636,89,1970-01-09 23:24:07.555426640,-0.6055145,-2.8066711,-2.3198395,10.193246804159017,3.691301366597654,-100.1014175415039,27.603174209594727,-82.7086410522461,27694670.0,50354.0,0.44094282180566724,-0.049792153433306806,-0.06790584075891712,0.024634212596295408,-0.0015126550187873288,-0.003682890131551037,27.694670306053013
1618,A,775447605780644.0,4.855597282306614,7.563644933167042,0.023295402966653445,89,1970-01-09 23:24:07.605780644,-0.12231445,-3.2118683,-2.3835297,12.40011656158551,4.001533784938693,-100.01414489746094,27.513877868652344,-82.50680541992188,27745024.0,50354.0,0.3130002012682673,-0.08865830375380682,-0.010747411584017128,0.01898202349193245,-0.00348576716059996,-0.0019802529342380555,27.745024309959263
1618,A,775447656134648.0,3.319785282306613,8.588211433167041,2.8408155629666534,89,1970-01-09 23:24:07.656134648,-0.6986389,-0.8995209,-2.6732178,12.598078205174875,2.905740450963723,-100.01399993896484,27.390079498291016,-82.43070983886719,27795378.0,50354.0,0.2058316068292672,-0.08681391226480682,0.07210972178930287,0.013062628432471626,-0.0044178639827006354,0.0015449188840384795,27.795378313981928
1618,A,775447706488652.0,-0.8105407176933852,7.959457433167042,-0.6645555970333465,89,1970-01-09 23:24:07.706488652,-0.42436218,0.7151642,-2.8539124,16.410348866331574,2.9726013993890525,-100.04058837890625,27.24334144592285,-82.44239044189453,27845732.0,50354.0,0.06317525040326724,-0.07684854095230682,0.054791697162302866,0.006772785644543521,-0.00412052958464727,0.0031949970249445774,27.845732318004593
1618,A,775447756842656.0,-3.135659717693386,9.562500433167042,0.9228621029666535,89,1970-01-09 23:24:07.756842656,-1.0305939,-1.7323456,-0.9498596,17.456571383167436,2.228312887425985,-100.04395294189453,27.2116756439209,-82.3371353149414,27896086.0,50354.0,-0.09935348836173274,-0.05231886679930681,0.00650338289988287,-0.000910859497080286,-0.0032520478249623763,0.0015432262307256504,27.89608632202726
1618,A,775447807196660.0,-1.9425137176933855,5.054337433167042,-2.551167597033346,89,1970-01-09 23:24:07.807196660,0.13583374,5.14151,2.7348328,19.380175942418504,5.825194102257729,-100.1799087524414,27.301151275634766,-82.6488265991211,27946440.0,50354.0,-0.12785317258273277,-0.12546107303930681,-0.04099584742411712,-0.005720382102598808,-0.004475965545316775,-0.0008684167793266456,27.946440326049924
1618,A,775447857550664.0,3.313895282306614,-0.2934105668329572,-0.31233689703334666,89,1970-01-09 23:24:07.857550664,0.74897766,3.6503906,6.146515,19.809345302633872,7.18790412519341,-100.19330596923828,27.588031768798828,-82.88008880615234,27996794.0,50354.0,0.03452727365226726,-0.3736033442863068,-0.07209445264711711,-0.00234966615737233,-0.012564944835006975,-0.0028472744848934643,27.99679433007259
1618,A,775447907928533.0,9.994528682306614,0.7175904331670431,0.9157973029666535,89,1970-01-09 23:24:07.907928533,0.6919708,3.7855682,5.2030945,16.58231315157296,6.471595055381179,-100.28075408935547,27.81040382385254,-83.14266967773438,28047172.0,50378.0,0.3352258912446426,-0.48301973334691073,0.015200564165054066,0.009313712470588263,-0.021577478702503115,-0.001433100156974686,28.0471721990034
1618,A,775447958282536.0,16.137000082306614,6.352951433167041,-1.1040085970333464,89,1970-01-09 23:24:07.958282536,-1.5245361,-1.1689453,2.4470825,11.680146624728444,3.1110860155903035,-100.33816528320312,27.94124984741211,-83.10240173339844,28097526.0,50354.0,0.6579134997066673,-0.31545416743130683,-0.004738595750717127,0.025004270445981133,-0.020103177399893184,0.0002634009787677611,28.097526201978326
1618,A,775448008636540.0,16.059195482306613,11.123856133167042,0.6640425029666535,89,1970-01-09 23:24:08.008636540,-2.0087128,-1.8602142,0.8456421,6.990336313221699,2.8653855838364737,-100.39404296875,27.999576568603516,-83.00741577148438,28147880.0,50354.0,0.8106036157302673,-0.053455615902406835,-0.01107702635031713,0.0369728554153557,-0.00928804161499291,-0.0003981899176377396,28.14788020600099
1618,A,775448058990544.0,15.682806882306615,11.888596133167042,1.5609541029666536,89,1970-01-09 23:24:08.058990544,-0.30924988,0.13301086,0.44477844,6.036973303402835,0.5578129057728832,-100.41512298583984,28.020252227783203,-83.01936340332031,28198234.0,50354.0,0.7991683935338673,0.08591531070949318,0.05601873954758287,0.04052922987724312,0.000817237736158013,0.0011314975131675596,28.198234210023656
1618,A,775448109344548.0,9.766455582306614,11.685913433167041,7.021433802966654,89,1970-01-09 23:24:08.109344548,-0.29673767,1.3699036,-0.68725586,7.932016024476542,1.5610924813073466,-100.46246337890625,27.97405242919922,-83.08860778808594,28248588.0,50354.0,0.6407360810715672,0.10006622735159316,0.2160787803076829,0.036252474957141026,0.004682457183763971,0.006850599257396026,28.248588214046322
1618,A,775448159698552.0,7.176642282306614,10.371292433167042,-14.314610597033347,89,1970-01-09 23:24:08.159698552,-1.726059,-3.698578,-1.8232727,18.379611712367183,4.470244090889254,-100.44351959228516,27.917951583862305,-82.86402893066406,28298942.0,50354.0,0.4265763749373673,0.06186507209669318,-0.18362031214421715,0.026871725704936945,0.0040769443262095055,0.0008172068529515774,28.298942218068987
1618,A,775448210052556.0,-4.302559717693384,10.717621433167043,0.9992933529666536,89,1970-01-09 23:24:08.210052556,-0.36627197,-1.8591614,-2.2518005,18.073855512819243,2.9429987698023066,-100.40270233154297,27.82403564453125,-82.73755645751953,28349296.0,50354.0,0.07236077672926729,0.03748638441269323,-0.33523974225386716,0.01256174066751086,0.0025013716205368216,-0.01306333958958057,28.349296221975237
1618,A,775448260406560.0,3.8964912823066147,8.835495433167042,2.4856520029666536,89,1970-01-09 23:24:08.260406560,0.436615,-0.30122375,-0.14544678,11.987046726081271,0.550021064688827,-100.37236785888672,27.81960105895996,-82.71932983398438,28399650.0,50354.0,-0.0102235849977327,-0.001180376656306787,0.08774046922633287,0.0015644280762248464,0.0009140763572825414,-0.0062312891970142305,28.399650225997902
1618,A,775448310760564.0,0.4432132823066137,2.4614874331670418,0.5683699029666536,89,1970-01-09 23:24:08.310760564,0.50749207,2.3937836,-0.51478577,19.04554579010114,2.5005504421499554,-100.40660095214844,27.7726993560791,-82.84716033935547,28450004.0,50354.0,0.10926074182326725,-0.20904506237430684,0.07689110952568287,0.002493458497396484,-0.00529284587847376,0.0041449292582395,28.450004230020568
1618,A,775448361114568.0,9.940405782306614,13.53447013316704,1.4072981029666534,89,1970-01-09 23:24:08.361114568,0.45788574,2.345993,0.7498169,4.446330100360974,2.5051083590276004,-100.40086364746094,28.01010513305664,-82.96321868896484,28500358.0,50354.0,0.26142837718976725,-0.09073897635240685,0.04974139338538287,0.009332839949391169,-0.00754766274302247,0.003188226525791903,28.500358234043233
1618,A,775448411468572.0,8.176718682306614,5.335526433167042,0.4851027029666535,89,1970-01-09 23:24:08.411468572,0.81581116,2.2131042,1.2909088,12.615115405071966,2.688833125866242,-100.33365631103516,27.867650985717773,-83.0572509765625,28550712.0,50354.0,0.45613484264556725,-0.01837929644940685,0.047644975090982866,0.01806608918579422,-0.0027472707543312637,0.0024518965991294603,28.5507122380659
1618,A,775448461822576.0,10.051550782306613,10.202332033167043,0.8627272029666535,89,1970-01-09 23:24:08.461822576,1.829773,-0.36743164,-0.333313,7.394120256009003,1.895830371518267,-100.19011688232422,27.661691665649414,-83.01454162597656,28601066.0,50354.0,0.45893314031056726,-0.10227253739310681,0.03393431354168287,0.023038666606886603,-0.0030376512206529665,0.0020539217499046256,28.60106624197215
1618,A,775448512176579.0,10.169241882306615,11.83947803316704,-0.8326768970333467,89,1970-01-09 23:24:08.512176579,1.437561,-0.81414795,-1.0052948,6.3852866470357785,1.9339173064320105,-100.09262084960938,27.61937141418457,-82.95930480957031,28651420.0,50354.0,0.5090988969169673,0.061477452040093174,0.0007565765524828659,0.02437214260127764,-0.0010270978639328244,0.0008734125399008109,28.65142024506349
1618,A,775448562530583.0,9.055884282306614,8.476914433167043,-3.2707719970333464,89,1970-01-09 23:24:08.562530583,-0.09024048,-0.98301697,-1.2818909,10.641211850899076,1.6179338636178617,-100.06597900390625,27.564876556396484,-82.89204406738281,28701774.0,50354.0,0.4840310014464673,0.018036613124893172,-0.10331253280591714,0.025004031451096198,0.0020019256186588614,-0.002582051310592715,28.70177424896974
1618,A,775448612884587.0,8.830725582306613,9.643692433167042,-1.9100235970333463,89,1970-01-09 23:24:08.612884587,-1.4045868,-1.2310638,-1.8367615,9.160810364136205,2.619556253697738,-100.09624481201172,27.4852237701416,-82.80557250976562,28752128.0,50354.0,0.45033117656136723,-0.037246680926306806,-0.13043689067181713,0.023524436555703254,-0.0004836518770361911,-0.005885109234898916,28.752128252992406
1618,A,775448663238591.0,5.794455282306614,8.360428433167042,-1.6054735970333465,89,1970-01-09 23:24:08.663238591,-0.18702698,-2.0925903,-2.2982178,11.59519312546656,3.113794840887699,-100.04169464111328,27.390384674072266,-82.66687774658203,28802482.0,50354.0,0.36821817862836725,-0.04017944894830681,-0.08850967285501712,0.020608617115611946,-0.001949357671853147,-0.0055124176299151065,28.802482257015072
1618,A,775448713592595.0,4.523932282306614,8.104569433167041,1.3361464029666537,89,1970-01-09 23:24:08.713592595,-0.5864105,-3.129959,-1.7216339,12.073003360873425,3.6200198758874875,-99.98351287841797,27.33282470703125,-82.47649383544922,28852836.0,50354.0,0.2597860437142673,-0.07892994871930681,-0.006780850765017125,0.01581126230592051,-0.002998817305077508,-0.0023991295131816025,28.852836261037737
1618,A,775448763946599.0,3.1642372823066136,9.367676433167041,0.9184981029666535,89,1970-01-09 23:24:08.763946599,-0.4313507,0.5489502,-2.4969025,12.214045231616907,2.592668864891307,-100.00782775878906,27.205108642578125,-82.48251342773438,28903190.0,50354.0,0.19356504512826725,-0.05357046582330684,0.05676518472588288,0.011414020363788491,-0.0033359629369393838,0.0012584555761327172,28.903190265060402
1618,A,775448814300603.0,-3.9866567176933856,6.497543433167042,-1.2919358970333465,89,1970-01-09 23:24:08.814300603,-0.38294983,-0.33291626,-2.2276,19.923382769119183,2.284663119251811,-100.00865173339844,27.09831428527832,-82.44233703613281,28953544.0,50354.0,-0.02070605412473276,-0.09403055942530683,-0.009402043341217131,0.004352070816495988,-0.003716151012684347,0.0011924618106417297,28.953544268966652
1618,A,775448864654607.0,0.3759072823066134,11.561005133167042,16.917918402966652,89,1970-01-09 23:24:08.864654607,0.63830566,4.2659454,0.45429993,20.110724149624847,4.337293245535422,-100.08618927001953,27.08346939086914,-82.68269348144531,29003898.0,50354.0,-0.09090783853473276,-0.038809122745406814,0.3934153615518829,-0.0028101029754873637,-0.003344504678012058,0.009668303312589933,29.003898272989318
1618,A,775448915008611.0,5.143225582306614,1.0383004331670413,9.734248402966653,89,1970-01-09 23:24:08.915008611,0.36080933,4.5513763,5.73497,19.322579783299467,7.3304222591687545,-100.20927429199219,27.325639724731445,-82.99137115478516,29054252.0,50354.0,0.13895520813236723,-0.17625648375640685,0.6710216036729829,0.001209688624359643,-0.005414706774896163,0.026799329473466447,29.054252277011983
1618,A,775448965362615.0,5.691611282306614,-1.8789665668329576,4.191798202966654,89,1970-01-09 23:24:08.965362615,0.07106018,3.662674,4.736725,20.288726977095788,5.988054283745483,-100.32112121582031,27.526052474975586,-83.241943359375,29104606.0,50354.0,0.27278868774036724,-0.5146346512473068,0.3506160753975829,0.010366476066387836,-0.0173945661059885,0.025721771845959633,29.10460628103465
1618,A,775449015716619.0,13.144492082306614,5.660461933167042,-3.0162247970333462,89,1970-01-09 23:24:09.015716619,-0.4098816,0.1373291,3.6023407,12.439083354639855,3.6281842189450444,-100.362060546875,27.702007293701172,-83.28604888916016,29154960.0,50354.0,0.4742365744108673,-0.39826249116180684,0.02959741164118288,0.018807855025181633,-0.022984011354434255,0.009572634963175007,29.154960285057314
1618,A,775449066070622.0,15.252020782306614,9.62164343316704,0.8933974029666536,89,1970-01-09 23:24:09.066070622,-2.237671,-1.6827545,1.3751068,7.968810175112986,3.119255187206954,-100.43695831298828,27.784828186035156,-83.20658111572266,29205314.0,50354.0,0.7149390043923673,-0.10871163319180684,-0.05344642530041712,0.029939873547529045,-0.012764087528850932,-0.0006004466168985404,29.20531428803224
1618,A,775449116424626.0,16.044135082306614,11.783630833167042,1.4725141729666535,89,1970-01-09 23:24:09.116424626,-1.0784149,-0.81980896,0.21328735,6.322663700068474,1.3713339932738176,-100.47064971923828,27.802757263183594,-83.16320037841797,29255668.0,50354.0,0.7879433162033672,0.045451390203493154,0.05956655574727287,0.037838068185638805,-0.0015927031377167735,0.00015408652426048718,29.255668292054906
1618,A,775449166778630.0,15.786093682306614,11.32161003316704,2.3194380029666535,89,1970-01-09 23:24:09.166778630,-0.089416504,1.6136475,-0.28630066,6.580992513237216,1.6412865786815742,-100.51554870605469,27.77399444580078,-83.24993133544922,29306022.0,50354.0,0.8013896696066672,0.08825144929169315,0.09546997993347288,0.04001463658373924,0.0033662363899703055,0.0039033548588341357,29.306022295961156
1618,A,775449217132634.0,4.887610282306614,10.711594133167042,8.424037002966653,89,1970-01-09 23:24:09.217132634,-0.70228577,-1.7772064,-2.1491394,11.91727080694013,2.8758421464986244,-100.49443054199219,27.684537887573242,-83.12908172607422,29356376.0,50354.0,0.5205018447170673,0.061260781295793154,0.2704884702243828,0.03328126265612867,0.0037642694295011428,0.009213735899624334,29.356376299983822
1618,A,775449267486638.0,-0.38359971769338586,3.936401433167042,-9.289662597033347,89,1970-01-09 23:24:09.267486638,-3.6572723,-9.750641,-3.2814941,21.59865004639188,10.918738210780727,-100.41055297851562,27.61163902282715,-82.55425262451172,29406730.0,50354.0,0.11339747398526726,-0.12467661562640682,-0.02179385558181716,0.015959683146968676,-0.0015966204609418604,0.006261384312855877,29.406730304006487
1618,A,775449317840642.0,-0.06719271769338597,11.497360733167042,0.5418654029666534,89,1970-01-09 23:24:09.317840642,0.44198608,0.20466614,-1.014679,13.900749207896425,1.125528052434619,-100.38892364501953,27.55988883972168,-82.55526733398438,29457084.0,50354.0,-0.011349601145732755,-0.1048933699382068,-0.22024328995501716,0.00256925929448096,-0.005779883526560278,-0.006093769213180878,29.457084308029152
1618,A,775449368194646.0,1.5637582823066136,6.775482433167042,2.0867109529666537,89,1970-01-09 23:24:09.368194646,0.48641968,1.3951721,0.9159851,15.085398680238862,1.7384297504160822,-100.40474700927734,27.59233856201172,-82.6419906616211,29507438.0,50354.0,0.03767903122026724,-0.0334138276012068,0.06617966691333288,0.0006628960609865547,-0.0034821603124498167,-0.003878859837320485,29.507438312051818
1618,A,775449418548650.0,8.764349882306615,11.489288833167041,1.9845075829666534,89,1970-01-09 23:24:09.418548650,-0.05831909,2.3712616,1.4481201,6.764167703696667,2.7790887923772782,-100.47552490234375,27.642066955566406,-82.78839874267578,29557792.0,50354.0,0.26003077926046725,-0.03361705382750682,0.10250106907919286,0.007495439898473452,-0.001687636501730723,0.004246874890083821,29.557792315958068
1618,A,775449468902654.0,9.339148482306614,6.798828433167042,1.2289686429666535,89,1970-01-09 23:24:09.468902654,0.58403015,1.8662567,2.1157684,10.791268207173946,2.8810555719809487,-100.50458526611328,27.729106903076172,-82.91378021240234,29608146.0,50354.0,0.4557917783258673,-0.03302927158550682,0.08090569094032286,0.01802226453235115,-0.0016779545349234447,0.004617631997011347,29.608146319980733
1618,A,775449519256658.0,10.340186082306614,7.640060933167042,0.7611342029666535,89,1970-01-09 23:24:09.519256658,2.1027832,-0.44462585,-0.055755615,9.759103817964133,2.149999539835879,-100.38768768310547,27.730392456054688,-82.88850402832031,29658500.0,50354.0,0.4954666063332673,-0.1299412824238068,0.050104819352062874,0.023949832350563034,-0.004103109638292489,0.003298451617631396,29.6585003240034
1618,A,775449569610661.0,11.532950382306614,11.073288433167042,-0.006977997033346561,89,1970-01-09 23:24:09.569610661,1.5439606,-0.40797424,-0.78596497,6.382648037976728,1.7798871449962883,-100.29623413085938,27.695384979248047,-82.85785675048828,29708854.0,50354.0,0.5506999567695673,-0.022323203003806805,0.01898739079678287,0.026339335559240066,-0.0038335629496110274,0.0017395345749174893,29.708854326978326
1618,A,775449619964665.0,10.106299282306614,9.368164433167042,-2.2773789970333462,89,1970-01-09 23:24:09.619964665,-0.5631561,0.63871765,-1.5597382,9.113689352679767,1.777044817084806,-100.33354949951172,27.612945556640625,-82.87757110595703,29759208.0,50354.0,0.5448113888059672,0.021185258815693185,-0.05751325603961713,0.027581689147555235,-2.865002082413662e-05,-0.0009699657092188382,29.75920833100099
1618,A,775449670318669.0,8.113821982306614,9.163101733167043,-1.2861375970333466,89,1970-01-09 23:24:09.670318669,-0.7451477,-2.3190918,-2.1137543,9.63335475267263,3.225118464864666,-100.30134582519531,27.52972984313965,-82.7275161743164,29809562.0,50354.0,0.45872799307916723,-0.026907511730206786,-0.08971865728881713,0.025266111017722036,-0.00014406916162870893,-0.00370685788186999,29.809562335023656
1618,A,775449720672673.0,5.874976282306614,7.733185433167042,-0.031056397033346395,89,1970-01-09 23:24:09.720672673,-0.6434326,-3.6670227,-2.5256195,11.66359758880242,4.49886817453438,-100.26268768310547,27.62915802001953,-82.51476287841797,29859916.0,50354.0,0.35219597390816726,-0.06807137801320677,-0.03316299318861713,0.020416632716840123,-0.0023912835070699235,-0.003093791314070363,29.859916339046322
