Subject-id_accel,Activity_accel,Timestamp_accel,accel_x,accel_y,accel_z,Segment_accel,DateTime,gyro_x,gyro_y,gyro_z,accel_magnitude,gyro_magnitude,Roll,Pitch,Yaw,Time_Difference,Difference_Microseconds,vx,vy,vz,dx,dy,dz,Time_diff
1606,A,124139657969083.0,3.8528721380322404,3.823976106504068,3.9562997902934343,31,1970-01-02 10:28:59.657969083,0.2490387,-0.18725586,0.4068756,15.59959545411277,0.5124771068812631,-102.5168228149414,70.66166687011719,-169.48118591308594,15005461.0,50354.0,0.21059908103667543,-0.29417912792859424,0.06689105373983559,0.009306923915936875,-0.011481204776950542,-0.0007364145744311068,15.005461025997647
1606,A,124139708323087.0,5.71731307803224,10.348435606504069,3.234177590293434,31,1970-01-02 10:28:59.708323087,0.09989929,0.62127686,-0.023788452,8.938860043279936,0.629706832869487,-102.59745788574219,70.65373229980469,-169.57196044921875,15055815.0,50354.0,0.24094855318485545,-0.1366503903015942,0.18103464901103558,0.011368614786795484,-0.010846994780481456,0.006242025418158684,15.055815029991209
1606,A,124139758677091.0,1.4691288380322405,14.726716606504068,0.3903207662934342,31,1970-01-02 10:28:59.758677091,-0.45755005,-0.16882324,0.036621094,6.402800744339026,0.4890750853855233,-102.59803009033203,70.6573715209961,-169.54830932617188,15106169.0,50354.0,0.18093304812075545,0.13784790726690582,0.09125399512378758,0.010621713076071368,3.0149884635650607e-05,0.006855411193382443,15.106169033999322
1606,A,124139809031095.0,3.7772648380322402,9.054521606504068,2.0143899902934344,31,1970-01-02 10:28:59.809031095,-0.1802063,-1.0890045,0.013076782,10.2183704912399,1.103891350544706,-102.45597076416016,70.66981506347656,-169.38819885253906,15156523.0,50354.0,0.13208845358227542,0.1052710344889058,0.06054340271858759,0.00788094234837721,0.006121005596586069,0.00382180308547748,15.156523037992883
1606,A,124139859385099.0,7.30276229803224,10.650102606504069,1.6228036902934342,31,1970-01-02 10:28:59.859385099,-0.17272949,-0.03515625,-0.12593079,8.28081161915787,0.21663333653837005,-102.45584106445312,70.66404724121094,-169.37892150878906,15206877.0,50354.0,0.2789618432046954,0.0026341238109058142,0.0915736252961356,0.010349013322205565,0.0027167281705143573,0.003829850414326686,15.206877042000997
1606,A,124139909739103.0,3.49671683803224,11.712876906504068,-0.29193020970656586,31,1970-01-02 10:28:59.909739103,0.093551636,0.27233887,-0.44189453,7.684072637440912,0.5274382848780266,-102.48677825927734,70.54911804199219,-169.41531372070312,15257231.0,50354.0,0.27189848620869544,0.06956353519900582,0.03350740162073559,0.013869010513640943,0.0018177204608925454,0.003149165014686066,15.257231045994558
1606,A,124139960093107.0,0.3226748380322402,11.029893606504068,-0.07000637970656581,31,1970-01-02 10:28:59.960093107,0.1882782,-0.054138184,-0.102371216,9.876916871649128,0.22104182732545555,-102.46673583984375,70.54469299316406,-169.40406799316406,15307585.0,50354.0,0.09616082422827543,0.07912553320600581,-0.009112477511654416,0.009266629258871617,0.0037435446752329777,0.0006141910042943367,15.30758504998812
1606,A,124140010447111.0,3.1045201380322403,8.021104606504068,-0.7535696097065658,31,1970-01-02 10:29:00.010447111,-0.11035156,0.05441284,0.11314392,11.322131644211161,0.16715193861952543,-102.63014221191406,70.58817291259766,-169.55426025390625,15357939.0,50354.0,0.08628648791237543,-0.01382221799109421,-0.020735172685454415,0.004593475977765167,0.0016441415671658295,-0.0007514742890126091,15.357939053996233
1606,A,124140060801114.0,3.7430546380322403,7.078370606504068,0.4331979632934342,31,1970-01-02 10:29:00.060801114,0.21368408,0.18663025,-0.04121399,12.01196177575286,0.2866885579025243,-102.4117431640625,70.7558822631836,-169.36114501953125,15408293.0,50354.0,0.17240139013697542,-0.11330971256209421,-0.008065996941743417,0.006512984705648506,-0.003200800615537625,-0.0007251270477039598,15.408293057000265
1606,A,124140111155118.0,1.6517155380322404,7.454164106504068,1.1549386902934342,31,1970-01-02 10:29:00.111155118,0.58506775,0.6857147,-0.22166443,12.320643806994372,0.928247834047232,-101.84343719482422,70.67861938476562,-168.862548828125,15458647.0,50354.0,0.13582412872277544,-0.1275835735305942,0.03998451652735659,0.007760193888331947,-0.006064970263955617,0.0008036125676069828,15.458647060993826
1606,A,124140161509122.0,2.8739445380322404,9.417664606504069,3.327210390293434,31,1970-01-02 10:29:00.161509122,0.53027344,-0.3878479,-0.25039673,10.444858898591141,0.7030749868246889,-101.7554931640625,70.67034149169922,-168.79745483398438,15509001.0,50354.0,0.11394254373507545,-0.06868716849259418,0.11284706740193559,0.0062883755124713125,-0.0049415084719178146,0.0038478407885877896,15.509001064987388
1606,A,124140211863126.0,6.88967635803224,8.817643606504069,1.3628701902934341,31,1970-01-02 10:29:00.211863126,-0.41696167,0.042495728,-0.6009979,10.030689569309875,0.7327082618285731,-101.76482391357422,70.6404800415039,-168.78524780273438,15559355.0,50354.0,0.24581868330021545,-0.03435884512109417,0.1180821587774356,0.009057708413067519,-0.0025943894847518315,0.005814105127518028,15.559355068995501
1606,A,124140262217130.0,2.5517858380322402,9.174439606504068,1.1096200902934341,31,1970-01-02 10:29:00.262217130,0.19961548,-0.008636475,0.15576172,10.38854113247203,0.2533429335375558,-101.13166046142578,70.61357879638672,-168.19772338867188,15609709.0,50354.0,0.23770769371031542,-0.04048252094609418,0.06224988779433558,0.012173743593994136,-0.0018842810734736014,0.004540219936537484,15.609709072989062
1606,A,124140312571134.0,2.1851933380322404,11.488374306504069,-0.2573232797065658,31,1970-01-02 10:29:00.312571134,0.15863037,-0.045898438,0.34469604,8.462388871814241,0.38221148712310876,-101.12677764892578,70.63092041015625,-168.2009735107422,15660063.0,50354.0,0.11926292471577542,0.02675846588780582,0.021458276800145584,0.008987449260113689,-0.0003455305342025261,0.0021075204599952523,15.660063076997176
1606,A,124140362925138.0,5.15435533803224,11.690873606504068,-0.29153350970656583,31,1970-01-02 10:29:00.362925138,-0.8722992,0.14744568,-0.21914673,7.239947049450297,0.9114117687088505,-101.43199920654297,70.82870483398438,-168.44964599609375,15710417.0,50354.0,0.18478781701727545,0.09011472470580582,-0.013818567387054417,0.007655085524613022,0.0029425163195753606,0.00019234496389339633,15.710417080990737
1606,A,124140413279142.0,4.44004563803224,12.047715606504068,-1.4556112097065659,31,1970-01-02 10:29:00.413279142,-0.39723206,0.016052246,-0.12806702,7.259528969018821,0.4176746888490713,-101.45047760009766,70.822265625,-168.4481658935547,15760771.0,50354.0,0.24155823337437546,0.10419726061590583,-0.043987862600664424,0.010734114510710595,0.004892192854444735,-0.0014553924878007974,15.76077108499885
1606,A,124140463633146.0,3.3245213380322403,11.103105106504067,-1.775389709706566,31,1970-01-02 10:29:00.463633146,-0.37135315,0.009414673,-0.06448364,8.559160386567166,0.37702776808912764,-101.4685287475586,70.81902313232422,-168.44761657714844,15811125.0,50354.0,0.19548850275637544,0.0893990130914058,-0.08134691014806443,0.011003525675563916,0.004874173383128985,-0.0031555535734947462,15.811125088992412
1606,A,124140513987150.0,2.2725348380322403,9.556291606504068,-1.2244406097065659,31,1970-01-02 10:29:00.513987150,-0.6799011,-0.29544067,-0.15040588,10.245913838225238,0.7564209304414,-101.7702865600586,70.65990447998047,-168.6951446533203,15861479.0,50354.0,0.14091708334477543,0.02667243104340579,-0.07552672795186442,0.008469683441268677,0.0029223307489821514,-0.003949607586441909,15.861479093000526
1606,A,124140564341153.0,2.4808781380322404,6.321061606504069,-1.4728384097065659,31,1970-01-02 10:29:00.564341153,-0.74586487,-0.013504028,0.14691162,13.204285184825284,0.7603155839277307,-102.13956451416016,70.68161010742188,-169.0087127685547,15911833.0,50354.0,0.11967667849837543,-0.09372507815609418,-0.06790939387176442,0.00656096914192501,-0.0016881844963561557,-0.003611291239153504,15.911833095990005
1606,A,124140614695157.0,3.5062688380322404,6.553132606504068,-1.153212509706566,31,1970-01-02 10:29:00.614695157,-0.6077881,0.47151184,0.23379517,12.669549888482804,0.8039838128203357,-102.54631042480469,70.80724334716797,-169.3724365234375,15962187.0,50354.0,0.15073839941637546,-0.1693356122990942,-0.06611608399806441,0.0068082404166596834,-0.006623079003590278,-0.0033743594563286805,15.962187099998118
1606,A,124140665049161.0,3.1273625380322403,5.903260606504068,5.324265590293434,31,1970-01-02 10:29:00.665049161,-0.13162231,-0.30696106,0.6495514,14.19016851742997,0.7303879421841654,-102.53007507324219,70.8422622680664,-169.34829711914062,16012540.999999998,50353.99999999814,0.16701493715516924,-0.17985458807608753,0.1050146034099317,0.008000075754861485,-0.008791561674845625,0.0009793480232325464,16.01254110399168
1606,A,124140715403165.0,2.1502201380322408,6.045960606504067,3.022431390293434,31,1970-01-02 10:29:00.715403165,-0.36143494,0.23234558,0.42129517,13.696778154735089,0.601755186652902,-102.59400177001953,70.86031341552734,-169.39682006835938,16062895.000000002,50354.000000003725,0.1328736990352853,-0.19262365752010846,0.21014478988025112,0.0075502961933676315,-0.009377884789376121,0.00793476804486752,16.062895107999793
1606,A,124140765757169.0,5.78754928803224,9.797227606504068,-0.3261556697065658,31,1970-01-02 10:29:00.765757169,-0.3138275,0.011474609,-0.828949,9.040474645105848,0.8864399646952709,-102.58531188964844,70.81973266601562,-169.37100219726562,16113249.0,50353.99999999814,0.19984922084001805,-0.09458525036109072,0.06788413381721307,0.008376964953700203,-0.007231058673724684,0.006999934211930797,16.113249111993355
1606,A,124140816111173.0,6.08605697803224,14.014497306504069,0.9173593402934341,31,1970-01-02 10:29:00.816111173,0.27612305,-0.12840271,-0.45828247,4.816176074993907,0.5502308760747142,-102.53917694091797,70.79876708984375,-169.3367919921875,16163602.999999998,50353.99999999814,0.2989417849606944,0.10603859813480189,0.014884734814365036,0.012558061153044073,0.0002883609368987154,0.002083871805537165,16.163603115986916
1606,A,124140866465177.0,3.4104588380322403,13.819444206504068,0.48437594029343417,31,1970-01-02 10:29:00.866465177,0.7781677,0.06774902,0.14108276,5.809659467137656,0.7937501144588692,-102.51416015625,70.80491638183594,-169.35150146484375,16213957.0,50354.00000000186,0.23909377870106427,0.20730594547301354,0.03529148915933689,0.013546121386312598,0.007889075574414262,0.0012632867909859403,16.21395711999503
1606,A,124140916819181.0,1.5845921380322405,9.894456606504068,-1.1781912097065659,31,1970-01-02 10:29:00.916819181,0.7871399,-0.04446411,0.15638733,10.24115913499044,0.8037557316962853,-102.4734115600586,70.81300354003906,-169.35003662109375,16264311.0,50354.0,0.12576039842437545,0.10357568076910581,-0.017468187038014418,0.009185933617487197,0.00782706670389784,0.000448737277508536,16.26431112398859
1606,A,124140967173185.0,2.7354863380322403,8.397935606504069,-0.8526297097065658,31,1970-01-02 10:29:00.967173185,0.47424316,0.085617065,0.20030212,11.092039501472096,0.521879100848553,-102.62593078613281,70.79183197021484,-169.51853942871094,16314665.000000002,50354.00000000186,0.10876661579187946,-0.03292164125309539,-0.051129978288066306,0.005904686636922868,0.0017788567528946601,-0.0017270960084147982,16.314665127996705
1606,A,124141017527189.0,2.3855258380322404,8.270326606504069,-1.4235678097065658,31,1970-01-02 10:29:01.017527189,0.6562958,0.41792297,0.06700134,11.407408655423481,0.780943637859389,-102.98536682128906,70.7114028930664,-169.8958282470703,16365019.0,50353.99999999814,0.12893172355677066,-0.07381236226309142,-0.0573078249462623,0.005984531089780742,-0.002687242006526936,-0.0027301385720305904,16.365019131990266
1606,A,124141067881193.0,1.1773961380322406,7.811234606504069,-0.06846523970656582,31,1970-01-02 10:29:01.067881193,1.0573273,0.6335144,-0.34732056,12.172326411802398,1.280590912716221,-102.74555969238281,70.53562927246094,-169.72840881347656,16415372.999999998,50353.99999999814,0.08970368659137212,-0.08858373334009087,-0.03756491608507302,0.005504583721299587,-0.00408864649900117,-0.0023886110009458407,16.41537313599838
1606,A,124141118235196.0,3.7841618380322406,9.735200606504069,3.873734490293434,31,1970-01-02 10:29:01.118235196,1.0016785,0.15768433,-0.13452148,10.057164479118118,1.0228979391274524,-102.7130355834961,70.52732849121094,-169.7470245361328,16465727.000000002,50354.000000003725,0.12491714516338469,-0.051702600642097966,0.09580526392203266,0.005403508681089912,-0.0035319890306698297,0.0014663172374912413,16.46572713898786
1606,A,124141168589200.0,3.8778202380322404,5.241273606504068,2.342820190293434,31,1970-01-02 10:29:01.168589200,0.098861694,-0.55711365,-0.5200958,13.923192470724455,0.7685368532051746,-102.61515045166016,70.508056640625,-169.6484375,16516081.0,50353.99999999814,0.1929057227290683,-0.11640650873908986,0.15651419719312978,0.008001826344927992,-0.00423248304689001,0.00635264707249621,16.516081142995972
1606,A,124141218943204.0,1.2834141380322404,5.735642606504069,1.4275979902934341,31,1970-01-02 10:29:01.218943204,-0.4445343,0.33839417,-0.32310486,14.066087992001714,0.6453821416200626,-102.01917266845703,70.47213745117188,-169.07005310058594,16566434.999999998,50353.99999999814,0.12994439788617063,-0.21710338050508615,0.09492781853263207,0.00812839748672957,-0.008396778481500309,0.006330555629927272,16.566435146989534
1606,A,124141269297208.0,3.9252140380322404,15.380586206504068,-0.5402975097065659,31,1970-01-02 10:29:01.269297208,-0.0683136,0.64645386,0.36375427,4.320571725219084,0.7449070478906026,-102.12244415283203,70.48314666748047,-169.17601013183594,16616789.0,50354.00000000186,0.1311376315887803,0.03817409282510724,0.02233956419973641,0.006573262256091083,-0.004504902675918995,0.0029524408950529508,16.616789150997647
1606,A,124141319651212.0,5.422864238032241,14.932038806504067,-2.525145509706566,31,1970-01-02 10:29:01.319651212,-0.6225891,-0.44548035,0.005630493,4.926508972061028,0.7655727477688554,-102.09231567382812,70.48810577392578,-169.1110076904297,16667143.0,50354.0,0.23535656675647545,0.2697117599525058,-0.07717865889976443,0.009227224431738505,0.007751642115381964,-0.0013806838872626054,16.66714315499121
1606,A,124141370005216.0,3.3797276380322403,9.303132606504068,-0.09074307970656581,31,1970-01-02 10:29:01.370005216,-1.0110626,-0.8029938,0.11167908,9.971055296324362,1.295962515224436,-101.95671844482422,70.54144287109375,-168.9228057861328,16717497.000000002,50354.00000000186,0.22162285566368364,0.11669971066531011,-0.06586022701565684,0.011505370918272771,0.00972868159574511,-0.0036012900306926945,16.717497158999322
1606,A,124141420359220.0,3.4242680380322406,9.201035606504067,-1.4472342097065658,31,1970-01-02 10:29:01.420359220,-0.7622986,-0.1485138,0.13653564,10.20795948299961,0.7885413656509148,-102.46807098388672,70.55962371826172,-169.3671112060547,16767851.0,50353.99999999814,0.1713041991362691,-0.027589756901093186,-0.03872165421555298,0.009892724458698043,0.0022435213059216067,-0.002633058023758072,16.767851162992883
1606,A,124141470713224.0,1.9903233380322405,7.729341106504068,-3.4997702097065657,31,1970-01-02 10:29:01.470713224,-0.91407776,-0.3909912,-0.14453125,12.526866503814876,1.0046400111635112,-102.45528411865234,70.5567855834961,-169.30508422851562,16818205.0,50354.0,0.13632316707517544,-0.06721310549659422,-0.12455073026756441,0.00774513419910554,-0.0023868516665865756,-0.004110708824131447,16.818205167000997
1606,A,124141521067228.0,2.2542393380322405,5.2189651065040685,0.32426546829343417,31,1970-01-02 10:29:01.521067228,-0.8749542,-0.22251892,0.0791626,14.194179196655297,0.9062705109923672,-102.21227264404297,70.6307144165039,-169.03126525878906,16868559.0,50354.0,0.10686535449527544,-0.16746969447509422,-0.07994968287455842,0.006122757407579242,-0.0059086088548872,-0.005148706901679227,16.86855917099456
1606,A,124141571421232.0,5.690915378032241,5.1273206065040675,4.671997990293435,31,1970-01-02 10:29:01.571421232,0.06478882,-0.32507324,1.107193,14.339595815506696,1.1557450159140166,-102.19712829589844,70.68826293945312,-169.01864624023438,16918913.0,50354.0,0.20003516028635546,-0.2329807646035942,0.12579092509684162,0.007726834260657121,-0.010082141208224139,0.0011541449554304242,16.91891317498812
1606,A,124141621775236.0,4.07888533803224,8.180573606504069,3.5292367902934343,31,1970-01-02 10:29:01.621775236,-0.18571472,0.2789154,0.64686584,11.311661058033328,0.7285047512135691,-102.264892578125,70.71690368652344,-169.08062744140625,16969267.0,50354.0,0.24597427262835544,-0.1584163473990942,0.2064824880708356,0.011229179492493677,-0.009854205088891687,0.00836564772332261,16.969267178996233
1606,A,124141672129239.0,2.8737767380322405,9.297837606504068,1.1511239902934343,31,1970-01-02 10:29:01.672129239,-0.15299988,0.122665405,-0.2361908,10.160734620373518,0.30698836927230394,-101.6373519897461,70.705810546875,-168.4822540283203,17019621.0,50354.0,0.17504717308907544,-0.053415240890094175,0.1178374433728356,0.010600056938827759,-0.005333283898356895,0.008165402913957311,17.019621182000265
1606,A,124141722483243.0,5.92802169803224,12.811112906504068,1.1349801902934342,31,1970-01-02 10:29:01.722483243,0.098083496,0.12136841,-0.44436646,6.045423717814826,0.4709694405228876,-101.6366195678711,70.68282318115234,-168.48666381835938,17069975.0,50354.0,0.22160287922479543,0.0631678470660058,0.05755724495463559,0.009986458367106326,0.0002455413656909269,0.004415912068020742,17.069975185993826
1606,A,124141772837247.0,6.429303438032241,15.992951906504068,0.09205722029343422,31,1970-01-02 10:29:01.772837247,0.29730225,0.11286926,-0.21365356,2.8096820066797963,0.3831134837207948,-101.63137817382812,70.67122650146484,-168.4968719482422,17120329.0,50354.0,0.3111203749506955,0.23173073979710582,0.030893120886345587,0.013412373370376336,0.007424661721452561,0.002226914860778383,17.120329189987388
1606,A,124141823191251.0,3.5242741380322404,11.900727606504068,-0.14631560970656582,31,1970-01-02 10:29:01.823191251,0.93814087,-0.2551422,-0.06744385,7.489248645617232,0.9745534911373614,-101.50492095947266,70.57588958740234,-168.41744995117188,17170683.0,50354.0,0.25060122263257545,0.20880996909900576,-0.0013660634702544144,0.014142464662354014,0.011091493427877401,0.0007434027245649275,17.1706831939955
1606,A,124141873545255.0,0.7628758380322402,5.809342606504067,-0.6972647097065658,31,1970-01-02 10:29:01.873545255,0.85227966,-0.027572632,0.16775513,14.198333967996462,0.8690699928811488,-101.43980407714844,70.47219848632812,-168.3963623046875,17221037.0,50354.0,0.10793757494737542,-0.04758276224709421,-0.02123882170186442,0.009026931306670424,0.004059217386910578,-0.0005691231939784359,17.221037197989062
1606,A,124141923899259.0,2.6263554380322405,7.271867606504069,-1.8265371097065657,31,1970-01-02 10:29:01.923899259,0.4825592,0.48054504,-0.16667175,12.323003410301519,0.7011179567100704,-101.96546173095703,70.45089721679688,-168.9217987060547,17271391.0,50354.0,0.08533067583747543,-0.1641235704670942,-0.06354175840736442,0.00486591475001019,-0.005330130338745122,-0.0021345206654100547,17.271391201997176
1606,A,124141974253263.0,0.34954583803224004,9.825700606504068,-2.8949881097065657,31,1970-01-02 10:29:01.974253263,0.37036133,0.30784607,-0.6296387,11.307231543711383,0.7927052479399287,-101.9709243774414,70.4168930053711,-168.94728088378906,17321745.0,50354.0,0.07492426642747543,-0.06300372510109419,-0.11887384044916441,0.0040347386814046675,-0.005718383920520279,-0.004592677532410827,17.321745205990737
1606,A,124142024607267.0,0.02679183803224028,7.3065356065040685,1.9156960902934341,31,1970-01-02 10:29:02.024607267,0.29882813,-0.05999756,-0.19639587,13.231225554228274,0.36258694990072027,-101.9420166015625,70.40790557861328,-168.93243408203125,17372099.0,50354.0,0.009475053670275421,-0.06213088886509419,-0.024655635172764416,0.002124921682101073,-0.0031505141758267252,-0.0036136416077333024,17.37209920999885
1606,A,124142074961271.0,7.44222763803224,8.920335606504068,5.501938590293435,31,1970-01-02 10:29:02.074961271,0.50694275,-0.11628723,0.38562012,11.167715878654123,0.6474693418127608,-101.911865234375,70.4279556274414,-168.9273681640625,17422453.0,50354.0,0.18804750334887543,-0.08492526347009419,0.18675378835313558,0.004973025418071162,-0.003702432747343038,0.004081145202622205,17.422453213992412
1606,A,124142125315275.0,6.43205002003224,5.014359606504069,1.0008401902934343,31,1970-01-02 10:29:02.125315275,-0.10588074,-0.30361938,-0.82806396,13.788277703911373,0.88830477926521,-101.85149383544922,70.39058685302734,-168.85763549804688,17472807.0,50354.0,0.34931268859708947,-0.1426353786220942,0.1637204613588356,0.01352911755262356,-0.005729294285955027,0.008823890184998299,17.472807218000526
1606,A,124142175669278.0,2.0352604380322408,10.096299606504068,2.257203090293434,31,1970-01-02 10:29:02.175669278,0.6053467,0.47177124,0.1191864,9.915247215313233,0.7766711839877849,-101.88946533203125,70.39155578613281,-168.93008422851562,17523161.0,50354.0,0.21318147540268947,-0.11302813299409417,0.08202775567533559,0.014161915567022435,-0.006436840231960775,0.006187202860269329,17.523161220990005
1606,A,124142226023282.0,3.6296513380322404,16.12074430650407,-1.246306409706566,31,1970-01-02 10:29:02.226023282,0.6073303,0.29689026,0.085632324,4.185913979910259,0.6814153026566094,-101.90235900878906,70.39269256591797,-168.9759979248047,17573515.0,50354.0,0.14262548378597545,0.16659731459780583,0.02545134572713558,0.008958151811493016,0.0013487112852366486,0.0027060013360100167,17.57351522499812
1606,A,124142276377286.0,4.92165883803224,12.320115606504068,-2.020354309706566,31,1970-01-02 10:29:02.276377286,-0.4691925,-0.28764343,-0.2069397,7.0579447545181315,0.5879663122275841,-101.88034057617188,70.38553619384766,-168.92771911621094,17623869.0,50354.0,0.21529633630277542,0.22258633002980582,-0.08224471693266441,0.00901139766437448,0.00979847662078938,-0.0014298867068415996,17.62386922899168
1606,A,124142326731290.0,3.5352298380322402,7.761384606504068,-1.0227957097065659,31,1970-01-02 10:29:02.326731290,-0.3143463,-0.39004517,0.08833313,11.483096924054403,0.5086762947293847,-102.13377380371094,70.49009704589844,-169.1456298828125,17674223.0,50354.0,0.21291908619727543,0.012122730862905797,-0.07661738803876442,0.01078117969228378,0.005909270026095801,-0.003999671216865664,17.674223232999793
1606,A,124142377085294.0,1.43249253803224,8.844621606504068,-0.9458761097065658,31,1970-01-02 10:29:02.377085294,-0.23358154,0.06304932,-0.21853638,11.201968073162126,0.3260271491221834,-102.23956298828125,70.2823715209961,-169.23452758789062,17724577.0,50354.0,0.12507234626217542,-0.07537978157509419,-0.04956525039736442,0.008509610295031594,-0.001592622765780767,-0.003176900287906416,17.724577236993355
1606,A,124142427439298.0,1.2475408380322408,5.625062606504068,-3.441832509706566,31,1970-01-02 10:29:02.427439298,-0.7665558,-0.1405487,0.031036377,14.648475880916848,0.7799519140835646,-102.2596435546875,70.28536224365234,-169.2151336669922,17774931.0,50354.0,0.06747520030917543,-0.12916596056909418,-0.11046933991096444,0.0048477695800269015,-0.0051498481499642305,-0.0040291908801927965,17.774931240986916
1606,A,124142477793302.0,2.272671838032241,8.571565606504068,-0.4964590097065658,31,1970-01-02 10:29:02.477793302,-1.0575104,0.82177734,0.011795044,11.06036153294788,1.3393227264959695,-102.41312408447266,70.20703125,-169.32339477539062,17825285.0,50354.0,0.08862839454527546,-0.1360406914810942,-0.09915436558426444,0.00393022020765051,-0.006677107878667593,-0.005277696033253378,17.82528524499503
1606,A,124142528147306.0,6.48873641803224,6.475846606504069,8.406556590293434,31,1970-01-02 10:29:02.528147306,0.506546,-1.4686432,1.1719055,14.700999381517633,1.9459866905897611,-102.22285461425781,70.27993774414062,-169.1481475830078,17875639.0,50354.0,0.22058597566293545,-0.11462050271309418,0.19915252678643558,0.007785090198732127,-0.006310896886227082,0.002517653704587063,17.87563924898859
1606,A,124142578501310.0,2.7978642380322403,10.037644606504069,2.692398990293434,31,1970-01-02 10:29:02.578501310,-0.3826294,1.0018921,0.3026886,9.749836169279703,1.1143668275557785,-102.3875503540039,70.28404998779297,-169.3027801513672,17925993.0,50354.0,0.23380874471773544,-0.07770903173009416,0.2794384046524356,0.01144029587502415,-0.0048422806886761535,0.012049483880836459,17.925993252996705
1606,A,124142628855314.0,2.3193488380322407,10.942048606504068,-1.1948080097065659,31,1970-01-02 10:29:02.628855314,-0.3787079,-0.23846436,-0.8050232,8.990678050948269,0.9210576947460238,-102.34996795654297,70.24728393554688,-169.2427520751953,17976347.0,50354.0,0.12883607361607544,0.03473653602390582,0.03770484811823559,0.009130308591190357,-0.001081918524394704,0.007984715675007189,17.976347256990266
1606,A,124142679209318.0,5.56316879803224,11.15664820650407,0.8090982302934342,31,1970-01-02 10:29:02.679209318,-0.034606934,-0.2746277,-0.33773804,7.6918431233790985,0.43667493304655347,-102.3043212890625,70.23372650146484,-169.19241333007812,18026701.0,50354.0,0.19845814652319546,0.06290968966110584,-0.009711015116284416,0.008240286580446423,0.002458439024071539,0.0007048007334901247,18.02670126099838
1606,A,124142729563321.0,5.836591038032241,14.70009000650407,1.2063455502934342,31,1970-01-02 10:29:02.729563321,0.14884949,0.40596008,0.24798584,4.2125092473388355,0.4984543450180489,-102.35945129394531,70.24151611328125,-169.25888061523438,18077055.0,50354.0,0.28701175339259544,0.1575258979889059,0.050742828063835586,0.012222675670179869,0.005549906790264346,0.0010330579545804958,18.07705526398786
1606,A,124142779917325.0,0.04392743803224075,11.945542906504068,-0.9958639097065658,31,1970-01-02 10:29:02.779917325,0.6169586,-0.0015411377,-0.13937378,9.451988735561702,0.6325071855487958,-102.32426452636719,70.23472595214844,-169.25425720214844,18127409.0,50354.0,0.14805381367187545,0.17738789985080589,0.005299296265055585,0.010953645781982184,0.008432124688210424,0.001410972564228493,18.127409267995972
1606,A,124142830271329.0,0.9698002380322404,7.525987606504069,-1.3525076097065658,31,1970-01-02 10:29:02.830271329,0.22383118,-0.2865448,0.29600525,12.629909073206075,0.46885757706876713,-102.45760345458984,70.07660675048828,-169.3865509033203,18177763.0,50354.0,0.025522621700275444,-0.003234476273994174,-0.05912494974426441,0.0043701339133646435,0.004384660745393389,-0.0013551684776460407,18.177763271989534
1606,A,124142880625333.0,3.08378343803224,6.823274606504068,-0.8467245097065659,31,1970-01-02 10:29:02.880625333,0.032943726,-0.095321655,0.2011261,12.481062920048766,0.22499603351150904,-102.60911560058594,70.17555236816406,-169.52975463867188,18228117.0,50354.0,0.10205707621227543,-0.13219782526309418,-0.05537006707046442,0.003212074054344293,-0.0034097790557992736,-0.002882641038344428,18.228117275997647
1606,A,124142930979337.0,1.2187931380322405,7.593644606504068,-1.194563909706566,31,1970-01-02 10:29:02.930979337,0.22167969,0.34465027,-0.4754486,12.442796160544573,0.6276759233964044,-102.7633056640625,69.99893188476562,-169.68910217285156,18278471.0,50354.0,0.10832597045557543,-0.13049442497409422,-0.05139351853556442,0.0052968139659564815,-0.006613802784221693,-0.002687986794802988,18.27847127999121
1606,A,124142981333341.0,1.35377243803224,9.192338606504068,2.699570590293434,31,1970-01-02 10:29:02.981333341,0.64442444,-0.15583801,-0.07090759,11.097042209019031,0.6667804965276667,-102.70808410644531,69.99720001220703,-169.6645965576172,18328825.0,50354.0,0.06476948350857543,-0.07084850064609421,0.03789155319713559,0.004358024244455427,-0.005069210838339485,-0.00033993898132562273,18.328825283999322
1606,A,124143031687345.0,6.58575179803224,6.726899606504068,4.610886590293434,31,1970-01-02 10:29:03.031687345,-0.100357056,-0.7086792,-0.106277466,12.784968260701548,0.7235970197430391,-102.61489868164062,69.999755859375,-169.56011962890625,18379179.0,50354.0,0.19989340169139544,-0.09267053951109422,0.1840553804356356,0.006663417460679668,-0.004116918874037533,0.005587957948072281,18.379179287992883
1606,A,124143082041349.0,2.4389164380322406,5.615876606504068,1.849808690293434,31,1970-01-02 10:29:03.082041349,-0.4567566,0.115234375,-0.59358215,13.83946616329945,0.757789760833322,-102.63538360595703,69.96955871582031,-169.55758666992188,18429533.0,50354.0,0.22721407217939546,-0.1827151232850942,0.1626609250793356,0.010753284869644903,-0.006933384832219636,0.008729276423950431,18.429533292000997
1606,A,124143132395353.0,2.5184605380322402,14.238847306504068,1.0267190902934342,31,1970-01-02 10:29:03.132395353,0.08427429,0.6852417,0.456604,6.027924245776918,0.8277351969016987,-102.73664093017578,69.98430633544922,-169.66986083984375,18479887.0,50354.0,0.12481188012637544,0.006413183957805818,0.07242233993183558,0.008862957401202394,-0.00443875392644314,0.005918691363186257,18.47988729599456
1606,A,124143182749357.0,5.589902188032241,15.528810106504068,-0.9013510097065658,31,1970-01-02 10:29:03.182749357,-0.16363525,0.0597229,0.013717651,3.597127111383824,0.1747326351198605,-102.75323486328125,69.98430633544922,-169.67881774902344,18530241.0,50354.0,0.20414424835412545,0.2559911106873058,0.003156392164935587,0.008282128446753571,0.006606552926279975,0.0019028457380004078,18.53024129998812
1606,A,124143233103361.0,4.34116863803224,10.725709606504068,-0.5660848697065659,31,1970-01-02 10:29:03.233103361,-0.5237427,-0.5391388,-0.07644653,8.378994289733956,0.7555270567079454,-102.9349136352539,70.09940338134766,-169.815673828125,18580595.0,50354.0,0.25003457018782543,0.16754084281440582,-0.03694563313598442,0.011434860114430697,0.010663263993312593,-0.0008507117199280964,18.580595303996233
1606,A,124143283457364.0,2.377331838032241,7.5544446065040685,-0.3353414697065658,31,1970-01-02 10:29:03.283457364,-0.13163757,-0.3754425,-0.0022888184,11.959852663541463,0.39785771241918017,-102.81596374511719,70.09996032714844,-169.69140625,18630949.0,50354.0,0.16915168648587545,-0.03322975737909417,-0.022695210947404416,0.010553852384273768,0.0033815501980048413,-0.0015015775314874808,18.630949307000265
1606,A,124143333811368.0,2.19508083803224,8.189729606504068,-2.003874809706566,31,1970-01-02 10:29:03.333811368,-0.17341614,0.19664001,0.03427124,11.654478942410732,0.26441438886043495,-103.34883880615234,70.00514221191406,-170.1875457763672,18681303.0,50354.0,0.11511963394527544,-0.09707812583909418,-0.05889444826678442,0.007157099034495087,-0.0032807615757843287,-0.0020541828500356325,18.681303310993826
1606,A,124143384165372.0,1.3720068380322408,7.997971606504068,-2.851576809706566,31,1970-01-02 10:29:03.384165372,-0.51727295,-0.0043945313,0.20178223,12.341365506577981,0.5552537123251153,-103.3805160522461,70.0149917602539,-170.19375610351562,18731657.0,50354.0,0.08980856642027543,-0.0859114465600942,-0.12224570542196443,0.005159477300603474,-0.004607128464294366,-0.00456056564942163,18.731657314987388
1606,A,124143434519376.0,2.8307927380322404,6.883088606504069,2.0309609902934342,31,1970-01-02 10:29:03.434519376,-0.24952698,0.021224976,0.595871,12.544068982686493,0.6463562964767351,-103.41483306884766,70.04373931884766,-170.2169952392578,18782011.0,50354.0,0.10581388492657545,-0.11880874701709418,-0.020660644485364418,0.004925186457559665,-0.005154240313692872,-0.0035979531716168185,18.7820113189955
1606,A,124143484873380.0,4.7202427380322405,6.713029606504069,6.392090590293434,31,1970-01-02 10:29:03.484873380,0.49291992,-0.5302887,1.1646729,13.598231831723718,1.371363962219697,-103.356201171875,70.10650634765625,-170.18084716796875,18832365.0,50354.0,0.19011242018087546,-0.15115973175109415,0.2120671696444356,0.007450536583690291,-0.006796996389946677,0.004819042083929935,18.832365322989062
1606,A,124143535227384.0,2.69302113803224,9.426194606504069,2.0035561902934345,31,1970-01-02 10:29:03.535227384,-0.22787476,0.5067444,0.09031677,10.207140541711995,0.5629155461698055,-103.43860626220703,70.10504150390625,-170.25636291503906,18882719.0,50354.0,0.18664374460767544,-0.08713195198909415,0.21137719899483562,0.009485589960881346,-0.0059994697215267215,0.010661058869230931,18.882719326997176
1606,A,124143585581388.0,4.98754623803224,11.012651006504068,-0.2685690097065658,31,1970-01-02 10:29:03.585581388,-0.008270264,-0.13050842,-0.6068115,7.932452027998183,0.6207423309955395,-103.55840301513672,70.29309844970703,-170.3641357421875,18933073.0,50354.0,0.19337364482717545,0.021119615998705838,0.043681772245635596,0.00956769781380124,-0.0016619925832300068,0.006421619718921344,18.933073330990737
1606,A,124143635935392.0,5.78967023803224,14.236482206504068,1.3497323902934342,31,1970-01-02 10:29:03.635935392,0.37187195,-0.10522461,-0.31021118,4.697539331092009,0.4955723377504509,-103.51542663574219,70.27925872802734,-170.33819580078125,18983427.0,50354.0,0.27133797921787545,0.14222822690390582,0.027220450433035587,0.011700044558582248,0.0041126086407590546,0.0017851052603809047,18.98342733499885
1606,A,124143686289396.0,3.3444035380322403,13.88997040650407,1.0457925902934342,31,1970-01-02 10:29:03.686289396,0.607605,-0.12704468,-0.024490356,5.822087642396233,0.621227787754467,-103.46699523925781,70.27952575683594,-170.31906127929688,19033781.0,50354.0,0.22996857545997546,0.21467049743770586,0.060312132436235594,0.012621395127124253,0.008985639182748757,0.0022038078388996406,19.033781338992412
1606,A,124143736643400.0,1.6049628380322405,9.201127606504068,-0.8698111097065659,31,1970-01-02 10:29:03.736643400,0.55688477,-0.09651184,0.0014190674,10.79980956964098,0.5651877529373972,-103.46101379394531,70.08915710449219,-170.3380584716797,19084135.0,50354.0,0.12461019725017543,0.08789537467350585,0.0044306857367355824,0.008927229760523469,0.007617700962143978,0.0016300299331408954,19.084135343000526
1606,A,124143786997403.0,2.8291448380322404,8.080461106504067,-0.7588034097065659,31,1970-01-02 10:29:03.786997403,0.2612152,0.253891,0.019454956,11.350283311710296,0.3647910578742329,-103.58148956298828,70.10177612304688,-170.4678955078125,19134489.0,50354.0,0.11163752896027544,-0.058370640972594215,-0.04100362775526442,0.005948009002800522,0.0007433442203878522,-0.0009207969612005007,19.134489345990005
1606,A,124143837351407.0,1.8054783380322403,8.505143606504069,-0.9405050097065659,31,1970-01-02 10:29:03.837351407,0.30018616,0.26742554,-0.09088135,11.347074610372516,0.41217419846183934,-103.67105102539062,69.96708679199219,-170.57025146484375,19184843.0,50354.0,0.11668590770377543,-0.0758934301405942,-0.042783488075564424,0.005748499164890809,-0.003380366518416745,-0.002109508215272778,19.18484334999812
1606,A,124143887705411.0,0.3733188380322403,6.897813606504068,0.41372775029343417,31,1970-01-02 10:29:03.887705411,0.5071411,0.1979065,-0.19799805,13.339198516905837,0.579277399744943,-103.20933532714844,69.80025482177734,-170.16302490234375,19235197.0,50354.0,0.05485557650177543,-0.1056689462480942,-0.013262671060244417,0.004318899947843155,-0.004571195950338008,-0.0014110741485622593,19.23519735399168
1606,A,124143938059415.0,3.15327183803224,6.474687606504068,4.013230290293435,31,1970-01-02 10:29:03.938059415,0.50964355,-0.38964844,-0.35513306,13.248833784325514,0.7332679899981995,-103.12133026123047,69.78740692138672,-170.0963897705078,19285551.0,50354.0,0.08878897345127543,-0.1567897369600942,0.1114575225878556,0.003616538834167962,-0.0066079222671325604,0.002472251776910667,19.285551357999793
1606,A,124143988413419.0,5.73902633803224,7.247193606504068,3.136872290293434,31,1970-01-02 10:29:03.988413419,0.015594482,-0.3517456,-0.4673767,11.886654474581658,0.5851573589139064,-103.05967712402344,69.76864624023438,-170.03152465820312,19335905.0,50354.0,0.22388139117877545,-0.14799339670009423,0.1800181326714356,0.00787210177029079,-0.007673524956162565,0.007338482572463175,19.335905361993355
1606,A,124144038767423.0,3.2292912380322405,8.901322606504069,1.2691201902934341,31,1970-01-02 10:29:04.038767423,0.065826416,0.23864746,-0.02381897,10.427229294659579,0.24870277549661074,-102.45207214355469,69.85902404785156,-169.46824645996094,19386259.0,50354.0,0.22579533161257545,-0.0868980073050942,0.11092967268373559,0.011321510849717843,-0.00591386087863863,0.007325192895427145,19.386259365986916
1606,A,124144089121427.0,2.6181004380322404,12.80542160650407,0.3119821432934342,31,1970-01-02 10:29:04.089121427,0.28416443,0.2738037,0.17788696,7.088335419360282,0.43285293108509326,-102.47954559326172,69.86474609375,-169.5126495361328,19436613.0,50354.0,0.14721978022827545,0.053041499050905855,0.039807413452716586,0.009391401470817103,-0.0008524053083157,0.0037951076176574567,19.43661336999503
1606,A,124144139475431.0,4.82656603803224,13.716371106504068,-0.863875409706566,31,1970-01-02 10:29:04.139475431,-0.4031372,0.16732788,-0.08833313,5.458355008632463,0.44533241887912367,-103.17887878417969,69.86656188964844,-170.15277099609375,19486967.0,50354.0,0.18743436786787543,0.17426997513540582,-0.013895016768483419,0.008425587486616792,0.005723020985588769,0.0006523964113189385,19.48696737398859
1606,A,124144189829435.0,4.82803083803224,11.357331606504069,-0.895628909706566,31,1970-01-02 10:29:04.189829435,-0.5740051,-0.18626404,-0.083114624,7.704796527007721,0.6091667982956663,-103.65557861328125,70.0186538696289,-170.5701904296875,19537321.0,50354.0,0.24307378554867545,0.13781141320540582,-0.044299040249864426,0.010838903778568503,0.007857273114256616,-0.0014651517735509438,19.537321377996705
1606,A,124144240183439.0,2.7441228380322404,9.006715606504068,-0.5752096097065658,31,1970-01-02 10:29:04.240183439,-0.285614,-0.29859924,-0.20236206,10.492166815746405,0.46009484506134296,-103.64550018310547,69.9817886352539,-170.54153442382812,19587675.0,50354.0,0.19064411310227544,0.019236416681905823,-0.03703130140326442,0.010919715534334991,0.003953993213072845,-0.002047654011800825,19.587675381990266
1606,A,124144290537443.0,0.8568852380322403,7.408769606504068,-1.256377209706566,31,1970-01-02 10:29:04.290537443,-0.3638153,-0.33432007,0.016342163,12.77063665662068,0.49436681523987175,-103.70854949951172,69.81329345703125,-170.57815551757812,19638029.0,50354.0,0.09066258033107544,-0.0801765287920942,-0.04611386135236442,0.007082458620571476,-0.001534289202598213,-0.0020933457626984672,19.63802938599838
1606,A,124144340891446.0,1.3926365380322405,6.424836606504067,-2.168929109706566,31,1970-01-02 10:29:04.340891446,-0.83695984,0.2355957,0.10928345,13.586296224031015,0.8763275529590623,-104.17411804199219,69.72222900390625,-170.98011779785156,19688383.0,50354.0,0.056636209755975435,-0.14518049637509423,-0.08623893720386443,0.0037085416380216803,-0.005673813822634303,-0.0033322464092501738,19.68838338898786
1606,A,124144391245450.0,4.34595983803224,5.657334606504069,3.370575890293434,31,1970-01-02 10:29:04.391245450,-0.18962097,-0.2724762,0.39671326,13.62710973375558,0.5172821304568799,-104.1609878540039,69.74479675292969,-170.9560089111328,19738737.0,50354.0,0.14448064096017543,-0.1892763753700942,0.030253860994835582,0.005063518950480531,-0.00842062065992861,-0.0014095362637147192,19.738737392995972
1606,A,124144441599454.0,4.47388963803224,8.531632606504068,4.857422590293434,31,1970-01-02 10:29:04.441599454,0.31471252,0.08744812,0.80130005,11.361383840867697,0.865316655373215,-104.183349609375,69.78257751464844,-170.99661254882812,19789091.0,50354.0,0.22205735025887544,-0.13623357247809417,0.20715631774573562,0.009228327004922043,-0.00819536395697384,0.005977276070151361,19.789091396989534
1606,A,124144491953458.0,2.9889805380322403,9.650895606504069,1.3785867902934341,31,1970-01-02 10:29:04.491953458,-0.16329956,0.23361206,-0.0362854,9.811489792189173,0.2873290293840795,-104.22106170654297,69.7779541015625,-171.02810668945312,19839445.0,50354.0,0.18789268242277546,-0.03568768718109418,0.15700400817503557,0.010321311972825924,-0.0043284615544393855,0.009168464525707257,19.839445400997647
1606,A,124144542307462.0,3.7396978380322405,10.554139606504068,0.4967813402934342,31,1970-01-02 10:29:04.542307462,-0.1388855,0.060821533,-0.5019684,8.65996701448398,0.5243669665275265,-103.84673309326172,69.82485961914062,-170.66915893554688,19889799.0,50354.0,0.16940793547417546,0.015232971557905808,0.047216143423785585,0.008995757656791533,-0.0005149883752450135,0.00514165075680352,19.88979940499121
1606,A,124144592661466.0,5.52709703803224,13.904695106504068,1.1168527502934342,31,1970-01-02 10:29:04.592661466,0.07521057,0.20840454,-0.036834717,5.019634632976823,0.22460159952414985,-103.86930847167969,69.8205795288086,-170.69720458984375,19940153.0,50354.0,0.23331009459467544,0.1223308815694058,0.04062646549870559,0.010139231843043458,0.0034634451301863247,0.0022116133648415605,19.940153408999322
1606,A,124144643015470.0,3.8558018380322405,12.768891906504068,-0.2953024097065658,31,1970-01-02 10:29:04.643015470,0.4551239,0.12432861,0.107559204,6.576579301680585,0.4839053109657464,-103.8889389038086,69.73505401611328,-170.7395477294922,19990507.0,50354.0,0.23623324500267545,0.17809170022650578,0.02068417292495559,0.011821692661042504,0.0075637393418756665,0.0015436179435925174,19.990507412992883
1606,A,124144693369474.0,2.1751683380322406,9.351060606504069,-1.0316763097065658,31,1970-01-02 10:29:04.693369474,0.5310211,0.02116394,-0.001373291,10.442602061558693,0.5314444532871749,-104.00157165527344,69.60957336425781,-170.87037658691406,20040861.0,50354.0,0.15184173612277546,0.06344484442000584,-0.033409343218664414,0.009770563799795478,0.006081165584565223,-0.0003203816124847071,20.040861417000997
1606,A,124144743723478.0,1.9394808380322406,8.510545606504069,-0.937178609706566,31,1970-01-02 10:29:04.743723478,0.35421753,0.2195282,0.1756897,11.287952914062258,0.45224944426790725,-104.08659362792969,69.51514434814453,-170.97109985351562,20091215.0,50354.0,0.10359452230577545,-0.043767540375094165,-0.04956986030606442,0.006431118678455626,0.0004954154839387412,-0.002089167407142098,20.09121542099456
1606,A,124144794077482.0,1.3641331380322406,8.334977606504069,-1.249510809706566,31,1970-01-02 10:29:04.794077482,0.3429718,0.2807312,-0.11412048,11.724322026111336,0.4576714391395976,-104.2214126586914,69.34674072265625,-171.11767578125,20141569.0,50354.0,0.08317508907537545,-0.06934946206609416,-0.05505427951256443,0.004702298505743236,-0.0028479467704617986,-0.0026341219682136188,20.14156942498812
1606,A,124144844431486.0,-0.5049771619677594,7.0827656065040685,-0.012648589706565794,31,1970-01-02 10:29:04.844431486,0.19075012,0.07672119,-0.4042511,13.605476833006076,0.4535313673013593,-104.20854949951172,69.32618713378906,-171.1141357421875,20191923.0,50354.0,0.021630970009375444,-0.10529667912609418,-0.03177738719902442,0.0026387021495767734,-0.004397065896795727,-0.0021861608727976726,20.191923428996233
1606,A,124144894785489.0,3.2507298380322402,7.426057606504068,5.640839590293434,31,1970-01-02 10:29:04.894785489,-0.017471313,-1.0500793,-0.47647095,12.91798220876937,1.1532546766696141,-104.05913543701172,69.31591796875,-170.9534912109375,20242277.0,50354.0,0.06912981512527544,-0.12818055796609418,0.1417009648217756,0.0022850842873351055,-0.005878256398270027,0.0027675459138080064,20.242277432000265
1606,A,124144945139493.0,6.139905238032241,7.150102606504069,2.9267435902934342,31,1970-01-02 10:29:04.945139493,-0.41093445,0.0054626465,-0.112213135,11.918138873001226,0.4260149649602871,-104.07677459716797,69.31040954589844,-170.95037841796875,20292631.0,50354.0,0.23642801931007545,-0.12648521431709417,0.2157060417376356,0.00769302959757883,-0.006411720148773833,0.008998436204146297,20.292631435993826
1606,A,124144995493497.0,2.3690768380322407,9.555711606504069,1.081955890293434,31,1970-01-02 10:29:04.995493497,0.1347351,0.1799469,0.18737793,10.106562567623776,0.2926515379127622,-103.42961883544922,69.28043365478516,-170.35520935058594,20342985.0,50354.0,0.21423064172907544,-0.07286691555909416,0.10092702682273558,0.011346233108982702,-0.005019088573892794,0.007971870767144467,20.342985439987388
1606,A,124145045847501.0,2.3813908380322406,13.153581206504068,0.07383822029343418,31,1970-01-02 10:29:05.045847501,-0.12251282,0.28253174,0.13465881,6.938400986323259,0.3361049988952799,-103.4762191772461,69.28370666503906,-170.3984832763672,20393339.0,50354.0,0.11960252468027545,0.07828266515310583,0.029099428322245584,0.008404917630688229,0.00013635232752843185,0.0032736760611851907,20.3933394439955
1606,A,124145096201505.0,6.54847457803224,13.460801606504068,-0.7207632097065659,31,1970-01-02 10:29:05.096201505,-0.7416992,0.21878052,0.25202942,5.440535411021675,0.813327392725492,-103.5492172241211,69.29338836669922,-170.4368896484375,20443693.0,50354.0,0.22482722158025542,0.17660111608310586,-0.016287630458454418,0.008671707721601385,0.006417208960184102,0.00032256263481667024,20.443693447989062
1606,A,124145146555509.0,4.533017438032241,10.569749606504068,-1.7949514097065657,31,1970-01-02 10:29:05.146555509,-0.0987854,-0.2624359,-0.035339355,8.706778301265398,0.28263054837328894,-103.51932525634766,69.29474639892578,-170.39964294433594,20494047.0,50354.0,0.2789987244884554,0.11154798788990582,-0.06333814697296442,0.012684825844171936,0.007254729990728515,-0.002004738198390832,20.494047451997176
1606,A,124145196909513.0,0.9248328380322404,7.981324606504069,-0.24687100970656578,31,1970-01-02 10:29:05.196909513,-0.31500244,-0.16835022,-0.22431946,12.139250931355672,0.42176717975050354,-103.28131103515625,69.13086700439453,-170.15858459472656,20544401.0,50354.0,0.13741229640047545,-0.026408804539094166,-0.05140696305356442,0.010483980272920614,0.002143549219223385,-0.0028889376351379165,20.544401455990737
1606,A,124145247263517.0,1.66291553803224,7.701280606504069,-2.0421744097065657,31,1970-01-02 10:29:05.247263517,-0.66493225,-0.21826172,0.2149353,12.30371717693689,0.7320998966626828,-103.70308685302734,69.03929138183594,-170.51856994628906,20594755.0,50354.0,0.06515174086417543,-0.09862824855209415,-0.05763129652456442,0.005099954766212116,-0.0031480578856768484,-0.0027452562613985497,20.59475545999885
1606,A,124145297617521.0,3.0173008380322406,6.252259606504069,-3.206084309706566,31,1970-01-02 10:29:05.297617521,-0.9734192,0.8556824,0.16430664,13.473828019526893,1.3064202924581696,-103.86529541015625,69.03705596923828,-170.64019775390625,20645109.0,50354.0,0.11783380770017543,-0.14216091805709416,-0.13213540977866442,0.004607027156204662,-0.006062348847719535,-0.004777756364596392,20.645109463992412
1606,A,124145347971525.0,4.312405838032241,6.187409606504069,5.565216990293434,31,1970-01-02 10:29:05.347971525,0.577713,-1.0256805,0.5486145,13.790068334569266,1.298749655653275,-103.72339630126953,69.07594299316406,-170.51914978027344,20695463.0,50354.0,0.18454002498327546,-0.18027564822409417,0.05939588349913559,0.007612865985471243,-0.008117985429261478,-0.0018313630531396974,20.695463468000526
1606,A,124145398325528.0,1.89033253803224,7.173432606504068,3.766205790293434,31,1970-01-02 10:29:05.398325528,0.14164734,0.4520111,1.0659332,12.919672726146771,1.1664439936467268,-103.8070068359375,69.12232971191406,-170.61622619628906,20745817.0,50354.0,0.15616634409417546,-0.15708327560309418,0.23493723134683558,0.008577964254262981,-0.008493685625197122,0.007410424832477017,20.745817470990005
1606,A,124145448679532.0,3.9116795380322404,8.831132606504069,0.6972055302934341,31,1970-01-02 10:29:05.448679532,-0.54763794,0.3536682,-0.6906738,10.2730938462794,0.949746706772455,-103.49884796142578,69.27189636230469,-170.3057861328125,20796171.0,50354.0,0.14607725803907542,-0.09052226163209418,0.11237530681841558,0.0076095871709088575,-0.0062339646109703375,0.008744287773386528,20.79617147499812
1606,A,124145499033536.0,5.01705673803224,11.638627606504068,0.12414645029343419,31,1970-01-02 10:29:05.499033536,-0.20753479,0.020889282,-0.71191406,7.2901580442957306,0.7418414116160564,-103.44284057617188,69.47306060791016,-170.24105834960938,20846525.0,50354.0,0.22479879322247542,0.021897952882905816,0.020679178815235583,0.009337546342612068,-0.0017277542213783154,0.0033499127847984355,20.84652547899168
1606,A,124145549387540.0,5.9887974580322405,15.661561606504069,1.0919503902934342,31,1970-01-02 10:29:05.549387540,0.20884705,0.45968628,0.060333252,3.236787336685768,0.508496477481247,-103.49398040771484,69.47064971923828,-170.3068084716797,20896879.0,50354.0,0.27709439109431544,0.19386766381590578,0.03061767015545559,0.012636164701543844,0.00543233093162598,0.0012915007665350918,20.896879482999793
1606,A,124145599741544.0,1.9912083380322407,12.258668606504068,-1.194579109706566,31,1970-01-02 10:29:05.599741544,0.7566681,-0.010650635,-0.039031982,8.043740820552609,0.7577489988131699,-103.45354461669922,69.46885681152344,-170.3040313720703,20947233.0,50354.0,0.20091260592751545,0.2094784360729058,-0.002583883268664416,0.012034782164018638,0.01015504475690061,0.0007058066524487414,20.947233486993355
1606,A,124145650095548.0,1.4807255380322406,7.921617106504069,-1.1660299097065658,31,1970-01-02 10:29:05.650095548,0.3738098,-0.24595642,0.010375977,12.035091754330642,0.44758908388605834,-103.5213394165039,69.35057067871094,-170.38087463378906,20997587.0,50354.0,0.08741287919767546,0.014609853396405841,-0.059433053281764424,0.007259170738996932,0.005641870863968859,-0.001561400411530147,20.997587490986916
1606,A,124145700449552.0,2.5010198380322404,8.118028606504069,-0.14155483970656585,31,1970-01-02 10:29:05.700449552,0.33422852,0.34707642,0.24028015,11.378540937082832,0.5384285425062728,-103.40886688232422,69.36894989013672,-170.29818725585938,21047941.0,50354.0,0.10024840333317545,-0.08963903988359415,-0.032921061235974415,0.004724748110279234,-0.00188900982818794,-0.002325199541213111,21.04794149499503
1606,A,124145750803556.0,1.42941023803224,8.935502606504068,-2.5124502097065657,31,1970-01-02 10:29:05.750803556,0.57406616,0.37139893,-0.20135498,11.415184692751037,0.7127643013178275,-103.42192077636719,69.35485076904297,-170.34280395507812,21098295.0,50354.0,0.09895643802507542,-0.06411244465009418,-0.06681988512907441,0.005015380290876682,-0.0038710011261046708,-0.002511177806632834,21.09829549898859
1606,A,124145801157560.0,-0.1963526619677598,8.499925606504068,-0.4199514497065658,31,1970-01-02 10:29:05.801157560,0.39544678,0.29396057,-0.5794678,12.257350337084382,0.7606404563024065,-103.42223358154297,69.32324981689453,-170.36427307128906,21148649.0,50354.0,0.03104469059257542,-0.054497423881094215,-0.07382907657904442,0.0032730384152065955,-0.0029862406600097303,-0.003541118908925308,21.148649502996705
1606,A,124145851511564.0,4.6660588380322405,9.377671606504068,4.496170990293434,31,1970-01-02 10:29:05.851511564,0.54663086,-1.1193085,0.0501709,10.422213918102534,1.2466651252374872,-103.25210571289062,69.33861541748047,-170.21165466308594,21199003.0,50354.0,0.11253379239477544,-0.04336493496809422,0.1026269793733556,0.0036148754661725333,-0.002463880608746017,0.0007250447986523727,21.199003506990266
1606,A,124145901865568.0,6.07504013803224,2.633562606504068,1.3730935902934343,31,1970-01-02 10:29:05.901865568,-0.29844666,-0.085998535,-0.7988739,16.189319059898125,0.857126399656732,-103.2317123413086,69.30072021484375,-170.17388916015625,21249357.0,50354.0,0.2704286489203755,-0.19106235621909423,0.1477704743454356,0.009641845384991556,-0.005902175910219844,0.006304256692278006,21.24935751099838
1606,A,124145952219571.0,1.15253953803224,9.818147606504068,2.536225290293434,31,1970-01-02 10:29:05.952219571,-0.07476807,0.58747864,0.3413086,10.624096026868807,0.6835297924609685,-103.32150268554688,69.31058502197266,-170.26588439941406,21299711.0,50354.0,0.18196877350427543,-0.17997249196709422,0.09842492145653559,0.011390009904385438,-0.009341544372783669,0.006198461480106229,21.29971151398786
1606,A,124146002573575.0,3.5497715380322403,16.668077006504067,-0.5260000097065658,31,1970-01-02 10:29:06.002573575,0.016036987,-0.09805298,0.29730225,3.6793031129414997,0.3134648300750517,-103.317138671875,69.32618713378906,-170.26206970214844,21350065.0,50354.0,0.11839008596207544,0.17337447708170584,0.05061144188933559,0.007562135004784316,-0.00016611822076942342,0.0037522885199589985,21.350065517995972
1606,A,124146052927579.0,5.11068463803224,11.67476060650407,-2.158690409706566,31,1970-01-02 10:29:06.052927579,-0.41192627,-0.4727173,0.08268738,7.663628381650407,0.6324413810359559,-103.27926635742188,69.33560943603516,-170.1995849609375,21400419.0,50354.0,0.21804430514477544,0.2201184225827058,-0.06759245068956442,0.008470408664897185,0.009906970734850893,-0.0004275308585633612,21.400419521989534
1606,A,124146103281583.0,5.26632433803224,8.108705106504068,-0.2378988097065658,31,1970-01-02 10:29:06.103281583,-0.5058899,-0.527298,0.056549072,10.75911822440477,0.7329157995773261,-103.23825073242188,69.34444427490234,-170.1287078857422,21450773.0,50354.0,0.26126195499037547,0.004619116256405842,-0.060338926777164424,0.012067493711422694,0.005658217015352314,-0.003220928290479832,21.450773525997647
1606,A,124146153635587.0,2.2567265380322405,8.673493606504069,-1.2077017097065659,31,1970-01-02 10:29:06.153635587,-0.020309448,0.16584778,-0.3896942,11.051530939706117,0.424004161916641,-103.4635009765625,69.25057983398438,-170.33975219726562,21501127.0,50354.0,0.18940785190667545,-0.07094378300259417,-0.036395884277264416,0.011346513728247052,-0.0016698561346687834,-0.002435492337917355,21.50112752999121
1606,A,124146203989591.0,1.30164843803224,8.510423606504068,-2.776137409706566,31,1970-01-02 10:29:06.203989591,-0.126297,0.12054443,-0.10673523,11.905747845121791,0.20463211169358975,-103.48199462890625,69.24397277832031,-170.352783203125,21551481.0,50354.0,0.08958920677237543,-0.06082971632809418,-0.10030111750946442,0.007024308946362465,-0.0033176613926487407,-0.003441620413984472,21.551481533999322
1606,A,124146254343595.0,2.062558438032241,5.325898606504069,-0.5772238097065658,31,1970-01-02 10:29:06.254343595,-0.60058594,0.036758423,0.22094727,14.181692583583686,0.6409932519984773,-103.49787139892578,69.31517028808594,-170.341064453125,21601835.0,50354.0,0.08470063651867543,-0.1451121156430942,-0.08442757542116443,0.004388095384538788,-0.00518499750353861,-0.004650914301914443,21.601835537992883
1606,A,124146304697599.0,4.053967838032241,6.699449106504069,6.052079190293434,31,1970-01-02 10:29:06.304697599,0.16929626,-0.2605133,0.4900818,13.563580885196881,0.5802659509381173,-103.47095489501953,69.34200286865234,-170.3213653564453,21652189.0,50354.0,0.15399578205247547,-0.19070702062959416,0.1378404339170356,0.006009659730365866,-0.008454918393937475,0.0013447755383505485,21.652189542000997
1606,A,124146355051603.0,3.7571690380322402,9.820146606504068,2.4095468902934343,31,1970-01-02 10:29:06.355051603,0.084869385,0.37983704,0.5595398,9.573667959792253,0.6815891557604771,-103.53306579589844,69.36479187011719,-170.39227294921875,21702543.0,50354.0,0.19666099312867544,-0.07755533873359419,0.21303835983093558,0.008828485628735836,-0.006754041421686992,0.00883407539019267,21.70254354599456
1606,A,124146405405607.0,3.0896428380322405,10.41920660650407,0.6093606902934342,31,1970-01-02 10:29:06.405405607,-0.05870056,-0.09963989,-0.23110962,9.010060986116075,0.2584289455151456,-103.06182098388672,69.34959411621094,-169.9458770751953,21752897.0,50354.0,0.17238218260367544,0.016096995843905827,0.07600703615643559,0.0092914000354134,-0.001547336698933684,0.007277295934774044,21.75289754998812
1606,A,124146455759611.0,4.576550738032241,11.838899206504069,0.9653482302934342,31,1970-01-02 10:29:06.455759611,0.104278564,-0.114089966,-0.081848145,7.213754524234903,0.17489899397001768,-103.03939819335938,69.3469009399414,-169.927490234375,21803251.0,50354.0,0.19301175566457546,0.06692313005410586,0.03964644649361559,0.009199523183779753,0.0020901977097342404,0.002911807732680339,21.803251553996233
1606,A,124146506113614.0,4.767392438032241,13.601350606504068,0.9586343902934342,31,1970-01-02 10:29:06.506113614,0.31976318,0.15592957,0.1353302,5.474815786279973,0.38062683183945045,-103.0476303100586,69.35174560546875,-169.953369140625,21853605.0,50354.0,0.23525245734377548,0.14703996954210583,0.048440110438515586,0.010782408090911253,0.005386948958533822,0.0022177552438802667,21.853605557000265
1606,A,124146556467618.0,1.8960848380322401,10.797853006504068,-0.6448355097065659,31,1970-01-02 10:29:06.556467618,0.63391113,0.07649231,-0.04637146,9.238058130025507,0.6401911484311108,-103.01226806640625,69.11284637451172,-169.95111083984375,21903959.0,50354.0,0.16776636737947545,0.12082954936470583,0.007900514416535585,0.010146804950057289,0.006744150877516797,0.0014184879119756235,21.903959560993826
1606,A,124146606821622.0,1.49715923803224,9.045777606504068,-0.5974569397065659,31,1970-01-02 10:29:06.606821622,0.27394104,0.050247192,0.17602539,10.958318043412195,0.32947444760530153,-102.95142364501953,68.96255493164062,-169.90866088867188,21954313.0,50354.0,0.08543170610307542,0.006133887943705802,-0.03127719699887442,0.006374767896070183,0.00319655846111388,-0.0005885547373755449,21.954313564987388
1606,A,124146657175626.0,2.5409062380322402,8.468980606504068,-0.649596209706566,31,1970-01-02 10:29:06.657175626,0.3486023,0.21871948,0.2538452,11.071413856185487,0.48352782759609647,-103.01554107666016,68.9676742553711,-169.9896240234375,22004667.0,50354.0,0.10166637449087541,-0.052500132471094196,-0.03139705714277442,0.0047105683751139,-0.0011673629384660578,-0.001577949696524293,22.0046675689955
1606,A,124146707529630.0,0.6628544380322401,7.660478606504068,-1.440230409706566,31,1970-01-02 10:29:06.707529630,0.37431335,0.43385315,-0.34846497,12.659116746345513,0.6706466096762481,-103.18856811523438,68.76216125488281,-170.17465209960938,22055021.0,50354.0,0.08066108254127542,-0.08737780539409419,-0.05261556479696442,0.004590458385698462,-0.003521706841631848,-0.0021151857825768053,22.055021572989062
1606,A,124146757883634.0,1.4306308380322408,8.637208606504068,1.791642190293434,31,1970-01-02 10:29:06.757883634,0.25653076,0.05418396,-0.46180725,11.398952176162842,0.5310460135431032,-103.16900634765625,68.73907470703125,-170.16741943359375,22105375.0,50354.0,0.052707678795475436,-0.08314232903809421,0.00884749439983558,0.0033578253041753763,-0.004293185424599207,-0.001101948708388513,22.105375576997176
1606,A,124146808237638.0,5.608838338032241,7.860261606504068,3.6124886902934343,31,1970-01-02 10:29:06.808237638,0.040130615,-0.40834045,-0.35205078,11.426514113406803,0.5406404915145453,-103.10564422607422,68.72657775878906,-170.1015625,22155729.0,50354.0,0.17723271544577546,-0.07811239244709421,0.1360598031805356,0.005789209305811974,-0.0040599101228325895,0.0036483310311810056,22.155729580990737
1606,A,124146858591642.0,4.04958843803224,6.777726606504068,2.223069190293434,31,1970-01-02 10:29:06.858591642,-0.20770264,-0.16700745,-0.28633118,12.3808911428289,0.3911744107922507,-103.0867919921875,68.71450805664062,-170.07020568847656,22206083.0,50354.0,0.24317021094097543,-0.12492857076109422,0.1469218407595356,0.010584484477639228,-0.00511196233069256,0.007124628849479173,22.20608358499885
1606,A,124146908945646.0,2.1140416380322407,11.111955206504067,1.1064157402934343,31,1970-01-02 10:29:06.908945646,-0.11854553,-0.022369385,0.18617249,8.83140729022301,0.22184144811342002,-103.0953598022461,68.7238540649414,-170.07302856445312,22256437.0,50354.0,0.15518171442507545,-0.04306068099389422,0.08382644209738559,0.010029306424941065,-0.004229465391435344,0.0058095495174887045,22.256437588992412
1606,A,124146959299650.0,4.653180438032241,14.450273106504067,-0.7106466097065658,31,1970-01-02 10:29:06.959299650,-0.4440918,-0.04423523,0.17025757,4.807670403446939,0.47766298008396857,-103.65458679199219,68.65508270263672,-170.5732421875,22306791.0,50354.0,0.17037835020907546,0.15011102223660577,0.009964279400785588,0.008196625747294017,0.002695206441467749,0.0023613689951594557,22.306791593000526
1606,A,124147009653653.0,5.384503638032241,12.000062606504068,-0.8339529097065659,31,1970-01-02 10:29:07.009653653,-0.5657959,-0.40911865,0.14970398,6.9721667321340135,0.7140828746458445,-103.63651275634766,68.66718292236328,-170.52346801757812,22357145.0,50354.0,0.25271877198307546,0.17247090224640574,-0.03888838210026442,0.010652316245431784,0.00812164511270878,-0.0007282221336647786,22.357145595990005
1606,A,124147060007657.0,3.4124730380322403,8.474351606504069,-0.9288015097065658,31,1970-01-02 10:29:07.060007657,-0.31752014,-0.36450195,0.0032043457,10.82197926198198,0.48341594790696263,-103.81077575683594,68.77008056640625,-170.66464233398438,22407499.0,50354.0,0.22148148177327548,0.022015126640905824,-0.04438086801756442,0.011938939788823648,0.004896574749295843,-0.002096469910216577,22.40749959999812
1606,A,124147110361661.0,1.63088733803224,8.470231606504068,-0.9255667097065658,31,1970-01-02 10:29:07.110361661,-0.26771545,-0.111312866,-0.175354,11.448913398128512,0.3388379282516001,-103.84601593017578,68.65196228027344,-170.68226623535156,22457853.0,50354.0,0.12697668418817543,-0.06685542844609417,-0.04668742866016442,0.00877313124441145,-0.001128944278549227,-0.002292826505455179,22.45785360399168
1606,A,124147160715665.0,1.6538365380322402,6.866349606504068,-2.508101409706566,31,1970-01-02 10:29:07.160715665,-0.6058655,0.03907776,0.07040405,13.158568505273221,0.6111929365374489,-104.37773895263672,68.5875473022461,-171.1501922607422,22508207.0,50354.0,0.08269949302767542,-0.1073400948000942,-0.08644946224246443,0.005279017113763477,-0.004385720688769285,-0.0033519875022554866,22.508207607999793
1606,A,124147211069669.0,3.1934941380322406,5.293855606504069,1.6197061902934342,31,1970-01-02 10:29:07.211069669,-0.5275116,0.039093018,0.22485352,13.93037622970896,0.5747659155232665,-104.41606903076172,68.59793853759766,-171.1630401611328,22558561.0,50354.0,0.12204124443127543,-0.18731171335209418,-0.022367126439164418,0.005154757547004006,-0.007418448573847648,-0.0027396752532373695,22.558561611993355
1606,A,124147261423673.0,4.880566838032241,7.728578606504069,4.8722390902934345,31,1970-01-02 10:29:07.261423673,0.028167725,0.099609375,0.6550751,12.038107120189505,0.6632034642246498,-104.44784545898438,68.62846374511719,-171.1986541748047,22608915.0,50354.0,0.20328063319437548,-0.16560337381909415,0.1634477063293356,0.008190628912981014,-0.00888534314970901,0.0035519857598948403,22.608915615986916
1606,A,124147311777677.0,3.1911290380322406,10.095124606504069,2.414582290293434,31,1970-01-02 10:29:07.311777677,-0.19680786,0.20957947,0.27119446,9.494872001968428,0.39522566103171,-104.49227142333984,68.63894653320312,-171.23580932617188,22659269.0,50354.0,0.20322108707167547,-0.04472182420609416,0.1834603018990356,0.010234493811138364,-0.005295357510680166,0.008734102923165702,22.65926961999503
1606,A,124147362131681.0,3.27325183803224,9.263215606504069,0.6938638602934342,31,1970-01-02 10:29:07.362131681,-0.079452515,-0.15127563,-0.28840637,10.03618409780418,0.3352241826424505,-104.03685760498047,68.7272720336914,-170.80386352539062,22709623.0,50354.0,0.16275371731667543,-0.00608426845709416,0.07826134873332559,0.00921414765008551,-0.0012791449949810924,0.006589365997970958,22.70962362398859
1606,A,124147412485685.0,6.05752303803224,12.277680906504068,0.8023538502934342,31,1970-01-02 10:29:07.412485685,0.07141113,0.089416504,-0.17198181,6.53475157801973,0.20657348243744894,-104.0390625,68.71784210205078,-170.81007385253906,22759977.0,50354.0,0.23492091905467546,0.048865951508005843,0.03767027329944559,0.010012254319921502,0.0010771144341728035,0.0029188104479190803,22.759977627996705
1606,A,124147462839689.0,4.042294838032241,13.95277560650407,0.16496371029343418,31,1970-01-02 10:29:07.462839689,0.4942932,0.039245605,-0.18373108,5.392069978432822,0.5287940003782403,-103.74191284179688,68.59122467041016,-170.55621337890625,22810331.0,50354.0,0.25428311466567544,0.1669350036280059,0.024354154222895587,0.012316689956977276,0.005433220647459368,0.001561589011729984,22.810331631990266
1606,A,124147513193693.0,0.9892094380322405,10.309037606504068,-0.4188833097065658,31,1970-01-02 10:29:07.513193693,0.7979889,-0.13180542,-0.063812256,10.099913995973706,0.8113143393780218,-103.68374633789062,68.58966827392578,-170.53660583496094,22860685.0,50354.0,0.12667818315847545,0.11737047126390585,-0.006392933754424414,0.009591462595318647,0.0071579589413536615,0.0004522096477346987,22.86068563599838
1606,A,124147563547696.0,2.46574143803224,8.209138606504068,-1.022215809706566,31,1970-01-02 10:29:07.563547696,0.31944275,0.13572693,0.37524414,11.379679935226594,0.5111493271629407,-103.84149932861328,68.60353088378906,-170.70236206054688,22911039.0,50354.0,0.08698529820667543,-0.027237077485094196,-0.03628255252946442,0.005379405470330404,0.002269288455169141,-0.0010744407181694693,22.91103963898786
1606,A,124147613901700.0,2.7169621380322404,8.388154606504068,-0.748930909706566,31,1970-01-02 10:29:07.613901700,0.42692566,0.18106079,-0.029205322,11.09638532574726,0.4646519984622721,-103.91435241699219,68.62540435791016,-170.7931671142578,22961393.0,50354.0,0.13048492793457545,-0.0755991487760942,-0.04459216095466442,0.005475247883558274,-0.00258910766857794,-0.0020361826613899117,22.961393642995972
1606,A,124147664255704.0,-0.17956816196775982,8.184251606504068,-1.587706609706566,31,1970-01-02 10:29:07.664255704,0.31471252,0.669754,-0.64974976,12.642585064837526,0.984778727116304,-103.96160888671875,68.5858154296875,-170.86080932617188,23011747.0,50354.0,0.06388396813537543,-0.07622572877509419,-0.05882952282626442,0.0048936256963531535,-0.0038224949421062707,-0.0026038477325524456,23.011747646989534
1606,A,124147714609708.0,2.6367924380322405,9.499772606504068,3.4700784902934343,31,1970-01-02 10:29:07.714609708,0.70150757,-0.0084991455,0.00831604,10.495936097098932,0.7016083400037493,-103.9257583618164,68.58633422851562,-170.85995483398438,23062101.0,50354.0,0.061865535598475435,-0.048238522389094186,0.047392476837535585,0.003165995255507163,-0.003133636451560771,-0.0002879505068582259,23.062101650997647
1606,A,124147764963712.0,8.82703903803224,5.694016606504068,2.5813149902934343,31,1970-01-02 10:29:07.764963712,0.4835968,-0.2933197,-0.51164246,13.495674433152514,0.7626796957132015,-103.8496322631836,68.56499481201172,-170.80416870117188,23112455.0,50354.0,0.2886248850728755,-0.1109351689840942,0.1523559336607356,0.008824297321242604,-0.004007516027702764,0.005029065731114974,23.11245565499121
1606,A,124147815317716.0,1.4456608380322402,5.702210606504067,2.2303170902934344,31,1970-01-02 10:29:07.815317716,0.10469055,0.14878845,-0.35443115,14.121751968199105,0.39839622764658233,-103.85199737548828,68.54601287841797,-170.8123321533203,23162809.0,50354.0,0.2586357647796754,-0.20654638745809423,0.1211424608929356,0.013778381381337676,-0.00799323314654498,0.00688586907967778,23.162809658999322
1606,A,124147865671720.0,2.05738583803224,13.667115606504069,0.2716379042934342,31,1970-01-02 10:29:07.865671720,0.14071655,0.23594666,0.19535828,6.727497168248621,0.33710062499736854,-103.88008117675781,68.55268096923828,-170.8500518798828,23213163.0,50354.0,0.08819620616327542,-0.005807673935094184,0.06299172089871359,0.008732188532430673,-0.005346438203696305,0.004635946294968352,23.213163662992883
1606,A,124147916025724.0,5.121197938032241,14.715242006504068,-1.5594015097065659,31,1970-01-02 10:29:07.916025724,-0.45307922,0.2479248,-0.015609741,4.691871183979328,0.5167118636773647,-103.93286895751953,68.5489273071289,-170.88246154785156,23263517.0,50354.0,0.18073520372997545,0.2211134176227058,-0.032422024293486416,0.006770886106882377,0.005420752708822999,0.0007696532514298046,23.263517667000997
1606,A,124147966379728.0,4.5026066380322405,11.392961106504067,-1.517638209706566,31,1970-01-02 10:29:07.966379728,-0.5329132,-0.7497711,0.14512634,7.870428632108516,0.9312437037055583,-103.87133026123047,68.56499481201172,-170.78768920898438,23313871.0,50354.0,0.24229852781157546,0.16385702977620575,-0.07747062901566443,0.010650720259021628,0.009692400954162397,-0.0027667673323644912,23.31387167099456
1606,A,124148016733732.0,2.89715313803224,9.012696606504068,-0.9444723097065659,31,1970-01-02 10:29:08.016733732,-0.5534973,-0.31396484,0.07696533,10.474016488300794,0.6409811572000572,-104.02586364746094,68.58552551269531,-170.9005584716797,23364225.0,50354.0,0.18630375188197543,0.0202840442404058,-0.06198855654726443,0.010790919595844531,0.00463611982051623,-0.00351116391491786,23.36422567498812
1606,A,124148067087736.0,2.7254308380322403,9.018006606504068,-0.9064627097065658,31,1970-01-02 10:29:08.067087736,-0.29353333,-0.3199005,-0.22688293,10.523372419676399,0.4898714215450048,-104.12347412109375,68.57052612304688,-170.97109985351562,23414579.0,50354.0,0.14155979676537545,-0.03951018520609419,-0.04660099098376442,0.008254620564294353,-0.0004840565510931365,-0.0027339590381887133,23.414579678996233
1606,A,124148117441739.0,1.23048143803224,5.804383606504068,-3.544966709706566,31,1970-01-02 10:29:08.117441739,-0.6850586,0.13493347,0.14926147,14.521143439603993,0.7139967179103569,-104.17906188964844,68.57613372802734,-170.99398803710938,23464933.0,50354.0,0.09959800337447543,-0.1202858816070942,-0.11207363849256442,0.0060716299341210265,-0.004023185574155644,-0.003994951146325532,23.464933682000265
1606,A,124148167795743.0,4.16030623803224,2.9693771065040675,5.8443915902934345,31,1970-01-02 10:29:08.167795743,-0.32731628,-0.10787964,0.45210266,16.88971779565837,0.5684811158329216,-104.19622802734375,68.59938049316406,-170.99485778808594,23515287.0,50354.0,0.13572386132027542,-0.27257222652859425,0.05789262021853559,0.005924698587419743,-0.009890988588532228,-0.001364115497085224,23.515287685993826
1606,A,124148218149747.0,4.68037153803224,9.170442606504068,3.5794534902934343,31,1970-01-02 10:29:08.218149747,0.02142334,0.34747314,0.7055359,10.285874991823773,0.7867511987324997,-104.26029205322266,68.62930297851562,-171.06480407714844,23565641.0,50354.0,0.22258174436797545,-0.1878249590855942,0.2372641475939356,0.009021060234413092,-0.011591419942208425,0.0074311619432145875,23.565641689987388
1606,A,124148268503751.0,2.8377659380322404,8.975358606504068,1.406723990293434,31,1970-01-02 10:29:08.268503751,-0.3549347,0.037887573,-0.1572113,10.49688222266145,0.390037821627096,-104.27778625488281,68.62122344970703,-171.06454467773438,23615995.0,50354.0,0.18928414723487544,-0.03661236286009419,0.1255369904287356,0.010369547552884979,-0.005650658454626598,0.009134244251996795,23.6159956939955
1606,A,124148318857755.0,4.963727238032241,9.249238606504068,1.2668924202934342,31,1970-01-02 10:29:08.318857755,0.10887146,-0.027160645,-0.20710754,9.69066584701221,0.23555090440114898,-104.262451171875,68.61148834228516,-171.05393981933594,23666349.0,50354.0,0.19641819369377544,-0.03462851596809418,0.06731364036934559,0.009710827837560642,-0.0017936316062572987,0.00485540033160329,23.666349697989062
1606,A,124148369211759.0,5.99070480803224,14.245286606504068,0.8110208402934342,31,1970-01-02 10:29:08.369211759,0.28024292,0.24989319,-0.18650818,4.5840647718168865,0.4192469461134033,-104.27348327636719,68.59937286376953,-171.08082580566406,23716703.0,50354.0,0.2757997356237655,0.09805246128790583,0.05231562216179558,0.011889030806427728,0.0015968246713168983,0.0030119059427465415,23.716703701997176
1606,A,124148419565763.0,1.8895695380322408,13.47398530650407,-0.3337393097065658,31,1970-01-02 10:29:08.419565763,0.7409973,0.016189575,-0.15040588,7.018370252116212,0.7562810520464895,-104.23372650146484,68.59190368652344,-171.07789611816406,23767057.0,50354.0,0.19840166721086544,0.2044189089538059,0.012016517095585587,0.011938968719167503,0.007615321688575576,0.0016196902700830857,23.767057705990737
1606,A,124148469919767.0,1.2726108380322403,9.473847606504068,-0.29058740970656577,31,1970-01-02 10:29:08.469919767,0.5561218,-0.23014832,0.20739746,10.662331845526007,0.6365951712419079,-103.95751190185547,68.4169692993164,-170.8436737060547,23817411.0,50354.0,0.07961421532817545,0.08428838925080583,-0.015718673814664415,0.0069996058746854325,0.0072687836468975095,-9.320919971624764e-05,23.81741170999885
1606,A,124148520273771.0,3.10078173803224,8.562104606504068,-1.370451909706566,31,1970-01-02 10:29:08.520273771,0.034942627,0.16111755,0.24958801,10.891745270109867,0.29912209352607794,-104.30335235595703,68.47626495361328,-171.17092895507812,23867765.0,50354.0,0.11010890488757544,-0.03937803113309421,-0.04181998694486442,0.00477665899767196,0.0011307080863296253,-0.0014486508619426576,23.867765713992412
1606,A,124148570627775.0,3.6363194380322406,8.880357606504068,0.5776224002934343,31,1970-01-02 10:29:08.570627775,0.39074707,0.076309204,-0.16113281,10.293307501817491,0.4294998833378125,-103.95037078857422,68.63048553466797,-170.86119079589844,23918119.0,50354.0,0.16961999630977545,-0.05432032886309419,-0.019961068558494416,0.0070427345454457035,-0.002359043609624035,-0.0015554616344080655,23.918119718000526
1606,A,124148620981778.0,-0.4780604619677593,8.02253860650407,-1.4973288097065658,31,1970-01-02 10:29:08.620981778,0.32714844,0.49510193,-0.41281128,12.921781673081805,0.7228866963635427,-103.98265838623047,68.60450744628906,-170.9134063720703,23968473.0,50354.0,0.07951548624037545,-0.06790498204509417,-0.023155448269794415,0.006272484044165149,-0.0030772666527354585,-0.001085544544185828,23.968473720990005
1606,A,124148671335782.0,3.0307133380322404,8.399827606504068,2.569733590293434,31,1970-01-02 10:29:08.671335782,0.3761902,0.24519348,-0.22991943,11.145418836224785,0.5044817672642642,-103.98712158203125,68.59038543701172,-170.93841552734375,24018827.0,50354.0,0.06426814146067544,-0.08000328585509416,0.02699993516083558,0.003620040394629359,-0.0037238864609230415,9.679264645574343e-05,24.01882772499812
1606,A,124148721689786.0,6.812451638032241,7.853913606504069,3.219147590293434,31,1970-01-02 10:29:08.721689786,0.5233154,-0.16352844,-0.5818329,11.30533072694642,0.7994561164244124,-103.92284393310547,68.5641098022461,-170.89747619628906,24069181.0,50354.0,0.24782136460237544,-0.08424875748009417,0.14574666148363558,0.007857477494149431,-0.004135373695050037,0.004349241063717851,24.06918172899168
1606,A,124148772043790.0,0.93523913803224,5.153535606504068,1.4917306902934342,31,1970-01-02 10:29:08.772043790,0.028182983,-0.018661499,-0.24235535,14.738597935185597,0.24470113965678172,-103.27201843261719,68.57845306396484,-170.29153442382812,24119535.0,50354.0,0.19506361066897543,-0.1659806511640942,0.1186057824703356,0.0111505150224068,-0.006300025821434731,0.006655601481429132,24.119535732999793
1606,A,124148822418308.0,0.7383244380322402,11.909593206504068,0.5955057002934342,31,1970-01-02 10:29:08.822418308,-0.22421265,0.093322754,0.29664612,8.923765842565741,0.3833788848452943,-103.30349731445312,68.59181213378906,-170.31332397460938,24169910.0,50375.0,0.0421528825721241,-0.06389744302235761,0.05257226658790675,0.005974890423510195,-0.0057900544973212556,0.004311547110654479,24.169910250988323
1606,A,124148872772312.0,5.44549303803224,13.231431606504067,-0.4766378497065658,31,1970-01-02 10:29:08.872772312,-0.8347626,0.11009216,0.12416077,5.705367971197167,0.8510962218569758,-103.362548828125,68.59657287597656,-170.33192443847656,24220264.0,50354.0,0.15568997259487544,0.1395063817171058,0.0029927358742255854,0.004981089564539547,0.0019036062495176754,0.001398960066989106,24.220264254996437
1606,A,124148923126316.0,5.288007038032241,11.288102606504069,-0.7676229097065659,31,1970-01-02 10:29:08.923126316,-0.6746216,-0.36166382,0.19644165,7.670530802092413,0.7902558723212849,-103.35717010498047,68.61029815673828,-170.2899169921875,24270618.0,50354.0,0.27023733141507544,0.1238591128809058,-0.031326753139744416,0.010723571733058533,0.006630753057494139,-0.0007133655526939677,24.270618258989998
1606,A,124148973480320.0,3.3626988380322405,10.280427606504068,-1.063017809706566,31,1970-01-02 10:29:08.973480320,-0.37176514,-0.31044006,-0.05101013,9.15373361147464,0.4870157939273018,-103.63289642333984,68.61515045166016,-170.52362060546875,24320972.0,50354.0,0.21779882184167546,0.049561685172905816,-0.04609004139266442,0.012287286230545218,0.004366215432600815,-0.0019491226359424573,24.32097226299811
1606,A,124149023834324.0,2.8206761380322405,10.418778606504068,-1.4796438097065658,31,1970-01-02 10:29:09.023834324,-0.3677826,0.021255493,-0.24505615,9.296975710197412,0.4424571770219753,-104.04762268066406,68.50836944580078,-170.891845703125,24371326.0,50354.0,0.15567883177237546,0.0276747148249058,-0.06401659159196442,0.00940304688504096,0.0019445808427449034,-0.0027721546986540003,24.371326266991673
1606,A,124149074188328.0,2.6209538380322406,8.856141606504067,-1.0739126097065659,31,1970-01-02 10:29:09.074188328,-0.12269592,-0.17907715,0.062942505,10.731736723556503,0.22601918806252697,-104.20960235595703,68.49799346923828,-171.033935546875,24421680.0,50354.0,0.13700391790737546,-0.00818453379709421,-0.06429088997156442,0.00736887358868709,0.0004907042877372124,-0.0032303974633249655,24.421680270999786
1606,A,124149124542332.0,1.9586768380322406,4.211472606504069,-0.07079983970656584,31,1970-01-02 10:29:09.124542332,0.08860779,0.1400299,0.48884583,15.25046626325676,0.5161685372541444,-104.06681060791016,68.63434600830078,-170.9098663330078,24472034.0,50354.0,0.11530136153127543,-0.1644658769590942,-0.028820425338874422,0.006352290020426914,-0.004346819391608556,-0.0023442635855709187,24.472034274993348
1606,A,124149174896335.0,2.6151860380322405,5.1489886065040675,2.6317910902934343,31,1970-01-02 10:29:09.174896335,0.4131775,0.3559723,0.7210541,14.338619955141747,0.9040746318752396,-104.11279296875,68.66500091552734,-170.98138427734375,24522388.0,50354.0,0.11515614563067546,-0.2578008680400942,0.0644780767160256,0.005802228657816438,-0.010631409838844568,0.0008977526887225351,24.52238827799738
1606,A,124149225250339.0,4.7749302380322405,11.175386006504068,1.5858621902934342,31,1970-01-02 10:29:09.225250339,-0.01272583,0.2035675,0.30345154,7.88210361850687,0.36562892518756024,-104.14820098876953,68.67723083496094,-171.0187225341797,24572742.0,50354.0,0.18606095748247545,-0.08247042036829422,0.1061878566453356,0.007583743005079801,-0.008567010228257996,0.004296856204238991,24.57274228199094
1606,A,124149275604343.0,3.6984379380322405,9.756761606504067,1.746155690293434,31,1970-01-02 10:29:09.275604343,0.26190186,-0.6199188,0.24464417,9.531631496331562,0.7160605231262847,-104.06568908691406,68.69664001464844,-170.9442138671875,24623096.0,50354.0,0.21333399056877544,0.03353948045270579,0.08389021417953559,0.010055566607086343,-0.0012319342742547698,0.004785595589157783,24.623096285999054
1606,A,124149325958347.0,4.05700423803224,9.003922606504068,0.9223947402934343,31,1970-01-02 10:29:09.325958347,0.27825928,0.17778015,-0.13995361,10.080368741472178,0.3586377302964274,-104.06952667236328,68.68769073486328,-170.96327209472656,24673450.0,50354.0,0.19525876766677544,-0.02113145356909422,0.06718609419088559,0.010287139874096464,0.0003123968928486886,0.0038036482158420944,24.673450289992616
1606,A,124149376312351.0,3.2876713380322404,12.88244760650407,-0.6970053097065658,31,1970-01-02 10:29:09.376312351,-0.16560364,0.33364868,-0.45716858,6.769896797911181,0.5897025672202966,-104.26502990722656,68.46553802490234,-171.1414031982422,24723804.0,50354.0,0.18491689697857544,0.05756394285290583,0.0056746296938855875,0.009571682708776001,0.000917260782698525,0.001834414445246884,24.72380429400073
1606,A,124149426666355.0,2.30578353803224,12.321870606504067,-0.32170010970656576,31,1970-01-02 10:29:09.426666355,-0.0030822754,-0.10031128,-0.050338745,7.6952351940514845,0.11227574344022341,-104.25130462646484,68.4643325805664,-171.12648010253906,24774158.0,50354.0,0.14082641341467544,0.1410999196489058,-0.025647946344564413,0.008201239325770878,0.005001760066208112,-0.0005028681933141408,24.77415829799429
1606,A,124149477020359.0,3.3429538380322406,10.049531606504068,-1.5640707097065658,31,1970-01-02 10:29:09.477020359,0.0050811768,-0.029724121,0.30807495,9.464968217934949,0.3095472767517072,-104.71966552734375,68.47757720947266,-171.56329345703125,24824512.0,50354.0,0.14221826091717543,0.06977559351690579,-0.04747805192036442,0.00712621576565301,0.005309212794975639,-0.001841093258316113,24.824512301987852
1606,A,124149527374363.0,3.5980656380322404,8.893632606504069,-0.9941244097065658,31,1970-01-02 10:29:09.527374363,0.10609436,-0.018112183,0.15916443,10.379555146102756,0.19213896058337568,-104.94673919677734,68.59143829345703,-171.77993774414062,24874866.0,50354.0,0.17475404734887545,-0.016537154609094176,-0.06440767852146441,0.007980411805214364,0.001340384176381973,-0.0028169470353339244,24.874866305995965
1606,A,124149577728367.0,1.4335758380322403,8.951936606504068,-0.5871267397065658,31,1970-01-02 10:29:09.577728367,0.17366028,0.092819214,-0.2087555,11.069416565242738,0.2869706572413044,-104.8170166015625,68.4345932006836,-171.66798400878906,24925220.0,50354.0,0.12668163744287544,-0.04417130392409418,-0.03981116018877442,0.0075892462360019125,-0.0015284568604900834,-0.002623917702207683,24.925220309989527
1606,A,124149628082371.0,0.15774283803224076,8.68707460650407,-1.6811514097065658,31,1970-01-02 10:29:09.628082371,-0.15460205,0.4152069,-0.39216614,12.06074774272843,0.5916864414825744,-104.86277770996094,68.41032409667969,-171.70887756347656,24975574.0,50354.0,0.040064630307275445,-0.04937181469009416,-0.05710843896777442,0.0041981707831455495,-0.00235513509734942,-0.0024401447479644304,24.97557431399764
1606,A,124149678436375.0,3.6708653380322405,10.116944606504068,0.9077157902934343,31,1970-01-02 10:29:09.678436375,0.11029053,0.024642944,-0.22662354,9.112031472981823,0.25323803935980793,-104.3287353515625,68.53158569335938,-171.2165985107422,25025928.0,50354.0,0.09639286804877545,-0.020040408274094156,-0.019472788589964415,0.0034355904361102934,-0.0017475915375693694,-0.0019280855662211905,25.0259283179912
1606,A,124149728790378.0,5.62310533803224,6.505815106504068,2.616089790293434,31,1970-01-02 10:29:09.728790378,0.15379333,-0.53289795,-0.33444214,12.510792070530913,0.6476759671892041,-104.24491119384766,68.52193450927734,-171.13479614257812,25076282.0,50354.0,0.23399429971127544,-0.07495797870559419,0.08871885310243559,0.008318157722694801,-0.0023917743889876135,0.0017434081662304867,25.076282320995233
1606,A,124149779144382.0,2.31829583803224,3.885209606504068,1.783310890293434,31,1970-01-02 10:29:09.779144382,-0.18157959,0.053466797,-0.30395508,15.521061423690233,0.3580761602561859,-104.25109100341797,68.50657653808594,-171.13165283203125,25126636.0,50354.0,0.19994065740977543,-0.2318543708005942,0.11076371093513558,0.010925180415436699,-0.007724614523517306,0.00502237251477393,25.126636324988795
1606,A,124149829498386.0,2.1318028380322405,11.98588710650407,0.0654764102934342,31,1970-01-02 10:29:09.829498386,-0.10322571,0.6351166,0.18223572,8.04655920068052,0.6687589255064059,-104.34010314941406,68.50753784179688,-171.22178649902344,25176990.0,50354.0,0.11204013436727543,-0.09388259805659416,0.046546917866875585,0.007854740394570809,-0.008201079664917432,0.003960609701348235,25.176990328996908
1606,A,124149879852390.0,5.20889023803224,15.723008606504068,-2.163481709706566,31,1970-01-02 10:29:09.879852390,-0.36758423,0.11920166,0.28977966,4.159452851239,0.4830108210394092,-104.38228607177734,68.52011108398438,-171.2473602294922,25227344.0,50354.0,0.18481662957607545,0.2041576673664058,-0.05282147942332442,0.007473962745801745,0.002776395420013128,-0.00015797463630671236,25.22734433299047
1606,A,124149930206394.0,4.65246323803224,11.13759000650407,-1.3551474097065659,31,1970-01-02 10:29:09.930206394,-0.46965027,-0.7701721,0.22457886,8.040256420016162,0.929608575739479,-104.31798553466797,68.5405044555664,-171.1530303955078,25277698.0,50354.0,0.2482792964668754,0.18280009127970592,-0.08858852533946442,0.010904056129983375,0.009742435489433154,-0.003560279689912735,25.277698336998583
1606,A,124149980560398.0,3.3789952380322403,8.348329606504068,-1.0461111097065658,31,1970-01-02 10:29:09.980560398,-0.100631714,-0.51364136,0.09176636,10.965976002657396,0.531389925942219,-104.48638153076172,68.64936828613281,-171.2964630126953,25328052.0,50354.0,0.20220803005187546,-0.002872201903294156,-0.06045648574326441,0.011341919419762592,0.00453004447082992,-0.003752506244029864,25.328052340992144
1606,A,124150030914402.0,2.8872654380322404,9.676255606504068,-1.749434409706566,31,1970-01-02 10:29:10.030914402,-0.21733093,-0.12594604,-0.23986816,10.000640036480494,0.3473209931866084,-104.9342041015625,68.58695983886719,-171.6999969482422,25378406.0,50354.0,0.15776564504127544,-0.03966421809209421,-0.07038344954226443,0.009063057217820261,-0.0010709394462238928,-0.00329415705068376,25.378406345000258
1606,A,124150081268406.0,2.6904118380322406,7.694200106504068,-2.3998098097065657,31,1970-01-02 10:29:10.081268406,-0.40516663,-0.22827148,0.053359985,12.028197325020088,0.4680973773117593,-105.4892349243164,68.5953140258789,-172.19410705566406,25428760.0,50354.0,0.14042918077947544,-0.056133236513594205,-0.10446552171216442,0.007507651129689045,-0.0024118925146074176,-0.004402172549272755,25.42876034899382
1606,A,124150131622410.0,2.7077763380322404,4.8880476065040686,0.5945138802934342,31,1970-01-02 10:29:10.131622410,-0.092178345,-0.026062012,0.4409485,14.388853411955091,0.4512334821449725,-105.17465209960938,68.7956314086914,-171.89842224121094,25479114.0,50354.0,0.13591018370877544,-0.1766859493295942,-0.04545193561483441,0.006957396179720693,-0.005861688641973954,-0.0037744718231218495,25.47911435298738
1606,A,124150181976414.0,3.7642948380322405,6.7586376065040685,2.9806069902934342,31,1970-01-02 10:29:10.181976414,0.09988403,0.2725067,0.5680847,12.591795325179605,0.637931773286157,-105.22277069091797,68.8194351196289,-171.95538330078125,25529468.0,50354.0,0.16294733599977546,-0.20024060639209418,0.09001081815876559,0.007524335773702187,-0.009489879893404949,0.0011218589858085553,25.529468356995494
1606,A,124150232330417.0,3.1468174380322402,10.880632006504069,1.6927194902934342,31,1970-01-02 10:29:10.232330417,-0.55825806,0.20446777,0.28352356,8.658866833935058,0.6586689150087547,-105.28579711914062,68.83045196533203,-171.99302673339844,25579822.0,50354.0,0.17400107377447543,-0.04936530895329417,0.1176603408017356,0.008483350112886315,-0.006284328130650842,0.005228536769148539,25.579822359999525
1606,A,124150282684421.0,3.7370121380322403,8.874330106504068,0.9944924902934342,31,1970-01-02 10:29:10.282684421,-0.41906738,-0.33607483,-0.008010864,10.289056595629784,0.5372410392753143,-105.26461029052734,68.83448028564453,-171.94784545898438,25630176.0,50354.0,0.1733141772365754,0.0039014811192058293,0.06765593603523558,0.008744356074705228,-0.0011446427933788422,0.004665707901924423,25.630176363993087
1606,A,124150333038425.0,6.09296920803224,9.868806606504068,1.0686196902934342,31,1970-01-02 10:29:10.333038425,0.09831238,-0.02696228,-0.31811523,8.952490045716702,0.33405027789543257,-105.24554443359375,68.81949615478516,-171.9326629638672,25680530.0,50354.0,0.24748944034986545,-0.0215732469765942,0.05194297537063559,0.010594572679973822,-0.00044492204899146696,0.0030111417924656185,25.6805303680012
1606,A,124150383392429.0,4.62566883803224,13.875169306504068,0.0542764502934342,31,1970-01-02 10:29:10.383392429,0.28929138,0.09291077,-0.5627289,5.239966281410199,0.6395199204243033,-105.10053253173828,68.81391906738281,-171.8098907470703,25730884.0,50354.0,0.26986315008576545,0.1043328815618058,0.028271156131555585,0.01302538616939788,0.0020836393199518727,0.0020195511888306673,25.73088437199476
1606,A,124150433746433.0,2.12106083803224,12.476625006504069,0.2140512302934342,31,1970-01-02 10:29:10.433746433,0.62731934,-0.22245789,-0.19326782,7.637665890518122,0.6930869479429259,-105.03498840332031,68.80748748779297,-171.7732391357422,25781238.0,50354.0,0.16986241305427544,0.16998992541860589,0.006755686014135586,0.011070970503176809,0.006906625311345825,0.0008818708047020667,25.781238375988323
1606,A,124150484100437.0,2.18790943803224,8.472276606504069,-1.624510809706566,31,1970-01-02 10:29:10.484100437,0.43891907,0.012084961,0.29534912,11.327734195479575,0.5291758677196182,-105.31502532958984,68.75003051757812,-172.0563507080078,25831592.0,50354.0,0.10848694464047542,0.03396129591070585,-0.03551114083088441,0.007008001778680744,0.005134879899408082,-0.0007239760859212853,25.831592379996437
1606,A,124150534454441.0,2.8571904380322404,9.287751606504068,-0.5726156097065658,31,1970-01-02 10:29:10.534454441,0.40377808,0.1468811,-0.034240723,10.190360596292312,0.4310257794346634,-105.30130767822266,68.7476806640625,-172.0647735595703,25881946.0,50354.0,0.1270204795796754,-0.04632496968109416,-0.05531705186156442,0.005929370419590738,-0.0003112802145170664,-0.0022867814074177843,25.881946383989998
1606,A,124150584808445.0,0.026700338032240367,8.731858606504069,-1.4699392097065658,31,1970-01-02 10:29:10.584808445,0.109939575,0.3286438,-0.38035583,12.057912965704565,0.514552246953222,-105.3236312866211,68.7249755859375,-172.09463500976562,25932300.0,50354.0,0.07260771806897544,-0.03978947366709416,-0.051425402688364416,0.005026039132200083,-0.0021681033401773375,-0.0026874547782035586,25.93230038799811
1606,A,124150635162449.0,1.8731968380322401,6.938645606504068,1.2011270402934342,31,1970-01-02 10:29:10.635162449,0.23764038,0.34545898,-0.2715454,12.718558169818488,0.4995515602321194,-104.72423553466797,68.75338745117188,-171.55184936523438,25982654.0,50354.0,0.04783371120177543,-0.09893291542909419,-0.006767883989314414,0.003032353864749695,-0.003492613590274734,-0.00146513237868392,25.982654391991673
1606,A,124150685516453.0,7.94814803803224,6.828446606504068,2.605027190293434,31,1970-01-02 10:29:10.685516453,0.603302,-0.1400299,-1.1622314,12.261941809367112,1.3169523542041943,-104.6388168334961,68.69893646240234,-171.49256896972656,26033008.0,50354.0,0.2472719999446754,-0.14685511935309423,0.09582754506348558,0.007429876489534194,-0.006188205351711158,0.0022422550868644074,26.033008395999786
1606,A,124150735870457.0,2.8549473380322405,7.1061416065040675,1.8768777902934342,31,1970-01-02 10:29:10.735870457,0.44589233,0.08320618,-0.642807,12.305807079573736,0.7867299902711358,-104.60607147216797,68.66679382324219,-171.4813232421875,26083362.0,50354.0,0.2719895322831754,-0.14263807256109423,0.1128409216962356,0.013073447596900602,-0.007288570092823523,0.005253645987609501,26.083362399993348
1606,A,124150786224460.0,-0.96565516196776,10.049806606504069,-0.13120940970656586,31,1970-01-02 10:29:10.786224460,0.84976196,0.17712402,0.58091736,11.451961498693445,1.0444775183187869,-104.60430908203125,68.69267272949219,-171.52505493164062,26133716.0,50354.0,0.04756670911677543,-0.0615338918410942,0.04395069281803558,0.008045467489726562,-0.005140437547753898,0.003947542478625806,26.13371640299738
1606,A,124150836578464.0,4.178967838032241,12.767396606504068,-0.8924551097065658,31,1970-01-02 10:29:10.836578464,-0.31819153,0.034484863,0.46566772,6.547805205115718,0.5650499809661691,-105.03746795654297,68.68601989746094,-171.91650390625,26184070.0,50354.0,0.08090157324527544,0.08099952529390582,-0.02577280160526442,0.003234445945029355,0.0004900862534414381,0.0004576647670639396,26.18407040699094
1606,A,124150886932468.0,5.60191083803224,12.157930006504067,-0.6448202097065658,31,1970-01-02 10:29:10.886932468,-0.64567566,-0.31866455,0.3479309,6.757883698736196,0.7996874792804675,-105.0418930053711,68.70697021484375,-171.8865966796875,26234424.0,50354.0,0.24625318242727548,0.13407574813570577,-0.03870398071686442,0.008236775283567815,0.005414950159137331,-0.0016233319485242377,26.234424410999054
1606,A,124150937286472.0,3.5552800380322402,9.475251606504068,-0.9705496097065658,31,1970-01-02 10:29:10.937286472,-0.19474792,-0.45700073,0.27973938,9.835787337800644,0.5701144975245268,-105.22785949707031,68.79622650146484,-172.04417419433594,26284778.0,50354.0,0.2305505946866754,0.05118941347070579,-0.040670165943364416,0.012004488696397942,0.004664420973764624,-0.0019984028904645817,26.284778414992616
1606,A,124150987640476.0,2.5955021380322405,9.746095606504069,-1.3064108097065659,31,1970-01-02 10:29:10.987640476,-0.46705627,-0.03315735,-0.14506531,9.960179520744987,0.49018865079755924,-105.48677825927734,68.7060317993164,-172.26243591308594,26335132.0,50354.0,0.15485824284677543,-0.009533341218094168,-0.057327032479564416,0.009703438302579692,0.0010487749311040029,-0.0024672754646940793,26.33513241900073
1606,A,124151037994480.0,1.9945652380322407,8.863358606504068,-1.554564509706566,31,1970-01-02 10:29:11.037994480,-0.40422058,-0.36706543,0.08065796,11.036315441027135,0.5519393206757269,-105.70559692382812,68.6046142578125,-172.44139099121094,26385486.0,50354.0,0.11556412632717546,-0.024938971279094176,-0.07203077561686443,0.006808423988692562,-0.000867909411741711,-0.0032568415344437886,26.38548642299429
1606,A,124151088348484.0,3.6645328380322404,6.0301836065040675,-3.487776809706566,31,1970-01-02 10:29:11.088348484,-0.549881,0.29710388,0.25468445,13.611529924812448,0.6749103634882612,-105.7784423828125,68.61285400390625,-172.4900665283203,26435840.0,50354.0,0.14247911226107546,-0.11849448770309422,-0.12695102739886444,0.0064967546179363934,-0.0036112241967945578,-0.005009764854527006,26.435840426987852
1606,A,124151138702488.0,3.8427555380322405,5.234223606504068,4.7507945902934345,31,1970-01-02 10:29:11.138702488,0.06686401,-0.012420654,0.060134888,14.474251981194602,0.09078145864569681,-105.77562713623047,68.61589813232422,-172.49066162109375,26486194.0,50354.0,0.18901099944417543,-0.2098652195980942,0.03179899866183559,0.008345926542403102,-0.008267112350722021,-0.002395642627512176,26.486194430995965
1606,A,124151189056492.0,5.1175663380322405,9.490479606504069,3.436188590293434,31,1970-01-02 10:29:11.189056492,0.27615356,0.44602966,1.0418396,9.875159642513596,1.1664617432340203,-105.85299682617188,68.65995025634766,-172.58856201171875,26536548.0,50354.0,0.22559402387367541,-0.12274534720609417,0.20612367553763558,0.010438510672073532,-0.00837413624042905,0.005990179168320086,26.536548434989527
1606,A,124151239410496.0,2.14642083803224,10.854905606504069,-0.039992339706565794,31,1970-01-02 10:29:11.239410496,-0.20947266,-0.08425903,0.20574951,9.020222650782706,0.3054688859593668,-105.52728271484375,68.50450134277344,-172.27511596679688,26586902.0,50354.0,0.18288540513177542,0.018766563507905846,0.08550603300102559,0.010284286584070237,-0.0026178738371692876,0.0073423611718778726,26.58690243899764
1606,A,124151289764500.0,5.10574083803224,8.390763606504068,1.2602395902934342,31,1970-01-02 10:29:11.289764500,0.2373352,-0.5959625,-0.28453064,10.51757174309598,0.7017527938413209,-105.4328384399414,68.49871826171875,-172.1864013671875,26637256.0,50354.0,0.18258767451827543,-0.008920986224094176,0.030722165028025588,0.00920151572634933,0.0002478820992745264,0.0029262773417774216,26.6372564429912
1606,A,124151340118503.0,5.25481913803224,12.319795206504068,1.242157920293434,31,1970-01-02 10:29:11.340118503,0.29093933,0.26281738,-0.29812622,6.62951154573172,0.49254229465336447,-105.44038391113281,68.48088073730469,-172.2101287841797,26687610.0,50354.0,0.26084781851737543,0.02796053923510581,0.06300286212404559,0.011164375408158582,0.0004793588261582399,0.0023597150086076962,26.687610445995233
1606,A,124151390472507.0,2.6195500380322403,12.708207606504068,-0.8847799097065658,31,1970-01-02 10:29:11.390472507,0.4223175,0.098739624,-0.38845825,7.279272323627253,0.5822382640697654,-105.41824340820312,68.46085357666016,-172.20899963378906,26737964.0,50354.0,0.19825299274577543,0.13666082682310582,0.008997706172545583,0.011558781125172349,0.004144672133247594,0.001812758308003276,26.737964449988795
1606,A,124151440826511.0,2.4050268380322404,9.751801606504069,-0.8815146097065658,31,1970-01-02 10:29:11.440826511,0.42245483,-0.16426086,-0.0473938,9.967294422592174,0.45573664083186083,-105.43156433105469,68.37564086914062,-172.23793029785156,26788318.0,50354.0,0.12650377200867544,0.07200645195590583,-0.04446999711526442,0.00817640106622281,0.0052536160778191765,-0.0008930858690648322,26.788318453996908
1606,A,124151491180515.0,3.11491133803224,8.420823606504069,-1.2266684097065659,31,1970-01-02 10:29:11.491180515,0.25028992,0.38845825,0.24041748,10.998408423506023,0.5209082651832464,-105.70999145507812,68.44227600097656,-172.51649475097656,26838672.0,50354.0,0.13897548345877542,-0.03593701501209416,-0.05307772387976443,0.006683971214904012,0.0009081202139343464,-0.0024559589714918412,26.83867245799047
1606,A,124151541534519.0,2.6147282380322405,8.810395606504068,-1.7767019097065657,31,1970-01-02 10:29:11.541534519,0.52189636,0.279068,0.00030517578,10.893022056370427,0.5918233286526531,-106.08963775634766,68.40108489990234,-172.89874267578125,26889026.0,50354.0,0.14425513560657544,-0.05963879387409418,-0.07561585453186442,0.007130897296208339,-0.002406312140327564,-0.0032401182236695796,26.889026461998583
1606,A,124151591888523.0,0.33004483803224005,8.568040606504068,-1.1657553097065658,31,1970-01-02 10:29:11.591888523,0.18545532,0.2545929,-0.35964966,11.995813210814505,0.4780785483420355,-106.0986328125,68.38025665283203,-172.9184112548828,26939380.0,50354.0,0.07414055173607544,-0.05593231146509419,-0.07408224541316441,0.005498548220225921,-0.002909733719124746,-0.003768949062315991,26.939380465992144
1606,A,124151642242527.0,2.5717595380322402,7.487489606504068,3.427475890293434,31,1970-01-02 10:29:11.642242527,0.35029602,-0.3403015,-0.08439636,12.321963960780504,0.4956159381127084,-106.03694152832031,68.38094329833984,-172.87086486816406,26989734.0,50354.0,0.07305872877617542,-0.08923911582709419,0.05694333905743557,0.0037060362854569396,-0.003654981024935427,-0.000431506245318185,26.989734470000258
1606,A,124151692596531.0,6.4034855665322405,5.1473556065040675,1.9615945902934342,31,1970-01-02 10:29:11.692596531,-0.08432007,-0.03794861,-0.5091095,13.73307463291589,0.5174383578707583,-106.0188217163086,68.35697174072266,-172.84686279296875,27040088.0,50354.0,0.22596974599761996,-0.1753617020720942,0.13568062748973558,0.007528639909379846,-0.006661854792247866,0.004849693605758128,27.04008847399382
1606,A,124151742950535.0,2.4951756380322405,8.671174606504069,0.8661813602934342,31,1970-01-02 10:29:11.742950535,-0.24183655,0.3434906,-0.40742493,10.862509389079506,0.5852057610702132,-105.50175476074219,68.3782958984375,-172.35899353027344,27090442.0,50354.0,0.22404159314731997,-0.1455600648270942,0.07119491510792558,0.011329935485652153,-0.008079847325220867,0.005208505535981315,27.09044247798738
1606,A,124151793304539.0,1.3919958380322406,13.041474906504067,-0.4121389497065658,31,1970-01-02 10:29:11.793304539,0.11717224,0.1786499,0.3495636,7.67551858960617,0.4096825979237922,-105.5294189453125,68.39275360107422,-172.39505004882812,27140796.0,50354.0,0.09786731625287545,0.05319017678900582,0.011431425771345587,0.008104700611968722,-0.002325596671134951,0.0020802833843174104,27.140796481995494
1606,A,124151843658542.0,5.619809438032241,12.737443606504069,-0.9313498097065658,31,1970-01-02 10:29:11.843658542,-0.6608124,-0.1308136,0.3112793,6.241569516806852,0.742078182233658,-105.55709838867188,68.4095230102539,-172.38925170898438,27191150.0,50354.0,0.17653622143547545,0.15556663140200583,-0.03382501649574442,0.006908657868379612,0.0052558701598251,-0.0005638034336681893,27.191150484999525
1606,A,124151894012546.0,5.41270183803224,11.212037606504069,-0.9965353097065659,31,1970-01-02 10:29:11.894012546,-0.470047,-0.23356628,0.036224365,7.764834386737416,0.5261269751511432,-105.55338287353516,68.41436767578125,-172.36000061035156,27241504.0,50354.0,0.2777655363974755,0.10950688849990585,-0.04853836365146442,0.011437955356960206,0.006673756010570431,-0.002073662821966277,27.241504488993087
1606,A,124151944366550.0,2.5911076380322404,9.56553760650407,-1.438033109706566,31,1970-01-02 10:29:11.944366550,-0.11882019,-0.27038574,-0.090545654,10.148719290709794,0.30890969781680766,-105.79873657226562,68.3446273803711,-172.57733154296875,27291858.0,50354.0,0.20151191117887543,0.029647811137905853,-0.06129512909556442,0.012066768297629787,0.003503497872781186,-0.002765277846891945,27.2918584930012
1606,A,124151994720554.0,1.6584598380322406,8.059083606504068,-1.924971609706566,31,1970-01-02 10:29:11.994720554,-0.39707947,-0.15505981,-0.016784668,11.960984754140682,0.4266115038915233,-106.09535217285156,68.24036407470703,-172.8316192626953,27342212.0,50354.0,0.10699136034487544,-0.049734111720094176,-0.08467036982066442,0.007767186867153477,-0.0005057127897577555,-0.0036749733662138936,27.34221249699476
1606,A,124152045074558.0,2.5613682380322405,7.6100021065040675,-1.8926534097065657,31,1970-01-02 10:29:12.045074558,-0.61502075,0.12956238,-0.03112793,12.040557202483015,0.62928998185885,-106.49658203125,68.25065612792969,-173.17788696289062,27392566.0,50354.0,0.10624261147107543,-0.09896862900359422,-0.09611634511376442,0.005368591708410196,-0.0037438889032003026,-0.004551667121904115,27.392566500988323
1606,A,124152095428562.0,2.7095463380322404,7.428864606504069,1.793839490293434,31,1970-01-02 10:29:12.095428562,-0.3131256,0.09089661,0.24179077,12.033770610475813,0.4059219278901363,-106.53178405761719,68.2609634399414,-173.19891357421875,27442920.0,50354.0,0.13270581628157543,-0.11483565276659419,-0.002487838049064416,0.0060160045655284905,-0.005382950402128033,-0.0024825575194905415,27.442920504996437
1606,A,124152145782566.0,3.6968663380322404,6.569200106504068,4.366959590293434,31,1970-01-02 10:29:12.145782566,0.08854675,-0.4125061,1.0961151,13.139928705479095,1.174508459705924,-106.51687622070312,68.31938934326172,-173.18760681152344,27493274.0,50354.0,0.16129425194527544,-0.14103992472059418,0.1551104384519356,0.007402039717747425,-0.006442179414394942,0.003842579210343088,27.493274508989998
1606,A,124152196136570.0,3.4899266380322405,8.384110606504068,0.8162851202934343,31,1970-01-02 10:29:12.196136570,-0.40197754,0.34524536,0.27708435,10.817677623873424,0.5979598968834814,-106.13500213623047,68.5062026977539,-172.82144165039062,27543628.0,50354.0,0.18094188675837547,-0.1169896961785942,0.1304985520784456,0.00861647926414182,-0.006496411765378866,0.007190777554583408,27.54362851299811
1606,A,124152246490574.0,4.93487283803224,9.801881606504068,0.2881021402934342,31,1970-01-02 10:29:12.246490574,0.014633179,-0.095458984,-0.36201477,9.108600867477145,0.37467484737050494,-106.10990142822266,68.49015808105469,-172.7952117919922,27593982.0,50354.0,0.21211117640887545,-0.035600474053094196,0.027805158059795592,0.009895896971361878,-0.0038417627159232186,0.003985612510150499,27.593982516991673
1606,A,124152296844578.0,5.24158983803224,14.749375906504067,0.8498086902934342,31,1970-01-02 10:29:12.296844578,0.2576294,0.26545715,-0.40345764,4.233827958722756,0.5473741622554467,-106.11515045166016,68.46710205078125,-172.81471252441406,27644336.0,50354.0,0.2562128007952755,0.12465781040500579,0.028649180981685587,0.011790992774068908,0.0022421965573320786,0.0014213508940473718,27.644336520999786
1606,A,124152347198582.0,3.7416661380322402,14.127259606504069,-0.5680837797065659,31,1970-01-02 10:29:12.347198582,0.55503845,-0.1912384,-0.13117981,5.457197373182611,0.6015379864685176,-106.17483520507812,68.22066497802734,-172.89195251464844,27694690.0,50354.0,0.22617143570937545,0.23355785231100581,0.007092988073845584,0.012144987922477597,0.009018795740201023,0.0008998805903111083,27.694690524993348
1606,A,124152397552585.0,2.7717869380322404,8.087235606504068,-0.8641806097065658,31,1970-01-02 10:29:12.397552585,0.7547302,-0.39245605,0.22421265,11.37316559142889,0.8797219665290079,-106.15665435791016,68.28694915771484,-172.904296875,27745044.0,50354.0,0.16398920809607545,0.06582514597790583,-0.03606012053225442,0.009823074529089837,0.007537565747919929,-0.0007293054939053594,27.74504452799738
1606,A,124152447906589.0,2.9551213380322405,7.215287606504068,-1.0064077097065658,31,1970-01-02 10:29:12.447906589,0.6213684,0.3338623,-0.0071258545,12.158940590872387,0.7054172536039967,-106.2816162109375,68.38013458251953,-173.05519104003906,27795398.0,50354.0,0.14418636966647547,-0.10819757306609419,-0.04709580211786442,0.007758936521327744,-0.0010668105967993186,-0.002093616664562042,27.79539853199094
1606,A,124152498260593.0,1.3169378380322403,9.627183606504069,-2.056685409706566,31,1970-01-02 10:29:12.498260593,0.33265686,0.5492859,-0.5628662,10.764106986352049,0.853928536556959,-106.3115234375,68.34541320800781,-173.10525512695312,27845752.0,50354.0,0.10755763387577544,-0.06942630227009418,-0.07711949546746442,0.006338158777183252,-0.004472036309339215,-0.0031273685473058245,27.845752535999054
1606,A,124152548614597.0,0.8128331380322402,8.599183606504068,0.8575143702934342,31,1970-01-02 10:29:12.548614597,0.31871033,0.051452637,-0.26844788,11.63955699565559,0.4198665413907818,-106.29235076904297,68.33184051513672,-173.10174560546875,27896106.0,50354.0,0.05362124386437543,-0.03458395267809417,-0.030191529259304416,0.004058000604863779,-0.0026186661888305384,-0.0027017696695458594,27.896106539992616
1606,A,124152598968601.0,4.37696583803224,5.8467576065040685,4.564331990293435,31,1970-01-02 10:29:12.598968601,0.5278473,-0.48963928,-0.30033875,13.755372052553248,0.7801107366187001,-106.19622039794922,68.32424926757812,-173.0267333984375,27946460.0,50354.0,0.13066356882037544,-0.12976373808009417,0.1365058258204956,0.004639738728963973,-0.004137781810218908,0.0026766750445211106,27.94646054400073
1606,A,124152649322605.0,4.544629338032241,5.4795856065040685,2.265549590293434,31,1970-01-02 10:29:12.649322605,-0.10328674,-0.113464355,-0.40855408,13.57250967358912,0.4364157957728387,-106.17337036132812,68.30622100830078,-172.99656677246094,27996814.0,50354.0,0.22461900174777547,-0.20830585692609419,0.17195592855443562,0.008944949279194337,-0.008511578193470806,0.007766141589897644,27.99681454799429
1606,A,124152699676609.0,1.9180424380322405,9.897691606504068,0.7816781902934342,31,1970-01-02 10:29:12.699676609,-0.1251831,0.33061218,0.15730286,9.97328885129137,0.38693592732407517,-106.22504425048828,68.30915832519531,-173.0454559326172,28047168.0,50354.0,0.16271068730597546,-0.10631549160809418,0.07672005383183558,0.009751799581306288,-0.007921221692045262,0.00626091520853915,28.047168551987852
1606,A,124152750030613.0,3.3666966380322405,13.751618906504067,-0.745085709706566,31,1970-01-02 10:29:12.750030613,-0.16719055,0.108947754,0.25784302,5.99475816696297,0.3260449602028337,-106.2556381225586,68.32002258300781,-173.06936645507812,28097522.0,50354.0,0.13305387571807545,0.10194949078600579,0.0009212888837355823,0.0074464644032565305,-0.00010992280269771946,0.0019547760855499353,28.097522555995965
1606,A,124152800384617.0,5.18337753803224,12.619538806504067,-1.2647390097065658,31,1970-01-02 10:29:12.800384617,-0.7879486,-0.35536194,0.15126038,6.501350538577987,0.8775105738395794,-106.25743865966797,68.3322525024414,-173.02891540527344,28147876.0,50354.0,0.21526521753077543,0.17047743774040577,-0.05060135696066442,0.00876962981072632,0.006858892779509465,-0.0012507950739728375,28.147876559989527
1606,A,124152850738621.0,4.09408313803224,9.722199606504068,-0.9455404097065658,31,1970-01-02 10:29:12.850738621,-0.38934326,-0.6123047,0.19868469,9.452088724159994,0.7523169716216123,-106.46424102783203,68.49119567871094,-173.1932830810547,28198230.0,50354.0,0.23357862744127544,0.0690287480243058,-0.05564820494256442,0.011300541484861325,0.0060300472389981435,-0.0026750452200375928,28.19823056399764
1606,A,124152901092625.0,2.7473576380322404,8.842179606504068,-0.8516226097065658,31,1970-01-02 10:29:12.901092625,-0.17611694,-0.20452881,-0.03794861,10.672821452419303,0.2725606495367807,-106.49629974365234,68.49868774414062,-173.2111358642578,28248584.0,50354.0,0.17224695441897545,-0.026073824554094193,-0.04524717333976442,0.010217470674495537,0.0010814761082095176,-0.002540242939014193,28.2485845679912
1606,A,124152951446628.0,2.45951583803224,7.538224606504068,-1.3902273097065658,31,1970-01-02 10:29:12.951446628,-0.42140198,-0.16488647,0.116363525,12.056342943215759,0.46723403845118877,-106.68569946289062,68.52137756347656,-173.365478515625,28298938.0,50354.0,0.13109345350687543,-0.0810597631290942,-0.05644305542106442,0.007637201450349148,-0.0026973023370996346,-0.002560254889511388,28.298938570995233
1606,A,124153001800632.0,3.0994847380322406,6.802842606504068,-1.689147009706566,31,1970-01-02 10:29:13.001800632,-0.6333618,0.38121033,0.19125366,12.606699728612584,0.7635747821014943,-107.09019470214844,68.62443542480469,-173.72023010253906,28349292.0,50354.0,0.13995895750357543,-0.1324041507780942,-0.07752940723986443,0.006824286552010121,-0.005374380960441283,-0.003373024692414206,28.349292574988795
1606,A,124153052154636.0,3.1199620380322406,6.0720386065040675,3.244080590293434,31,1970-01-02 10:29:13.052154636,0.09034729,-0.36312866,0.73709106,13.447027299273966,0.8266367323411556,-107.0689697265625,68.66497802734375,-173.70230102539062,28399646.0,50354.0,0.15658701148097545,-0.1693183157000942,0.039148562758435576,0.007466137861124038,-0.0075964665385213495,-0.0009663145215089343,28.399646578996908
1606,A,124153102508640.0,3.59408313803224,9.114823606504068,3.617463090293434,31,1970-01-02 10:29:13.102508640,-0.07649231,0.22465515,0.6370239,10.586500603570556,0.6797944241326701,-107.12430572509766,68.6921615600586,-173.75758361816406,28450000.0,50354.0,0.16903951539777545,-0.11110957006309422,0.17275308524613558,0.008198299067226312,-0.007060332879859796,0.005335047791811089,28.45000058299047
1606,A,124153152862644.0,2.84370163803224,10.433030606504069,0.4169931302934342,31,1970-01-02 10:29:13.152862644,-0.4425354,-0.11399841,-0.14154053,9.088157203614342,0.47840039649687693,-106.65345001220703,68.6650619506836,-173.29562377929688,28500354.0,50354.0,0.16208410730697545,-0.0013128744790941826,0.10157550426571559,0.008336699448837515,-0.0028304598862386775,0.006906770898139878,28.500354586998583
1606,A,124153203216648.0,3.9842503380322403,9.952500606504069,1.004090290293434,31,1970-01-02 10:29:13.203216648,-0.13790894,-0.51319885,-0.38183594,9.186736182163736,0.6543627590632963,-106.58344268798828,68.65412139892578,-173.21304321289062,28550708.0,50354.0,0.17190734690137544,0.019777319349905845,0.03577861728011559,0.00840890284260365,0.00046487932851242524,0.003458164718159392,28.550708590992144
1606,A,124153253570652.0,5.54754379803224,12.332978606504067,0.9309243902934341,31,1970-01-02 10:29:13.253570652,-0.033432007,0.08682251,-0.21061707,6.5376629632103285,0.23025072749099632,-106.58808135986328,68.6427993774414,-173.21621704101562,28601062.0,50354.0,0.23998198096369544,0.06761231014590581,0.048717864613135584,0.01037013760765889,0.00220020870181605,0.0021273679246263852,28.601062595000258
1606,A,124153303924656.0,3.6452458380322406,12.385224906504067,-0.22839260970656577,31,1970-01-02 10:29:13.303924656,0.23136902,0.017211914,-0.26278687,7.00400092286898,0.3505493010172759,-106.44922637939453,68.5677490234375,-173.09664916992188,28651416.0,50354.0,0.23144686466719544,0.12886100984700577,0.017687642639835584,0.01186916404644894,0.004946608777461535,0.0016718914561080554,28.65141659899382
1606,A,124153354278660.0,1.75411723803224,9.830445606504068,-0.7570486097065658,31,1970-01-02 10:29:13.354278660,0.28851318,-0.06567383,-0.09260559,10.162845593574529,0.3100462905435725,-106.33332824707031,68.39655303955078,-173.0006561279297,28701770.0,50354.0,0.13593976416607542,0.06585473650600578,-0.02481045358116442,0.009249693154135262,0.004902358345929772,-0.00017933101106983607,28.70177060298738
1606,A,124153404632664.0,2.5036748380322402,9.411607606504068,-0.7770224097065659,31,1970-01-02 10:29:13.404632664,0.090789795,0.22299194,0.15304565,10.226308190364449,0.2852913653881381,-106.36270141601562,68.35291290283203,-173.03689575195312,28752124.0,50354.0,0.10719843109907543,-0.009012026256094199,-0.03862330605576442,0.006121490342190703,0.0014311289159620237,-0.0015970717663789573,28.752124606995494
1606,A,124153454986667.0,2.6008580380322406,9.679215606504068,-0.743468309706566,31,1970-01-02 10:29:13.454986667,0.43110657,-0.034744263,0.019882202,9.939956591818289,0.43296113043199025,-106.33653259277344,68.30573272705078,-173.03208923339844,28802478.0,50354.0,0.12851682422067542,-0.012819543966094199,-0.03828139484266442,0.005934602983185367,-0.0005496534434840374,-0.001936229654519743,28.802478609999525
1606,A,124153505340671.0,0.24778483803224027,7.048860606504068,-0.4466390697065658,31,1970-01-02 10:29:13.505340671,0.32302856,0.36897278,-0.6225891,13.288004590782798,0.7925311037400438,-106.06855773925781,68.12200927734375,-172.8015594482422,28852832.0,50354.0,0.07172028169067544,-0.07230642518509421,-0.02996333349148442,0.0050413696155300804,-0.0021432165253194705,-0.0017181975252688654,28.852832613993087
1606,A,124153555694675.0,4.19729353803224,7.712586606504068,4.748078290293434,31,1970-01-02 10:29:13.555694675,0.64590454,-0.4185791,0.02748108,12.113518514288875,0.770166441431583,-105.9870834350586,68.12908172607422,-172.74859619140625,28903186.0,50354.0,0.11191373827417543,-0.1218202435180942,0.10829733525671559,0.004623353720655051,-0.004887527137940175,0.0019722151624432254,28.9031866180012
1606,A,124153606048679.0,6.54081466803224,5.396104606504068,1.563340190293434,31,1970-01-02 10:29:13.606048679,0.2710266,0.067733765,-0.6372528,13.445515521502733,0.6957976803184064,-105.9598159790039,68.09752655029297,-172.7338104248047,28953540.0,50354.0,0.27035335030408547,-0.1634316813300942,0.15890258308573557,0.009624338489134876,-0.00718178771190284,0.006727292344107893,28.95354062199476
1606,A,124153656402683.0,1.0111821380322406,7.263673606504069,2.2022714902934344,31,1970-01-02 10:29:13.656402683,-0.09587097,0.23077393,-0.27986145,12.860859057623276,0.3751936577988603,-105.98262786865234,68.0809097290039,-172.7532196044922,29003894.0,50354.0,0.19013662358628544,-0.1747339639310942,0.09480680528213559,0.01159375607263787,-0.00851399645074094,0.006387641270937892,29.003894625988323
1606,A,124153706756687.0,2.85053753803224,14.167436206504068,0.24511813029343418,31,1970-01-02 10:29:13.706756687,0.15428162,0.109939575,0.4953766,5.839677347893213,0.5303654440558557,-106.00499725341797,68.10318756103516,-172.78565979003906,29054248.0,50354.0,0.09722651628427544,0.04610185176210582,0.06161792847751559,0.007234941772521112,-0.0032385706880786206,0.003938305521866738,29.054248629996437
1606,A,124153757110691.0,6.560742648032241,13.39572290650407,-1.4352255097065658,31,1970-01-02 10:29:13.757110691,-0.28492737,0.205719,0.32589722,5.689970923084521,0.47928374804477286,-106.05506134033203,68.11601257324219,-172.8242645263672,29104602.0,50354.0,0.23694780124454545,0.20048845698820583,-0.029963333491484417,0.008413506792423123,0.006208404203406597,0.0007969677379633069,29.104602633989998
1606,A,124153807464695.0,4.7057316380322405,10.351991606504068,-0.43516445970656586,31,1970-01-02 10:29:13.807464695,-0.34918213,-0.63087463,0.12287903,8.646533943106819,0.7314575959703438,-106.13724517822266,68.36408233642578,-172.8737030029297,29154956.0,50354.0,0.28365602310024546,0.10442700829400585,-0.047090808259914414,0.013107242485528801,0.007676856669410244,-0.0019399921268749684,29.15495663799811
1606,A,124153857818699.0,2.7733433380322405,8.519273606504068,-0.6114187097065658,31,1970-01-02 10:29:13.857818699,-0.22468567,-0.113464355,-0.08792114,10.941451050678687,0.26662321170110925,-106.10808563232422,68.39763641357422,-172.83370971679688,29205310.0,50354.0,0.18830067067237546,-0.01834735573209418,-0.026349824456314414,0.011882453679113279,0.00216722741255125,-0.0018490148098964934,29.205310641991673
1606,A,124153908172703.0,3.9141208380322405,10.091966606504068,-1.519484509706566,31,1970-01-02 10:29:13.908172703,-0.22853088,0.19468689,-0.17689514,9.245949067755296,0.3484555047736599,-106.61155700683594,68.45943450927734,-173.2938232421875,29255664.0,50354.0,0.16837028556077543,-0.024894005157094196,-0.05364975035516442,0.008979904665082042,-0.0010886877431070957,-0.0020141492950286025,29.255664645999786
1606,A,124153958526707.0,2.8800480380322404,7.359315606504069,-2.356505409706566,31,1970-01-02 10:29:13.958526707,-0.21278381,-0.34217834,0.2066803,12.272071939115849,0.4528572761603392,-107.09952545166016,68.51039123535156,-173.7329864501953,29306018.0,50354.0,0.17105678979267544,-0.05409826772309419,-0.09758579820106443,0.008545755476173832,-0.001988788454304503,-0.0038076574060001735,29.306018649993348
1606,A,124154008880710.0,1.0076115380322408,6.364488606504068,0.7941903902934342,31,1970-01-02 10:29:14.008880710,-0.6095581,0.66319275,-0.12637329,13.557641777770991,0.9095910671030122,-106.63189697265625,68.4784927368164,-173.28045654296875,29356372.0,50354.0,0.09787960514657545,-0.14794498132909417,-0.03933440524376442,0.006771011615385521,-0.005086842881386946,-0.0034472399621304564,29.35637265299738
1606,A,124154059234714.0,4.229367538032241,6.109620606504068,5.769562590293434,31,1970-01-02 10:29:14.059234714,0.37200928,-0.7012329,1.251236,13.951787611589122,1.4817928371214812,-106.57334899902344,68.54846954345703,-173.23753356933594,29406726.0,50354.0,0.13185142219807547,-0.1794085523440942,0.1652556087922356,0.005783938075456276,-0.008241779917289863,0.0031703181417398595,29.40672665699094
1606,A,124154109588718.0,3.52241253803224,11.831925906504068,1.5006722902934342,31,1970-01-02 10:29:14.109588718,-0.55914307,0.8247986,0.22807312,7.619022288741874,1.022228473169046,-106.7101821899414,68.5475845336914,-173.35450744628906,29457080.0,50354.0,0.19516656697507545,-0.04175488344199419,0.1830427035885356,0.008233331913412422,-0.005568231822786348,0.008769106610810679,29.457080660999054
1606,A,124154159942722.0,3.4724095380322404,8.299897606504068,0.017594330293434213,31,1970-01-02 10:29:14.159942722,-0.13046265,-0.65026855,-0.6234131,10.900299994237475,0.9102272152686576,-106.43143463134766,68.6732406616211,-173.07420349121094,29507434.0,50354.0,0.17610863540907543,0.013389720587005811,0.03822539870651559,0.009347595770425769,-0.0007141497052000424,0.005570867011482504,29.507434664992616
1606,A,124154210296726.0,5.122754338032241,11.315019206504068,1.4122170902934341,31,1970-01-02 10:29:14.210296726,0.0039978027,0.12416077,-0.3282013,7.655579981005362,0.35092445419934903,-106.43456268310547,68.65571594238281,-173.07781982421875,29557788.0,50354.0,0.21640044090767543,0.00037556060110581404,0.03599836213611559,0.009882201014426837,0.0003465684844730864,0.0018687316267349255,29.55778866900073
1606,A,124154260650730.0,4.71128583803224,14.482301306504068,-0.48930264970656584,31,1970-01-02 10:29:14.260650730,0.15785217,0.43470764,-0.13131714,4.712080079109585,0.480762135682354,-106.76265716552734,68.58650207519531,-173.39759826660156,29608142.0,50354.0,0.24759162951277544,0.15602993855600583,0.023236216870655586,0.011681928356975693,0.0039378212522786,0.001491348995653478,29.60814267299429
1606,A,124154311004734.0,1.8132145380322404,11.444047606504068,-0.7875967097065659,31,1970-01-02 10:29:14.311004734,0.5906372,-0.20596313,-0.22157288,8.746441663138604,0.6636020299055235,-106.69985961914062,68.57886505126953,-173.3618621826172,29658496.0,50354.0,0.16426734596817544,0.15927848658280586,-0.032148495171944416,0.0103693734256839,0.007938520219719863,-0.0002243844307915489,29.658496676987852
1606,A,124154361358738.0,1.5485508380322406,7.992707606504068,-0.9716787097065658,31,1970-01-02 10:29:14.361358738,0.16711426,0.0018310547,0.14015198,11.919614290160421,0.218112599715336,-106.6607437133789,68.49425506591797,-173.333984375,29708850.0,50354.0,0.08463916687317544,-0.004110014002094212,-0.04429327723456442,0.006266719273806691,0.003906676634164577,-0.0019245745038786732,29.708850680995965
1606,A,124154411712742.0,2.26713283803224,8.994447606504067,-0.6024771097065658,31,1970-01-02 10:29:14.411712742,0.17576599,0.17869568,0.047470093,10.68228692583612,0.25510632885283574,-106.58250427246094,68.44426727294922,-173.2727813720703,29759204.0,50354.0,0.09606746791227544,-0.06578359320209422,-0.03963252106536441,0.004549650943993297,-0.0017597113485798522,-0.002112999823797308,29.759204684989527
