Subject-id_accel,Activity_accel,Timestamp_accel,accel_x,accel_y,accel_z,Segment_accel,DateTime,gyro_x,gyro_y,gyro_z,accel_magnitude,gyro_magnitude,Roll,Pitch,Yaw,Time_Difference,Difference_Microseconds,vx,vy,vz,dx,dy,dz,Time_diff
1632,A,5583170575095.0,-6.813797,4.691360773826286,2.00885,164,1970-01-01 01:33:03.170575095,1.2938843,0.11427307,0.53704834,16.37801067578105,1.4055660197267401,-91.17267608642578,0.826964795589447,-88.87306213378906,15005479.0,50354.0,-0.3606377826159,-0.21242807871075123,0.0987932916677,-0.016281172715523873,-0.008581560169586675,0.004649833256084723,15.005479502000526
1632,A,5583220929099.0,-4.7162933,5.357544773826286,-2.273697,164,1970-01-01 01:33:03.220929099,2.2481384,-0.0848999,1.8987274,15.032324586032423,2.9438919813888096,-91.24939727783203,1.3518812656402588,-88.87383270263672,15055833.0,50354.0,-0.29029308348310007,-0.24046790502675125,-0.006668052919000002,-0.016388486415774527,-0.011402562182559101,0.0023194371359760197,15.055833506000454
1632,A,5583271283103.0,0.22946167,4.091858773826285,0.14103699,164,1970-01-01 01:33:03.271283103,1.5070648,0.5574646,2.2364655,15.359096781737279,2.7538680114236502,-91.13037872314453,1.4079375267028809,-88.90304565429688,15106187.0,50354.0,-0.11296495994851001,-0.25556156688075127,-0.05369398107177,-0.010152827759477647,-0.012488534014215192,-0.0015197349297856164,15.106187510000382
1632,A,5583321637107.0,1.384201,5.059982773826286,2.829895,164,1970-01-01 01:33:03.321637107,1.1709137,-0.15878296,1.3381348,14.72944142283566,1.7851766478993307,-90.76886749267578,1.3061357736587524,-88.88931274414062,15156541.0,50354.0,0.040627185042590004,-0.26305328535475125,0.07479915471223,-0.001821248158806348,-0.013057166134733247,0.0005313649567458616,15.15654151400031
1632,A,5583371991111.0,2.3753967,11.184799773826285,-0.6578827,164,1970-01-01 01:33:03.371991111,1.4045563,-0.6369629,0.8809967,8.62354975655421,1.7761349389213055,-90.78889465332031,0.924835741519928,-88.86006164550781,15206895.0,50354.0,0.0946553912929,-0.08447430979775125,0.054684753677100004,0.0034060094243986323,-0.008749702263154557,0.0032600163615181615,15.206895518000238
1632,A,5583422345115.0,1.9364471,15.628311773826285,-0.96035767,164,1970-01-01 01:33:03.422345115,0.7173462,-0.59898376,1.0474243,4.389381366998115,1.4037324458844243,-91.04889678955078,0.32564467191696167,-88.8342514038086,15257249.0,50354.0,0.10855929135260001,0.18160450943524878,-0.04074243779549001,0.005116336064965754,0.0024454470362732755,0.00035102568695129493,15.257249522000166
1632,A,5583472699119.0,1.6373749,18.312637973826284,-2.3982697,164,1970-01-01 01:33:03.472699119,0.030578613,-0.82562256,1.0711823,3.118186924583217,1.3527820160643944,-92.13929748535156,-0.37487757205963135,-88.79349517822266,15307603.0,50354.0,0.089978116494,0.3610620917966488,-0.08456016129449001,0.004998576317353849,0.013662717019215486,-0.003154743537288427,15.307603526000094
1632,A,5583523053123.0,0.20300293,16.729721773826284,-0.028427124,164,1970-01-01 01:33:03.523053123,-0.74053955,-0.44778442,0.104904175,2.726588205679673,0.8717308058347885,-92.1380844116211,-0.46610063314437866,-88.77156829833984,15357957.0,50354.0,0.04633519262591,0.3887922913666487,-0.061096945937848,0.003431960183711975,0.018879083804902344,-0.0036672089887885744,15.357957530000022
1632,A,5583573407127.0,-5.6296844,9.629623773826285,8.499069,164,1970-01-01 01:33:03.573407127,-0.8685913,-1.0652313,-0.4303894,14.154140460348144,1.4402790023352212,-91.28515625,0.09151603281497955,-88.72068786621094,15408311.0,50354.0,-0.13662755937019,0.17018004285324873,0.213265350512052,-0.0022732909175207376,0.014073246458654359,0.003831143921964734,15.408311534000859
1632,A,5583623761131.0,-10.204742,4.281418773826285,12.810959,164,1970-01-01 01:33:03.623761131,0.1144104,-1.5396881,0.31497192,22.322648303166673,1.5757336371665918,-90.43517303466797,0.7616584897041321,-88.63776397705078,15458665.0,50354.0,-0.3986633534728,-0.14323088177775128,0.5365225749560001,-0.013477019312647961,0.0006784990283977991,0.018877410599509148,15.458665538000787
1632,A,5583674115134.0,0.79937744,8.432449773826285,1.4157715,164,1970-01-01 01:33:03.674115134,0.38475037,-1.2507782,1.0331726,11.135476723541261,1.6673105812058944,-90.22225189208984,0.6920344829559326,-88.57316589355469,15509019.0,50354.0,-0.23679886352711998,-0.1733721315757513,0.35818639379850004,-0.015999032237406986,-0.007971114067201135,0.022526087706332052,15.50901954100027
1632,A,5583724469138.0,6.3574677,11.143677773826285,-4.5451965,164,1970-01-01 01:33:03.724469138,0.07847595,-0.47921753,-0.111206055,11.403851829413233,0.49817135852672867,-90.7850341796875,-0.12442052364349365,-88.55201721191406,15559373.0,50354.0,0.18018789008978,-0.0006010367327512805,-0.07878953322500001,-0.0014252944782319086,-0.00438012245850317,0.00703437475865901,15.559373545000199
1632,A,5583774823142.0,4.342911,14.973938773826285,-7.250946,164,1970-01-01 01:33:03.774823142,-0.10368347,0.5400238,-1.1017761,9.563452892018761,1.2313758731796278,-91.86678314208984,-0.8290140628814697,-88.56926727294922,15609727.0,50354.0,0.2694034345299,0.16409403182024873,-0.2969914797225,0.011319360779949683,0.004116263137317924,-0.009461038562979208,15.609727549000127
1632,A,5583825177146.0,2.570755,8.474930773826285,-5.6226807,164,1970-01-01 01:33:03.825177146,-1.5436096,0.9339447,-1.7415009,12.595419769175876,2.5075503354012776,-92.541748046875,-1.1917370557785034,-88.60232543945312,15660081.0,50354.0,0.174065368882,0.09690298860124874,-0.3241192994259,0.011165214063501407,0.0065711219831520425,-0.01563770608661927,15.660081553000055
1632,A,5583875531150.0,-0.44847107,6.859177273826285,0.71694946,164,1970-01-01 01:33:03.875531150,-3.351303,-0.9957733,-1.8423309,12.617787073781738,3.9518324114133057,-92.56571960449219,-1.2010211944580078,-88.5514907836914,15710435.0,50354.0,0.053432742505610004,-0.10740236168425128,-0.12351159542948,0.005727719950405857,-0.000264342716110755,-0.011270003039773902,15.710435556999983
1632,A,5583925885154.0,-4.0879517,10.175964773826285,2.4086761,164,1970-01-01 01:33:03.925885154,-3.1172485,-1.395935,-1.912735,10.416079791739554,3.9146427570344464,-92.33477783203125,-0.7051442861557007,-88.4845962524414,15760789.0,50354.0,-0.11421351608029,-0.06457542866625128,0.07869387472412001,-0.0015302775362897184,-0.004329884827654604,-0.0011283757541988484,15.76078956100082
1632,A,5583976239158.0,-4.84404,9.589462773826286,-2.2067108,164,1970-01-01 01:33:03.976239158,-1.7494202,-1.7034454,-0.30122375,11.204318816938297,2.4602709229906496,-92.65335845947266,-0.08161565661430359,-88.39778900146484,15811143.0,50354.0,-0.2248807550309,0.004164969367248748,0.0050848803580999975,-0.00853737646376643,-0.0015209541337709868,0.0021092977167050534,15.811143565000748
1632,A,5584026593162.0,-1.8367462,10.563827773826285,-1.587738,164,1970-01-01 01:33:04.026593162,-1.7782135,-0.5418701,1.4400635,9.21051656719722,2.351478118309526,-92.9249267578125,0.2792448103427887,-88.3746566772461,15861497.0,50354.0,-0.1682021541574,0.013930196118248734,-0.09553283743760002,-0.00989664840463383,0.00045558198142837015,-0.0022772082153905723,15.861497569000676
1632,A,5584076947166.0,-0.535614,10.006042773826286,-1.406311,164,1970-01-01 01:33:04.076947166,-0.8134613,1.625,0.35795593,9.561713359713206,1.8521546194688647,-93.10429382324219,0.36614498496055603,-88.45751953125,15911851.0,50354.0,-0.05972891275540001,0.024418430778248727,-0.07538117167300001,-0.0057386204716635665,0.0009655033793731167,-0.004303102007377577,15.911851573000604
1632,A,5584127301170.0,-2.613922,9.113937773826285,0.35154724,164,1970-01-01 01:33:04.127301170,-0.2745514,1.1477356,-0.6523285,10.665893695437417,1.3484094150745056,-92.99620819091797,0.6727139353752136,-88.51199340820312,15962205.0,50354.0,-0.07929586787200002,-0.012085449751751272,-0.026555787185520006,-0.0035002269018560507,0.00031050746330412647,-0.0025664668131809587,15.962205577000532
1632,A,5584177655174.0,-4.3852844,7.292175773826285,1.0531158,164,1970-01-01 01:33:04.177655174,-0.039520264,1.0902863,-0.09635925,12.966042987273218,1.0952493653478563,-92.81262969970703,1.1338750123977661,-88.5632553100586,16012559.0,50354.0,-0.17621901953280003,-0.08041247921075129,0.03536520135808,-0.006433098320190651,-0.002328820357488927,0.00022179462062254303,16.01255958100046
1632,A,5584228009177.0,-5.3733215,5.386444773826286,5.3471375,164,1970-01-01 01:33:04.228009177,1.2189941,0.466156,0.49076843,15.975246410759036,1.3943104690331616,-92.21133422851562,1.6145373582839966,-88.57453155517578,16062913.000000002,50354.00000000186,-0.24569242074430905,-0.17425957047175772,0.16113917733410593,-0.010622464331857168,-0.006411878194856766,0.004947390742333348,16.062913584000853
1632,A,5584278363181.0,-3.2510986,4.309891773826285,4.603714,164,1970-01-01 01:33:04.278363181,2.8069153,0.0043792725,0.9573364,16.15376497741384,2.9656846869090243,-91.61107635498047,1.9131088256835938,-88.56205749511719,16113267.0,50353.99999999814,-0.21713702485769196,-0.24934453473974202,0.2505325882154907,-0.011652656951921149,-0.010665080556909533,0.01036466004124181,16.11326758800078
1632,A,5584328717185.0,0.3892975,5.689865773826286,-0.26820374,164,1970-01-01 01:33:04.328717185,2.579193,0.7706604,1.2447357,13.766847205066243,2.96572435439163,-91.47108459472656,1.886003851890564,-88.60197448730469,16163621.0,50354.0,-0.07205156629470001,-0.24170530422275127,0.10915514181602001,-0.0072809011594437735,-0.012363161795558695,0.009055857979003344,16.16362159200071
1632,A,5584379071189.0,-0.60650635,5.951553773826285,1.0203552,164,1970-01-01 01:33:04.379071189,2.8144684,3.1959229,1.5805359,13.549135154996327,4.542383657126705,-91.1912612915039,1.9785149097442627,-88.75884246826172,16213975.000000002,50354.00000000186,-0.0054686672164502015,-0.20037318004875865,0.0189369173084207,-0.001951726919110301,-0.011130209998504217,0.003224973772576163,16.213975596000637
1632,A,5584429425193.0,-2.0489655,8.390365773826286,2.5336456,164,1970-01-01 01:33:04.429425193,1.7034607,1.5098419,1.5329437,11.528314106866345,2.7443245629498327,-90.7653579711914,2.2610480785369873,-88.82305145263672,16264329.0,50353.99999999814,-0.06685681476744752,-0.13238269154874635,0.08947907814159668,-0.0018209386599085256,-0.008377794579210073,0.0027295895174449867,16.264329600000565
1632,A,5584479779197.0,-0.52723694,12.737473173826285,-0.14105225,164,1970-01-01 01:33:04.479779197,0.36769104,-1.2931519,1.0525665,6.733276634438465,1.7074351449739287,-90.7553482055664,2.3702683448791504,-88.75948333740234,16314682.999999998,50353.99999999814,-0.0648610488318776,0.0384664011850473,0.060238322772947765,-0.0033162606518400864,-0.0023645304424867635,0.0037694350028253457,16.314683604000493
1632,A,5584530133201.0,2.557724,15.208878173826285,-2.4550781,164,1970-01-01 01:33:04.530133201,0.28468323,-1.4713745,0.9925232,5.526712305354692,1.7975232302342363,-91.36052703857422,1.7130069732666016,-88.70878601074219,16365037.000000002,50354.000000003725,0.05112157270962378,0.21013608787986424,-0.06536277382195484,-0.00034591879033000995,0.00625906486718774,-0.00012901830406086056,16.36503760800042
1632,A,5584580487205.0,3.2576904,16.511673573826286,-1.5080719,164,1970-01-01 01:33:04.580487205,-0.67007446,-1.4505157,0.42695618,4.6381384044667975,1.6538703569297608,-91.83656311035156,0.7032966017723083,-88.6458511352539,16415391.0,50353.99999999814,0.1464146883487946,0.30515913135063744,-0.09978022754999631,0.004973370444667616,0.012973587734565861,-0.0041578053455414606,16.41539161200035
1632,A,5584630841209.0,-2.3515167,14.288422273826285,6.147934,164,1970-01-01 01:33:04.630841209,-1.2314606,-1.3557587,-0.84609985,8.363856357455402,2.0175385543151516,-90.81626892089844,1.0546884536743164,-88.56034851074219,16465744.999999998,50353.99999999814,0.02281473524489916,0.28198481315633833,0.11681780809169569,0.00426068919781827,0.01478252309085158,0.0004289551652983493,16.465745616000277
1632,A,5584681195213.0,-11.7733,5.532181773826286,8.11911,164,1970-01-01 01:33:04.681195213,-0.31219482,0.10140991,0.11729431,19.954875670768885,0.3485793032287152,-90.2347412109375,1.8871484994888306,-88.55028533935547,16516099.0,50354.00000000186,-0.35562051005591316,0.005554148107748952,0.35920136678801323,-0.00837905099241721,0.007239368427746194,0.011984734765946874,16.516099620000205
1632,A,5584731549217.0,-7.373581,10.608490773826286,1.5859375,164,1970-01-01 01:33:04.731549217,0.5522003,0.11947632,1.1580505,11.620340596044345,1.288518809684625,-90.00719451904297,2.8175604343414307,-88.54805755615234,16566453.0,50354.0,-0.48206102293700004,-0.08709548726775122,0.24434398090749998,-0.02109030795616258,-0.002052966296031377,0.015195461218929939,16.566453624000133
1632,A,5584781903220.0,0.7436218,8.224151773826286,4.162384,164,1970-01-01 01:33:04.781903220,1.0228119,0.7909241,0.3590393,11.99443671692236,1.3418697156158306,-89.4601821899414,2.6810009479522705,-88.5638427734375,16616807.000000002,50354.00000000186,-0.16692248277840618,-0.019319758577751943,0.14472549040550536,-0.016339457723397385,-0.0026792166446523323,0.009795602079247899,16.616807627000526
1632,A,5584832257224.0,3.7782745,8.787369773826285,1.249527,164,1970-01-01 01:33:04.832257224,0.35450745,1.5015106,-0.55307007,11.379735194601642,1.6389313946433717,-89.30087280273438,2.1162567138671875,-88.63323974609375,16667161.0,50353.99999999814,0.11384778314509578,-0.06517012199474885,0.13625568324699497,-0.0013362617126678068,-0.0021272017231737735,0.007074263009048738,16.667161631000454
1632,A,5584882611228.0,3.1272583,11.194687773826285,-4.658798,164,1970-01-01 01:33:04.882611228,-1.0531464,0.09776306,-2.1249847,9.980536435310423,2.3736543410883595,-90.03695678710938,1.5179497003555298,-88.66081237792969,16717514.999999998,50353.99999999814,0.17386059930559356,0.009619062877248355,-0.08583521596699682,0.007243633944960737,-0.0013986090154012583,0.0012694361047084664,16.71751563500038
1632,A,5584932965232.0,-1.5432892,8.115585773826286,-4.5644836,164,1970-01-01 01:33:04.932965232,-1.9979858,-2.410675,-2.927414,12.31476034754918,4.286380050814747,-90.66390228271484,1.5167522430419922,-88.55419158935547,16767869.000000002,50354.000000003725,0.03987959003070294,-0.007294442890751798,-0.23221456084321718,0.005381336746920334,5.852695740002815e-05,-0.00800753923075135,16.76786963900031
1632,A,5584983319236.0,1.2290344,12.626938473826286,5.790024,164,1970-01-01 01:33:04.983319236,-2.8348083,-1.4111481,-1.5981293,9.031604758235241,3.5470402193097543,-89.87299346923828,1.2138136625289917,-88.46015167236328,16818223.0,50353.99999999814,-0.007911993099599708,0.0287653329831477,0.030855430650798855,0.0008048481879343563,0.0005405725998562316,-0.005069618820854329,16.818223643000238
1632,A,5585033673240.0,-0.68222046,11.496918373826286,5.8189087,164,1970-01-01 01:33:05.033673240,-1.9597015,-0.93362427,-1.3413849,9.876956255949677,2.5517440499750936,-89.12849426269531,1.2206658124923706,-88.39573669433594,16868577.0,50354.0,0.01376713456738,0.11389714385334877,0.29227809858790005,0.00014741489673430441,0.0035918131793124717,0.008135532865642723,16.868577647000166
1632,A,5585084027244.0,-2.0274048,10.923950773826286,1.4041748,164,1970-01-01 01:33:05.084027244,-1.2495575,-0.41262817,-0.8509979,8.874210689941222,1.5671162618925913,-88.9847412109375,1.4755675792694092,-88.37105560302734,16918931.0,50354.0,-0.06822023517102,0.07102102253044879,0.1818555732795,-0.0013709657138978443,0.004655684675044871,0.011937263456605533,16.918931651000094
1632,A,5585134381248.0,2.2786102,11.258499773826285,1.1718597,164,1970-01-01 01:33:05.134381248,-0.7183075,1.2574463,-0.0892334,8.58154760686347,1.4508960891860931,-88.85066223144531,1.056794285774231,-88.43006896972656,16969285.0,50354.0,0.006324598355800009,0.06501835743824876,0.0648568206065,-0.0015583464480967936,0.003425063469471898,0.006211477940867822,16.96928565500002
1632,A,5585184735252.0,1.569046,8.742584773826286,1.6532135,164,1970-01-01 01:33:05.184735252,-0.4815979,1.5935669,-0.6643982,10.945942121844938,1.7924332540497179,-88.68782043457031,0.7940826416015625,-88.50732421875,17019639.0,50354.0,0.09687244014740001,0.010098105656248742,0.0711268679564,0.0025981918383950675,0.0018912071913301637,0.003423661326948133,17.01963965900086
1632,A,5585235089256.0,-3.71492,7.903656773826286,0.67381287,164,1970-01-01 01:33:05.235089256,-0.4044037,1.2590637,-0.16546631,12.146613714288712,1.332727598940007,-88.66088104248047,1.2064217329025269,-88.56969451904297,17069993.0,50354.0,-0.054026669698000004,-0.07436677655475124,0.05858754291749001,0.001078727962604544,-0.0016180923272115975,0.003265819722571929,17.069993663000787
1632,A,5585285443259.0,-5.93425,4.695923773826285,3.065384,164,1970-01-01 01:33:05.285443259,0.26474,0.6420288,0.1937561,16.194232746840957,0.7209921455304835,-88.40778350830078,1.7140849828720093,-88.59538269042969,17120347.0,50354.0,-0.24293715309,-0.17624956055175126,0.09414175959599,-0.007476658166333476,-0.006309767519330414,0.003845265649381886,17.12034766600027
1632,A,5585335797263.0,-1.2512207,4.924576773826285,3.3858185,164,1970-01-01 01:33:05.335797263,2.0365753,0.24238586,1.1590576,14.965840770612916,2.3558022790157476,-88.02081298828125,1.8502271175384521,-88.59688568115234,17170701.0,50354.0,-0.1809085958139,-0.2512538577117513,0.1624219253425,-0.010671164420153492,-0.010763253561620206,0.0064595038956963636,17.1707016700002
1632,A,5585386151267.0,3.6103363,5.651504773826286,0.6912689,164,1970-01-01 01:33:05.386151267,2.6199646,0.3945465,2.258072,14.278376860313145,3.481202465111647,-87.86878967285156,1.557025671005249,-88.61241149902344,17221055.0,50354.0,0.0593954534612,-0.2271951948747513,0.1026488294698,-0.003059336385013928,-0.012045911796970376,0.006673686393909278,17.221055674000127
1632,A,5585436505271.0,2.9586334,5.9313357738262855,2.243515,164,1970-01-01 01:33:05.436505271,2.1331024,2.2277374,1.4296112,14.017957589798328,3.399518782917659,-87.58707427978516,1.292912483215332,-88.7169189453125,17271409.0,50354.0,0.16538695013690002,-0.20184802353175127,0.0738890542503,0.005659346575389365,-0.010802021109820516,0.004444694298420958,17.271409678000055
1632,A,5585486859275.0,0.51197815,10.103119773826286,-2.0566864,164,1970-01-01 01:33:05.486859275,1.5423279,0.14816284,0.4679718,9.582795252884118,1.618556512411759,-87.87615203857422,1.2088571786880493,-88.73137664794922,17321763.0,50354.0,0.08737958699435001,-0.08976971267675124,0.004703783662200004,0.006363903105353483,-0.0073420597445214685,0.0019787318801230127,17.321763681999983
1632,A,5585537213279.0,-2.2267761,12.685501773826285,-0.402359,164,1970-01-01 01:33:05.537213279,1.1530914,-0.7853546,0.88357544,7.1316083715299605,1.651395525810311,-87.9486083984375,1.670149326324463,-88.69355010986328,17372117.0,50354.0,-0.04317346798715,0.08027992470524875,-0.0619113860358,0.0011129774582442748,-0.00023892439175851818,-0.0014403158049601272,17.37211768600082
1632,A,5585587567283.0,1.1515656,15.764084473826285,-0.4374237,164,1970-01-01 01:33:05.587567283,0.8624573,-0.944046,1.396286,3.8849776841330175,1.8933224865920992,-88.11405944824219,1.274490237236023,-88.64940643310547,17422471.0,50354.0,-0.0270705747585,0.2228060329571488,-0.021143209037900002,-0.0017685342642072299,0.0076307951560661835,-0.002091065540170545,17.422471690000748
1632,A,5585637921287.0,3.705246,17.838638973826285,-1.7979279,164,1970-01-01 01:33:05.637921287,-0.15093994,-0.5673523,1.0338898,4.421916678563432,1.1889489544747216,-88.7204360961914,0.11427426338195801,-88.62654113769531,17472825.0,50354.0,0.12227994565320001,0.3525465682415487,-0.056279447233200004,0.0023970863310158624,0.014485652440379608,-0.001949270216937485,17.472825694000676
1632,A,5585688275291.0,-0.19781494,16.548706773826286,1.5585632,164,1970-01-01 01:33:05.688275291,-1.4576721,-0.5296631,0.043640137,3.298119860109763,1.5515332455920494,-88.14464569091797,0.19909358024597168,-88.59829711914062,17523179.0,50354.0,0.08830659179762,0.3723010038886488,-0.006026485051899997,0.005301937253399296,0.018249487323521982,-0.0015686764571419627,17.523179698000604
1632,A,5585738629295.0,-13.513397,5.033142773826286,11.958191,164,1970-01-01 01:33:05.738629295,-0.7362213,0.26065063,-0.38398743,23.095788750451693,0.8702912730178856,-87.4692153930664,1.0152531862258911,-88.60465240478516,17573533.0,50354.0,-0.34520718301338005,0.04989702606124878,0.3403113204934,-0.006467986185039191,0.010629679800048572,0.008416289301910646,17.57353370200053
1632,A,5585788983299.0,-6.140625,8.217575773826285,9.620102,164,1970-01-01 01:33:05.788983299,0.8135834,-1.8768768,1.0358887,16.012164225905035,2.2929565782895867,-86.61070251464844,1.5927643775939941,-88.48982238769531,17623887.0,50354.0,-0.494829311894,-0.15985585912575126,0.543276682861,-0.021149598832283106,-0.002768433540064979,0.022246095160453727,17.62388770600046
1632,A,5585839337302.0,6.2105255,3.612762773826285,10.09845,164,1970-01-01 01:33:05.839337302,0.3383789,-1.0880127,0.6745453,19.781882186718516,1.324116036108086,-85.93017578125,1.1402472257614136,-88.41779327392578,17674241.0,50354.0,0.0017598848885000038,-0.1956167663857513,0.496453983704,-0.012414008963717475,-0.0089497342925031,0.026177298992107006,17.674241709000853
1632,A,5585889691306.0,6.8025665,13.694199273826285,0.23313904,164,1970-01-01 01:33:05.889691306,-0.26512146,-0.7648773,-0.47781372,8.913042177647574,0.9400173528334782,-85.97132110595703,0.002335924655199051,-88.38148498535156,17724595.0,50354.0,0.327630617284,-0.05773181652625128,0.26011841726008,0.008293064673197032,-0.006378557271975489,0.01904822333907264,17.72459571300078
1632,A,5585940045310.0,5.8890533,12.524963973826285,-8.229004,164,1970-01-01 01:33:05.940045310,-0.9656067,1.742157,-1.7197571,12.261080915225415,2.631553114556934,-87.0347900390625,-0.7661207318305969,-88.46732330322266,17774949.0,50354.0,0.3195369117046,0.16665067308614873,-0.20131189209792,0.016293736877345984,0.002742250051608538,0.0014805718840077025,17.77494971700071
1632,A,5585990399314.0,1.4323883,5.745148773826285,-5.774597,164,1970-01-01 01:33:05.990399314,-2.499649,0.20343018,-1.4108276,14.93928082681395,2.8775099440762304,-87.78054809570312,-0.9562366604804993,-88.47159576416016,17825303.0,50354.0,0.1843319351632,-0.033482571352351276,-0.352568662377,0.012685905957590603,0.003352773297351819,-0.013945050720015062,17.825303721000637
1632,A,5586040753318.0,-2.4291077,7.605652773826286,4.2985687,164,1970-01-01 01:33:06.040753318,-2.79422,2.5842438,-1.7919312,12.83095899051587,4.206780104993828,-87.48993682861328,-0.7469074130058289,-88.61080169677734,17875657.0,50354.0,-0.0250944043338,-0.15733606943475126,-0.03716196450910001,0.004009123313691804,-0.004804240919096881,-0.009812247993111341,17.875657725000565
1632,A,5586091107322.0,-4.6812134,11.648285773826284,1.6668854,164,1970-01-01 01:33:06.091107322,-1.8296509,-0.1349945,-0.91270447,9.248625342608312,2.04911575574906,-87.37645721435547,-0.0519760362803936,-88.60804748535156,17926011.0,50354.0,-0.1790165543347,-0.008712789185751278,0.1501922378757,-0.0051389016063968255,-0.0041806121134883925,0.002845763192550888,17.926011729000493
1632,A,5586141461326.0,-1.4477997,12.142029473826286,1.3405762,164,1970-01-01 01:33:06.141461326,-1.1313477,-0.14915466,-0.1312561,7.5682990420147265,1.1486613489981352,-87.24285125732422,0.2163979709148407,-88.60075378417969,17976365.0,50354.0,-0.1543101628187,0.10549956699014873,0.07571886070320001,-0.008392166757771153,0.0024368007047813147,0.005687763728920966,17.97636573300042
1632,A,5586191815330.0,2.232956,10.391662773826285,1.4828186,164,1970-01-01 01:33:06.191815330,-0.70132446,1.1857758,-0.56684875,9.445255032936007,1.4897106267448368,-87.11941528320312,-0.15284615755081177,-88.66114044189453,18026719.0,50354.0,0.019767880165100005,0.07386156971914874,0.07108461087960001,-0.0033873710503696873,0.004515775338929983,0.0036960710040401562,18.02671973700035
1632,A,5586242169334.0,0.94415283,9.452362773826286,1.0973511,164,1970-01-01 01:33:06.242169334,-0.62475586,0.9341736,-1.0935822,10.100506829284816,1.5680950952343866,-87.06624603271484,-0.33518147468566895,-88.7108383178711,18077073.0,50354.0,0.07999006901291002,0.006143831213248736,0.0649609325369,0.0025116058864547586,0.0020142959792749716,0.0034252186465972205,18.077073741000277
1632,A,5586292523338.0,-5.776169,8.814728773826285,-0.829895,164,1970-01-01 01:33:06.292523338,-0.15939331,0.8641968,-0.88098145,12.129795499752294,1.2443354256980306,-87.23635864257812,0.312358021736145,-88.75627136230469,18127427.0,50354.0,-0.12165567111209001,-0.03355863610475126,0.0067337422296999995,-0.0010490148640510547,-0.0006902225427533591,0.0018050568265986881,18.127427745000205
1632,A,5586342877342.0,-5.5784454,5.154327773826285,2.0724335,164,1970-01-01 01:33:06.342877342,0.2776184,0.6151428,-0.1980896,15.483542042163977,0.7033577539478469,-87.09502410888672,0.8127872943878174,-88.78614807128906,18177781.0,50354.0,-0.2858751267488,-0.1417702632997513,0.031283391814499996,-0.01026040289774363,-0.004414255700307161,0.0009571573838308234,18.177781749000133
1632,A,5586393231345.0,-6.667633,4.8448037738262855,0.9576721,164,1970-01-01 01:33:06.393231345,2.0956573,-0.18284607,1.3859863,16.082448446611213,2.519160619759174,-86.970703125,1.4568262100219727,-88.77253723144531,18228135.0,50354.0,-0.3083195158768,-0.24172106502475127,0.0762889686912,-0.01496003851738473,-0.009655161173226002,0.0027083493204520088,18.228135752000526
1632,A,5586443585349.0,-1.7402039,4.421509773826285,-3.201645,164,1970-01-01 01:33:06.443585349,2.246292,-0.3373413,2.9685974,15.46260307524759,3.7379402650706512,-87.22760009765625,1.7303977012634277,-88.75785827636719,18278489.0,50354.0,-0.2116841096313,-0.2601712238107513,-0.056496505703300004,-0.013092131279417434,-0.01263614215601145,0.0004983148406463582,18.278489756000454
1632,A,5586493939353.0,3.5039978,1.727005773826285,3.991623,164,1970-01-01 01:33:06.493939353,1.7703094,2.22258,1.9051208,18.500425292362277,3.4210148334552715,-86.89970397949219,1.5181888341903687,-88.85758972167969,18328843.0,50354.0,0.0444070390203,-0.3386680240567513,0.019889276106,-0.004211534806773147,-0.015076975743560116,-0.0009216602195712224,18.32884376000038
1632,A,5586544293357.0,3.3885803,8.993606773826286,-3.363449,164,1970-01-01 01:33:06.544293357,1.3207092,0.76667786,0.7945404,11.493564233749167,1.7214418895829682,-87.3236083984375,1.103729486465454,-88.9051513671875,18379197.0,50354.0,0.1735344388237,-0.22355633788775126,0.015815536798,0.005487112587678388,-0.014155122760676741,0.0008989400744840081,18.37919776400031
1632,A,5586594647361.0,-1.9962921,14.175003773826285,-0.056625366,164,1970-01-01 01:33:06.594647361,1.063797,-1.3301239,0.7441864,5.639072624882308,1.8586842239888868,-87.34573364257812,1.6190283298492432,-88.83853149414062,18429551.0,50354.0,0.0350536400114,0.08984690775824876,-0.08610721231278201,0.005251622060831313,-0.003366402322370484,-0.0017697335144356667,18.429551768000238
1632,A,5586645001365.0,0.77267456,15.625504173826286,-1.6226349,164,1970-01-01 01:33:06.645001365,0.75994873,-1.2003784,1.6049347,4.224450743469187,2.1434191766146125,-87.9158706665039,1.3988933563232422,-88.79097747802734,18479905.0,50354.0,-0.030807018804580002,0.25681818859804884,-0.042278735717082,0.00010691718212410717,0.008727987130962506,-0.003232373013547887,18.479905772000166
1632,A,5586695355369.0,3.5728302,17.710129373826284,-1.7912598,164,1970-01-01 01:33:06.695355369,-0.09030151,-0.73335266,1.1141968,4.358438456511166,1.336934925778961,-88.52884674072266,0.26615291833877563,-88.76112365722656,18530259.0,50354.0,0.10940677334252,0.34582204582924875,-0.08595162686190001,0.0019789060200017155,0.015172673182176074,-0.0032284558386510304,18.530259776000094
1632,A,5586745716969.0,0.698761,17.368775073826285,0.46551514,164,1970-01-01 01:33:06.745716969,-1.1984863,-0.69273376,-0.25263977,2.2429037218659005,1.4071518492746546,-88.3256607055664,-0.1998739242553711,-88.72643280029297,18580621.0,50362.0,0.10756293800719999,0.3897742928963393,-0.03338357628346,0.0054635143014972985,0.01852305140544903,-0.00300497975040331,18.580621376000636
1632,A,5586796070973.0,-16.365005,3.003845773826285,16.103714,164,1970-01-01 01:33:06.796070973,-0.18351746,-0.27700806,-0.7142639,28.241330174538962,0.7877722020184674,-87.54273223876953,0.596921443939209,-88.71094512939453,18630975.0,50354.0,-0.39442902518800005,0.019452275081348717,0.41716348205778003,-0.007222427476951004,0.010303097301974252,0.009662426687680055,18.630975380000564
1632,A,5586846424977.0,-4.8940887,10.478027773826286,8.041397,164,1970-01-01 01:33:06.846424977,0.5997467,-2.127182,1.2916412,13.003354347068786,2.5598703785196486,-86.66828918457031,1.1843502521514893,-88.5886459350586,18681329.0,50354.0,-0.5352402020849001,-0.1540360696907513,0.607901459647,-0.02340628213504981,-0.0033884161968809287,0.02580806003730125,18.68132938400049
1632,A,5586896778980.0,3.7989044,4.827957773826286,0.20913696,164,1970-01-01 01:33:06.896778980,-0.10964966,-0.7268677,0.18870544,15.107561350293217,0.7589265078563268,-86.73389434814453,0.8029457330703735,-88.55284118652344,18731683.0,50354.0,-0.027573455121100005,-0.10811040186675124,0.20772369351092002,-0.014169959447475464,-0.006600061714403241,0.020534994481056956,18.731683386999975
1632,A,5586947132984.0,5.19928,15.194397773826285,-3.1391754,164,1970-01-01 01:33:06.947132984,0.09449768,-0.6549988,-0.37217712,7.4151950963397555,0.7592555881772072,-87.38117980957031,-0.23257368803024292,-88.52449035644531,18782037.0,50354.0,0.2265472886388,0.010633645623248755,-0.07376957780388001,0.005009564206475132,-0.002454172291942662,0.0033725627711561467,18.782037391000813
1632,A,5586997486988.0,6.1121826,12.838654173826285,-5.8423157,164,1970-01-01 01:33:06.997486988,-0.5099945,1.6820374,-1.5940704,10.732321761383108,2.3728473708153186,-88.2249755859375,-1.1212316751480103,-88.60227966308594,18832391.0,50354.0,0.2847886938802,0.21231894888604874,-0.2261270014247,0.012873906031880865,0.005613277471960583,-0.007550496175237959,18.83239139500074
1632,A,5587047840992.0,1.503067,5.278839773826286,-4.1857452,164,1970-01-01 01:33:07.047840992,-2.353012,-0.08969116,-2.1110077,14.851316497412881,3.162445807564999,-88.78862762451172,-1.3452695608139038,-88.59124755859375,18882745.0,50354.0,0.1917291391792,-0.037325054879951254,-0.2524764892793,0.011997289482936515,0.004405821269391517,-0.012049800085454608,18.88274539900067
1632,A,5587098194996.0,-2.0767517,11.221756773826286,14.005569,164,1970-01-01 01:33:07.098194996,-3.6721802,0.26600647,-1.8858032,16.37527733083574,4.136655723224274,-87.76200866699219,-1.239762306213379,-88.63400268554688,18933099.0,50354.0,-0.014443659691900002,-0.07803368071975124,0.24723370381259996,0.004463516517051753,-0.00290438688619371,-0.0001319976096951069,18.933099403000597
1632,A,5587148549000.0,-6.3042755,10.677292773826286,-0.058883667,164,1970-01-01 01:33:07.148549000,-1.6440735,-1.0406647,-0.8472748,10.80199417231562,2.122224134709475,-87.89815521240234,-0.4231613576412201,-88.58348083496094,18983453.0,50354.0,-0.2110091218144,0.05788317046124877,0.351135696628941,-0.005676224679984116,-0.0005073293967783166,0.015065146394916677,18.983453407000525
1632,A,5587198903004.0,-1.5500183,12.316925773826284,1.1502228,164,1970-01-01 01:33:07.198903004,-1.1305084,-0.13945007,-0.06939697,7.3882513277634745,1.1411886364395443,-87.78257751464844,-0.11612353473901749,-88.57760620117188,19033807.0,50354.0,-0.19774755500260002,0.08545624037424873,0.027476645351541006,-0.01029126685222161,0.003608856346605321,0.009532322934042596,19.033807411000453
1632,A,5587249257008.0,1.2067719,10.428757773826286,0.70132446,164,1970-01-01 01:33:07.249257008,-0.8704376,0.9907074,-0.5335083,9.12718992262788,1.4226010945016914,-87.77068328857422,-0.327365905046463,-88.6282730102539,19084161.0,50354.0,-0.008641914612800006,0.07919887467924873,0.04661640536502001,-0.005196267676506927,0.004145521831701905,0.0018654407378908568,19.08416141500038
1632,A,5587299611012.0,1.1978302,9.529083773826285,1.725357,164,1970-01-01 01:33:07.299611012,-0.6904297,0.7963867,-1.1780853,10.13944439333739,1.5807624491539107,-87.61582946777344,-0.5457796454429626,-88.67172241210938,19134515.0,50354.0,0.0605406670717,0.009009376645248734,0.061096559118420005,0.0013066548906577253,0.0022208191435968724,0.002711889306799569,19.13451541900031
1632,A,5587349965016.0,-7.235779,8.360641773826286,-0.48487854,164,1970-01-01 01:33:07.349965016,-0.14266968,1.3508148,-1.0556183,13.248935220978987,1.720286388013703,-87.7249984741211,0.1978607177734375,-88.74114227294922,19184869.0,50354.0,-0.1520174369376,-0.04305957988675126,0.031231526187420002,-0.0023031106349137645,-0.0008572819670113091,0.002324544203745134,19.184869423000237
1632,A,5587400319020.0,-5.5525513,4.853317773826285,2.3605042,164,1970-01-01 01:33:07.400319020,0.0745697,0.691391,-0.09552002,15.79319117637488,0.7019303592664236,-87.56016540527344,0.6935030817985535,-88.77461242675781,19235223.0,50354.0,-0.3219717919631,-0.16078134046875125,0.04722262724182,-0.011933626816032925,-0.0051321028517904875,0.0019752402208879755,19.235223427000165
1632,A,5587450673023.0,-7.761856,3.3817137738262844,0.14859009,164,1970-01-01 01:33:07.450673023,2.0506134,-0.18229675,1.0711365,17.844134064559764,2.32068542093761,-87.50041198730469,1.3540282249450684,-88.76338958740234,19285577.0,50354.0,-0.3352168325921,-0.2861358107247513,0.06317146693933,-0.016546038000426273,-0.011252033115598815,0.0027793921091988135,19.285577430000558
1632,A,5587501027027.0,-0.21913147,3.794372773826286,-1.7548828,164,1970-01-01 01:33:07.501027027,2.7391663,0.26539612,2.6981812,15.753801679585825,3.8540431896386664,-87.5851821899414,1.4758613109588623,-88.77609252929688,19335931.0,50354.0,-0.20093732153219002,-0.3127968689897513,-0.040441631559670004,-0.01349875313838725,-0.015079328077172032,0.0005722690653536997,19.335931434000486
1632,A,5587551381031.0,5.103653,1.911362773826287,3.3603973,164,1970-01-01 01:33:07.551381031,1.6451721,2.109314,2.071518,18.5713223844081,3.3833391218644358,-87.3032455444336,1.1554269790649414,-88.87271118164062,19386285.0,50354.0,0.12297759856081003,-0.34981589611675123,0.04042203856649999,-0.001962791945250434,-0.016682601587086416,-4.932927890413505e-07,19.386285438000414
1632,A,5587601735035.0,5.0562286,8.897232773826286,-1.4434509,164,1970-01-01 01:33:07.601735035,1.5839844,1.0797272,1.1341095,11.788987111219088,2.2273351260763277,-87.4603500366211,0.5746641755104065,-88.92793273925781,19436639.0,50354.0,0.2557953390432,-0.22134118989675122,0.0482629595128,0.00953636625005616,-0.014380021954561952,0.002232822196642536,19.43663944200034
1632,A,5587652089039.0,-0.33325195,14.468781173826287,0.039718628,164,1970-01-01 01:33:07.652089039,1.3744354,-1.8536072,0.4958191,4.991108891089009,2.3602476354378177,-87.4425277709961,0.6766193509101868,-88.83473205566406,19486993.0,50354.0,0.11891038311705,0.09481693316004877,-0.035341767412144,0.009433965966828614,-0.003185501211859958,0.00032531685351821604,19.48699344600027
1632,A,5587702443043.0,0.55914307,15.270416773826286,-1.8028717,164,1970-01-01 01:33:07.702443043,0.8412781,-0.25190735,1.6340485,4.584773754801747,1.8550796896295,-88.02127075195312,0.5679411888122559,-88.8252944946289,19537347.0,50354.0,0.005687260728239999,0.2552745867280488,-0.044390904893744004,0.0031369948790928664,0.008814254196222634,-0.0020074294906453427,19.537347450000198
1632,A,5587752797047.0,3.151123,17.344467773826285,-1.862793,164,1970-01-01 01:33:07.752797047,0.085235596,-0.44277954,1.1536713,4.222193759866309,1.2386590718643193,-88.67317199707031,-0.4508483409881592,-88.8018798828125,19587701.0,50354.0,0.09341336884439001,0.3276757482562487,-0.0922904401519,0.002495056550750106,0.014676940583899659,-0.0034412262242141793,19.587701454000126
1632,A,5587803151051.0,1.1385956,17.684998173826287,-0.3991394,164,1970-01-01 01:33:07.803151051,-1.0103302,-0.22157288,-0.17475891,2.1368157714953058,1.049000634321983,-89.01876831054688,-1.2137539386749268,-88.78638458251953,19638055.0,50354.0,0.10800224519220002,0.38846766416404876,-0.0569486720348,0.005071040914599228,0.01803034269450583,-0.003757393127524546,19.638055458000053
1632,A,5587853505055.0,-12.604935,8.335739773826285,15.182251,164,1970-01-01 01:33:07.853505055,-1.2258301,-1.001709,-1.039505,22.646868565135932,1.893845558584968,-88.13272094726562,-0.4545555114746094,-88.75141143798828,19688409.0,50354.0,-0.2886880270738,0.16165491930804882,0.37219440075320004,-0.0045491259304330425,0.013850436284077,0.007936941711943158,19.68840946199998
1632,A,5587903859059.0,-9.767242,0.6126867738262867,7.529846,164,1970-01-01 01:33:07.903859059,0.4840088,-1.8665466,1.1176147,22.51419529059231,2.228749278430638,-87.66895294189453,0.22887852787971497,-88.65704345703125,19738763.0,50354.0,-0.5632643003290001,-0.2681746648097513,0.571822466169,-0.021449603747020297,-0.002681847632496363,0.02376751265850023,19.73876346600082
1632,A,5587954213063.0,8.069534,12.752731773826286,4.965805,164,1970-01-01 01:33:07.954213063,0.3279724,-0.33628845,0.9497528,11.602205229964905,1.0595688735863291,-87.07368469238281,-0.724065363407135,-88.64093780517578,19789117.0,50354.0,-0.04274319431599997,-0.15696805722575125,0.31460300522699997,-0.015257450692677166,-0.010703818312687848,0.022317534093337095,19.789117470000747
1632,A,5588004567066.0,3.4150238,10.339020773826286,-3.4363098,164,1970-01-01 01:33:08.004567066,1.1047821,1.186676,-0.07771301,10.31769997811874,1.6232013828788066,-87.55855560302734,-1.1835408210754395,-88.69161987304688,19839471.0,50354.0,0.2891467117306,0.08791185389224877,0.03850810065039999,0.006203701357947386,-0.0017386280313275919,0.0088902783126753,19.83947147300023
1632,A,5588054921070.0,5.111664,14.816467773826286,-4.5026703,164,1970-01-01 01:33:08.054921070,-0.8487396,2.0209198,-1.5669861,8.237702347091336,2.6944240913845414,-88.4150161743164,-2.130796194076538,-88.77200317382812,19889825.0,50354.0,0.21467641874060003,0.13987053516424877,-0.19987970197770003,0.012684754955873406,0.005734877209275439,-0.004062852806617434,19.88982547700016
1632,A,5588105275074.0,1.652832,4.629745773826286,-4.843689,164,1970-01-01 01:33:08.105275074,-2.038803,0.5730438,-2.5283356,15.677736851856169,3.2981173077613235,-88.99592590332031,-2.357478141784668,-88.78516387939453,19940179.0,50354.0,0.17030971579200002,-0.0038718815107512215,-0.2353132880961,0.009692795909127272,0.003424038103034108,-0.010956853911088063,19.940179481000087
1632,A,5588155629078.0,-2.820816,9.859558773826285,0.506485,164,1970-01-01 01:33:08.155629078,-3.4731598,-1.3641357,-1.4150543,10.008152786219144,3.990749788736325,-89.12364196777344,-1.969468116760254,-88.72059631347656,19990533.0,50354.0,-0.029406333168000006,-0.12867197940375127,-0.10919778510800003,0.0035475244643244485,-0.0033370567862444295,-0.008673755290059627,19.990533485000014
1632,A,5588205983082.0,-5.3433228,9.668838773826286,3.005371,164,1970-01-01 01:33:08.205983082,-1.2809906,2.9098663,-1.697113,11.54239841855521,3.6039494080706866,-88.8289794921875,-1.3470783233642578,-88.87800598144531,20040887.0,50354.0,-0.2055485225676,-0.0018027349427512708,0.088417998512,-0.005915458402855202,-0.003284961883101895,-0.000523172687127493,20.040887489000852
1632,A,5588256337086.0,-3.1449127,11.980469373826285,0.27044678,164,1970-01-01 01:33:08.256337086,-1.2763824,-0.12313843,-0.061172485,8.107804845043386,1.2837667922538345,-88.87210083007812,-0.7637726068496704,-88.87261199951172,20091241.0,50354.0,-0.2137083051835,0.05159543123344874,0.08247526424705999,-0.010555629152289445,0.00125363071451089,0.004302579676484853,20.09124149300078
1632,A,5588306691090.0,0.3577423,10.380905773826285,1.540329,164,1970-01-01 01:33:08.306691090,-0.7717743,1.1963501,-0.15782166,9.204540110553829,1.4324094415618935,-88.69796752929688,-0.80718594789505,-88.93547058105469,20141595.0,50354.0,-0.0701725891608,0.06952314209244873,0.04558990181306001,-0.007147269276906443,0.0030494023206261204,0.0032242966858956413,20.141595497000708
1632,A,5588357045094.0,-0.13471985,9.963669773826286,0.08648682,164,1970-01-01 01:33:08.357045094,-0.37045288,1.0978088,-0.97125244,9.486274964062222,1.511869967908513,-88.73519134521484,-0.813989520072937,-88.99118041992188,20191949.0,50354.0,0.005615036223650001,0.01874617856324875,0.04095834190014,-0.0016253655102986258,0.0022223566861484956,0.002179025131967237,20.191949501000636
1632,A,5588407399098.0,-3.7299805,8.551987773826285,0.4629364,164,1970-01-01 01:33:08.407399098,-0.42774963,1.0884857,-0.99191284,11.526625133145487,1.5335129432862613,-88.72836303710938,-0.3796451687812805,-89.04704284667969,20242303.0,50354.0,-0.09730156071195001,-0.027300489922751248,0.01383282840994,-0.002308391627041929,-0.00021537189709819443,0.0013794772948968843,20.242303505000564
1632,A,5588457753102.0,-3.774643,6.210983773826285,4.3632965,164,1970-01-01 01:33:08.457753102,0.082092285,0.917572,-0.1210022,14.440242540776843,0.9291496385649415,-88.32054901123047,-0.0013318868586793542,-89.0943832397461,20292657.0,50354.0,-0.18894390585950002,-0.12178186534475127,0.1215100657233,-0.007206802111869397,-0.0037534464585699113,0.0034075280455925835,20.29265750900049
1632,A,5588508107105.0,-7.1272736,4.866043773826286,7.2022705,164,1970-01-01 01:33:08.508107105,1.19104,0.8892212,0.38290405,17.757294102056406,1.53489613187207,-87.7149658203125,0.5942678451538086,-89.13512420654297,20343011.0,50354.0,-0.2744775542382,-0.21458287743275126,0.291186280359,-0.011667562100879793,-0.00846865512890918,0.010390455905314068,20.343011511999975
1632,A,5588558461109.0,-0.8799896,6.932144773826286,3.9602509,164,1970-01-01 01:33:08.558461109,2.6672516,-0.3840027,2.5344849,13.157487011457011,3.6993651995494927,-87.2048110961914,0.8014907240867615,-89.10606384277344,20393365.0,50354.0,-0.20159886558640003,-0.19642620693575125,0.2810388012878,-0.011986176021923955,-0.010347975717145788,0.014406910880621484,20.393365516000813
1632,A,5588608815113.0,3.851944,1.5278937738262854,0.45555115,164,1970-01-01 01:33:08.608815113,2.0426788,1.3705292,2.738556,18.335661643895,3.6811106928694874,-87.13617706298828,0.6211631894111633,-89.16840362548828,20443719.0,50354.0,0.0748248959288,-0.28047080948575126,0.11117664821285,-0.003191788234069396,-0.012006836182444169,0.009874808372077866,20.44371952000074
1632,A,5588659169117.0,4.1000366,7.151062773826286,2.6741638,164,1970-01-01 01:33:08.659169117,1.6604004,2.178299,1.1593323,13.235963162782337,2.974217107667907,-86.8313980102539,0.22653062641620636,-89.27291870117188,20494073.0,50354.0,0.20020701556620002,-0.27495911099975123,0.07879683329615002,0.0069244784357096155,-0.013984059108063496,0.004782962343952093,20.49407352400067
1632,A,5588709523121.0,-1.6215057,14.228531473826285,-0.24536133,164,1970-01-01 01:33:08.709523121,0.61405945,-2.389328,0.6773529,5.471611584649732,2.5582736856827326,-86.93942260742188,0.6729564070701599,-89.15274047851562,20544427.0,50354.0,0.0624019724693,0.04480484437314876,0.061149959787190004,0.006611706491769785,-0.005794593970857971,0.0035234404094592517,20.544427528000597
1632,A,5588759877125.0,0.15350342,15.710831273826285,-2.2692719,164,1970-01-01 01:33:08.759877125,0.7739258,-0.28474426,1.839325,4.375388755583618,2.0157273856187965,-87.70772552490234,0.6999597549438477,-89.14327239990234,20594781.0,50354.0,-0.03695989340356,0.26031413589764874,-0.06331092083171001,0.0006405552246381361,0.007681980566277869,-5.440651621788026e-05,20.594781532000525
1632,A,5588810231129.0,2.797943,18.422257073826284,-3.1710205,164,1970-01-01 01:33:08.810231129,0.25073242,-1.208725,1.2033539,4.351691977201068,1.7239325626918434,-88.75125122070312,-0.16630679368972778,-89.08548736572266,20645135.0,50354.0,0.07430856651634,0.36589956532884876,-0.13697024175480002,0.0009403275429604623,0.015766182355779527,-0.005042478830440563,20.645135536000453
1632,A,5588860585133.0,2.4031525,17.016174973826285,-1.547821,164,1970-01-01 01:33:08.860585133,-1.0011292,-0.87908936,0.18894958,3.753338914205682,1.34564472344673,-89.41264343261719,-1.0719650983810425,-89.03435516357422,20695489.0,50354.0,0.1309479814035,0.3987642036637487,-0.1188062724455,0.005167744106977812,0.019251939711926628,-0.006439685298020954,20.69548954000038
1632,A,5588910939137.0,-5.8547363,11.552445073826284,5.557419,164,1970-01-01 01:33:08.910939137,-1.4541321,-1.3573303,-0.68659973,11.292121473691752,2.104344291408745,-88.79154205322266,-0.3459084928035736,-88.97588348388672,20745843.0,50354.0,-0.0869005253326,0.2258029469397487,0.10094964884600002,0.0011089828014970496,0.015724727150744255,-0.000449576212364611,20.74584354400031
1632,A,5588961293141.0,-14.969315,2.0713507738262855,9.831177,164,1970-01-01 01:33:08.961293141,1.2352753,-0.10913086,0.8881836,24.953977780217787,1.525347409183688,-88.18661499023438,0.5636550188064575,-88.96797180175781,20796197.0,50354.0,-0.5242871395801001,-0.15046289194365128,0.387438681492,-0.01538787183950705,0.0018968365646367447,0.012296152992919827,20.796197548000237
1632,A,5589011647145.0,4.6943665,16.235626773826286,4.25531,164,1970-01-01 01:33:09.011647145,0.5864258,-0.8990631,0.830719,7.104076081765401,1.3573148984845962,-87.32020568847656,-0.34970954060554504,-88.92040252685547,20846551.0,50354.0,-0.25869237838450004,-0.03255442628275123,0.35465548319900003,-0.01971307532379474,-0.0046078270209861365,0.01868370478442531,20.846551552000165
1632,A,5589062001148.0,3.0180206,1.897933773826285,0.622818,164,1970-01-01 01:33:09.062001148,0.669754,1.0610657,-0.99858093,17.819147483500675,1.603619254683653,-87.30219268798828,-0.6310727000236511,-88.97567749023438,20896905.0,50354.0,0.1941747700167,-0.036920546091751244,0.12281662865599999,-0.0016243598258761018,-0.001749171379472849,0.012021315360173337,20.896905555000558
1632,A,5589112355152.0,4.3346405,13.677063773826285,-4.4920654,164,1970-01-01 01:33:09.112355152,-1.4834442,1.424942,-1.4833679,8.501665622865758,2.536029716826688,-88.17699432373047,-1.422218680381775,-89.03546905517578,20947259.0,50354.0,0.1851179485147,-0.10133748674275128,-0.09741604178980001,0.009549452774465058,-0.0034809224926742703,0.0006395105755303168,20.947259559000486
1632,A,5589162709156.0,1.4038391,5.790954773826286,-3.9198456,164,1970-01-01 01:33:09.162709156,-1.9674225,1.170166,-2.3885498,14.27820215576349,3.3083545620356793,-88.71051025390625,-1.6470674276351929,-89.08588409423828,20997613.0,50354.0,0.1444777008892,-0.003322897025751253,-0.211786683247,0.008298229665041991,-0.0026350344821395883,-0.0077847970082515145,20.997613563000414
1632,A,5589213063160.0,-3.5829315,10.334595773826285,5.197815,164,1970-01-01 01:33:09.213063160,-2.432785,-1.1098633,-1.305542,11.086912936066616,2.975681319408362,-88.18849182128906,-1.2167683839797974,-89.04843139648438,21047967.0,50354.0,-0.054863009354800006,-0.08747621386175126,0.03217543558380001,0.0022562290887615886,-0.002286049214814651,-0.004522072382416387,21.04796756700034
1632,A,5589263417164.0,-4.4782104,11.058197773826285,-1.1805725,164,1970-01-01 01:33:09.263417164,-1.3335419,-0.8805847,-0.7329254,9.58367700056927,1.7581078052539496,-88.47183227539062,-0.5590137243270874,-89.00261688232422,21098321.0,50354.0,-0.20295536961629998,0.04513716314924871,0.10114211442250001,-0.006491093327355385,-0.0010659702797886769,0.0033565359565086157,21.09832157100027
1632,A,5589313771168.0,-1.8081207,12.523422773826287,0.1118927,164,1970-01-01 01:33:09.313771168,-1.3078461,0.18110657,-0.072784424,7.158199062705841,1.3223307390208345,-88.5517349243164,-0.18709798157215118,-89.01187896728516,21148675.0,50354.0,-0.15827095810470002,0.10024526052824875,-0.0269061513246,-0.009094595253031617,0.0036602932809283537,0.0018690388429158287,21.148675575000198
1632,A,5589364125172.0,1.1466675,9.550720773826285,3.15625,164,1970-01-01 01:33:09.364125172,-0.91186523,1.3125,-0.40612793,10.45201656821234,1.6489676598432845,-88.19888305664062,-0.35820814967155457,-89.07982635498047,21199029.0,50354.0,-0.0166534072164,0.06229151209924876,0.0822820287579,-0.004404070745689335,0.004092188324442505,0.0013941984661381942,21.199029579000126
1632,A,5589414479176.0,-0.93107605,9.487045773826285,0.18507385,164,1970-01-01 01:33:09.414479176,-0.41493225,1.4767303,-1.0519562,10.006677445443188,1.8599766121504304,-88.23755645751953,-0.2662946581840515,-89.15519714355469,21249383.0,50354.0,0.005427945936649998,-0.014155351629751284,0.08412451057145001,-0.00028262343864026584,0.001211924112140538,0.004189617440695045,21.249383583000053
1632,A,5589464833180.0,-3.5140533,8.517822773826285,0.9054413,164,1970-01-01 01:33:09.464833180,-0.13554382,1.6070557,-1.0093231,11.517384650927813,1.9025596627271095,-88.1734848022461,0.1291401982307434,-89.23716735839844,21299737.0,50354.0,-0.11191502164495001,-0.04016062457575127,0.027455899931550003,-0.0026810251051078695,-0.0013675133329259378,0.0028092599952340316,21.29973758699998
1632,A,5589515187184.0,-7.0682373,6.844391773826285,2.031128,164,1970-01-01 01:33:09.515187184,0.2569275,0.83529663,-0.22555542,14.592853303528385,0.9025560635423061,-88.00113677978516,0.8102461695671082,-89.27788543701172,21350091.0,50354.0,-0.2664303304362,-0.10669472433375128,0.0739340052661,-0.009525600929347115,-0.003697377119494546,0.0025526936431612343,21.35009159100082
1632,A,5589565541188.0,-7.8685455,4.966553773826286,3.5329285,164,1970-01-01 01:33:09.565541188,1.212326,0.40068054,0.6414337,16.856010044885547,1.4288864254748805,-87.68370056152344,1.494075059890747,-89.291259765625,21400445.0,50354.0,-0.3760633805556,-0.19610502394675128,0.1400862505005,-0.016176064161640552,-0.007623589262458213,0.0053883879794356885,21.400445595000747
1632,A,5589615895191.0,0.19096375,5.704437773826285,1.1993561,164,1970-01-01 01:33:09.615895191,2.6352844,0.43608093,2.5179443,13.797708011142912,3.670821971206928,-87.4856185913086,1.5636500120162964,-89.30611419677734,21450799.0,50354.0,-0.19329847571975,-0.22480564580475126,0.11914472937420001,-0.014334823455444488,-0.01059726793233358,0.006526658380305322,21.45079959800023
1632,A,5589666249195.0,2.7626953,3.5225837738262857,0.8247833,164,1970-01-01 01:33:09.666249195,2.048111,0.3907013,2.6966553,16.184886386153625,3.4087176446811753,-87.37247467041016,1.4162967205047607,-89.3195571899414,21501153.0,50354.0,0.07436427390184999,-0.26116047849475127,0.050961757673800005,-0.002994406399169269,-0.012235169111488576,0.004282771024407497,21.50115360200016
1632,A,5589716603199.0,3.4543762,7.575470773826286,2.666092,164,1970-01-01 01:33:09.716603199,1.9512329,1.4864807,1.042038,12.649577512973286,2.665103730618923,-87.03649139404297,1.0473687648773193,-89.38658142089844,21551507.0,50354.0,0.1565272091555,-0.21405348065375127,0.08788976742810001,0.0058131548689349015,-0.011964461849481849,0.003495864847490537,21.551507606000087
1632,A,5589766957203.0,-1.2113647,12.898682273826285,-4.064102,164,1970-01-01 01:33:09.766957203,1.089035,-1.240921,0.6309509,7.802927025202936,1.7674787686636606,-87.78813934326172,1.2770658731460571,-89.3392333984375,21601861.0,50354.0,0.056472300535499995,0.02200855128074875,-0.03519769777000001,0.005362688655490308,-0.004835115186824085,0.0013266282377819838,21.601861610000014
1632,A,5589817311207.0,-2.247223,15.070908273826285,-0.8935089,164,1970-01-01 01:33:09.817311207,0.7700348,-0.08558655,1.7623901,5.001249814098318,1.9251746713817819,-88.0536880493164,1.9807018041610718,-89.3399658203125,21652215.0,50354.0,-0.0870768625229,0.2107211812182487,-0.12481776962930002,-0.0007705310571567702,0.005859436475127259,-0.004028709422712177,21.652215614000852
1632,A,5589867665211.0,3.19635,18.143204373826286,-2.7273865,164,1970-01-01 01:33:09.867665211,0.19151306,-0.8644409,1.3332825,4.399924082130806,1.600492907372483,-88.9448013305664,0.9924692511558533,-89.31798553466797,21702569.0,50354.0,0.023896170478999997,0.34276251412994885,-0.09116328348580001,-0.0015907002835892706,0.01393505899778157,-0.005437754974278873,21.70256961800078
1632,A,5589918019215.0,1.1461334,18.452255873826285,-0.21786499,164,1970-01-01 01:33:09.918019215,-1.0304871,-0.661499,0.049621582,1.5342021168801947,1.2255394288506563,-89.216552734375,-0.09151262044906616,-89.2861099243164,21752923.0,50354.0,0.10933070456180001,0.4278947026551488,-0.07415259676373,0.003354253032902222,0.019402836746998404,-0.004162157917042417,21.752923622000708
1632,A,5589968373219.0,-9.096664,11.385727773826286,6.990753,164,1970-01-01 01:33:09.968373219,-1.147522,-1.031189,-0.5706177,14.022472377218683,1.6449200751885453,-88.5708236694336,0.8094760179519653,-89.23100280761719,21803277.0,50354.0,-0.20017050891620003,0.2577617142969488,0.17052100142777002,-0.0022870737542307292,0.01726277160960296,0.002426267324226536,21.803277626000636
1632,A,5590018727223.0,-12.345673,5.106445773826286,7.873535,164,1970-01-01 01:33:10.018727223,1.1183472,-0.8488159,0.9101105,20.4964729764186,1.6731676586794582,-87.98867797851562,1.7019507884979248,-89.17546844482422,21853631.0,50354.0,-0.5398537186490001,-0.07824574659075124,0.37423817897600004,-0.018631589977409047,0.004519673518938936,0.013715401885025718,21.853631630000564
1632,A,5590069081227.0,4.8558655,14.744736373826285,7.2756195,164,1970-01-01 01:33:10.069081227,0.7647705,-0.63887024,0.7621155,9.93178449738038,1.2545314410440886,-86.92469024658203,1.0171351432800293,-89.11811065673828,21903985.0,50354.0,-0.1885708834275,0.006324012931448738,0.38141026284650004,-0.018339546206480047,-0.0018107734883402592,0.019024960819765083,21.90398563400049
1632,A,5590119435230.0,2.3342896,4.569900773826285,8.776611,164,1970-01-01 01:33:10.119435230,0.01210022,0.66586304,-1.3601227,17.431388756213263,1.5144153203191586,-86.27003479003906,0.7370181679725647,-89.1449966430664,21954339.0,50354.0,0.18102653495270002,-0.00718458053355127,0.4041470072985,-0.0001899440615500392,-2.166651051813546e-05,0.019777975390440666,21.954339636999975
1632,A,5590169789234.0,2.711563,14.249390273826286,-5.308075,164,1970-01-01 01:33:10.169789234,-1.2111664,1.1652832,-1.6293488,7.909484884808002,2.3408516605613094,-87.35153198242188,0.1565481275320053,-89.21607971191406,22004693.0,50354.0,0.1270394309102,-0.019655909293251245,0.08732733087200004,0.007756176822530234,-0.000675763012369407,0.012373849412118679,22.004693641000813
1632,A,5590220143238.0,0.60191345,7.262848773826285,-4.747116,164,1970-01-01 01:33:10.220143238,-1.8367767,0.32536316,-2.186203,13.091592390682347,2.873863843113844,-88.02384948730469,-0.021451914682984352,-89.23792266845703,22055047.0,50354.0,0.08342339658165,0.04814444250274874,-0.253159543807,0.005298822607762308,0.0007172558006155185,-0.004175157625064495,22.05504764500074
1632,A,5590270497242.0,-3.405838,8.460602773826286,-0.807312,164,1970-01-01 01:33:10.270497242,-2.4126282,-0.92297363,-1.5466614,11.532017662303026,3.010783392966119,-88.29164123535156,0.3233172297477722,-89.1952133178711,22105401.0,50354.0,-0.07059440839535,-0.09759986038475126,-0.139843833756,0.00032299543556647516,-0.0012451390560151774,-0.009894646036903652,22.10540164900067
1632,A,5590320851246.0,-4.3359528,10.977432773826285,-0.5880127,164,1970-01-01 01:33:10.320851246,-1.1219482,-0.029418945,-0.83239746,9.53450650569342,1.3973255773879631,-88.4739990234375,0.9258929491043091,-89.19666290283203,22155755.0,50354.0,-0.19491506697160002,-0.004077779016751245,-0.03513008997190001,-0.006684732061313701,-0.0025599379272116286,-0.004405318477697339,22.155755653000597
1632,A,5590371205250.0,-1.9281769,11.959213773826285,0.8016968,164,1970-01-01 01:33:10.371205250,-1.2400513,-0.2293396,-0.027618408,7.775049626929969,1.2613828345194429,-88.42485809326172,1.2570332288742065,-89.18329620361328,22206109.0,50354.0,-0.1577119934569,0.08400675013024872,0.005379924585699998,-0.008878091500408344,0.002012371705724526,-0.0007490199139283578,22.206109657000525
1632,A,5590421559254.0,-0.02861023,10.473694773826285,1.3482361,164,1970-01-01 01:33:10.421559254,-0.7889099,0.7324829,-0.34848022,9.07564714975218,1.1315248529491824,-88.29129028320312,1.2139843702316284,-89.21662902832031,22256463.0,50354.0,-0.04926602957201,0.07132413850424872,0.0541288606233,-0.005211085685798867,0.003910765783150742,0.001498252685206993,22.256463661000453
1632,A,5590471913258.0,-0.31236267,9.535705773826285,1.9717102,164,1970-01-01 01:33:10.471913258,-0.6186676,0.8152313,-0.93200684,10.111901900777003,1.3841923354780707,-88.08574676513672,1.1830130815505981,-89.25379943847656,22306817.0,50354.0,-0.0085846747033,0.010307477588248714,0.0835862879951,-0.00145650718153948,0.0020552391983608078,0.003467254296765457,22.30681766500038
1632,A,5590522267262.0,-2.7234497,8.778122773826286,1.8085022,164,1970-01-01 01:33:10.522267262,-0.24888611,1.0629272,-0.84103394,11.160054204065315,1.3780771446050093,-87.91314697265625,1.463897705078125,-89.30406188964844,22357171.0,50354.0,-0.07643264803949001,-0.03238193865575125,0.0951744075948,-0.0021404811346952242,-0.0005557687062965114,0.004500658032866913,22.35717166900031
1632,A,5590572621266.0,-6.2031555,7.466003773826285,0.53378296,164,1970-01-01 01:33:10.572621266,0.18275452,0.74568176,-0.33763123,13.503574545788483,0.8387105276842785,-87.89488220214844,2.07366943359375,-89.34159088134766,22407525.0,50354.0,-0.22474513912040003,-0.08449082590975124,0.05897171347332,-0.007582753147324553,-0.0029425055934656566,0.0038809368901320577,22.407525673000237
1632,A,5590622975270.0,-5.3522797,5.270355773826285,2.6777954,164,1970-01-01 01:33:10.622975270,1.1050415,0.23426819,0.76782227,15.389604250140328,1.3658511411848948,-87.63924407958984,2.5622568130493164,-89.34355163574219,22457879.0,50354.0,-0.2909311920304001,-0.17280587566875127,0.08085790836972,-0.012983182989383696,-0.006477959055641957,0.003520490389142218,22.457879677000165
1632,A,5590673329273.0,-0.32868958,5.149444773826286,1.9189148,164,1970-01-01 01:33:10.673329273,2.5129547,0.36994934,2.3348846,14.431075253558225,3.450143465674389,-87.3822250366211,2.648530960083008,-89.35113525390625,22508233.0,50354.0,-0.14302976356256,-0.23112988161175127,0.11573137270540002,-0.010925834978963957,-0.010169890561051213,0.004949528329628297,22.508233680000558
1632,A,5590723683277.0,1.7444153,4.726654773826285,1.1153259,164,1970-01-01 01:33:10.723683277,2.3525696,1.1852417,2.348648,14.866822946474,3.5292391585392804,-87.22443389892578,2.535020112991333,-89.40321350097656,22558587.0,50354.0,0.03564372645244,-0.24481864168875128,0.0763930781039,-0.0027036582563214912,-0.011982955971136753,0.004837117298025747,22.558587684000486
1632,A,5590774037281.0,2.544693,5.547119773826285,2.6738586,164,1970-01-01 01:33:10.774037281,2.025589,2.1167603,0.70288086,14.383183293336666,3.0129265619877676,-86.92842864990234,2.260591745376587,-89.49921417236328,22608941.0,50354.0,0.10798687966910002,-0.2348063782137513,0.09540029815650002,0.0036161877703220135,-0.012075519126085309,0.004325241834108092,22.608941688000414
1632,A,5590824391285.0,-1.2569427,11.847412773826285,-3.1286469,164,1970-01-01 01:33:10.824391285,1.0361176,-0.4072113,0.75556946,8.315424761894242,1.3454538017940794,-87.48458099365234,2.4631288051605225,-89.5018539428711,22659295.0,50354.0,0.03242168930310001,-0.055527054047751274,-0.011450205029100005,0.00353506654101308,-0.007309724824047852,0.00211361149466855,22.65929569200034
1632,A,5590874745289.0,-2.5601501,14.893417773826286,0.13856506,164,1970-01-01 01:33:10.874745289,0.6244507,-0.690979,1.4079132,5.2271595729764,1.6880788589120268,-87.4683609008789,3.179168224334717,-89.46481323242188,22709649.0,50354.0,-0.09610294542560001,0.17978469069824876,-0.07528129048568001,-0.0016033029853961826,0.0031284345179495754,-0.0021836388625756167,22.70964969600027
1632,A,5590925099293.0,2.7660828,16.846314073826285,-2.1272888,164,1970-01-01 01:33:10.925099293,0.23602295,-0.99542236,1.3178864,4.352979592427855,1.6683516029361531,-88.19173431396484,2.2883903980255127,-89.44741821289062,22760003.0,50354.0,0.005184767587899999,0.3056420287283488,-0.05007009760198001,-0.002289046963419773,0.012221588515003446,-0.0031559718978830167,22.760003700000198
1632,A,5590975453297.0,2.4230804,17.169830973826286,-0.96842957,164,1970-01-01 01:33:10.975453297,-0.7438965,-0.5350952,0.3435669,3.464380804065625,0.9786455387681998,-88.65807342529297,1.2666455507278442,-89.43313598632812,22810357.0,50354.0,0.1306475618864,0.3629552838647488,-0.07794090140149001,0.003419850559174452,0.016833274539156416,-0.003222932921910365,22.810357704000126
1632,A,5591025807301.0,-7.7503967,10.078812273826285,7.88591,164,1970-01-01 01:33:11.025807301,-1.0975342,-0.28526306,-0.47750854,14.493068373992209,1.2304351829101503,-87.95468139648438,1.9871585369110107,-89.39826965332031,22860711.0,50354.0,-0.1341258424851,0.19256989104614872,0.17416140478611003,-8.757267063347007e-05,0.013986457328731666,0.0024225436137145784,22.860711708000053
1632,A,5591076161305.0,-13.614746,3.716324773826285,14.000748,164,1970-01-01 01:33:11.076161305,-0.21092224,-0.8304291,0.07673645,25.07761035450509,0.8602262285073794,-87.19556427001953,2.734074354171753,-89.32502746582031,22911065.0,50354.0,-0.5379101977579,-0.14614903455125128,0.551040388466,-0.016919851385198015,0.0011687379039720328,0.018258405548708376,22.91106571199998
1632,A,5591126515309.0,-0.79074097,11.837097773826287,0.24862671,164,1970-01-01 01:33:11.126515309,0.35957336,-1.3528595,0.8373413,7.6564977555392755,1.6311536655531966,-87.19742584228516,2.8523941040039062,-89.25643920898438,22961419.0,50354.0,-0.36268694544369,-0.10188068051775125,0.35875650707367,-0.022674334274386435,-0.006244644136292277,0.022905956439002274,22.96141971600082
1632,A,5591176869313.0,2.5944366,9.304031773826285,-6.38649,164,1970-01-01 01:33:11.176869313,0.051849365,1.2214508,-0.069732666,12.265010964665445,1.2245378957708948,-88.0013198852539,2.491514205932617,-89.35513305664062,23011773.0,50354.0,0.045411644876510004,0.03880101862124876,-0.15453298405233,-0.007988040242379892,-0.0015881566475682432,0.005141735639108277,23.011773720000747
1632,A,5591227223316.0,1.3663483,6.434250773826285,-3.7958221,164,1970-01-01 01:33:11.227223316,-0.06236267,2.016693,-0.85050964,13.62528153152845,2.189590465496107,-88.45552825927734,2.2497165203094482,-89.47594451904297,23062127.0,50354.0,0.0997206814273,-0.09722646029775128,-0.25636007174170006,0.0036539965793510247,-0.0014709773450893042,-0.010345054465726295,23.06212772300023
1632,A,5591277577320.0,2.3795013,11.844208373826286,-4.217636,164,1970-01-01 01:33:11.277577320,-0.6318817,0.5633545,-1.7245483,9.015384471941884,1.9211219676267381,-89.19091033935547,1.739455223083496,-89.53074645996094,23112481.0,50354.0,0.0943092553792,-0.03327243403955126,-0.2017548345837,0.00488509171897725,-0.0032855706627302663,-0.011533958996554598,23.11248172700016
1632,A,5591327931324.0,-0.083480835,8.363190773826286,-3.3198547,164,1970-01-01 01:33:11.327931324,-1.910553,-0.61227417,-1.6562805,11.572146039146473,2.601606718883244,-89.71600341796875,1.6251505613327026,-89.51384735107422,23162835.0,50354.0,0.057806907247305,0.015292488340448761,-0.1897714033539,0.003829828626447517,-0.0004526810928663037,-0.009857456092554956,23.162835731000087
1632,A,5591378285328.0,-1.9251251,11.463837273826286,5.889679,164,1970-01-01 01:33:11.378285328,-3.0785828,-0.31184387,-1.1726227,10.106966000634575,3.3090727783274434,-89.04000091552734,1.8067238330841064,-89.47395324707031,23213189.0,50354.0,-0.050570671625495,0.005715885155748769,0.0647004664011,0.00018218670425031036,0.0005289278195137652,-0.0031489109796606456,23.213189735000014
1632,A,5591428639332.0,-2.3451538,11.869995773826286,8.148453,164,1970-01-01 01:33:11.428639332,-2.116928,0.5378723,-0.6598511,11.372430711350473,2.2816867099719236,-88.1359634399414,2.03873610496521,-89.46769714355469,23263543.0,50354.0,-0.10751281186530001,0.09400671464074878,0.35343804936400003,-0.003980067863847746,0.002510715895076419,0.010527473411417925,23.263543739000852
1632,A,5591478993336.0,-2.3288727,10.725891773826286,-0.17324829,164,1970-01-01 01:33:11.478993336,-0.8638611,0.09864807,-0.029785156,9.029905492506398,0.8699854006395047,-88.25188446044922,2.357426881790161,-89.4755859375,23313897.0,50354.0,-0.11767796519050001,0.07542746078724877,0.20079172898367,-0.005669628193933878,0.004265844234750694,0.01395384312945929,23.31389774300078
1632,A,5591529347340.0,-0.3511963,10.068603773826286,0.66986084,164,1970-01-01 01:33:11.529347340,-0.61398315,0.68266296,-0.41511536,9.410433825610761,1.0076332604414235,-88.2255859375,2.3323116302490234,-89.50796508789062,23364251.0,50354.0,-0.06747609721299999,0.030073814403248765,0.012503214171350002,-0.0046616238291329205,0.0026562056054711567,0.005370126783813939,23.364251747000708
1632,A,5591579701344.0,-1.067215,9.462494773826286,-0.11909485,164,1970-01-01 01:33:11.579701344,-0.41352844,0.8532257,-0.83091736,10.043669880941055,1.2607234133538938,-88.3092041015625,2.386244297027588,-89.55445098876953,23414605.0,50354.0,-0.0357113413001,-0.0017347318657512244,0.013866635330230002,-0.002597950139444319,0.0007134930810465756,0.0006639137009012797,23.414605751000636
1632,A,5591630055348.0,-2.2614899,8.330109273826286,0.48023987,164,1970-01-01 01:33:11.630055348,-0.24194336,1.004837,-0.6224365,11.356305053901988,1.2065078460372065,-88.3043441772461,2.5831782817840576,-89.6048355102539,23464959.0,50354.0,-0.0838068032673,-0.045504807892251226,0.009092548168540002,-0.0030091083257734303,-0.0011893498924872277,0.0005780433629485324,23.464959755000564
1632,A,5591680409352.0,-3.5546417,6.1852117738262855,1.6877899,164,1970-01-01 01:33:11.680409352,0.10469055,0.9056244,-0.38252258,13.834790003460295,0.9886552429156075,-88.16709899902344,2.871014356613159,-89.64433288574219,23515313.0,50354.0,-0.14643274529320002,-0.12801696198325124,0.05458448551929,-0.00579674111410771,-0.004368757600155526,0.0016031966771584963,23.51531375900049
1632,A,5591730763355.0,-5.3983307,4.570862773826285,4.872711,164,1970-01-01 01:33:11.730763355,1.3135376,0.73339844,0.2060852,16.559956719280535,1.5184615266997163,-87.72262573242188,3.2838003635406494,-89.66002655029297,23565667.0,50354.0,-0.2254089861148,-0.2226635111137513,0.1651737311593,-0.009361859271659218,-0.008829082271163234,0.005532852621316861,23.565667761999975
1632,A,5591781117359.0,-3.9401703,5.310272773826286,3.72229,164,1970-01-01 01:33:11.781117359,2.3949738,0.26045227,1.713562,15.141747109767191,2.9563541086071865,-87.30413055419922,3.664660930633545,-89.65110778808594,23616021.0,50354.0,-0.23511543967700002,-0.24469185031675128,0.21639634017700002,-0.01159462346816015,-0.011766605934735764,0.009606789686034027,23.616021766000813
1632,A,5591831471363.0,1.2645874,3.645798773826286,2.686386,164,1970-01-01 01:33:11.831471363,2.1563873,1.0458832,2.173706,16.079309091041807,3.235564190381568,-87.02613067626953,3.572751522064209,-89.68749237060547,23666375.0,50354.0,-0.06736315067330001,-0.26798218664475126,0.161351235652,-0.007615503469249504,-0.012907594228579752,0.009510550716646733,23.66637577000074
1632,A,5591881825367.0,3.4037323,4.856995273826286,1.409668,164,1970-01-01 01:33:11.881825367,1.9069214,1.53508,1.3360443,15.0494951485254,2.788876871383972,-86.87311553955078,3.233344554901123,-89.75739288330078,23716729.0,50354.0,0.1175342850869,-0.2793943542622513,0.10312635155800003,0.001263158651131207,-0.013781299170415606,0.006658752213186171,23.71672977400067
1632,A,5591932179371.0,-0.32707214,11.553024773826285,-1.4217834,164,1970-01-01 01:33:11.932179371,1.2515106,-0.026275635,0.77156067,8.029224997161354,1.4704676325570252,-87.14097595214844,3.2514684200286865,-89.77265930175781,23767083.0,50354.0,0.07746107284832002,-0.08031412526025127,-0.0003050294258000028,0.0049093981267350345,-0.009056380388938048,0.0025887324273224,23.767083778000597
1632,A,5591982533375.0,-1.3905334,14.304199773826285,-0.6901703,164,1970-01-01 01:33:11.982533375,0.7146454,-0.9081421,1.3909302,5.373519126862177,1.8083492314278262,-87.35496520996094,3.6116390228271484,-89.73876190185547,23817437.0,50354.0,-0.04324415468058,0.15753814243624875,-0.0531726583049,0.0008614793487091904,0.0019442690804400888,-0.0013464077439958341,23.817437782000525
1632,A,5592032887379.0,2.3494263,16.506989173826284,-2.4763641,164,1970-01-01 01:33:12.032887379,0.3186798,-0.8763428,1.6184692,4.50613145809592,1.8678801003781051,-88.16683197021484,2.888571262359619,-89.7383804321289,23867791.0,50354.0,0.024142046543300006,0.28226410413504877,-0.07972383658880002,-0.0004809337765722985,0.011072901161925558,-0.003345935051938685,23.867791786000453
1632,A,5592083241383.0,3.1769257,18.256424573826287,-1.5685425,164,1970-01-01 01:33:12.083241383,-0.77593994,-0.83517456,0.54255676,3.738241549051556,1.2625241280783883,-88.8194351196289,1.6766937971115112,-89.7198715209961,23918145.0,50354.0,0.13913696430400002,0.38176926792464877,-0.1018386134682,0.0041108756561024735,0.016718368208347007,-0.00457119780508509,23.91814579000038
1632,A,5592133595387.0,-7.3401184,10.557968773826286,9.968475,164,1970-01-01 01:33:12.133595387,-1.1098785,-1.0668488,-0.52835083,15.24109723222933,1.6276213461322566,-87.95294952392578,2.313077449798584,-89.63532257080078,23968499.0,50354.0,-0.1048167026079,0.2319907813138488,0.21148510055250003,0.0008640812287227101,0.015452636759677655,0.002760569605321422,23.96849979400031
1632,A,5592183949391.0,-10.620132,5.565246773826285,13.214539,164,1970-01-01 01:33:12.183949391,0.03492737,-1.2787628,0.20397949,21.912520818070064,1.2954002671682667,-87.11630249023438,2.9760372638702393,-89.5325698852539,24018853.0,50354.0,-0.4521852243208,-0.08753500215675128,0.5836787434780001,-0.01402363751428388,0.0036369631518382442,0.020019840101155904,24.018853798000237
1632,A,5592234303395.0,-3.9624023,3.2957007738262867,8.970062,164,1970-01-01 01:33:12.234303395,1.1970062,0.10331726,1.182251,18.896523398242817,1.6855906163874272,-86.43807220458984,3.269832134246826,-89.50091552734375,24069207.0,50354.0,-0.3671444660711,-0.27037712359275123,0.558541699377,-0.02062826361499687,-0.009011153589995225,0.028757684089760344,24.069207802000165
1632,A,5592284657398.0,4.8573456,13.469040773826286,3.9572449,164,1970-01-01 01:33:12.284657398,0.67578125,0.38523865,0.3526001,8.660753290345152,0.8540585142865769,-85.81293487548828,2.4279229640960693,-89.4898681640625,24119561.0,50354.0,0.022531987464100012,-0.07138330205475121,0.32547080582130006,-0.00867630837388844,-0.00860450223652717,0.022256782843377603,24.119561805000558
1632,A,5592335011402.0,8.529251,12.245621373826285,-4.5825806,164,1970-01-01 01:33:12.335011402,-1.2003632,1.102951,-1.9319763,12.067766113562987,2.5278261696716666,-86.47991943359375,1.2892539501190186,-89.5709457397461,24169915.0,50354.0,0.33703434259820003,0.15394884889144878,-0.0157440769189,0.009052801491978528,0.002078752772707535,0.0077979898535757266,24.169915809000486
1632,A,5592385365406.0,0.42210388,5.183700773826285,0.36769104,164,1970-01-01 01:33:12.385365406,-2.0458984,1.79982,-2.410736,14.275872676927893,3.6382276395545343,-86.63532257080078,1.0997979640960693,-89.6690902709961,24220269.0,50354.0,0.22536826181376002,-0.05465115628855128,-0.10611827445211999,0.01415961037127992,0.0025000180066631506,-0.0030681284204681705,24.220269813000414
1632,A,5592435719410.0,-4.8303986,9.239883773826286,3.043213,164,1970-01-01 01:33:12.435719410,-1.6974792,-0.1902008,-1.6322174,11.696651480759396,2.3625718231656028,-86.42131805419922,1.5848075151443481,-89.65774536132812,24270623.0,50354.0,-0.11098763616544,-0.13032661184375127,0.08587633101508,0.0028797610119477533,-0.004657185268266982,-0.0005096314099143558,24.27062381700034
1632,A,5592486073414.0,-3.6818695,10.785934773826286,0.56173706,164,1970-01-01 01:33:12.486073414,-1.440979,-0.90008545,-1.0815582,9.42938876544438,2.0140363541232174,-86.48902130126953,2.050665855407715,-89.6163558959961,24320977.0,50354.0,-0.2143133739537,0.010720833574248755,0.09076182766062,-0.008190103531769589,-0.003011314679491265,0.0044472189209780995,24.32097782100027
1632,A,5592536427418.0,-2.846695,12.372727073826287,0.4848175,164,1970-01-01 01:33:12.536427418,-1.3470459,-0.5058136,-0.49809265,7.642421735778531,1.5226543739916136,-86.54596710205078,2.5099050998687744,-89.59252166748047,24371331.0,50354.0,-0.1643696684165,0.08959642933834878,0.026349104157120006,-0.009534102957754526,0.0025256877283504685,0.0029485019303752405,24.371331825000198
1632,A,5592586781422.0,-1.168335,11.882599473826286,0.5623932,164,1970-01-01 01:33:12.586781422,-1.1685181,0.35697937,-0.22157288,7.67629875208513,1.241758173633136,-86.58550262451172,2.6557257175445557,-89.6102066040039,24421685.0,50354.0,-0.10108641030999999,0.11720715649024878,0.0263656237939,-0.006683387694097091,0.005206693880406601,0.0013271987056228307,24.421685829000126
1632,A,5592637135426.0,0.18309021,9.097427773826286,0.7633362,164,1970-01-01 01:33:12.637135426,-0.87298584,0.66752625,-0.6974945,10.380888292375767,1.3016121345507723,-86.61065673828125,2.5313024520874023,-89.6446762084961,24472039.0,50354.0,-0.02480550807783,0.03474494601414877,0.033377889103800004,-0.0031695808292503957,0.0038256980847532177,0.0015041624242253932,24.472039833000053
1632,A,5592687489430.0,-1.7985382,9.060501773826285,0.6096344,164,1970-01-01 01:33:12.687489430,-0.30181885,0.9303436,-1.0617981,10.560248536800003,1.4436235788597707,-86.6287612915039,2.6624248027801514,-89.6943588256836,24522393.0,50354.0,-0.04067213404423001,-0.036307007778751246,0.0345672807962,-0.0016485305957071048,-3.932802904739652e-05,0.0017106555425723002,24.52239383699998
1632,A,5592737843434.0,-2.894577,8.355438773826286,0.5473175,164,1970-01-01 01:33:12.737843434,0.046813965,1.3708496,-0.70162964,11.477640014774824,1.5406830708700963,-86.62967681884766,2.631437301635742,-89.7649154663086,24572747.0,50354.0,-0.11815856139040001,-0.054988064831751254,0.029128577986300006,-0.00399888041895768,-0.0022985360431146216,0.0016036706365670026,24.57274784100082
1632,A,5592788197438.0,-4.721405,7.432403773826286,2.9060059,164,1970-01-01 01:33:12.788197438,0.3184967,1.1999359,-0.49072266,13.233493778324746,1.3349513253512937,-86.61656188964844,2.610480785369873,-89.82632446289062,24623101.0,50354.0,-0.191747578814,-0.09597868817775125,0.0869443232418,-0.0078025068919261795,-0.003800889940520245,0.002922367434219874,24.623101845000747
1632,A,5592838551441.0,-7.765259,5.538864773826285,5.315445,164,1970-01-01 01:33:12.838551441,1.4633179,0.12887573,0.6234436,16.793860894343116,1.595803920481587,-86.54360961914062,2.641983985900879,-89.83090209960938,24673455.0,50354.0,-0.31437673952800005,-0.16689157177575129,0.20699146930930004,-0.012742691962896537,-0.006618284534849334,0.007400421449059046,24.67345584800023
1632,A,5592888905445.0,-2.815567,3.843078773826285,1.3066101,164,1970-01-01 01:33:12.888905445,2.4674835,0.4275818,2.4908295,15.911214469679429,3.532072000474189,-86.38812255859375,2.955833673477173,-89.84280395507812,24723809.0,50354.0,-0.266393456202,-0.25726000730075127,0.16672348125270003,-0.01462205121789421,-0.010678864306409106,0.009409021310299477,24.72380985200016
1632,A,5592939259449.0,4.3233643,1.3358467738262867,2.2853699,164,1970-01-01 01:33:12.939259449,2.1454315,2.4328613,2.1589813,18.76128988999289,3.896522896119004,-86.2868881225586,3.0713348388671875,-89.95747375488281,24774163.0,50354.0,0.037961812622099994,-0.3630793914867513,0.09043528046000002,-0.005751223490411143,-0.015618285043272952,0.006474486143640649,24.774163856000087
1632,A,5592989613453.0,4.173645,5.190491773826286,-4.290024,164,1970-01-01 01:33:12.989613453,1.8129272,2.1783142,1.1846313,15.463411368420779,3.071662270393861,-86.20191192626953,3.1375739574432373,-90.06241607666016,24824517.0,50354.0,0.21392920314609998,-0.3291555743857512,-0.0504711762757,0.00634186010399597,-0.017428399735771996,0.0010061762510481216,24.824517860000014
1632,A,5593039967457.0,-3.7412872,12.131744973826287,-0.21025085,164,1970-01-01 01:33:13.039967457,1.1268921,0.5060425,1.3193054,8.220566385284592,1.8073548504147767,-86.146728515625,3.2050793170928955,-90.08330535888672,24874871.0,50354.0,0.010885472330599992,-0.05734724540435121,-0.11330341989845001,0.005660159084476876,-0.00973098149385541,-0.004123353007876575,24.874871864000852
1632,A,5593090321461.0,-1.881607,15.254364773826286,0.3653412,164,1970-01-01 01:33:13.090321461,0.88526917,-0.65016174,1.9528351,4.611450530940068,2.2405304548932885,-86.10025024414062,3.300302267074585,-90.04420471191406,24925225.0,50354.0,-0.1415676072734,0.1960308851166488,0.00390470974195,-0.003290184111454876,0.0034916379970365164,-0.002754331325610201,24.92522586800078
1632,A,5593140675465.0,3.2904816,17.563568773826287,-2.5663147,164,1970-01-01 01:33:13.140675465,0.33795166,-1.0916901,1.6401825,4.57892558904375,1.9990490819989928,-86.07984161376953,3.378399610519409,-89.98405456542969,24975579.0,50354.0,0.0354712358042,0.3327879129292488,-0.0554139098095,-0.0026711883444800488,0.013314070878401564,-0.0012968471301007063,24.975579872000708
1632,A,5593191029469.0,1.6393127,17.987122173826286,0.7630005,164,1970-01-01 01:33:13.191029469,-0.8860626,-1.1373749,0.717865,2.3249548660109727,1.6106081933523653,-86.12062072753906,3.4103407859802246,-89.92475891113281,25025933.0,50354.0,0.12411743109110002,0.4015905459890488,-0.0454020416134,0.004017963866422969,0.01848944646018598,-0.002538243208974354,25.025933876000636
1632,A,5593241383473.0,-13.170624,9.243866773826285,8.53302,164,1970-01-01 01:33:13.241383473,-0.883728,0.104888916,0.41690063,18.719354155907862,0.9827425898871239,-86.1650390625,3.4314887523651123,-89.92859649658203,25076287.0,50354.0,-0.29032382460010003,0.19212540873504882,0.23404590812850004,-0.0041845783693760935,0.014947986592088607,0.004749486627250674,25.076287880000564
1632,A,5593291737477.0,-8.948456,8.616913773826285,8.789337,164,1970-01-01 01:33:13.291737477,0.040618896,-1.5705566,0.55044556,16.572646176935805,1.6647186678353592,-86.158203125,3.4536962509155273,-89.84827423095703,25126641.0,50354.0,-0.55689207716,-0.04378832815175127,0.43612498218900003,-0.02133035475861404,0.003734682677845683,0.0168728925055237,25.12664188400049
1632,A,5593342091480.0,1.4057007,17.176178573826284,-0.37869263,164,1970-01-01 01:33:13.342091480,0.12161255,-0.75964355,-0.026168823,2.698754047183227,0.7697614842737394,-86.14982604980469,3.449845552444458,-89.81038665771484,25176995.0,50354.0,-0.18990395018810002,0.15592348603684872,0.21175479330349,-0.018802083580543114,0.002823226870073099,0.016311669107574422,25.176995886999975
1632,A,5593392445484.0,3.1199493,6.347534773826286,-4.003311,164,1970-01-01 01:33:13.392445484,0.653183,2.2391968,-0.14955139,14.049851583514057,2.337309555636603,-86.12393951416016,3.4499294757843018,-89.92280578613281,25227349.0,50354.0,0.11394229005,0.09878733095384874,-0.11032570539251,-0.0019124867172969442,0.006412854239374791,0.002553680146334744,25.227349891000813
1632,A,5593442799488.0,2.9803467,13.174744273826285,-5.471863,164,1970-01-01 01:33:13.442799488,-0.3375244,1.196167,-1.3167267,8.842224759166672,1.8106649096332679,-86.14464569091797,3.3882763385772705,-89.98703002929688,25277703.0,50354.0,0.15358715239200002,-0.0019567804172512574,-0.238556455798,0.006735588772362236,0.002437902770859915,-0.008783806172293471,25.27770389500074
1632,A,5593493153492.0,2.4903717,5.689468773826286,3.401596,164,1970-01-01 01:33:13.493153492,-2.3740082,1.3955383,-2.350113,14.390494338868344,3.620286341327593,-86.26785278320312,3.2756404876708984,-90.06455993652344,25328057.0,50354.0,0.1377362771568,-0.018524908099251253,-0.052123112259,0.007334649985750139,-0.0005156674717799837,-0.00731843948497109,25.32805789900067
1632,A,5593543507496.0,-0.5300293,7.706116773826286,0.6320801,164,1970-01-01 01:33:13.543507496,-1.5008545,1.0026093,-2.2535706,11.771415480187738,2.887277279341404,-86.36237335205078,3.1490471363067627,-90.12281799316406,25378411.0,50354.0,0.0493555406048,-0.15620854266675122,0.10155586316970001,0.004710410695783804,-0.004399264089935645,0.0012445683696786943,25.378411903000597
1632,A,5593593861500.0,-2.5869598,9.493698773826285,-1.7627106,164,1970-01-01 01:33:13.593861500,-1.4389496,-0.7008972,-1.8981934,10.4354896448223,2.482935967783213,-86.43275451660156,3.052128314971924,-90.0937728881836,25428765.0,50354.0,-0.0784764345707,-0.06042944395675125,-0.0284658840985,-0.0007331767473794644,-0.005454294589219922,0.001840186403075603,25.428765907000525
1632,A,5593644215504.0,-4.381119,10.607559773826285,1.7310944,164,1970-01-01 01:33:13.644215504,-2.0406342,-0.47227478,-1.0661011,10.017722979950502,2.350277209491446,-86.5337142944336,2.9974756240844727,-90.07344055175781,25479119.0,50354.0,-0.1754353199476,0.01262018645424872,-0.0007960010673999996,-0.00639273624350724,-0.0012036936761405063,-0.0007367264828218644,25.479119911000453
1632,A,5593694569508.0,-4.069275,11.134308773826286,-0.23065186,164,1970-01-01 01:33:13.694569508,-1.5220795,-0.29304504,-0.43473816,9.259564480437051,1.6098442991634432,-86.609130859375,2.9749019145965576,-90.06010437011719,25529473.0,50354.0,-0.212755569738,0.05392582442424874,0.03777664182958,-0.009773482029614353,0.0016754289158879307,0.000931061592469406,25.52947391500038
1632,A,5593744923512.0,-0.5444641,11.876419773826285,1.3692627,164,1970-01-01 01:33:13.744923512,-1.0283813,0.4523468,-0.16116333,7.714216783580567,1.1349710765462786,-86.49087524414062,2.9955451488494873,-90.07429504394531,25579827.0,50354.0,-0.1161601093207,0.08587191264424875,0.02866680511868,-0.00828111005166089,0.0035196876261735614,0.0016728466638163421,25.57982791900031
1632,A,5593795277516.0,0.73677063,9.022858773826286,1.384079,164,1970-01-01 01:33:13.795277516,-0.72735596,0.7090912,-0.63978577,10.542981358690557,1.200492754646797,-86.42801666259766,2.7913591861724854,-90.10651397705078,25630181.0,50354.0,0.004841701505809999,0.03271193599424875,0.0693208839809,-0.002802663553555486,0.0029855855571714516,0.002467036048460126,25.630181923000237
1632,A,5593845631520.0,-1.1920776,8.924744273826285,1.3739166,164,1970-01-01 01:33:13.845631520,-0.19415283,1.223587,-0.994339,10.679892514760043,1.5885749950465067,-86.34477996826172,2.8361287117004395,-90.1660385131836,25680535.0,50354.0,-0.01146326358369,-0.04160239806925126,0.0694380552212,-0.0001667110684347848,-0.00022383516366233827,0.003493533812291272,25.680535927000165
1632,A,5593895985523.0,-5.1018066,8.309189773826285,0.7637329,164,1970-01-01 01:33:13.895985523,0.11679077,1.2615051,-0.6959686,12.275913000732857,1.4454782922856928,-86.34214782714844,2.8054237365722656,-90.23128509521484,25730889.0,50354.0,-0.1584611225034,-0.059570442482251296,0.053819601461500007,-0.004278186268514665,-0.00254722860656518,0.003103258022300338,25.730889930000558
1632,A,5593946339527.0,-6.5327606,6.260589773826286,3.1466064,164,1970-01-01 01:33:13.946339527,0.59036255,0.7531433,-0.097579956,15.049968185928146,0.9619119598956832,-86.31448364257812,2.8029654026031494,-90.26921844482422,25781243.0,50354.0,-0.2929234983944,-0.12664586032875128,0.0984506125561,-0.011364510600343911,-0.004688367855872612,0.003833707178321116,25.781243934000486
1632,A,5593996693531.0,-1.4696808,6.556763773826285,5.5328064,164,1970-01-01 01:33:13.996693531,2.367859,0.27426147,1.6175537,14.105714766103475,2.880704006001181,-86.19651794433594,2.8845653533935547,-90.27764129638672,25831597.0,50354.0,-0.2014774671278,-0.17076668973075126,0.2185215760656,-0.01244753310895243,-0.0074879557728480955,0.007980408792928542,25.831597938000414
1632,A,5594047047535.0,0.5350189,5.541992773826285,-0.16027832,164,1970-01-01 01:33:14.047047535,2.6016693,-0.18515015,2.9417572,13.917811815670602,3.931526312815336,-86.17701721191406,2.90390944480896,-90.26422882080078,25881951.0,50354.0,-0.0235319826563,-0.18885880639975128,0.13526413947016003,-0.005665062917214286,-0.009054291116077664,0.00890726296004383,25.88195194200034
1632,A,5594097401539.0,3.0069733,3.223358773826284,7.3469086,164,1970-01-01 01:33:14.097401539,2.1018982,3.1430817,1.4632568,18.063144942365156,4.054387633019858,-86.07972717285156,2.987515687942505,-90.41627502441406,25932305.0,50354.0,0.0891767376194,-0.2727839440847513,0.18093779055956002,0.0016527379957059685,-0.011622779528948322,0.007961015992358263,25.93230594600027
1632,A,5594147755543.0,0.9554291,9.224045773826285,-4.413376,164,1970-01-01 01:33:14.147755543,1.3535004,0.3875885,0.62631226,11.177303533804869,1.5409267423076016,-86.01294708251953,3.020092487335205,-90.4334716796875,25982659.0,50354.0,0.0997614052248,-0.1800808957037513,0.0738575502702,0.0047568956223884235,-0.011401778071355131,0.006414982296070868,25.982659950000198
1632,A,5594198109547.0,-3.6432648,14.408508773826284,-0.5202942,164,1970-01-01 01:33:14.198109547,0.94898987,-0.1434784,1.1154633,6.240716406366955,1.4715387178990798,-85.96492767333984,3.075230360031128,-90.42240905761719,26033013.0,50354.0,-0.0676716394189,0.1015276258462487,-0.12421501462540002,0.0008079240336951441,-0.001977735675202343,-0.0012678498800708711,26.033013954000126
1632,A,5594248463551.0,0.46481323,16.480164173826285,-1.4347534,164,1970-01-01 01:33:14.248463551,0.6963806,-0.7574768,1.4710541,3.3295860024559736,1.795192805166456,-85.92776489257812,3.1459245681762695,-90.37935638427734,26083367.0,50354.0,-0.08002387517789,0.2842149188030487,-0.0492222334252,-0.0037185299710033822,0.009711840046635362,-0.004366629594169957,26.083367958000053
1632,A,5594298817555.0,4.285919,18.250626273826285,-2.2920074,164,1970-01-01 01:33:14.298817555,-0.43780518,-0.6263733,0.72164917,5.00574926731973,1.0510920088885707,-85.94778442382812,3.179696559906006,-90.34551239013672,26133721.0,50354.0,0.11960918535471,0.38094791110054876,-0.09382865666160001,0.0009966393543217973,0.016746804568482872,-0.0036015922597153636,26.13372196199998
1632,A,5594349171559.0,0.47694397,17.282639173826286,1.0076447,164,1970-01-01 01:33:14.349171559,-1.3970642,-0.91786194,-0.49534607,2.4360177998566863,1.7434525083542278,-86.01521301269531,3.1517765522003174,-90.30140686035156,26184075.0,50354.0,0.11991460099569,0.4011518241755488,-0.0323363996979,0.0060304903689440215,0.019690925035046308,-0.0031764576239631317,26.18407596600082
1632,A,5594399525563.0,-16.317032,3.0824287738262868,13.068954,164,1970-01-01 01:33:14.399525563,-0.71998596,0.44451904,-0.8049164,26.549848375280128,1.1678473232869968,-86.05258178710938,3.1131608486175537,-90.32640075683594,26234429.0,50354.0,-0.39880589633131003,0.019262115718048797,0.35440652546990004,-0.007021646142664905,0.010584761764701108,0.008108759556561644,26.234429970000747
1632,A,5594449879566.0,-5.848572,9.281372773826286,9.106995,164,1970-01-01 01:33:14.449879566,0.4206848,-1.8875122,0.83638,14.849765494177003,2.106943167363534,-86.02622985839844,3.1483614444732666,-90.22920989990234,26284783.0,50354.0,-0.5580634119080001,-0.18218576843475123,0.558323867973,-0.024091098573541112,-0.004101928804448418,0.022979813115711897,26.28478397300023
1632,A,5594500233570.0,3.967163,1.889831773826284,11.917801,164,1970-01-01 01:33:14.500233570,-0.20553589,-0.03315735,0.15049744,21.588943603539615,0.2568927624197852,-86.03639221191406,3.155754327774048,-90.22703552246094,26335137.0,50354.0,-0.047368234392999996,-0.2122117831037513,0.529341288892,-0.01524295255892028,-0.009929747155084878,0.027384145654390107,26.33513797700016
1632,A,5594550587574.0,8.449249,19.407105126826284,-1.6084595,164,1970-01-01 01:33:14.550587574,0.48054504,-0.066589355,-0.25413513,8.601085509107042,0.5476699206347145,-86.0122299194336,3.142853021621704,-90.2245864868164,26385491.0,50354.0,0.31260800492400004,0.042723780347729674,0.25955829094550004,0.006677941702658989,-0.004267199445388357,0.01986212472156874,26.385491981000087
1632,A,5594600941578.0,8.339249,12.493942773826285,-7.1200256,164,1970-01-01 01:33:14.600941578,0.13923645,1.6407166,-1.9138031,12.984799149792705,2.524674247520613,-86.01006317138672,3.053097724914551,-90.31321716308594,26435845.0,50354.0,0.42268401414600004,0.30970348299472966,-0.2197570693627,0.01851244716412539,0.008873061209173099,0.0010020753557901563,26.435845985000014
1632,A,5594651295582.0,0.82003784,3.194687773826285,-5.145233,164,1970-01-01 01:33:14.651295582,-2.4177856,-0.57702637,-2.6360168,17.068548413387617,3.6231521095759947,-86.12991333007812,2.919630527496338,-90.2934341430664,26486199.0,50354.0,0.23060336477068002,-0.09847654870175128,-0.3088024157722,0.016447816338985257,0.005318060524694318,-0.013307542157241378,26.486199989000852
1632,A,5594701649586.0,-3.4742126,9.290451773826286,4.695999,164,1970-01-01 01:33:14.701649586,-4.52948,-0.8961487,-2.1403198,11.717952410304616,5.0892278794708865,-86.35449981689453,2.8099045753479004,-90.25569152832031,26536553.0,50354.0,-0.06682415793252,-0.17913084160875128,-0.011310364418000015,0.004123469090564355,-0.006989321265847523,-0.008059479466848667,26.53655399300078
1632,A,5594752003590.0,-7.5029907,10.704620773826285,-3.5804749,164,1970-01-01 01:33:14.752003590,-0.9946594,0.62979126,-1.1183319,12.065311176200368,1.6237766446584818,-86.40592956542969,2.7560858726501465,-90.29068756103516,26586907.0,50354.0,-0.2763730474841,0.00994674153224874,0.02808555026569999,-0.008640676040774243,-0.0042595480876261044,0.00042234885408754235,26.586907997000708
1632,A,5594802357594.0,-2.50177,12.052887773826285,-0.35368347,164,1970-01-01 01:33:14.802357594,-0.8859253,-1.0471954,0.003616333,7.8153958548679565,1.3716759532869331,-86.44771575927734,2.7530035972595215,-90.23836517333984,26637262.0,50355.0,-0.25189486252425,0.07949817145852255,-0.099052272360675,-0.013300465304235233,0.002251999296825144,-0.0017867646455462332,26.637262001000636
1632,A,5594852711598.0,2.7687683,11.658768373826286,1.4326019,164,1970-01-01 01:33:14.852711598,-1.1562195,1.639389,-0.15486145,8.390459216601537,2.0120690580090317,-86.50947570800781,2.7503130435943604,-90.32073974609375,26687616.0,50354.0,0.006722216199100001,0.10351916682944874,0.027163929312110004,-0.006172711716528301,0.004607827526076253,-0.001809932812933721,26.687616005000564
1632,A,5594903065602.0,0.42126465,9.096008773826286,1.4192047,164,1970-01-01 01:33:14.903065602,-0.49650574,1.1651306,-1.210022,10.457897593114339,1.7516279586125894,-86.42936706542969,2.5673930644989014,-90.37759399414062,26737970.0,50354.0,0.08031545958215,0.029073824246448766,0.07179993476820001,0.0021913475631445316,0.0033382937363178717,0.0024916132059499656,26.73797000900049
1632,A,5594953419605.0,-5.988449,9.429718773826286,-1.5798798,164,1970-01-01 01:33:14.953419605,0.1382904,1.6590118,-1.0422516,11.77859914733811,1.9641111946562395,-86.42626953125,2.5205533504486084,-90.46371459960938,26788324.0,50354.0,-0.14016500037995,-0.027046957532751232,-0.0040453169927,-0.0015068318886662106,5.103042325076281e-05,0.001705858011733764,26.788324011999975
1632,A,5595003773609.0,-6.33374,5.265594773826285,1.7036133,164,1970-01-01 01:33:15.003773609,-0.012084961,0.6871033,-0.3165741,15.62613264046923,0.7566215381180155,-86.42841339111328,2.506896734237671,-90.49901580810547,26838678.0,50354.0,-0.310235752453,-0.12348529081075127,0.0031152383294999987,-0.011339739754075182,-0.003789950416544363,-2.3416590503386427e-05,26.838678016000813
1632,A,5595054127613.0,-7.593521,1.7685857738262847,7.09404,164,1970-01-01 01:33:15.054127613,1.7410431,-0.37580872,1.1494446,20.507794800492448,2.119831634482986,-86.34038543701172,2.563070297241211,-90.47663116455078,26889032.0,50354.0,-0.35064665019700003,-0.3163696363517513,0.22149851713410001,-0.01663903625151905,-0.011074227501170328,0.005655100521307058,26.88903202000074
1632,A,5595104481617.0,-0.5104523,3.2479707738262853,0.5530548,164,1970-01-01 01:33:15.104481617,3.0677795,-0.11531067,2.838623,16.218095349038595,4.181189800447368,-86.22893524169922,2.6853718757629395,-90.46359252929688,26939386.0,50354.0,-0.2040337357741,-0.3671673557997513,0.1925309057796,-0.013965188077594386,-0.017209410851398384,0.010424018780698227,26.93938602400067
1632,A,5595154835621.0,8.4726715,2.176880773826287,3.4066772,164,1970-01-01 01:33:15.154835621,1.7740173,2.2375946,2.345398,19.537238337244112,3.6952481314591648,-86.14521026611328,2.8098208904266357,-90.56754302978516,26989740.0,50354.0,0.20046479279840004,-0.3568877125847512,0.099694172564,-8.985527729919782e-05,-0.01822953445671662,0.007357350797456818,26.989740028000597
1632,A,5595205189625.0,3.6262054,9.204193773826285,-2.1625671,164,1970-01-01 01:33:15.205189625,1.7070007,1.8592377,0.94966125,11.080333633288827,2.6967522512558215,-86.06430053710938,2.863508939743042,-90.65717315673828,27040094.0,50354.0,0.3046134237113,-0.20692788611375124,0.031322959987699996,0.01271635425706472,-0.014195185328432199,0.003298618346254151,27.040094032000525
1632,A,5595255543629.0,-2.3557587,14.978287373826285,1.9253693,164,1970-01-01 01:33:15.255543629,1.1124115,-1.9477539,0.5623169,5.407428714637775,2.312445652620418,-86.00369262695312,2.884823799133301,-90.55794525146484,27090448.0,50354.0,0.0319860365659,0.11537312785444874,-0.005971929010599998,0.008474564611399065,-0.002305074148694459,0.0006382629069104467,27.090448036000453
1632,A,5595305897633.0,0.5690155,15.710877073826286,-2.0100708,164,1970-01-01 01:33:15.305897633,0.98999023,-0.5005646,1.6543732,4.281902543229093,1.991882591707366,-85.95262908935547,2.965583324432373,-90.52713775634766,27140802.0,50354.0,-0.044984833546400003,0.2791918932985487,-0.0021325296654999943,-0.00032727071157804855,0.009933963537569018,-0.00020404595608816952,27.14080204000038
1632,A,5595356251637.0,3.4761353,17.557999273826287,-2.9322662,164,1970-01-01 01:33:15.356251637,-0.01737976,-0.52098083,0.9849701,4.925043071385141,1.1144008162143262,-85.95195007324219,3.0128695964813232,-90.49763488769531,27191156.0,50354.0,0.1018447616916,0.3441412998048488,-0.12443321864900002,0.0014315624109117004,0.01569365980276424,-0.003186545845314167,27.19115604400031
1632,A,5595406605641.0,2.036377,17.664002073826286,-0.046936035,164,1970-01-01 01:33:15.406605641,-1.2857971,-0.60009766,-0.2051239,2.7080992989954065,1.4336900635273635,-86.01471710205078,3.0005362033843994,-90.46839904785156,27241510.0,50354.0,0.1387885221771,0.3933151279298488,-0.075007374670595,0.00605842418796226,0.01856694048107648,-0.005021315818007444,27.241510048000237
1632,A,5595456959645.0,-10.339462,8.565842773826285,17.727325,164,1970-01-01 01:33:15.456959645,-1.4732056,-1.4185333,-1.336731,23.2292228762193,2.443239904193047,-86.08495330810547,2.92897629737854,-90.40215301513672,27291864.0,50354.0,-0.209046771045,0.1669196037293487,0.445139152971805,-0.0017688919317471183,0.014105029838983615,0.009318807782289565,27.291864052000165
1632,A,5595507313648.0,-7.7686615,3.2746737738262865,8.494705,164,1970-01-01 01:33:15.507313648,0.81326294,-1.5132141,1.1521759,19.85214856646522,2.0685073909843936,-86.04017639160156,2.981250524520874,-90.32259368896484,27342218.0,50354.0,-0.4559082253595,-0.19536051487975126,0.6601920493100001,-0.016741571944476095,-0.0007160568200336854,0.02782892367984901,27.342218055000558
1632,A,5595557667652.0,11.6427765,8.523514773826285,1.561203,164,1970-01-01 01:33:15.557667652,0.09770203,0.24493408,0.7030792,16.042099319989333,0.7509052880917855,-86.03581237792969,3.01716685295105,-90.33240509033203,27392572.0,50354.0,0.097538593355,-0.19642620693575125,0.25317759571599996,-0.009022672224977298,-0.009864014295148908,0.022995907552819606,27.392572059000486
1632,A,5595608021656.0,3.3736725,13.513718273826285,-6.6591797,164,1970-01-01 01:33:15.608021656,0.3010254,0.7625427,-1.0472565,9.536723106741047,1.3299751266699316,-86.02293395996094,2.96757173538208,-90.3741226196289,27442926.0,50354.0,0.378069136473,0.06136221644074873,-0.12835175937590002,0.011974375813879556,-0.0034005060886926784,0.0031427400815346963,27.442926063000414
1632,A,5595658375660.0,4.3226776,10.845215773826286,-4.2326355,164,1970-01-01 01:33:15.658375660,-0.68452454,1.2041779,-1.8609772,10.51754999609158,2.3198824107334537,-86.060546875,2.8789029121398926,-90.44068908691406,27493280.0,50354.0,0.1937710064677,0.11981568251774875,-0.2742232312904,0.014397219278818006,0.004561515962078091,-0.010135630540005436,27.49328006700034
1632,A,5595708729664.0,-0.33476257,5.018112773826285,-4.235733,164,1970-01-01 01:33:15.708729664,-1.9237976,-0.16786194,-2.1351013,15.04301438930785,2.8788595655099285,-86.15670013427734,2.7718241214752197,-90.43956756591797,27543634.0,50354.0,0.10040373671031,-0.09407817715575126,-0.21320811372450002,0.007406437508992759,0.000647993172499011,-0.01227205897344014,27.54363407100027
1632,A,5595759083668.0,-3.4889374,11.373764773826286,1.1984253,164,1970-01-01 01:33:15.759083668,-3.8721008,-1.2252197,-1.5684967,8.87759938046541,4.3536777345756335,-86.34761810302734,2.689558267593384,-90.38348388671875,27593988.0,50354.0,-0.09626929414469002,-0.08077089898275125,-0.07647029596289999,0.00010409286047461432,-0.004402175189939078,-0.0072932333206996705,27.593988075000198
1632,A,5595809437672.0,-6.41658,9.502121773826286,-2.754303,164,1970-01-01 01:33:15.809437672,-0.37998962,1.1138763,-1.1013031,12.152818157077519,1.6118253754917262,-86.3693618774414,2.638141393661499,-90.44263458251953,27644342.0,50354.0,-0.24939121157980004,0.03212299561024876,-0.039172332852900005,-0.008702694552625486,-0.0012248082632094952,-0.0029115344656953967,27.644342079000126
1632,A,5595859791676.0,-1.7658539,12.184570773826286,1.5817566,164,1970-01-01 01:33:15.859791676,-1.2464447,-0.57637024,0.048599243,7.641087886048542,1.3741138708767628,-86.43035888671875,2.6387600898742676,-90.4136962890625,27694696.0,50354.0,-0.2060091383003,0.05253665827224875,-0.029521200712800004,-0.01146561460893128,0.00213147610579964,-0.0017294970945836293,27.694696083000053
1632,A,5595910145680.0,1.4042664,11.338684773826285,0.8674927,164,1970-01-01 01:33:15.910145680,-0.846817,1.4366608,-0.45188904,8.276178568337155,1.7278012010117836,-86.47604370117188,2.6206531524658203,-90.48685455322266,27745050.0,50354.0,-0.009103688487499999,0.09877580492324875,0.0616647496261,-0.005415895640036441,0.003809593885873041,0.0008092781309901541,27.74505008699998
1632,A,5595960499684.0,-0.09460449,8.515350773826286,2.3654633,164,1970-01-01 01:33:15.960499684,-0.59609985,0.13256836,-1.3842926,11.186606685238559,1.513002116210639,-86.28987121582031,2.499335289001465,-90.48804473876953,27795404.0,50354.0,0.03297335790807,0.006395852983248766,0.08139613321200001,0.000600966667001691,0.0026479068311118883,0.0036018438472148443,27.79540409100082
1632,A,5596010853688.0,-5.4417267,9.039276773826286,0.3768921,164,1970-01-01 01:33:16.010853688,0.022888184,1.287384,-0.852005,11.75194952078268,1.5439539994597695,-86.2916259765625,2.4609906673431396,-90.55509185791016,27845758.0,50354.0,-0.13938821037063,-0.05149634223275123,0.0690442819058,-0.0026792067404498737,-0.0011354950178347235,0.003787638331420851,27.845758095000747
1632,A,5596061207691.0,-5.632126,5.224182773826286,2.368988,164,1970-01-01 01:33:16.061207691,0.2949829,0.3222351,-0.009475708,15.481176173693683,0.43696700104987474,-86.27757263183594,2.461561441421509,-90.57122039794922,27896112.0,50354.0,-0.27880638942790004,-0.13435807896875127,0.0691330232777,-0.01052888543912759,-0.0046792567625902285,0.00347889001260498,27.89611209800023
1632,A,5596111561695.0,-7.1943207,3.368133773826287,1.332901,164,1970-01-01 01:33:16.111561695,2.2066345,-0.20594788,1.2047119,17.666806989998204,2.5224950164209154,-86.1666259765625,2.5209875106811523,-90.55696105957031,27946466.0,50354.0,-0.3229314485659,-0.27714044627975126,0.09320245935299999,-0.015149953547169906,-0.010360298370181547,0.004087120446193134,27.94646610200016
1632,A,5596161915699.0,-0.45967102,3.6684877738262855,-1.0383453,164,1970-01-01 01:33:16.161915699,2.7642517,0.07485962,2.727188,15.820910333476261,3.8838442052949853,-86.21766662597656,2.6364405155181885,-90.5599594116211,27996820.0,50354.0,-0.19270454953444,-0.31630817929475125,0.007416028858899997,-0.01298216752417226,-0.01494125604608925,0.0025332716777110064,27.996820106000087
1632,A,5596212269703.0,5.8730774,3.360031773826286,2.0426025,164,1970-01-01 01:33:16.212269703,1.5151062,1.8113403,2.6252441,17.248393848333848,3.531063163449125,-86.14576721191406,2.7734413146972656,-90.64167022705078,28047174.0,50354.0,0.13629333242926,-0.31651216334875126,0.025284183524400004,-0.0014202652130571166,-0.015932517766735464,0.0008232932471743441,28.047174110000014
1632,A,5596262623707.0,2.639679,9.731796773826286,-2.313568,164,1970-01-01 01:33:16.262623707,1.192688,1.4775848,1.0610809,10.33134289687812,2.175236580898696,-86.0895767211914,2.83137583732605,-90.7118911743164,28097528.0,50354.0,0.21432566788280003,-0.16385623265575125,-0.0068220983934999995,0.008827534570856737,-0.01209423510620536,0.00046481991734066946,28.097528114000852
1632,A,5596312977711.0,-1.2088318,14.564743773826287,0.33810425,164,1970-01-01 01:33:16.312977711,0.56344604,-2.3686676,0.8079834,5.042576685292877,2.5653254791462627,-86.05538177490234,2.86357045173645,-90.59081268310547,28147882.0,50354.0,0.0360244399544,0.11824480136824879,-0.04973625083375,0.006303064665017185,-0.0011483590055254495,-0.0014239695584944735,28.14788211800078
1632,A,5596363331715.0,0.34036255,15.658753073826286,-1.390686,164,1970-01-01 01:33:16.363331715,0.55329895,-1.1344299,1.6556854,4.051264833038565,2.0819137998145534,-86.02455139160156,2.9422390460968018,-90.52842712402344,28198236.0,50354.0,-0.02186545030725,0.2674677801333488,-0.026500850719750006,0.0003564808823462956,0.009711085664465723,-0.00191942150581247,28.198236122000708
1632,A,5596413685719.0,3.724228,18.001846973826286,-2.1867218,164,1970-01-01 01:33:16.413685719,-0.17022705,-1.1421967,0.88887024,4.554635301524095,1.4572854399877364,-86.02995300292969,2.9826183319091797,-90.46829223632812,28248590.0,50354.0,0.10233419627735,0.3540037273997488,-0.0900683961806,0.002025961617289208,0.015646788145160802,-0.0029348639292101123,28.248590126000636
1632,A,5596464039723.0,1.3250427,16.142975473826287,1.258316,164,1970-01-01 01:33:16.464039723,-0.9018707,-0.5281677,-0.27774048,3.7770636290608315,1.0814211266072113,-86.07373046875,2.966949224472046,-90.44286346435547,28298944.0,50354.0,0.1271254884139,0.3661949947645488,-0.0233744728266,0.005777106481471602,0.01813244322793052,-0.002856151112994275,28.298944130000564
1632,A,5596514393727.0,-11.478897,5.287979773826285,17.953934,164,1970-01-01 01:33:16.514393727,-0.66174316,-0.9206085,-0.8305969,25.585773610933888,1.4054590817126786,-86.1045913696289,2.9223783016204834,-90.39971160888672,28349298.0,50354.0,-0.2556435897111,0.04609796027014876,0.48370681825000006,-0.003235700236359605,0.01038029972890858,0.011589787460724945,28.34929813400049
1632,A,5596564747730.0,-6.637741,5.419357773826286,5.334839,164,1970-01-01 01:33:16.564747730,0.15760803,-1.2242126,1.0791016,16.41156834317482,1.6395112211393372,-86.0933837890625,2.9720466136932373,-90.33489227294922,28399652.0,50354.0,-0.45612259492600005,-0.22389056256275128,0.586341437821,-0.017920137230608268,-0.004476284347920854,0.02694060494309957,28.399652136999975
1632,A,5596615101734.0,7.462509,11.212326773826286,-1.9624023,164,1970-01-01 01:33:16.615101734,-0.00793457,0.00030517578,0.52879333,11.286104618397584,0.528852944007907,-86.09368133544922,2.9984278678894043,-90.3331069946289,28450006.0,50354.0,0.020765183935999996,-0.07473327814375123,0.0849078387959,-0.01096099353649523,-0.0075184524374676135,0.016900043037383693,28.450006141000813
1632,A,5596665455738.0,3.1033325,10.845093773826285,-5.2112274,164,1970-01-01 01:33:16.665455738,0.51808167,0.9334259,-0.3271637,10.526527246441109,1.116570022066905,-86.07026672363281,2.9852960109710693,-90.38085174560547,28500360.0,50354.0,0.2660161914455,0.061870477128248745,-0.18061047495690002,0.007220294687980026,-0.00032384674116730616,-0.002409505270625498,28.50036014500074
1632,A,5596715789988.0,3.9571686,12.788223773826285,-4.191864,164,1970-01-01 01:33:16.715789988,-0.39033508,0.7342987,-1.5840454,8.808600096509204,1.7890656457384273,-86.09195709228516,2.9087889194488525,-90.42294311523438,28550694.0,50334.0,0.1776916311837,0.1015065027217722,-0.23664760126380002,0.011166794772109074,0.004111708451885477,-0.010501134004246357,28.55069439500039
1632,A,5596766143992.0,0.2441864,5.115097773826285,-5.125763,164,1970-01-01 01:33:16.766143992,-1.8527832,-0.97831726,-2.1311493,15.22439427077905,2.988596256824705,-86.18251037597656,2.7991786003112793,-90.38125610351562,28601048.0,50354.0,0.10577751483500002,-0.04271727339475127,-0.234589894979,0.0071369026893128105,0.0014801364267664058,-0.011864346442904978,28.60104839900032
1632,A,5596816497996.0,-2.4022217,12.329819373826286,0.11997986,164,1970-01-01 01:33:16.816497996,-3.219925,-2.6782227,-1.1569824,7.514120921362117,4.34504339567858,-86.33723449707031,2.7327189445495605,-90.25125885009766,28651402.0,50354.0,-0.05433285474810001,-0.05425852097355125,-0.12603060211578002,0.0012952222070078815,-0.002441559574810753,-0.009079342255355278,28.651402403000247
1632,A,5596866852000.0,-4.7334137,9.808868773826285,0.7754822,164,1970-01-01 01:33:16.866852000,-0.48588562,0.92108154,-1.0923309,10.767120133698219,1.5091927756739252,-86.36386108398438,2.6811444759368896,-90.30074310302734,28701756.0,50354.0,-0.17965389246580002,0.06391655149344876,0.022545048284620003,-0.005891084334604361,0.0002431602343994595,-0.0026054557888071156,28.701756407000175
1632,A,5596917206004.0,-1.7024994,11.664185173826287,2.439087,164,1970-01-01 01:33:16.917206004,-1.1526337,-0.011810303,0.027175903,8.333346677795381,1.1530145095949604,-86.42145538330078,2.6824660301208496,-90.3000717163086,28752110.0,50354.0,-0.1620369841187,0.047157879240048765,0.0809332087484,-0.008602751199767958,0.002796520942577267,0.002605272077320345,28.752110411000103
1632,A,5596967560008.0,1.0755157,9.180389773826285,1.2471924,164,1970-01-01 01:33:16.967560008,-0.55171204,1.5933685,-0.39840698,10.399434421601027,1.732610017743731,-86.3694076538086,2.453051805496216,-90.37711334228516,28802464.0,50354.0,-0.015785568614900002,0.03133466345704875,0.09280945645380001,-0.004477038410173847,0.0019762067474848244,0.0043743190817957895,28.80246441500003
1632,A,5597017914012.0,-2.0402374,10.036819773826286,-0.27352905,164,1970-01-01 01:33:17.017914012,-0.40438843,0.6511841,-1.1796265,9.634255374268871,1.4068011280607238,-86.39116668701172,2.3962419033050537,-90.41336822509766,28852818.0,50354.0,-0.024288798240900005,-0.009637515218751261,0.02451392216295,-0.0010089523343284768,0.000546269101195616,0.0029538507034339153,28.85281841900087
1632,A,5597068268016.0,-5.5585785,8.779938773826286,0.30108643,164,1970-01-01 01:33:17.068268016,0.008972168,0.80122375,-0.70170593,12.033646475113741,1.065096807600064,-86.39247131347656,2.3637449741363525,-90.45559692382812,28903172.0,50354.0,-0.1913153879143,-0.019719670045751224,0.0006938121562600005,-0.005428266594829471,-0.000739125853404379,0.0006346551269547502,28.903172423000797
1632,A,5597118622019.0,-4.7768097,6.589432773826285,3.5905914,164,1970-01-01 01:33:17.118622019,0.47947693,0.6636658,-0.138031,14.179854693743835,0.8303029431796956,-86.36988830566406,2.3589513301849365,-90.48918151855469,28953526.0,50354.0,-0.2602140687114,-0.10651453254475125,0.09798077272591,-0.01136815712946525,-0.0031781985186210807,0.0024843300235783948,28.95352642600028
1632,A,5597168976023.0,-5.702469,6.413803773826286,3.5117035,164,1970-01-01 01:33:17.168976023,1.9582672,0.3088379,0.9611969,14.654554394862139,2.203200117021116,-86.2724838256836,2.4079062938690186,-90.50151824951172,29003880.0,50354.0,-0.2638367998299,-0.16608671343975126,0.17881447869730002,-0.01319402871726431,-0.0068632815701518204,0.006968874045082159,29.00388043000021
1632,A,5597219330027.0,-0.12088013,4.450775773826285,1.733902,164,1970-01-01 01:33:17.219330027,2.1474304,-0.18676758,2.972992,15.098197670998907,3.6721956489064165,-86.09256744384766,2.5069549083709717,-90.47933959960938,29054234.0,50354.0,-0.14661446104601,-0.21993168072875127,0.1320686096735,-0.010333931395072786,-0.009718785109980388,0.007827103515911633,29.054234434000136
1632,A,5597269684031.0,5.455536,1.5323947738262866,3.3524323,164,1970-01-01 01:33:17.269684031,1.6588745,1.3735199,2.6033936,19.026083726846686,3.378768970937081,-86.0123062133789,2.641544818878174,-90.5389633178711,29104588.0,50354.0,0.13431063083899003,-0.34283091512175123,0.1280586386711,-0.00030977353312214187,-0.014168673875728103,0.006549223731571995,29.104588438000064
1632,A,5597320038035.0,3.194046,8.989136773826285,-0.5249634,164,1970-01-01 01:33:17.320038035,1.5065155,1.1221161,0.9298096,10.94887013149323,2.0960151206209416,-85.9394302368164,2.69185733795166,-90.59172058105469,29154942.0,50354.0,0.21777052601400002,-0.22856860022475126,0.0711871844953,0.00886434728608773,-0.014386125597878894,0.005016412089860453,29.154942441999992
1632,A,5597370392039.0,-0.57466125,14.727463373826286,0.07040405,164,1970-01-01 01:33:17.370392039,0.6206665,-1.6495972,0.8258667,4.756497086755349,1.9463950350941044,-85.98390197753906,2.8334274291992188,-90.51020812988281,29205296.0,50354.0,0.06594824985075,0.10364364191744875,-0.01144444075495,0.007143187619946812,-0.003145235675302955,0.001504143059150792,29.20529644600083
1632,A,5597420746043.0,-0.3993225,15.515762973826286,-1.3085938,164,1970-01-01 01:33:17.420746043,0.2620697,-0.4373474,1.3980408,4.164016605854656,1.4881099940560476,-85.96946716308594,2.9016284942626953,-90.48346710205078,29255650.0,50354.0,-0.02452198887375,0.26796450975484876,-0.03117390333575,0.001042988972617929,0.009355978434653434,-0.001073002049171554,29.255650450000758
1632,A,5597471100047.0,3.3107452,17.832977973826285,-2.9466248,164,1970-01-01 01:33:17.471100047,-0.37789917,-1.1308594,0.98646545,4.717398213476123,1.5475027784462139,-85.98530578613281,2.94686222076416,-90.42352294921875,29306004.0,50354.0,0.0733008893179,0.3461520508390487,-0.10713363869220001,0.0012281063764823649,0.015461612646072556,-0.0034821689856376977,29.306004454000686
1632,A,5597521454051.0,-0.14057922,16.790741573826285,2.4412384,164,1970-01-01 01:33:17.521454051,-1.3439331,-0.88983154,-0.29345703,3.611590475091993,1.6383141869955233,-86.05027770996094,2.9291369915008545,-90.3801040649414,29356358.0,50354.0,0.07981526887846001,0.37825218705124874,-0.012724113392799998,0.003855005514909756,0.01823832549736402,-0.0030176586242440452,29.356358458000614
1632,A,5597571808055.0,-9.460037,7.766662773826285,13.503876,164,1970-01-01 01:33:17.571808055,-1.2088165,-1.2100067,-0.6363983,20.206792891339934,1.824926393299201,-86.10774993896484,2.8932526111602783,-90.32184600830078,29406712.0,50354.0,-0.24171471457094,0.12481256926084872,0.4014501452488,-0.004076142344199569,0.012665661369669678,0.009786955304038513,29.40671246200054
1632,A,5597622162059.0,-7.4573975,3.866562773826285,7.905411,164,1970-01-01 01:33:17.622162059,0.45950317,-0.7756653,1.260498,18.99757854666979,1.5497274046967546,-86.08258056640625,2.9534912109375,-90.27880096435547,29457066.0,50354.0,-0.4259302484065,-0.2005794803867513,0.539021618799,-0.01680929723288301,-0.0019075835214168496,0.023678257603431462,29.45706646600047
1632,A,5597672516062.0,5.6756134,13.550720773826285,-0.8496704,164,1970-01-01 01:33:17.672516062,0.6739807,0.12411499,0.7384796,8.229181804956355,1.007475376538479,-86.049072265625,2.990757465362549,-90.28246307373047,29507420.0,50354.0,-0.044859978285700014,-0.054954252120751286,0.1776423810862,-0.011853085537429522,-0.006433572783341394,0.01804344952510968,29.507420469000863
1632,A,5597722870066.0,3.387268,9.154755273826286,-3.7221375,164,1970-01-01 01:33:17.722870066,0.54881287,1.2647705,-0.49035645,11.45822862124912,1.463314536251345,-86.02500915527344,2.9706716537475586,-90.34733581542969,29557774.0,50354.0,0.22817616500780002,0.07818657045174875,-0.11510440749830002,0.004615351633102312,0.0005849200786195231,0.001574518561022558,29.55777447300079
1632,A,5597773224070.0,3.9906158,11.954254773826285,-4.603409,164,1970-01-01 01:33:17.773224070,-0.85980225,0.68992615,-1.8402405,9.658235135438133,2.145167382606573,-86.07008361816406,2.8812572956085205,-90.38813781738281,29608128.0,50354.0,0.18575298043260002,0.03799234596974875,-0.20961228423050002,0.010421494094752952,0.0029250365787440425,-0.008175392147655999,29.60812847700072
1632,A,5597823578074.0,1.4855804,6.900345773826286,-3.8190918,164,1970-01-01 01:33:17.823578074,-1.9113159,-0.4164734,-1.9291534,13.200414356041835,2.747400845022788,-86.1649398803711,2.7836132049560547,-90.3738784790039,29658482.0,50354.0,0.1378741917274,-0.018766922011751237,-0.21205330264160002,0.008147961313472321,0.00048403849899050343,-0.010616274480678863,29.658482481000647
1632,A,5597873932078.0,-2.1107178,10.705429773826285,0.3359375,164,1970-01-01 01:33:17.873932078,-2.2884827,-1.2375488,-1.0790558,9.000605555518979,2.816565554020422,-86.27655792236328,2.725701332092285,-90.31561279296875,29708836.0,50354.0,-0.01573908431980001,-0.05020858903675124,-0.0876953758111,0.0030749955992011454,-0.0017365964416681467,-0.007546772477403629,29.708836485000575
1632,A,5597924286082.0,-4.2223206,10.364029773826285,1.7109833,164,1970-01-01 01:33:17.924286082,-1.1232147,0.9857483,-1.1522064,10.16291091037205,1.8870322099662051,-86.33521270751953,2.671387195587158,-90.36856842041016,29759190.0,50354.0,-0.15944690779679999,0.03699658303124873,0.0515353249816,-0.004410657723519638,-0.0003326386752005366,-0.0009104015997343215,29.759190489000503
1632,A,5597974640086.0,-2.8563385,12.092590773826284,0.6758728,164,1970-01-01 01:33:17.974640086,-1.2330017,-0.14253235,-0.18182373,7.919990770472595,1.2544594580099133,-86.39656066894531,2.6618642807006836,-90.36202239990234,29809544.0,50354.0,-0.1782194001607,0.0719211355282487,0.060093876029700004,-0.008501424635445978,0.002742221400172467,0.0028104883938615,29.80954449300043
1632,A,5598024994090.0,-0.05870056,9.814331773826286,2.9736176,164,1970-01-01 01:33:18.024994090,-0.7230835,1.1070709,-0.68577576,10.082898971596316,1.489544936751704,-86.43535614013672,2.6311023235321045,-90.41947174072266,29859898.0,50354.0,-0.07339193841362002,0.058081388982248724,0.0918832198008,-0.006334818671285656,0.003273073559600794,0.003826327341724499,29.85989849700036
1632,A,5598075348094.0,-1.4150391,9.730179773826286,0.66152954,164,1970-01-01 01:33:18.075348094,-0.48641968,1.0011444,-1.150116,9.843146227818492,1.6005189871409404,-86.45402526855469,2.7174479961395264,-90.47271728515625,29910252.0,50354.0,-0.037104343419819996,-0.0013970327647512268,0.09152209954378,-0.0027819648877205195,0.0014271420364879346,0.00461759572513849,29.910252501000286
1632,A,5598125702098.0,-4.7204895,8.517685773826285,0.44459534,164,1970-01-01 01:33:18.125702098,-0.13156128,0.89608765,-0.854599,11.914924919630169,1.2452392933403447,-86.46282958984375,2.677565097808838,-90.5201187133789,29960606.0,50354.0,-0.1544742035622,-0.03404268910675125,0.027848906103759997,-0.004823373077366318,-0.0008922658775588179,0.0030054038091881148,29.960606505000214
1632,A,5598176056101.0,-5.6054077,6.3319557738262855,3.9529877,164,1970-01-01 01:33:18.176056101,0.43940735,0.37971497,0.017333984,14.801787042874741,0.5810015014416362,-86.44174194335938,2.6796042919158936,-90.5390396118164,30010960.0,50354.0,-0.2599751138044,-0.11959977475475128,0.11071794819808001,-0.01043459046333889,-0.00386825631264105,0.0034886976907574263,30.010960508000608
1632,A,5598226410105.0,-4.5424957,4.260193773826286,6.1276093,164,1970-01-01 01:33:18.226410105,1.7369537,0.33818054,1.1664734,16.99615713854061,2.1194420082856578,-86.35552978515625,2.7388763427734375,-90.55227661132812,30061314.0,50354.0,-0.2554937639018,-0.22679065083875127,0.253799190669,-0.012977959934008998,-0.008721071745167614,0.009177448005256474,30.061314512000536
1632,A,5598276764109.0,-0.07827759,3.651840773826285,0.51342773,164,1970-01-01 01:33:18.276764109,2.4291992,-0.09208679,2.8262482,15.805288379464583,3.7278905051216813,-86.27802276611328,2.8182785511016846,-90.54076385498047,30111668.0,50354.0,-0.11633720912233,-0.29426790619375126,0.16720138930431,-0.009361588407828523,-0.013118691290407318,0.010599531601988026,30.111668516000464
1632,A,5598327118113.0,2.8809204,3.726471773826285,1.4249573,164,1970-01-01 01:33:18.327118113,2.0115967,1.0087738,2.5164948,16.04728406431579,3.3759283081019906,-86.17955017089844,2.94714617729187,-90.58285522460938,30162022.0,50354.0,0.07056213802737,-0.30770542498775133,0.04880271990031,-0.0011524789649578079,-0.01515588255915669,0.005438335457444717,30.16202252000039
1632,A,5598377472117.0,1.7978363,8.341705773826286,0.78793335,164,1970-01-01 01:33:18.377472117,1.8241119,2.1756134,0.70025635,11.279007729857442,2.9242155949410593,-86.09385681152344,2.9894118309020996,-90.6891860961914,30212376.0,50354.0,0.11779705743590001,-0.18962869388275128,0.05571394789505,0.004742319464178749,-0.012521381110802645,0.002631416145083779,30.21237652400032
1632,A,5598427826121.0,-1.0104218,13.855209773826285,-1.9323883,164,1970-01-01 01:33:18.427826121,0.89250183,-1.4633789,0.7559967,6.003417470686853,1.8733841922919732,-86.0452651977539,3.022106647491455,-90.61349487304688,30262730.0,50354.0,0.0198247348665,0.06538254274324874,-0.028813942276150004,0.0034649038647975253,-0.0031281453472392553,0.0006772614414670452,30.262730528000247
1632,A,5598478180125.0,-0.8261566,15.894135173826285,-1.2675476,164,1970-01-01 01:33:18.478180125,0.63053894,-0.85331726,1.2250214,3.8630800645473657,1.620619366639863,-86.01124572753906,3.0802526473999023,-90.56661987304688,30313084.0,50354.0,-0.04623953437680001,0.25553005774704873,-0.0805647861543,-0.0006650454072708233,0.00807961654254422,-0.00275382824569344,30.313084532000175
1632,A,5598528534129.0,3.7911987,17.767532973826285,-2.6754456,164,1970-01-01 01:33:18.528534129,-0.2602539,-0.7578888,0.9868622,4.93529757509491,1.2712295337268915,-86.02200317382812,3.1268465518951416,-90.52532958984375,30363438.0,50354.0,0.0746508649517,0.35403061895344873,-0.09927273979640001,0.000715312069884257,0.015346909157288428,-0.004527769390860774,30.363438536000103
1632,A,5598578888133.0,0.95910645,16.450317973826287,1.6255035,164,1970-01-01 01:33:18.578888133,-1.3688965,-0.4402008,-0.27677917,3.542852605431038,1.4643295670643202,-86.08931732177734,3.1115241050720215,-90.5042953491211,30413792.0,50354.0,0.11959843276155001,0.3680336333090488,-0.026434392251700006,0.004890614568526496,0.018179411679212904,-0.0031649284635750143,30.41379254000003
1632,A,5598629242137.0,-10.393158,8.297974273826286,8.25592,164,1970-01-01 01:33:18.629242137,-1.0575867,-0.23554993,-0.56565857,17.335347227360177,1.2222696164735258,-86.14165496826172,3.0825116634368896,-90.49443817138672,30464146.0,50354.0,-0.23752111587435001,0.1296185539191488,0.24878459945950002,-0.002968939392730966,0.012529389117844332,0.005598111166870781,30.46414654400087
1632,A,5598679596141.0,-11.472641,6.726776773826286,6.170624,164,1970-01-01 01:33:18.679596141,0.4276886,-0.007858276,0.87677,18.20831458004134,0.9755536499709548,-86.1200942993164,3.1262221336364746,-90.49109649658203,30514500.0,50354.0,-0.550515221423,-0.11519104287325124,0.36321709828800003,-0.01984039086413538,0.0003632414456025631,0.01540836674418881,30.514500548000797
1632,A,5598729950144.0,1.8244934,10.787628773826286,1.5488739,164,1970-01-01 01:33:18.729950144,0.8404083,-0.21321106,0.80937195,8.985549580074096,1.186097812265926,-86.07732391357422,3.1658732891082764,-90.47767639160156,30564854.0,50354.0,-0.2429114121252,-0.05250901152675123,0.19435379862830002,-0.019976102352843035,-0.004222184269628862,0.014037962471661686,30.56485455100028
1632,A,5598780304148.0,2.8167572,7.002914773826285,-0.15222168,164,1970-01-01 01:33:18.780304148,0.49160767,0.95140076,-0.43997192,12.761356445717473,1.1577637054770256,-86.05545043945312,3.147186517715454,-90.52671813964844,30615208.0,50354.0,0.11685276635620001,-0.04555668510075124,0.035163512942940005,-0.003173778524526113,-0.00246900004399063,0.005778557353429111,30.61520855500021
1632,A,5598830658152.0,4.1564026,12.705383773826284,-4.7226563,164,1970-01-01 01:33:18.830658152,-0.5142212,0.5293884,-1.4979248,9.222258194461725,1.6698665297080004,-86.08287811279297,3.0742812156677246,-90.55831146240234,30665562.0,50354.0,0.1755632442846,0.0027266325342487096,-0.12273480290246,0.007362157899903423,-0.0010783322334668344,-0.0022047823673108347,30.665562559000136
