Subject-id_accel,Activity_accel,Timestamp_accel,accel_x,accel_y,accel_z,Segment_accel,DateTime,gyro_x,gyro_y,gyro_z,accel_magnitude,gyro_magnitude,Roll,Pitch,Yaw,Time_Difference,Difference_Microseconds,vx,vy,vz,dx,dy,dz,Time_diff
1607,A,288743744753952.0,3.0992942,11.009736,2.6587487939463417,36,1970-01-04 08:12:23.744753952,2.4298682,-1.2719258,-1.5483619,11.478429372238379,3.1495204846846905,101.73116302490234,-11.432318687438965,4.166932106018066,15005812.0,39789.0,0.1217340714834,0.08285752874699998,0.11686326599215598,0.004375313315963844,0.004195219856342745,0.004032879468948387,15.005812078015879
1607,A,288743785519941.0,5.5647235,11.268311,0.8211989839463414,36,1970-01-04 08:12:23.785519941,2.2407837,-0.90254533,-1.6796558,12.597596251436414,2.942268388397656,101.68177795410156,-11.70844554901123,4.17247200012207,15046578.0,40766.0,0.1765986727791,0.05458663200099998,0.07093177555678655,0.0060809163263025375,0.0028015243285264826,0.0038278263318920953,15.046578067005612
1607,A,288743822175774.0,9.806051,16.692375,5.148119943946341,36,1970-01-04 08:12:23.822175774,1.4966966,0.861,-1.6799221,19.66565949586568,2.4090579018612175,101.24029541015625,-12.10239315032959,4.336668491363525,15083233.0,36655.0,0.28170786964875,0.15323047266499995,0.10940269265095313,0.00839961315634642,0.0038087679857661135,0.003305079966077349,15.083233900018968
1607,A,288743862601191.0,-0.9415198,6.6325374,-0.4255816560536587,36,1970-01-04 08:12:23.862601191,4.308995,-1.4202639,0.42424157,7.025777144067627,4.5568155948407965,101.63427734375,-11.625596046447754,4.228695869445801,15123659.0,40426.0,0.1791787691456,0.07529165434119994,0.09545666641317478,0.009315901629950196,0.004619117753176318,0.004140822224763217,15.123659317032434
1607,A,288743902162597.0,-0.7308301,10.713454,-3.2208121560536584,36,1970-01-04 08:12:23.902162597,2.8786108,0.04261058,-0.11451593,11.808844791375066,2.881202821327985,102.1053695678711,-11.252630233764648,4.167443752288818,15163220.0,39561.0,-0.03307991719695,-0.04458541711230001,-0.07212749280038878,0.002889908340970271,0.0006073847255062551,0.0004614627186477134,15.163220722984988
1607,A,288743942842337.0,3.0148985,5.2756233,1.3353537839463414,36,1970-01-04 08:12:23.942842337,1.6591494,1.0298444,-0.75101143,6.0867951160943035,2.092217576573327,101.99453735351562,-11.682164192199707,4.2627716064453125,15203900.0,40680.0,0.046457951256,-0.07344616771800001,-0.03835022328866283,0.00027210921276107713,-0.0024007624354483023,-0.00224711674525131,15.203900463005994
1607,A,288743982367389.0,2.7126305,0.98820674,-2.2367951560536588,36,1970-01-04 08:12:23.982367389,1.1685951,0.8069378,-0.5866944,4.875556802431562,1.5365459445796634,103.13725280761719,-12.33444595336914,4.081463813781738,15243425.0,39525.0,0.1131902918625,-0.2635560588345,-0.01781473511627086,0.003155048404629356,-0.006660006502243781,-0.001109959990477502,15.243425515014678
1607,A,288744022364212.0,0.14604631,0.8415619,-3.9300944560536584,36,1970-01-04 08:12:24.022364212,-1.7760621,0.93849796,0.31292143,5.686696075874173,2.0330014326934984,104.40128326416016,-12.28076457977295,3.8342080116271973,15283422.0,39997.0,0.057169248184785,-0.35537797185296,-0.12332854190772817,0.003406935261635629,-0.012377752212703168,-0.0028226538255644446,15.28342233801959
1607,A,288744062124994.0,-1.9512744,7.533954,-3.1908841560536585,36,1970-01-04 08:12:24.062124994,-3.0911312,0.41092578,0.53502905,9.187566040191895,3.163891302909433,104.69879913330078,-11.732069969177246,3.752390146255493,15323183.0,39761.0,-0.035888837043245,-0.22314835615005002,-0.1415686152979995,0.00042306521369938596,-0.011501392663863838,-0.005266287933828468,15.32318311999552
1607,A,288744103879055.0,0.31304187,16.95813,-2.6605688560536587,36,1970-01-04 08:12:24.103879055,-0.9667275,-0.44554687,0.26764768,17.510619808218063,1.0975925260461776,104.64786529541016,-11.473237991333008,3.728381395339966,15364937.0,41754.0,-0.03420138052881,0.10213203766799997,-0.12216078453376446,-0.001463273472251792,-0.002526457680949759,-0.005505878680287736,15.36493718100246
1607,A,288744141885983.0,10.705673,15.196597,1.8303549939463415,36,1970-01-04 08:12:24.141885983,-0.221575,0.06231797,0.002130529,18.589435494792266,0.23018155695828618,104.32283020019531,-12.057563781738281,3.795383930206299,15402944.0,38007.0,0.209394148032045,0.23858375454449998,-0.0157769691285564,0.0033292757572477264,0.006474792557310242,-0.0026213001017219143,15.402944108995143
1607,A,288744181260149.0,4.6519337,8.383297,-0.2089063560536586,36,1970-01-04 08:12:24.181260149,-1.2255868,-1.871137,0.7006777,9.774146627292795,2.343963719083666,104.24830627441406,-12.472060203552246,3.701293468475342,15442318.0,39374.0,0.30234520310290003,0.078352173178,0.03192145933419325,0.010074612605793664,0.006239517609072857,0.00031783657867837263,15.442318274988793
1607,A,288744221606504.0,5.2504845,8.804677,3.8079655439463416,36,1970-01-04 08:12:24.221606504,-0.86020106,-1.0649981,1.2221247,10.467418714130037,1.8351445716833383,103.62799835205078,-12.982571601867676,3.763582944869995,15482664.0,40346.0,0.1997614823486,-0.04865780049800002,0.0726038209973591,0.01012899816561311,0.0005990245800736397,0.002108588480128405,15.482664629991632
1607,A,288744261549420.0,-1.3670892,3.5901055,4.784201443946341,36,1970-01-04 08:12:24.261549420,-0.360592,2.94013,-0.13608754,4.931424188684385,2.965284274046462,102.43205261230469,-12.43945598602295,4.163471221923828,15522607.0,39943.0,0.07755722923395,-0.14389900130125002,0.1715984629986987,0.005538470648370897,-0.0038456481671337223,0.004877085914827268,15.522607546008658
1607,A,288744301987492.0,-0.9600749,9.954493,5.507848843946341,36,1970-01-04 08:12:24.301987492,-1.7361147,-2.6357305,-0.20240025,10.70391010083418,3.1626152755886077,101.5697250366211,-12.018909454345703,4.203895092010498,15563045.0,40438.0,-0.0470529309379,-0.12243416292850005,0.20809496477090214,0.000616766407247835,-0.005384990247561317,0.007677021416073559,15.56304561800789
1607,A,288744341167857.0,3.5745432,9.974244,0.37348324394634136,36,1970-01-04 08:12:24.341167857,-1.6293219,-0.5571333,0.4495416,10.677154388027075,1.7796558706443952,101.39778137207031,-12.224026679992676,4.191932201385498,15602225.0,39180.0,0.051217433996999996,0.00643995782999997,0.11521529560181766,8.158261492776891e-05,-0.002272326477879617,0.006333648000701581,15.602225982991513
1607,A,288744381308326.0,2.3157916,8.095993,1.3329595839463415,36,1970-01-04 08:12:24.381308326,-1.0096043,0.16564862,0.059388492,8.428343131026834,1.0248254977645843,101.12857818603516,-12.324959754943848,4.245838642120361,15642366.0,40141.0,0.11822196460340001,-0.03070310829150002,0.034249160777220095,0.0034007334496093285,-0.00048697356133753676,0.0029998263717554777,15.642366452026181
1607,A,288744421223014.0,2.2798786,9.396643,0.9020032739463414,36,1970-01-04 08:12:24.421223014,-1.0048107,-0.3752394,0.10226539,9.701493848283434,1.0774541104560797,100.92561340332031,-12.359807968139648,4.259549617767334,15682281.0,39915.0,0.0917180880165,-0.042057717030000046,0.04460427123639322,0.004189878600161654,-0.0014521241713538375,0.0015737173694116875,15.682281140005216
1607,A,288744460512754.0,0.3298013,9.872491,2.0739650039463413,36,1970-01-04 08:12:24.460512754,-0.82078624,-0.7952199,0.29294774,9.885376881049488,1.1797809625097597,100.56078338623047,-12.114838600158691,4.287248134613037,15721570.0,39289.0,0.05126585679555,-0.006499697137000041,0.058461408835062796,0.0028088481038603163,-0.0009538861226036331,0.0020246737521637174,15.72157088003587
1607,A,288744500303327.0,0.20051439,7.6255326,1.3173972839463415,36,1970-01-04 08:12:24.500303327,-0.9558085,-0.170176,0.39920786,7.637365250449869,1.0497126631293106,100.31830596923828,-11.871838569641113,4.315847873687744,15761361.0,39791.0,0.010550895810395,-0.04181987146620003,0.06747284839876888,0.0012298752014715786,-0.000961341977144967,0.002505525014795698,15.761361452983692
1607,A,288744540347701.0,0.42556936,9.547478,0.7146569939463414,36,1970-01-04 08:12:24.540347701,-0.5816344,0.1222391,0.6599313,9.606811147145235,0.8881161486831889,100.17524719238281,-11.673972129821777,4.3391523361206055,15801405.0,40044.0,0.012535448842500001,-0.04859318176680004,0.04068579075196729,0.0004622347926402638,-0.0018102501518311275,0.00216555227307604,15.801405826990958
1607,A,288744580310879.0,0.5105635,11.134235,1.8560926639463413,36,1970-01-04 08:12:24.580310879,-0.38029942,-0.44528055,0.22583607,11.147141384575923,0.6276179949409384,99.882080078125,-11.461133003234863,4.370680332183838,15841369.0,39964.0,0.01870580680852,0.021614789165999976,0.05136871966401159,0.0006242627704186816,-0.0005390822409491869,0.00183943322713209,15.84136900503654
1607,A,288744620218847.0,0.7182605,11.298837,1.3257769839463414,36,1970-01-04 08:12:24.620218847,-0.262854,-0.06924219,-0.075101145,11.327568177231628,0.2820051208263905,99.66600036621094,-11.264517784118652,4.407928943634033,15881276.0,39907.0,0.024519339683999997,0.05652970215199999,0.06348943601922663,0.0008624929605384977,0.0015592561075137123,0.0022918222094254937,15.88127697299933
1607,A,288744660741139.0,0.12629414,12.293627,1.5185102239463415,36,1970-01-04 08:12:24.660741139,0.34461305,-0.4063984,-0.3438141,12.295501002781737,0.6341340151038047,99.46194458007812,-10.982093811035156,4.433847427368164,15921799.0,40523.0,0.01711194383836,0.080893309336,0.057629525262717606,0.0008435122510882971,0.0027843963472641117,0.0024540518340141135,15.921799265022855
1607,A,288744700052962.0,0.46507367,10.900801,4.024640843946342,36,1970-01-04 08:12:24.700052962,1.834918,-0.14327806,-0.953678,11.157264455399865,2.0729096451329867,99.0186996459961,-10.73851203918457,4.535597324371338,15961111.0,39312.0,0.011623925673359998,0.07065207676799998,0.10895617739049858,0.0005648322511223683,0.0029787761092602235,0.003274408571351617,15.961111087992322
1607,A,288744739904889.0,4.624999,11.270106,1.9261230539463414,36,1970-01-04 08:12:24.739904889,2.7585022,-0.34780884,-1.3677995,12.184444039209172,3.098577229760013,98.91870880126953,-10.959390640258789,4.573780059814453,16000962.999999998,39851.99999999814,0.10142478802241525,0.051227892881997576,0.11857492142940407,0.0022526086691019125,0.002428580275245738,0.004533784675085168,16.00096301501617
1607,A,288744779828691.0,11.566987,8.50181,0.9834061439463414,36,1970-01-04 08:12:24.779828691,2.3523703,1.6602147,0.2892193,14.372828327121795,2.8937184869836026,98.95738220214844,-11.957074165344238,4.666764259338379,16040886.0,39923.00000000186,0.32321632853901505,0.00343170123400015,0.058078567083737494,0.008476473648241386,0.0010910874879465394,0.0035262686109552395,16.040886817034334
1607,A,288744819569108.0,2.211644,10.69011,-2.3906228560536587,36,1970-01-04 08:12:24.819569108,2.7542412,-1.2660668,-0.30333406,11.65497164241841,3.0464374738037483,99.4052963256836,-11.912620544433594,4.543803691864014,16080627.0,39741.0,0.2737882872855,-0.008108753639999999,-0.027962099677928443,0.011862780218741025,-9.293536983342e-05,0.0005984292655871287,16.080627234012354
1607,A,288744859588899.0,0.9451111,12.442068,-1.5837766560536584,36,1970-01-04 08:12:24.859588899,2.28659,0.101999074,-0.25246766,12.900759374307757,2.302745656502848,99.65400695800781,-11.710037231445312,4.523437023162842,16120647.000000002,40020.00000000186,0.06316666955100295,0.07067888178000328,-0.07952773423727111,0.006742468686298736,0.001252028264081524,-0.002150871576643243,16.120647025003564
1607,A,288744899383535.0,0.30585927,6.9701195,2.3648605439463415,36,1970-01-04 08:12:24.899383535,1.7225326,0.8042747,-1.0053433,7.009189407635071,2.150509591231283,99.3482437133789,-11.44777774810791,4.649362087249756,16160440.999999998,39793.999999996275,0.024890557451887674,-0.0037369053124996447,0.015541226117399262,0.0017520746456763507,0.001331944505773795,-0.0012731395520609711,16.16044166102074
1607,A,288744939423691.0,1.8800468,4.3089647,-2.9640337560536585,36,1970-01-04 08:12:24.939423691,1.3132048,0.78776306,-0.90946954,6.616739358212116,1.781070557173807,100.26507568359375,-11.592047691345215,4.524621486663818,16200481.0,40040.00000000186,0.043761839521402036,-0.1665847343160078,-0.011995447706389046,0.0013744209874053238,-0.0034098392253628777,7.098648378842784e-05,16.20048181700986
1607,A,288744979649889.0,1.7992426,3.638588,-1.8555185560536587,36,1970-01-04 08:12:24.979649889,-0.2213087,0.5571333,-0.33955306,5.390929597680656,0.6889639578526178,101.01930236816406,-11.82290267944336,4.399169445037842,16240708.000000002,40227.00000000186,0.07400338734690343,-0.23437149876856092,-0.09693806542957503,0.0023686708906157715,-0.008064633194146848,-0.002191034216460315,16.240708014986012
1607,A,288745020296450.0,0.2801216,2.7455509,-2.1404284560536584,36,1970-01-04 08:12:25.020296450,-2.010953,0.77151775,0.3797668,4.722786717088996,2.1870972610188835,101.914306640625,-11.717785835266113,4.229501724243164,16281354.0,40645.99999999814,0.042258918636598065,-0.2685859451352877,-0.08120963112705328,0.002362798844502592,-0.010221604132457448,-0.0036204956371201913,16.281354576000012
1607,A,288745060554941.0,-0.035913024,3.774459,-2.837141156053659,36,1970-01-04 08:12:25.060554941,-3.2671661,0.9507485,1.2921658,5.895910781154582,3.6397787693664982,102.64984130859375,-11.552977561950684,4.0804595947265625,16321613.0,40259.0,0.004915796530592001,-0.2632936607179501,-0.10019598750691425,0.0009496034289579525,-0.01070647052602275,-0.00365160440029245,16.321613067004364
1607,A,288745099611920.0,3.5296519,19.612701,-3.352493156053659,36,1970-01-04 08:12:25.099611920,-1.1366372,0.845021,1.5313177,20.556368859661564,2.0858903406454834,102.63259887695312,-11.595426559448242,4.096498489379883,16360669.999999998,39056.99999999814,0.06822747963996274,0.07395755405999647,-0.12087427366398198,0.00142837846869661,-0.00369745015886967,-0.004317170595275641,16.360670046007726
1607,A,288745139665513.0,4.9404354,9.528923,-2.8940035560536588,36,1970-01-04 08:12:25.139665513,0.89535475,0.8945558,-0.9709886,11.672211793615885,1.595214427276522,102.96598052978516,-11.89763355255127,4.090782642364502,16400723.0,40053.00000000186,0.16962620331345787,0.19108533303600894,-0.12509546640502303,0.0047633767816669,0.0053078813784284,-0.0049259129994921585,16.400723639002535
1607,A,288745181499837.0,13.803171,10.916363,3.5278440439463417,36,1970-01-04 08:12:25.181499837,-1.5326493,-2.1393173,0.38748994,17.693628917941837,2.6600452703799955,102.56118774414062,-12.815375328063965,4.055355548858643,16442557.0,41834.0,0.39206001506880006,0.017680847261999998,0.013258041485251249,0.01174879062990169,0.004366762193293454,-0.0023393034170468663,16.44255796301877
1607,A,288745220559106.0,4.3568487,9.707291,5.965141143946341,36,1970-01-04 08:12:25.220559106,-1.0889666,-0.24607609,1.3859091,11.466150032412989,1.7796476424978227,101.70700073242188,-13.17314338684082,4.208944797515869,16481617.0,39060.0,0.35466518474099995,0.019991962619999974,0.18539800071954407,0.014583543152285394,0.0007357499769954594,0.0038797525042596525,16.48161723202793
1607,A,288745259095097.0,-0.88944596,8.497621,1.1300510039463414,36,1970-01-04 08:12:25.259095097,-0.0058589545,0.63196814,0.16591494,8.562509236962601,0.6534109156098452,101.4986801147461,-12.721100807189941,4.284041404724121,16520153.0,38536.0,0.06680991599432,-0.026880555584000022,0.1367101623055962,0.008120982240968145,-0.00013272940923035294,0.006206380085168403,16.52015322301304
1607,A,288745299008845.0,-1.7250223,3.8899791,8.358145843946343,36,1970-01-04 08:12:25.299008845,-1.0908308,0.41065946,-0.4990764,7.908472793723837,1.2679236094312194,100.08405303955078,-12.293094635009766,4.602879047393799,16560065.999999998,39912.99999999814,-0.05217563583068756,-0.1439342586043433,0.18935120039496153,0.00029204901208551717,-0.0034088658393495144,0.006507043584733377,16.56006697099656
1607,A,288745338796399.0,4.353257,10.040684,0.010163143946341435,36,1970-01-04 08:12:25.338796399,-1.0751182,-2.501241,-0.5158543,11.072265311131137,2.770954951434745,100.04286193847656,-12.515704154968262,4.484392166137695,16599854.0,39788.00000000186,0.05228610112180245,-0.1127857882886053,0.16647913900514485,2.197596501439788e-06,-0.005107188612888558,0.007078888772026048,16.599854525004048
1607,A,288745379112961.0,1.6005238,9.018958,4.229943543946341,36,1970-01-04 08:12:25.379112961,-2.1598237,0.79415464,-0.4000068,9.504945094146212,2.3357066269892415,99.29704284667969,-12.461689949035645,4.663847923278809,16640170.999999998,40316.99999999814,0.12001929025679448,-0.010892806742999523,0.08547419066788069,0.0034734182321052858,-0.002493174957944491,0.0050790011962134505,16.640171086997725
1607,A,288745418487388.0,1.4359225,8.684967,1.9219332039463415,36,1970-01-04 08:12:25.418487388,-0.91373056,-1.1366372,-0.08868326,8.805870382150271,1.4610654952143594,98.99211120605469,-12.376657485961914,4.665501594543457,16679545.000000002,39374.000000003725,0.05977851830810565,-0.03732802852500356,0.1211119975357747,0.003539679457217524,-0.0009493235839212664,0.004067062287165748,16.679545513994526
1607,A,288745459671867.0,-0.073621705,8.296508,1.9626346439463414,36,1970-01-04 08:12:25.459671867,-0.721184,-0.10839066,0.11957593,8.301244463230686,0.7390218535784991,98.68147277832031,-12.067665100097656,4.717395305633545,16720728.999999998,41183.999999996275,0.02805249797063746,-0.05392066679999515,0.07999102112379888,0.0018086162872117144,-0.0018789931341322034,0.004141113360237565,16.720729993015993
1607,A,288745502856764.0,-0.28311434,8.055291,1.8441216539463414,36,1970-01-04 08:12:25.502856764,-1.0980214,-0.5320996,0.41438788,8.061698362965865,1.2886032338423703,98.38487243652344,-11.73993968963623,4.738317966461182,16763914.0,43185.00000000186,-0.007702823051662832,-0.07013678009250306,0.0821973853622513,0.0004394003556879786,-0.002678710422026383,0.0035020531670501894,16.763914890005253
1607,A,288745540532232.0,2.0488381,9.837775,0.8750685439463415,36,1970-01-04 08:12:25.540532232,-0.8543421,0.073236935,0.808802,10.082017571661453,1.1787386256862054,98.2517318725586,-11.780668258666992,4.754537105560303,16801590.0,37676.0,0.03326270419088,-0.03215522269200001,0.05122410494790236,0.0004814970409005731,-0.001926976748454469,0.002513394034462675,16.80159035802353
1607,A,288745579180565.0,0.5722142,12.556391,-0.46269175605365875,36,1970-01-04 08:12:25.579180565,-0.23595607,-0.30146983,0.994158,12.752782746493457,1.0653212915989587,98.28237915039062,-11.598553657531738,4.724331855773926,16840238.0,38648.0,0.0506492146452,0.05399446378399998,0.007968769049238201,0.0016215139195884102,0.0004220214948618075,0.0011438430971207442,16.840238691016566
1607,A,288745620374731.0,-1.5771804,12.454638,2.992141443946341,36,1970-01-04 08:12:25.620374731,0.013848438,0.39547944,0.002396845,12.621237652776003,0.3957290885993946,97.92279815673828,-11.148957252502441,4.814535140991211,16881432.0,41194.0,-0.020699288821400003,0.11145096431299994,0.052099075221525584,0.0006168786221928086,0.003407679482513907,0.0012372173884449217,16.88143285701517
1607,A,288745660273640.0,1.1629834,13.182474,2.8317298439463414,36,1970-01-04 08:12:25.660273640,0.6716492,-0.30013826,-0.78083885,13.28265524957083,1.0728023735272914,97.63465881347656,-10.962162017822266,4.866983413696289,16921331.0,39899.0,-0.008263023051500002,0.12043736584399993,0.11618332025781507,-0.0005777836407084186,0.004626056242467069,0.003357149648615106,16.921331766003277
1607,A,288745700210825.0,2.2439656,11.267712,4.015064043946341,36,1970-01-04 08:12:25.700210825,2.7854002,0.19094865,-1.5387745,11.721472794098572,3.1879056797444796,97.29729461669922,-10.90372371673584,4.976778984069824,16961268.0,39937.0,0.0680316611065,0.09685093914099994,0.13672020375038504,0.0011934900490012674,0.00433892151809297,0.005050104019157744,16.961268951010425
1607,A,288745738553743.0,5.1882353,12.452243,0.6955034039463415,36,1970-01-04 08:12:25.738553743,3.13241,-0.24208134,-1.4674017,13.526615459589546,3.467544308648281,97.3904800415039,-11.118958473205566,4.985966682434082,16999611.0,38343.0,0.14248643955435,0.07898571728249995,0.09030864382727458,0.004035947766819486,0.003371052458623128,0.004352483551335102,16.999611868988723
1607,A,288745779972543.0,12.3834095,9.803658,1.0073481439463414,36,1970-01-04 08:12:25.779972543,2.6051042,-0.20266657,-1.4966966,15.809155961700585,3.0112692247463966,97.46712493896484,-11.972959518432617,4.995329856872559,17041030.0,41419.0,0.36389997798560003,0.05500238175949996,0.035265204131083513,0.010487009514043594,0.002774826537110297,0.0026005716042936163,17.041030669002794
1607,A,288745817659472.0,-0.46208093,10.8152075,0.9415076439463415,36,1970-01-04 08:12:25.817659472,3.2945967,1.3329122,-0.66152924,10.851064726232295,3.6150578534699425,97.5279541015625,-11.592874526977539,5.085928916931152,17078717.0,37687.0,0.224639554908795,0.019198992049249974,0.03672326403915577,0.011090144688095532,0.0013982135873651792,0.0013565146999659039,17.07871759799309
1607,A,288745857797180.0,-0.7703344,12.85387,-3.4991381560536583,36,1970-01-04 08:12:25.857797180,2.7880633,0.6021407,-1.4319818,13.883956108138177,3.191620632677797,98.0234603881836,-11.169553756713867,5.054582595825195,17118855.0,40138.0,-0.02473334325777,0.08166231634749997,-0.051329086747481746,0.004011917761624421,0.0020241855982143747,-0.0002931242559333941,17.11885530600557
1607,A,288745897678742.0,3.3063924,3.7433343,1.9901679639463414,36,1970-01-04 08:12:25.897678742,3.0450585,1.6311862,-0.74675035,5.003362164580632,3.5342305771861877,97.919189453125,-11.869229316711426,5.189248085021973,17158736.0,39881.0,0.050570264549,-0.05987724765585002,-0.03008962011571595,0.0005152011290077719,0.00043440516224584584,-0.0016235297242055938,17.15873686800478
1607,A,288745937550983.0,2.7539306,2.7036524,-3.4386841560536583,36,1970-01-04 08:12:25.937550983,2.3401196,0.9472864,-0.4777711,6.420180051113685,2.5693922413528707,99.10083770751953,-12.29630184173584,5.015085220336914,17198609.0,39873.0,0.12082162948950001,-0.26222504965545,-0.02887834306394752,0.0034169544954985556,-0.006421592450346732,-0.001175614797931361,17.198609109036624
1607,A,288745977461190.0,0.46088383,2.8844144,-1.2785160560536584,36,1970-01-04 08:12:25.977461190,0.050333746,0.8383631,-0.22743396,4.166144470466385,0.8701220486743707,99.96528625488281,-12.202543258666992,4.8744096755981445,17238519.0,39910.0,0.06415162195065,-0.279608127006,-0.0941317302326015,0.0036911412324881934,-0.010812281040279237,-0.002454666012632636,17.2385193160153
1607,A,288746022618169.0,0.10295067,3.0657754,-3.2567251560536583,36,1970-01-04 08:12:26.022618169,-1.6034893,1.1198592,-0.016511599,5.82240049703931,1.9558975422911768,100.96583557128906,-12.033151626586914,4.701459884643555,17283676.0,45157.0,0.012730537258250001,-0.3081922396007,-0.10239894370756505,0.0017358838316981488,-0.013271650577429376,-0.004437367821558051,17.283676295017358
1607,A,288746059200305.0,0.8984242,7.153276,-6.120190156053659,36,1970-01-04 08:12:26.059200305,-1.8072212,0.71319455,0.45060685,10.630533494313521,1.994427603385509,101.73783874511719,-11.940449714660645,4.552332401275635,17320258.0,36582.0,0.01831614774717,-0.17158693084260004,-0.17151315797375496,0.0005678749154341374,-0.008775640806578403,-0.005010126251853025,17.320258431020193
1607,A,288746099619316.0,1.6621746,14.505271,-4.392773856053658,36,1970-01-04 08:12:26.099619316,-1.3749901,-0.44741106,0.22050974,15.817435867798038,1.4626684440238673,101.95234680175781,-11.804527282714844,4.470351219177246,17360677.0,40419.0,0.0517484214486,0.04160220559649998,-0.21246174620268282,0.0014159699111619137,-0.0026269263048610586,-0.0077599408259537185,17.360677441989537
1607,A,288746136639575.0,8.13849,19.612701,-7.007840156053659,36,1970-01-04 08:12:26.136639575,-0.55553544,-0.7555388,-0.29987195,22.94737113484682,0.9845718306950672,102.21566772460938,-12.011069297790527,4.377201080322266,17397697.0,37020.0,0.18141030174599998,0.26872766172,-0.21102536536410643,0.0043157679663320455,0.0057442058440284145,-0.007838746435101268,17.39769770100247
1607,A,288746176737597.0,4.31076,5.116409,-1.4957897560536586,36,1970-01-04 08:12:26.176737597,-1.0239855,-1.5081482,0.5571333,7.410996503640868,1.9061623255490021,102.5844497680664,-12.608487129211426,4.210068225860596,17437795.0,40098.0,0.24959501325,0.10283352639000001,-0.17048927610783962,0.008641225560354803,0.007449430260417392,-0.007648987046871046,17.43779572303174
1607,A,288746216234315.0,4.373009,5.707178,3.1100558439463413,36,1970-01-04 08:12:26.216234315,-2.551841,-1.8341191,1.3281184,7.328418384270988,3.411712743869913,101.95301055908203,-13.262900352478027,4.222108364105225,17477292.0,39497.0,0.17149141209649998,-0.1733209921305,0.03187933383674864,0.008315825270955354,-0.0013920217171762641,-0.0027373384449406396,17.477292441006284
1607,A,288746256299211.0,-0.2669535,12.91193,5.197201043946341,36,1970-01-04 08:12:26.256299211,-2.8900626,-0.87138635,0.628506,13.381890935903927,3.0833092279109926,101.14967346191406,-12.963741302490234,4.323398113250732,17517357.0,40065.0,0.08225455680375,-0.019649718990000016,0.16641512360671018,0.005083166121994258,-0.003865685770521417,0.003972333718736089,17.51735733699752
1607,A,288746296267856.0,0.24839842,10.184336,-2.337351556053658,36,1970-01-04 08:12:26.296267856,-1.8495654,-0.64581656,0.6018744,10.95530919381048,2.049444800774774,101.3316879272461,-12.702583312988281,4.225677490234375,17557325.0,39968.0,-0.00037080471872,0.06986937974399997,0.057151232166047373,0.0016363649016672393,0.001003589700507935,0.004467750053762786,17.55732598202303
1607,A,288746335892649.0,2.5611973,9.35235,1.4616479339463415,36,1970-01-04 08:12:26.335892649,-1.0143981,-0.19574234,1.5347798,9.699447695921235,1.850099349613508,101.04244232177734,-12.845561027526855,4.254412651062012,17596950.0,39625.0,0.0556651152025,-0.001254408625000037,-0.01734987801300121,0.001095518526459891,0.0013594341152951862,0.0007885643291572271,17.596950775012374
1607,A,288746376083013.0,0.1364695,8.395866,2.5964995439463414,36,1970-01-04 08:12:26.376083013,-0.78057253,0.9217201,0.479369,8.445540049034184,1.2994829954622766,100.56053161621094,-12.59572696685791,4.391474723815918,17637141.0,40191.0,0.054210963179399996,-0.03721252537200004,0.0815505026419924,0.002208014733123471,-0.000773012272136715,0.0012901436522318923,17.637141139013693
1607,A,288746416054316.0,0.017357962,6.519411,0.03230944394634139,36,1970-01-04 08:12:26.416054316,-2.0921793,-0.391751,-0.16724652,6.727398610309185,2.1351005755705286,100.55506896972656,-12.275821685791016,4.352539539337158,17677112.0,39971.0,0.003074318741801,-0.09362653151650004,0.052538062027529205,0.0011448750018361626,-0.002614883971445118,0.0026798270092027237,17.67711244203383
1607,A,288746456413378.0,1.0354922,8.893861,1.8159897839463415,36,1970-01-04 08:12:26.456413378,-0.7368967,0.1073254,0.18269286,8.954795295187592,0.7667543081398561,100.23094940185547,-12.150864601135254,4.416794300079346,17717471.0,40359.0,0.021245989844078998,-0.08448607767600004,0.037297754269260394,0.0004907716671087653,-0.003594223397200055,0.0018128418549610659,17.717471504001878
1607,A,288746495906659.0,0.30226797,8.577228,1.7746898039463415,36,1970-01-04 08:12:26.495906659,-1.0468886,-0.08282431,0.40213734,8.582949891678497,1.1245221417825493,99.90654754638672,-11.923105239868164,4.465956211090088,17756964.0,39493.0,0.026416081196905,-0.04203854106150005,0.07090335448232286,0.0009411590858107904,-0.0024984183839000455,0.002136593193963139,17.756964784988668
1607,A,288746536028637.0,1.1210849,9.25359,-0.3549525560536586,36,1970-01-04 08:12:26.536028637,-1.0767161,0.42184472,0.4463458,9.543382095908441,1.2395543961314197,99.91426086425781,-11.8197660446167,4.469817638397217,17797086.0,40122.0,0.02855388192507,-0.03549156010200001,0.02848134892997511,0.0011027524301899403,-0.0015553313594409747,0.0019937565351541096,17.79708676302107
1607,A,288746577708169.0,-0.23582886,10.310031,1.8806332239463415,36,1970-01-04 08:12:26.577708169,-0.16138756,0.018375812,0.46924898,10.314451176786466,0.4965664308231612,99.62893676757812,-11.522879600524902,4.522817611694336,17838766.0,41680.0,0.018448735873600002,-0.0007581383600000034,0.03179518511888351,0.000979534554924283,-0.0007554437159480803,0.0012561629695782136,17.838766294997185
1607,A,288746617621189.0,0.23343466,10.85531,2.3044069439463413,36,1970-01-04 08:12:26.617621189,-0.4082626,-0.19520971,-0.28549087,10.875071455744175,0.5350609482016053,99.28506469726562,-11.258235931396484,4.579563140869141,17878679.0,39913.0,-4.7779852300000254e-05,0.031238727666499964,0.08351875411055032,0.0003672186788390735,0.0006082858804951664,0.0023012626282321964,17.878679315035697
1607,A,288746657557492.0,1.441908,13.504495,3.4739745439463414,36,1970-01-04 08:12:26.657557492,0.17417073,-0.14327806,-0.62531024,13.69764932277006,0.664738250678381,98.87457275390625,-11.10760498046875,4.6588897705078125,17918615.0,39936.0,0.03345324223488,0.09504378623999997,0.11538272155024108,0.0006670402728553574,0.002521609237684991,0.003971664665994683,17.91861561802216
1607,A,288746697429731.0,2.5133133,14.100053,4.268250943946342,36,1970-01-04 08:12:26.697429731,1.9542277,0.5917544,-1.3510216,14.552142260159469,2.4483542507229648,98.49111938476562,-11.031107902526855,4.790249824523926,17958487.0,39872.0,0.0788512918368,0.159578668928,0.1543490073266285,0.002238903191253012,0.005076153266229247,0.0053773717468892715,17.958487857016735
1607,A,288746737354522.0,6.5457473,12.751518,0.22504274394634138,36,1970-01-04 08:12:26.737354522,3.1262848,-0.68336713,-1.7313211,14.408339467593056,3.638422740196731,98.60787963867188,-11.335125923156738,4.776889801025391,17998412.0,39925.0,0.1808414972275,0.14475948608750006,0.08969737524455769,0.0051841173016960885,0.00607535041949692,0.004871775912077305,17.99841264798306
1607,A,288746776614940.0,14.006679,7.8948803,1.8207781839463415,36,1970-01-04 08:12:26.776614940,2.4306672,0.7137272,-0.6058692,16.078953705052484,2.6047316638541327,98.60191345214844,-12.397589683532715,4.84105110168457,18037673.0,39261.0,0.40345440448215,0.020541321828149998,0.04016048772499731,0.011470020698511283,0.003244937509788168,0.002549174779023849,18.037673066020943
1607,A,288746816991084.0,2.0667946,8.230667,1.0510423439463414,36,1970-01-04 08:12:26.816991084,2.7092338,-1.0996193,0.29454562,8.510373733317145,2.938684656484277,98.64690399169922,-12.44612979888916,4.805207252502441,18078049.0,40376.0,0.3244912850368,-0.07014225110760003,0.05797631281709749,0.014695767580008564,-0.0010013435602935373,0.0019811857293438096,18.078049210016616
1607,A,288746855072650.0,-0.50757074,11.246762,-1.4628693560536585,36,1970-01-04 08:12:26.855072650,3.1313448,0.16564862,-0.17710021,11.69192247213489,3.1407203323723345,98.98021697998047,-12.071712493896484,4.777472496032715,18116130.0,38081.0,0.02968840190633,-0.0023338131255000124,-0.00784139222402937,0.006743758329240667,-0.0013799805010303414,0.0009545939555523135,18.116130776004866
1607,A,288746894807543.0,1.8124107,6.2123547,-0.6045481560536587,36,1970-01-04 08:12:26.894807543,1.8919097,0.45167214,-0.871919,6.86678451439468,2.131565804184161,99.34567260742188,-12.11845874786377,4.749146938323975,18155865.0,39735.0,0.0259239079053,-0.04253399896275003,-0.041074417421792124,0.001104877565182559,-0.0008914112566633076,-0.0009718348481383586,18.155865669017658
1607,A,288746934900617.0,2.344522,2.3714569,-1.0863811560536587,36,1970-01-04 08:12:26.934900617,1.4325144,0.91799164,-0.8175905,4.340563596456411,1.887660028449906,100.20289611816406,-12.647797584533691,4.631117820739746,18195958.0,40093.0,0.08333195137055001,-0.2208360207606,-0.033897214455159336,0.002190197582973327,-0.005279647100384135,-0.0015029188184213075,18.195958742988296
1607,A,288746974789575.0,1.5490485,2.9897594,-1.0720159560536584,36,1970-01-04 08:12:26.974789575,-0.2231729,1.1925635,-0.3187804,4.356431268691639,1.2544460085036822,100.91675567626953,-12.891946792602539,4.530904293060303,18235847.0,39889.0,0.07765531683725001,-0.28398542150465,-0.04304815120242439,0.0032108105707704675,-0.010068411255259278,-0.0015346368453576786,18.235847701027524
1607,A,288747014823533.0,0.47405192,3.7403417,-1.4766361560536585,36,1970-01-04 08:12:27.014823533,-2.1310616,1.186172,0.39627838,4.925008194784104,2.4709237363856422,101.51447296142578,-12.779245376586914,4.427456855773926,18275881.0,40034.0,0.04049640110714,-0.25761676628130004,-0.05101636932805216,0.0023650429380928546,-0.010841250992911363,-0.0018828895074585491,18.2758816590067
1607,A,288747056620148.0,0.20051439,6.4128695,-4.000723156053659,36,1970-01-04 08:12:27.056620148,-2.9158952,1.2253205,0.57417756,8.57748337786768,3.2145816237126166,102.09192657470703,-12.577649116516113,4.321423053741455,18317678.0,41797.0,0.014097424029535,-0.1974237157368,-0.11446859358407478,0.0011409290546188025,-0.009509663513455264,-0.003458387497419085,18.31767827400472
1607,A,288747094597961.0,5.4384294,19.612701,-6.062729556053658,36,1970-01-04 08:12:27.094597961,-0.9291769,0.094009586,0.629305,21.780077565995988,1.1261582023758925,102.28009033203125,-12.660483360290527,4.26824951171875,18355656.0,37978.0,0.10707790362831,0.12201515822449997,-0.19109490355020584,0.0023009982968948185,-0.0014319330986010653,-0.005802345247082854,18.355656086991075
1607,A,288747136471553.0,2.871845,8.7125,-4.794999756053659,36,1970-01-04 08:12:27.136471553,0.16405073,1.4439659,-0.75394094,11.235545444367762,1.6371857266005059,102.85684204101562,-12.719565391540527,4.220001697540283,18397529.0,41873.0,0.17398805997560002,0.18267517073650005,-0.22732284974293485,0.005884537546993262,0.006379149072291977,-0.00876020329182184,18.39752967900131
1607,A,288747174594575.0,11.28926,12.157756,2.2092373839463413,36,1970-01-04 08:12:27.174594575,-0.5001417,-2.5220137,0.3043993,16.598971771807555,2.589083574724283,102.57645416259766,-13.433758735656738,4.154712677001953,18435652.0,38123.0,0.2699319029575,0.024212984743999962,-0.049288509455923626,0.008461780373449286,0.00394359857569155,-0.0052726274233690406,18.43565270100953
1607,A,288747214026346.0,7.589619,10.857106,5.752655843946341,36,1970-01-04 08:12:27.214026346,-1.9813919,-0.27696875,1.4836471,13.855225133528252,2.4907497399780216,101.81029510498047,-14.032193183898926,4.284726619720459,18475084.0,39432.0,0.37221597836400006,0.06732741919199996,0.15697668688113214,0.012660587628134694,0.0018048106040021745,0.0021231801061154113,18.47508447204018
1607,A,288747254122648.0,-1.2120646,8.971672,-1.4095985560536586,36,1970-01-04 08:12:27.254122648,0.41518682,-0.88656634,0.78323567,9.56976854478998,1.253729670017846,102.02835083007812,-13.543519020080566,4.187919616699219,18515180.0,40096.0,0.1278572106112,0.004586541343999967,0.08706961250767249,0.01002546729257481,0.0014417310808257265,0.004892640210146755,18.51518077403307
1607,A,288747296283324.0,-0.6751649,4.2850223,8.324627243946342,36,1970-01-04 08:12:27.296283324,-1.8855181,0.91852427,-0.03888215,7.925138239556965,2.097707596781607,100.55271911621094,-13.309097290039062,4.552556037902832,18557341.0,42161.0,-0.039783741474749994,-0.13372005580885002,0.1457722622551217,0.0018566327661309343,-0.002722199051676271,0.004908423140937082,18.557341450010426
1607,A,288747334053951.0,3.7786489,9.65821,2.0637896439463415,36,1970-01-04 08:12:27.334053951,-1.0735203,-1.9662119,-0.43010053,10.377734273669338,2.2811009482528344,100.21820068359375,-13.478039741516113,4.527470588684082,18595112.0,37771.0,0.058610847082,-0.10683088639835002,0.19619044713629727,0.0003555593029457199,-0.004542924819054076,0.006458136748211642,18.59511207701871
1607,A,288747373455409.0,2.7623103,9.192537,3.107063143946341,36,1970-01-04 08:12:27.373455409,-2.0690098,0.2759035,-0.42743737,9.702331891332515,2.1306400444657014,99.65142822265625,-13.55277156829834,4.652703762054443,18634513.0,39401.0,0.1288601667196,-0.014760658726500024,0.10186838534787979,0.0036932727073984203,-0.002395414234732108,0.00587190802935453,18.634513535012957
1607,A,288747413679783.0,1.0995371,8.682572,1.6430087079463414,36,1970-01-04 08:12:27.413679783,-1.0751182,-1.1630025,-0.08894958,8.752053891937107,1.586305767107863,99.37449645996094,-13.384984970092773,4.649605751037598,18674737.0,40224.0,0.07766947490880001,-0.03469100779200003,0.09553344508526564,0.004153724152430381,-0.0009945719170200732,0.0039701456136714205,18.674737908993848
1607,A,288747453637856.0,-0.49081135,8.304887,1.9386926139463414,36,1970-01-04 08:12:27.453637856,-0.81226414,-0.05273059,0.1123854,8.323031706669724,0.8216958235167365,99.05284881591797,-12.982912063598633,4.710143089294434,18714695.0,39958.0,0.012161731759250002,-0.05219595663900001,0.07155881071009391,0.0017947376780209712,-0.0017359146623669498,0.0033383361785354884,18.714695981994737
1607,A,288747494111710.0,0.12509704,9.235035,1.7471564819463414,36,1970-01-04 08:12:27.494111710,-0.87831056,-0.44661212,0.24767399,9.236046397418235,1.015989286784525,98.77477264404297,-12.693011283874512,4.73867654800415,18755169.0,40474.0,-0.00740096049147,-0.04168979848600002,0.07459052815358024,9.634372814606391e-05,-0.0018999660264646257,0.002957624170584174,18.755169835989363
1607,A,288747535919732.0,1.3706805,10.123882,0.20169934394634148,36,1970-01-04 08:12:27.535919732,-0.8583368,-0.13156016,0.44821003,10.324389358479973,0.9772115272171459,98.72393035888672,-12.58773422241211,4.7306952476501465,18796977.0,41808.0,0.03126773369616,-0.005039599032000031,0.04073888218446064,0.0004989110270708396,-0.000976831325716273,0.0024108459937064062,18.7969778580009
1607,A,288747575332386.0,-1.0307038,11.064204,1.1108974139463414,36,1970-01-04 08:12:27.575332386,-0.17124127,-0.6040049,0.4527374,11.127297296182922,0.7740262561011628,98.57733917236328,-12.166764259338379,4.7277679443359375,18836390.0,39413.0,0.00669975083855,0.03129561675899997,0.025866688009412154,0.0007482062339832624,0.0005174142133371243,0.0013125626690255541,18.83639051200589
1607,A,288747615192701.0,-0.6835446,11.6908865,2.0787534439463413,36,1970-01-04 08:12:27.615192701,-0.1486044,-0.04527374,-0.26391926,11.717233850855601,0.30624557961200877,98.30449676513672,-11.775213241577148,4.782529830932617,18876250.0,39860.0,-0.034164970611999995,0.06288095366499996,0.06356974159780117,-0.0005473818300848584,0.0018769390485503187,0.0017824680420717614,18.876250826986507
1607,A,288747655109469.0,0.5931635,12.044032,2.4761909139463416,36,1970-01-04 08:12:27.655109469,0.5792375,-0.124902256,-0.6058692,12.084095507845483,0.8474633575965272,98.02950286865234,-11.52747631072998,4.8422088623046875,18916167.0,39917.0,-0.00180387118435,0.08252677088224995,0.09090985696700113,-0.0007178841289924514,0.002902120070376288,0.0030831810679556072,18.916167595016304
1607,A,288747695005148.0,1.893215,10.90918,4.430458143946341,36,1970-01-04 08:12:27.695005148,2.320945,0.004527374,-0.9552759,11.405837639343718,2.509852233750255,97.60144805908203,-11.451253890991211,4.957421779632568,18956063.0,39896.0,0.049598278318,0.06688987297599995,0.13777383540684324,0.0009534028335020502,0.002980563211684369,0.004561782295473447,18.9560632740031
1607,A,288747734912387.0,6.2464724,12.958616,-1.2934796560536586,36,1970-01-04 08:12:27.734912387,3.062369,0.0974717,-1.4929681,14.692098941905748,3.4083072590480303,97.8755874633789,-11.718487739562988,4.947177410125732,18995970.0,39907.0,0.16241525253589997,0.08515746748599994,0.06259370025816663,0.004230411987893292,0.0030338766079085148,0.003998033622891774,18.995970513031352
1607,A,288747774775981.0,13.533225,10.13705,3.192655743946341,36,1970-01-04 08:12:27.774775981,1.9062908,0.7438209,-0.82078624,16.975266113477215,2.204745835060084,97.71324157714844,-12.632360458374023,5.042352676391602,19035834.0,39864.0,0.39424892857679994,0.06967561471199996,0.03785437778387695,0.011095430457938333,0.003086132994370534,0.0020021310915340125,19.03583410702413
1607,A,288747814716396.0,1.2964603,9.858724,0.5536469439463414,36,1970-01-04 08:12:27.814716396,1.9648803,-0.60293967,-0.058056913,10.008561357868198,2.056127779136036,97.7894515991211,-12.495922088623047,5.018494129180908,19075774.0,39940.0,0.296148815441,0.007903606779999989,0.07481366467721687,0.013787242948035466,0.001549257053195239,0.002249980807948044,19.07577452203259
1607,A,288747854675669.0,-1.5586253,13.270461,-2.615677556053659,36,1970-01-04 08:12:27.854675669,3.0637007,-0.33156356,-0.55580175,14.038921181872338,3.1313115397231597,98.20281219482422,-12.007497787475586,4.95155668258667,19115733.0,39959.0,-0.005237925617500004,0.07051135170749996,-0.04119834061459816,0.0058122541232286185,0.0015666916631010054,0.0006716173671090905,19.115733794984408
1607,A,288747893119367.0,1.3868413,4.8704047,2.9544326439463413,36,1970-01-04 08:12:27.893119367,2.1182783,2.2053638,-0.57098174,5.218973086525703,3.1107479155365128,97.73881530761719,-12.101407051086426,5.1812334060668945,19154177.0,38444.0,-0.003302032048000003,-0.028047479514600043,0.00651155029947314,-0.00016415506624624113,0.0008162405512919222,-0.000666749483437333,19.15417749300832
1607,A,288747932514940.0,2.5761611,2.1984756,-2.725212156053659,36,1970-01-04 08:12:27.932514940,1.3451627,1.1225225,-0.8807074,5.566188816070882,1.9609092219917525,98.86856842041016,-12.562315940856934,5.014213562011719,19193573.0,39396.0,0.0780632212752,-0.24683799585060004,0.004515185170510059,0.0014726459053973856,-0.005414694093743711,0.00021720463528772906,19.193573066033423
1607,A,288747972214784.0,2.345719,2.7922378,-1.2156681560536584,36,1970-01-04 08:12:27.972214784,-0.3568636,0.92997587,-0.44235107,4.66412329867831,1.0898996361671849,99.60942840576172,-13.035794258117676,4.894376754760742,19233272.0,39699.0,0.09769685904495,-0.2899870343667,-0.07822450375517419,0.003488749714314817,-0.010655708437298296,-0.0014630931192462905,19.233272910001688
1607,A,288748012375356.0,0.55605334,3.164536,-0.9780435560536587,36,1970-01-04 08:12:28.012375356,-2.1843247,0.67244816,0.1323591,4.177690245340925,2.2893186441101387,100.23321533203125,-12.957189559936523,4.760676383972168,19273433.0,40161.0,0.058269039473370005,-0.27396280370910003,-0.044050828034970985,0.0031318732251971247,-0.011324394723481103,-0.00245534980001201,19.273433481983375
1607,A,288748052283636.0,-0.008379706,5.0134583,-3.3058061560536585,36,1970-01-04 08:12:28.052283636,-3.2250881,1.2170646,0.829841,7.079110026841477,3.5455712626621634,100.8956069946289,-12.742311477661133,4.628383636474609,19313341.0,39908.0,0.010928279692835998,-0.2279147017378,-0.0854799371553894,0.0013807633066424746,-0.010014463743687443,-0.002584656888608451,19.313341761997435
1607,A,288748092133064.0,4.8841715,19.612701,-4.377810156053658,36,1970-01-04 08:12:28.092133064,-1.2828447,-0.27670243,1.5723304,21.10347975493173,2.0480423935676124,100.99475860595703,-12.83468246459961,4.564539909362793,19353191.0,39850.0,0.09715015149544998,0.10014622405249998,-0.15309605501873827,0.0021534627414265977,-0.002545786917879603,-0.004753626644069493,19.353191189991776
1607,A,288748134050565.0,3.3464954,5.251083,-3.908546656053659,36,1970-01-04 08:12:28.134050565,0.97418433,1.2141352,-0.70627034,8.374964676954907,1.709379181416547,101.8178482055664,-13.132465362548828,4.455101013183594,19395108.0,41917.0,0.17250243222365,0.11032101696400003,-0.17366960924655123,0.005651513675876757,0.004411077670844315,-0.0068485181745040705,19.395108691009227
1607,A,288748171710147.0,9.892841,9.365519,3.8241265439463414,36,1970-01-04 08:12:28.171710147,-0.16911073,-2.380866,0.17257284,13.78864858065463,2.3930948025648293,101.40928649902344,-13.91135025024414,4.43351936340332,19432768.0,37660.0,0.249296704412,-0.09383738434,-0.001589630710980786,0.007942477742849289,0.00031038680230992055,-0.0033001314884003275,19.43276827299269
1607,A,288748213921189.0,7.7823524,10.064027,5.111009843946341,36,1970-01-04 08:12:28.213921189,-3.319364,-0.31265512,1.3550164,13.173407391442609,3.59888872192892,100.65028381347656,-14.55507755279541,4.552358627319336,19474979.0,42211.0,0.3730437943037,-0.0035975168970000257,0.18858052103466902,0.013134807395644205,-0.002056412308057504,0.003946536235726602,19.474979315011296
1607,A,288748254354991.0,-2.741361,10.353725,-7.110791156053658,36,1970-01-04 08:12:28.254354991,0.4910869,-1.984854,0.26525086,13.863816047831383,2.061836502586553,101.41749572753906,-13.967364311218262,4.272748947143555,19515413.0,40434.0,0.10191372313379998,0.016532492183999974,-0.040429578786873616,0.009602216130033937,0.00026150639537727795,0.0029951675994236795,19.51541311701294
1607,A,288748293563272.0,0.8834604,2.959832,6.163261843946342,36,1970-01-04 08:12:28.293563272,-1.5861788,-0.21385184,0.34408042,5.434380075056967,1.6370971658604148,99.99151611328125,-14.076040267944336,4.585642337799072,19554621.0,39208.0,-0.0364222833624,-0.123239428572,-0.018575364634551828,0.0012838941852785252,-0.0020918827809503523,-0.0011567329108336244,19.554621397983283
1607,A,288748333502856.0,1.6005238,7.902063,6.664248243946341,36,1970-01-04 08:12:28.333502856,0.092944324,-0.34328148,0.39760995,9.472414435877791,0.5334552410594631,99.02417755126953,-14.071146011352539,4.802263259887695,19594560.0,39939.0,0.04960392248190001,-0.17449558779750002,0.25615896270017297,0.00026323074239685546,-0.005945619409390731,0.004744425661571421,19.594560982019175
1607,A,288748371572492.0,1.9249382,10.371083,-1.7088736560536586,36,1970-01-04 08:12:28.371572492,-2.850914,-0.34940675,-0.13688648,11.082928421452541,2.875505802593407,99.11638641357422,-13.964295387268066,4.729576587677002,19632630.0,38070.0,0.06710716917,-0.025256665890000016,0.09432555528053722,0.0022215956295939163,-0.0038022841489415635,0.006671472799762818,19.632630617998075
1607,A,288748411360773.0,0.8499416,9.345766,1.8770419239463414,36,1970-01-04 08:12:28.411360773,-1.8935076,-0.49481535,-0.50999534,9.386157367211721,2.0224511140383834,98.76548767089844,-13.722203254699707,4.770904064178467,19672418.0,39788.0,0.055203458741199994,0.0023245940059999685,0.0033455395214570314,0.002433247631665412,-0.00045621063806029695,0.0019430687599908735,19.67241889901925
1607,A,288748451007284.0,0.6596026,8.797494,2.7168081439463414,36,1970-01-04 08:12:28.451007284,-0.6892261,-0.83703154,0.23409186,8.881498964944917,1.1092580469819642,98.35115051269531,-13.503905296325684,4.818337440490723,19712065.0,39647.0,0.029924449448700003,-0.028877685390000036,0.09106618682087061,0.0016875330880024826,-0.0005263752070507253,0.001871570857147132,19.71206540998537
1607,A,288748490887388.0,-0.54049104,8.18398,3.0436167439463415,36,1970-01-04 08:12:28.490887388,-0.6785734,-0.6261092,0.44714475,8.31241746823052,1.0258718326208018,97.87842559814453,-13.112722396850586,4.885953426361084,19751945.0,39880.0,0.0023750845064,-0.05221340844000002,0.11486287226458008,0.0006440527070646941,-0.0016169564109702011,0.004106225438163887,19.75194551399909
1607,A,288748532473064.0,1.8531121,9.812037,0.24778764394634134,36,1970-01-04 08:12:28.532473064,-0.8815063,-0.0127831735,0.40080574,10.089405502281105,0.9684327584718356,97.84764099121094,-13.069291114807129,4.879636287689209,19793531.0,41586.0,0.027293329700579995,-0.03335161851900002,0.06843817143745255,0.000616895336605735,-0.0017791536055584876,0.003811378601696365,19.793531190021895
1607,A,288748573197387.0,0.55964464,13.413515,-2.8323528560536584,36,1970-01-04 08:12:28.573197387,-0.15126756,-0.55287224,0.74648404,14.1670804516629,0.9411631157486426,98.1224136352539,-12.839458465576172,4.784689426422119,19834255.0,40724.0,0.04912855273988,0.07382348982399999,-0.052626916848929194,0.0015561023702526466,0.0008240882435124093,0.0003219487659315127,19.834255513036624
1607,A,288748611357127.0,-1.42455,12.956821,3.7157888439463416,36,1970-01-04 08:12:28.611357127,0.35233623,-0.25992453,-0.3787015,13.191054194837575,0.5788923961917135,97.7160873413086,-12.365154266357422,4.8673248291015625,19872415.0,38160.0,-0.0165023942688,0.12917801087999994,0.016855958648992395,0.0006225071036282065,0.0038732686334323183,-0.000682509882454794,19.872415253019426
1607,A,288748652643429.0,-0.12868834,13.341689,4.5058754439463415,36,1970-01-04 08:12:28.652643429,1.3382385,0.17124127,-1.0069412,13.635784372904272,1.6834893631059575,97.28782653808594,-12.013870239257812,4.986971855163574,19913701.0,41286.0,-0.03206349905262,0.13827734193,0.16971981589496865,-0.0010025457358340732,0.005521080848056829,0.003851483713910988,19.913701554993168
1607,A,288748692634054.0,4.3209357,11.154586,3.2237803439463413,36,1970-01-04 08:12:28.692634054,3.0842068,0.42424157,-1.4583471,12.059906713682354,3.4378901609796544,97.07904052734375,-12.177274703979492,5.092443466186523,19953692.0,39991.0,0.08382608208687999,0.09790346676249999,0.15455833230680813,0.0010350187290615455,0.004722553360210883,0.006484103712368628,19.95369217998814
1607,A,288748732520981.0,7.4082584,12.553398,-1.3904449560536585,36,1970-01-04 08:12:28.732520981,2.8067055,0.871919,-0.6676545,14.898728625650767,3.013901298593154,97.35802459716797,-12.585432052612305,5.108539581298828,19993579.0,39887.0,0.23392118253335,0.08192757890399996,0.036563124308437715,0.006336992571953557,0.0035864604592498414,0.0038116307700061555,19.993579106987454
1607,A,288748772728324.0,7.062895,11.535264,2.931687743946341,36,1970-01-04 08:12:28.772728324,2.2900522,-1.0319749,-0.5360943,13.582466796734879,2.568405803498999,97.19051361083984,-13.019927978515625,5.1240153312683105,20033786.0,40207.0,0.29092083237690003,0.09023781651699996,0.030984374386400546,0.010551161446748213,0.0034611270268460714,0.0013579411400116807,20.03378644998884
1607,A,288748814563638.0,1.1366472,9.946711,0.45608324394634137,36,1970-01-04 08:12:28.814563638,2.788596,0.3336941,0.07749799,10.08745452976282,2.809559634897407,97.323486328125,-12.862483024597168,5.141304969787598,20075621.0,41835.0,0.1715139239685,0.039366212062499975,0.07086369963924519,0.009672979015854904,0.0027109922678116897,0.0021304070884314444,20.07562176400097
1607,A,288748852228688.0,-0.5177461,10.997167,-2.604305156053659,36,1970-01-04 08:12:28.852228688,2.2096248,0.45593318,-1.2325109,11.817984305539552,2.570875325646649,97.78194427490234,-12.433832168579102,5.095211505889893,20113286.0,37665.0,0.011655454965750002,0.025308582434999966,-0.040456389159761054,0.0034495373287792624,0.0012179880673741676,0.0005726456746048849,20.1132868140121
1607,A,288748889866033.0,1.9333179,2.0278888,2.6497705439463415,36,1970-01-04 08:12:28.889866033,1.5587482,1.4655375,-1.1350393,2.9609463708041623,2.421943502118491,97.23409271240234,-13.104066848754883,5.311481952667236,20150924.0,37638.0,0.026639645704199997,-0.12373387489980005,0.000855613134752392,0.0007206754995077889,-0.0018522655788950728,-0.0007452470040146379,20.150924159039278
1607,A,288748930089575.0,1.9063832,2.1823149,-2.1733488560536585,36,1970-01-04 08:12:28.930089575,0.5659217,1.2218584,-0.55606806,4.830984534384471,1.4568517452141838,98.33253479003906,-13.454736709594727,5.128016948699951,20191147.0,40223.0,0.07722214867265001,-0.3095118882874501,0.009581554776053694,0.002088816477610019,-0.00871322216634038,0.0002099071024381766,20.191147700999863
1607,A,288748970454419.0,0.8523358,1.9500773,-0.14127015605365867,36,1970-01-04 08:12:28.970454419,-1.6317189,1.2474247,0.081226416,2.809001011309346,2.0555224838088018,99.03971099853516,-13.629290580749512,5.002886772155762,20231512.0,40365.0,0.0556778462175,-0.3121749944235,-0.04671479821185593,0.0026822541468704522,-0.012547195510313748,-0.0007494416856430787,20.231512545025907
1607,A,288749009995511.0,0.34715924,5.9843073,-3.032268756053659,36,1970-01-04 08:12:29.009995511,-2.9076393,1.0681939,0.42903525,7.632300936162347,3.127215335189482,99.60133361816406,-13.427436828613281,4.885234355926514,20271053.0,39541.0,0.02371461668832,-0.2306350492657,-0.06274245106181772,0.0015696286878795142,-0.01073162596875733,-0.002164024546765165,20.271053637028672
1607,A,288749053567803.0,4.235343,19.612701,-4.876402556053659,36,1970-01-04 08:12:29.053567803,-2.2490396,0.16777915,0.9406285,21.11258542319978,2.443585672849457,99.71235656738281,-13.432732582092285,4.833752155303955,20314625.0,43572.0,0.09983439380064,0.13065082282380003,-0.17229831320557001,0.0026916387425124826,-0.002178256357263233,-0.005120598090329309,20.314625928993337
1607,A,288749089814939.0,0.94930094,9.294291,-4.411329156053658,36,1970-01-04 08:12:29.089814939,0.9020127,1.2389026,-0.48842376,11.159603082409646,1.6084353678592709,100.3284912109375,-13.23340892791748,4.7655348777771,20350873.0,36248.0,0.09396648676856001,0.16867992300799997,-0.168330849550233,0.0035124471594361814,0.005425070437455543,-0.006173562945786175,20.350873065006454
1607,A,288749129729209.0,2.2732944,2.8904,1.0761814439463415,36,1970-01-04 08:12:29.129729209,-0.104928546,-1.0684602,-0.4575311,3.7284879973337612,1.1670269517954264,100.36959075927734,-13.791665077209473,4.707561492919922,20390787.0,39914.0,0.06431333520038,-0.14798732171300005,-0.06655954289052572,0.003158790407034136,0.00041296224404431336,-0.004687707561940221,20.390787334996276
1607,A,288749169357596.0,14.298771,13.126211,6.053726843946341,36,1970-01-04 08:12:29.169357596,-3.2088428,-1.3121395,0.6735135,19.894123369646902,3.531572258535048,99.73175811767578,-14.604393005371094,4.757199287414551,20430415.0,39628.0,0.32835890383559996,-0.07100126964600004,0.1412720028163056,0.007780407744258907,-0.004339039949187227,0.001480352680969402,20.430415722017642
1607,A,288749210398845.0,2.6527755,13.8163395,8.307268843946343,36,1970-01-04 08:12:29.210398845,-0.052464273,0.032756884,0.7709851,15.546351605270656,0.7734620467823989,98.88734436035156,-14.587326049804688,4.964592933654785,20471456.0,41041.0,0.34785420995325,0.15067280753524998,0.2946948120134018,0.013876231201504096,0.0016348997932563534,0.008946257023713012,20.471456971019506
1607,A,288749249133429.0,2.6360161,3.043629,3.1962470439463413,36,1970-01-04 08:12:29.249133429,-1.5028218,-1.1568772,0.61226076,4.298226058667931,1.9929128070918853,98.15294647216797,-15.225202560424805,5.074700355529785,20510191.0,38735.0,0.10243067131299999,-0.05306756007625003,0.22279434395876155,0.008720892437924097,0.0018903696301621816,0.010022471228290874,20.510191555018537
1607,A,288749288880356.0,0.6362591,6.22672,7.399267843946341,36,1970-01-04 08:12:29.288880356,-0.48709217,0.31824777,0.27031085,8.470463288652919,0.6415671288438992,96.98069763183594,-15.103775978088379,5.388321399688721,20549938.0,39747.0,0.0650315611872,-0.2052863191485,0.21056996512453524,0.003328060677592724,-0.00513439581877307,0.008612465596566898,20.54993848199956
1607,A,288749329110773.0,1.4574703,10.621277,1.0265017439463415,36,1970-01-04 08:12:29.329110773,-0.79255676,0.06578008,0.20746025,10.741450195619429,0.8218959739994877,96.85356140136719,-14.932950973510742,5.412870407104492,20590168.0,40230.0,0.042115366881,-0.055356540345000045,0.16948435526046132,0.002155260458091843,-0.005242831118711755,0.007644792654544205,20.590168898983393
1607,A,288749368852647.0,1.5227122,9.3738985,3.4649961439463413,36,1970-01-04 08:12:29.368852647,-2.7771444,-0.5470133,-0.535828,9.660839626083789,2.8807752800960107,96.27967834472656,-14.77330207824707,5.501053333282471,20629910.0,39742.0,0.05921920645749999,0.007852532360499941,0.0892505545303155,0.002013619306809333,-0.0009439521426600016,0.005141321392452527,20.62991077301558
1607,A,288749408865355.0,2.947861,9.130288,1.9698172439463415,36,1970-01-04 08:12:29.408865355,-1.6729978,0.03355583,-0.13022858,9.598394446311099,1.6783942074437237,95.99858093261719,-14.848058700561523,5.5538787841796875,20669923.0,40013.0,0.08944052272580001,-0.02192339278775004,0.10873159404487495,0.0029741608719056917,-0.00028150866913777907,0.003960929855469548,20.669923481007572
1607,A,288749448815667.0,-1.0055647,9.850943,2.553403903946341,36,1970-01-04 08:12:29.448815667,-0.74115777,-0.7600662,0.5142564,9.93952213464454,1.1796080337784975,95.6915283203125,-14.371038436889648,5.582699298858643,20709873.0,39950.0,0.0387973685925,-0.012359910775000042,0.09035134242915634,0.002561551879083043,-0.0006848089886659329,0.003976681656068775,20.70987379300641
1607,A,288749488807075.0,0.6721721,10.068216,1.5909348239463414,36,1970-01-04 08:12:29.488807075,-0.74009246,-0.46205845,0.20532973,10.091135768224785,0.8963231329086219,95.52920532226562,-14.118061065673828,5.59019660949707,20749865.0,39992.0,-0.006666518429600001,0.006381903363999946,0.08287019720294207,0.0006424884798573484,-0.00011953623619035791,0.0034637379064834397,20.749865201010834
1607,A,288749528573117.0,1.9494787,14.780005,-2.8096076560536583,36,1970-01-04 08:12:29.528573117,-0.3864247,0.61678815,0.54914385,15.572870492728208,0.9117623806361693,95.7926254272461,-13.982378959655762,5.548742294311523,20789631.0,39766.0,0.05212628285640001,0.10435037814299995,-0.024230871920789782,0.0009038764960980647,0.0022016899532036793,0.0011659257045850341,20.789631243038457
1607,A,288749570632906.0,1.5454572,12.472593,1.3598943439463413,36,1970-01-04 08:12:29.570632906,0.31345406,-1.2743226,-0.23355924,12.572365248866305,1.3329296512534414,95.7147445678711,-13.792688369750977,5.510847091674805,20831691.0,42060.0,0.07349850197699999,0.16093413593999994,-0.030487470953616876,0.002641889225046402,0.005578933331165489,-0.001150726750648772,20.83169103198452
1607,A,288749608644418.0,-0.017956512,11.672332,4.253885543946341,36,1970-01-04 08:12:29.608644418,1.6346483,-0.4575311,-0.6844324,11.950165436640855,1.8302615884976279,95.34375762939453,-13.429386138916016,5.598845481872559,20869702.0,38011.0,0.029030914325784002,0.0863785720875,0.10669269365934438,0.0019486228215425613,0.004700301672416651,0.001448318360133704,20.869702544005122
1607,A,288749648021554.0,2.3223755,10.108918,5.2600488439463415,36,1970-01-04 08:12:29.648021554,3.0804784,0.6623282,-1.4287859,10.968773063538384,3.459690010018327,94.88513946533203,-13.360438346862793,5.779399871826172,20909079.0,39377.0,0.045370553245238004,0.04294554062499997,0.1873150971960251,0.001464853294272067,0.002546197793140056,0.005788572390255943,20.909079679986462
1607,A,288749689694001.0,6.317101,13.200431,2.4893590139463413,36,1970-01-04 08:12:29.689694001,2.915629,-0.3584615,-1.0024139,14.655810511854828,3.103904112490665,94.84134674072266,-13.614151954650879,5.810081958770752,20950752.0,41673.0,0.18001645209225003,0.07728985043849995,0.1614705368309809,0.0046962763367145695,0.002505284725894616,0.0072674718634037115,20.9507521269843
1607,A,288749728929105.0,7.441179,11.270106,-2.2290138560536588,36,1970-01-04 08:12:29.728929105,2.6943202,-0.72624403,-0.34860778,14.062769584524618,2.812173379348295,95.29509735107422,-14.052756309509277,5.699557781219482,20989987.0,39235.0,0.26990305789999997,0.09554775959749998,0.005107321134959699,0.008826295987272964,0.0033906418148812287,0.0032678411286468398,20.98998723103432
1607,A,288749767924521.0,0.25019407,9.523536,-0.17718315605365853,36,1970-01-04 08:12:29.767924521,2.649579,-0.706004,-0.0029294773,9.708476531592801,2.742028283423468,95.58538818359375,-13.739082336425781,5.627925872802734,21028982.0,38995.0,0.149962546432325,0.02327303489499998,-0.04691482624356243,0.008186329620469507,0.002316708440617518,-0.0008151418308549817,21.028982646996155
1607,A,288749809271345.0,-1.939902,11.121067,-4.504702756053659,36,1970-01-04 08:12:29.809271345,1.2341089,-3.3811493,-1.4290522,12.877949740370466,3.872645808265267,96.26625061035156,-13.131861686706543,5.327691078186035,21070329.0,41347.0,-0.034932176890855,0.02159560012049997,-0.09679096840395063,0.00237808034471558,0.0009275917259929383,-0.002970901745645361,21.070329471025616
1607,A,288749847574627.0,2.7210102,2.6426,4.420881343946341,36,1970-01-04 08:12:29.847574627,2.1598237,2.8700888,-1.056476,4.672636763003977,3.744114003812268,95.39188385009766,-13.742361068725586,5.699950695037842,21108632.0,38303.0,0.014959393692299995,-0.11177453144950002,-0.0016053057739732915,-0.00038250875742712616,-0.0017270618033473442,-0.0018844362449185097,21.108632753021084
1607,A,288749887558012.0,1.751957,0.41000703,-2.6456051560536586,36,1970-01-04 08:12:29.887558012,1.015996,1.4436996,-0.63676184,4.696068249879192,1.876694447142727,96.7705078125,-14.174530029296875,5.452169418334961,21148616.0,39984.0,0.08942356026239999,-0.33081548025624,0.03549132154835051,0.002086824015462362,-0.008848259514021154,0.0006774492273613494,21.148616138030775
1607,A,288749927665668.0,0.22984336,1.9416976,-2.4660398560536585,36,1970-01-04 08:12:29.927665668,-1.5310514,0.76725674,0.18136127,4.594895008811838,1.7221188126181657,97.93807220458984,-14.070265769958496,5.184433460235596,21188723.0,40107.0,0.03974203351926,-0.345888691202295,-0.10250637325029407,0.0025902222349005184,-0.013570287102343731,-0.0013438863393049252,21.188723794010002
1607,A,288749967514366.0,-0.51116204,7.9954367,-3.7331711560536585,36,1970-01-04 08:12:29.967514366,-2.4224114,1.1624699,0.42743737,9.675833378730994,2.7206829959641543,98.45407104492188,-13.713661193847656,5.084075927734375,21228572.0,39849.0,-0.0056051340396600004,-0.19252776763965004,-0.12351617981073225,0.0006801606536812902,-0.010727678734196333,-0.004503386358464419,21.228572492022067
1607,A,288750008165044.0,0.62728083,19.612701,-4.885381156053659,36,1970-01-04 08:12:30.008165044,-0.16005598,0.7502125,0.0061252704,20.695763975048795,0.7671207407100159,98.69490051269531,-13.427434921264648,5.061669826507568,21269223.0,40651.0,0.0023601724661450004,0.16276940282134997,-0.17517638501973729,-6.595546646247913e-05,-0.0006048536441143582,-0.006071075726461708,21.269223170005716
1607,A,288750047732491.0,4.156334,4.7243586,-4.335313156053658,36,1970-01-04 08:12:30.047732491,0.8929579,1.0476876,-0.24021713,8.713453013895178,1.3974002246713741,99.61448669433594,-13.873798370361328,4.907143592834473,21308790.0,39567.0,0.094636643989305,0.0937156185966,-0.1824176059235751,0.001918936518346395,0.005074171421222014,-0.0070744607198270195,21.30879061704036
1607,A,288750087395565.0,6.356007,8.555081,2.8820081439463414,36,1970-01-04 08:12:30.087395565,-2.9920616,-1.0506171,0.29348037,10.723998389653222,3.1847071508354277,99.11952209472656,-14.439764976501465,4.939671516418457,21348453.0,39663.0,0.20847549054149997,-0.12534619357260002,-0.028821218347606252,0.006011168295947659,-0.0006272817476365442,-0.004189182743533933,21.348453690996394
1607,A,288750129141240.0,9.146449,15.489288,-2.4109731560536583,36,1970-01-04 08:12:30.129141240,-0.35473305,-2.4722126,1.0317086,18.45022216772779,2.7022385741593995,99.26402282714844,-14.849897384643555,4.7726006507873535,21390199.0,41746.0,0.323582764088,0.09276731413699996,0.009831913302283975,0.011105651948881553,-0.0006800189504592801,-0.0003963637642110119,21.390199366025627
1607,A,288750167503169.0,2.2918496,8.216302,0.20948044394634135,36,1970-01-04 08:12:30.167503169,-1.7006947,-1.9779298,0.21518342,8.657847525637797,2.617417173585255,99.2293930053711,-14.857178688049316,4.663663864135742,21428561.0,38362.0,0.2193980054466,0.07874932179,-0.04222683171093045,0.010414914140443163,0.003289860593715786,-0.0006213669299962481,21.428561295033433
1607,A,288750207698010.0,0.50517654,5.506664,4.427465243946342,36,1970-01-04 08:12:30.207698010,-1.2255868,0.3720436,0.928378,6.169346020802167,1.5818865811173697,98.30510711669922,-14.720083236694336,4.894436359405518,21468756.0,40195.0,0.05621323284865,-0.11811369081500002,0.0931910159624232,0.005539096861638787,-0.0007911254064799381,0.0010242526929943754,21.468756136018783
1607,A,288750246715825.0,-0.99179804,8.592192,4.697411543946341,36,1970-01-04 08:12:30.246715825,-0.96379805,1.1619372,0.5422196,9.15649415647183,1.6040594853532715,97.56275939941406,-14.28313159942627,5.119901180267334,21507773.0,39017.0,-0.009493255532750001,-0.10731906772400003,0.1780126588166044,0.0009114366774672351,-0.004397854969958083,0.00529077688942666,21.50777395098703
1607,A,288750288768687.0,-2.0817583,13.024457,-0.9666711560536587,36,1970-01-04 08:12:30.288768687,-1.7715348,-2.1116204,-0.2050634,13.455081115310636,2.7639332950212023,97.6009521484375,-13.695966720581055,4.988691806793213,21549826.0,42053.0,-0.06462613238301,0.04240307019849998,0.07844441276602548,-0.0015584713100107277,-0.0013649562219699269,0.005392394615632167,21.549826812988613
1607,A,288750327250043.0,2.5516205,7.7997108,2.0554099439463416,36,1970-01-04 08:12:30.327250043,-1.1930962,-0.16405073,-0.24714136,8.214515033446641,1.2294185765192516,97.29296875,-13.797571182250977,5.04144287109375,21588308.0,38482.0,0.009040618590199995,0.023554212639799968,0.020948423017843113,-0.0010695208708874574,0.0012690840790917294,0.0019124175533174158,21.58830816904083
1607,A,288750366515563.0,2.2481554,6.284181,1.1515988039463414,36,1970-01-04 08:12:30.366515563,-1.3680658,-0.43329632,0.09427591,6.696063329123348,1.4381368784860191,97.17234802246094,-13.945038795471191,5.032599925994873,21627573.0,39265.0,0.09423160035675,-0.10829499423650003,0.0629615992430031,0.002027491838475996,-0.001663673394697214,0.0016473635120360633,21.6275736890384
1607,A,288750406824209.0,0.587178,8.457518,0.7727163939463414,36,1970-01-04 08:12:30.406824209,-1.3651364,0.1371528,0.2066613,8.52758091515835,1.387485918512505,97.07791137695312,-13.707533836364746,5.044070720672607,21667882.0,40309.0,0.05714472701029999,-0.09791662750450002,0.03878361065592807,0.0030509141899192085,-0.0041560921303789855,0.0020506238329080083,21.667882335023023
1607,A,288750446226136.0,-0.07062895,10.128072,0.9875960439463415,36,1970-01-04 08:12:30.446226136,-0.86872315,-0.47484162,0.509729,10.15278988258895,1.1135430520959424,96.96133422851562,-13.381304740905762,5.03513765335083,21707284.0,39402.0,0.01017653283405,-0.01998489141000003,0.03467991533892374,0.001326296140193539,-0.002322777824134565,0.0014473049256245756,21.707284261996392
1607,A,288750487589314.0,-0.4201824,11.44608,0.5297049439463415,36,1970-01-04 08:12:30.487589314,-0.63409865,-0.3206446,0.49721217,11.512620868916763,0.8672450630802642,96.90428161621094,-13.021976470947266,5.022418022155762,21748647.0,41363.0,-0.010150714935024998,0.04082842458799996,0.03138006038110252,5.339528786855617e-07,0.00043107553142080553,0.0013662193878537228,21.748647439992055
1607,A,288750526128896.0,-0.8331822,12.00333,1.5777667139463414,36,1970-01-04 08:12:30.526128896,0.17204021,-0.22556975,0.20266657,12.032755023075548,0.3486449262035395,96.75353240966797,-12.614021301269531,5.045705318450928,21787187.0,38540.0,-0.024152335841999998,0.07417813069999997,0.040610978847591996,-0.0006610197884732716,0.0022161763203997586,0.0013872673259369432,21.787187022040598
1607,A,288750568082802.0,-1.3257892,11.158177,1.3521132039463415,36,1970-01-04 08:12:30.568082802,0.42264366,-0.09134643,-0.38402784,11.241806575542533,0.5783158440739853,96.64812469482422,-12.12010383605957,5.070668697357178,21829140.0,41953.0,-0.0452876635721,0.07470795158549998,0.061458626097675856,-0.0014566081477098685,0.0031231089050617893,0.0021410630681344108,21.82914092799183
1607,A,288750608033793.0,0.688333,10.337564,3.3698267439463416,36,1970-01-04 08:12:30.608033793,1.7140105,-1.0333065,-0.7965515,10.495419614222511,2.1540772059526443,96.34439849853516,-11.877654075622559,5.106141567230225,21869091.0,39951.0,-0.0127335063231,0.037868374345499986,0.0943231114291303,-0.0011590018792415676,0.00224876839863469,0.0031118180979667165,21.86909191904124
1607,A,288750647900146.0,4.3239284,11.207857,3.3889803439463417,36,1970-01-04 08:12:30.647900146,3.4429348,0.8159926,-1.6210662,12.132264945580681,3.8919788777803306,96.15301513671875,-12.034849166870117,5.22967004776001,21908958.0,39867.0,0.0999119126169,0.038779049503499995,0.13472668108650881,0.0017377707618574623,0.0015278514232940409,0.0045657640391104926,21.908958272018936
1607,A,288750687231865.0,7.888296,18.15643,0.9863988439463415,36,1970-01-04 08:12:30.687231865,1.8245317,1.1092066,-0.98403805,19.808562893758776,2.35108189768801,96.13917541503906,-12.276427268981934,5.310691833496094,21948289.0,39331.0,0.2401594989382,0.19201958599849997,0.08604401941950356,0.006687674343936819,0.00453877056646458,0.004341566210800987,21.948289991007186
1607,A,288750727812803.0,7.3232646,11.473015,-1.5724041560536586,36,1970-01-04 08:12:30.727812803,1.592304,-2.0205405,-1.4450313,13.997042497180402,2.950615427082279,96.45113372802734,-12.669892311096191,5.169645309448242,21988870.0,40581.0,0.3086501703543,0.20350245377249998,-0.011890340785313517,0.01113562259477947,0.008025339947973475,0.0015046152163270328,21.98887092899531
1607,A,288750768110981.0,1.6693572,9.229648,3.9881291439463413,36,1970-01-04 08:12:30.768110981,1.6117451,0.6111955,-0.36884782,9.656342585691556,1.7627622984716382,96.02000427246094,-12.606073379516602,5.313290119171143,22029169.0,40299.0,0.18119683295910002,0.02221810811849996,0.048675650643543615,0.009870172193263355,0.004548156461822704,0.0007412056009884075,22.02916910703061
1607,A,288750807517178.0,-1.323395,7.367557,-1.8573141560536586,36,1970-01-04 08:12:30.807517178,2.5204158,1.3187973,-0.9968212,8.284355088327032,3.0141955192300265,96.61787414550781,-12.049432754516602,5.2822394371032715,22068575.0,39406.0,0.006816493226599999,-0.059164069885000045,0.041983447706449524,0.0037044265658368472,-0.0007279462846853511,0.0017862562147899148,22.06857530400157
1607,A,288750847461707.0,1.4933833,0.37229836,0.9343250439463414,36,1970-01-04 08:12:30.847461707,1.8269285,2.6405244,-0.5390238,1.7155195253032303,3.2558537295268732,97.28795623779297,-13.177628517150879,5.286269664764404,22108519.0,39944.0,0.0033950063275999995,-0.23687080875008004,-0.01843393854700734,0.00020394406909648237,-0.00591240859609982,0.00047033079693237933,22.108519833011087
1607,A,288750885386033.0,2.9682117,1.2779051,-2.0602228560536586,36,1970-01-04 08:12:30.885386033,-0.09960223,1.5566177,-0.11611383,4.9520877152171074,1.5641169041000522,98.32486724853516,-13.901232719421387,5.118251800537109,22146444.0,37925.0,0.0846029951875,-0.34037301688975,-0.021349837262085,0.0016686621037300838,-0.010945986043695276,-0.0007543998487799135,22.146444159036037
1607,A,288750925070303.0,1.5215151,1.8561049,-1.4467086560536586,36,1970-01-04 08:12:30.925070303,-2.721218,0.87990844,0.39867523,3.9512263441790156,2.8875955750975217,99.23963165283203,-14.261544227600098,4.9024505615234375,22186128.0,39684.0,0.08908515916559999,-0.32671817358,-0.06958453506323338,0.0034463203586742094,-0.01323642340130078,-0.0018043198156789673,22.186128429020755
1607,A,288750965038480.0,0.6715736,11.405977,-0.5949713560536587,36,1970-01-04 08:12:30.965038480,-2.6501117,0.87351686,1.4226607,11.652380501738321,3.132105872173806,99.15319061279297,-14.066719055175781,4.921674728393555,22226096.0,39968.0,0.043826684580799996,-0.12665695531040003,-0.040800933361952625,0.0026561102854280568,-0.009060248575745753,-0.002205943201008917,22.226096605998464
1607,A,288751005310355.0,-0.46028528,19.612701,-10.811029156053658,36,1970-01-04 08:12:31.005310355,1.3590112,2.1158814,-0.42850262,23.263660240438234,2.5509762907440487,99.7790298461914,-13.715215682983398,4.8925580978393555,22266368.0,40272.0,0.0042545016115199995,0.229926500208,-0.22967122631179296,0.0009681627651685555,0.0020794355560580734,-0.005446227407190541,22.266368481039535
1607,A,288751045362021.0,3.8385038,2.6689363,0.2795108439463414,36,1970-01-04 08:12:31.045362021,0.66658926,-0.5339638,-0.8516789,4.883923814650791,1.2061573404672368,100.10167694091797,-14.562561988830566,4.803109169006348,22306420.0,40052.0,0.06765220408151999,0.0537024685698,-0.2109041857182611,0.0014400036882088187,0.005679953728744223,-0.008822963201313863,22.306420147011522
1607,A,288751085190458.0,14.033613,14.818912,4.250892843946342,36,1970-01-04 08:12:31.085190458,-2.4908545,-3.1012511,0.7203851,20.56914970265718,4.042408838517384,99.64990997314453,-15.269365310668945,4.734220027923584,22346248.0,39828.0,0.3559053339552,-0.04206138895380004,0.09021845904069489,0.008434724812463244,0.0002318204594730233,-0.0024033355610570536,22.34624858398456
1607,A,288751127487854.0,7.5788455,12.124237,8.26656754394634,36,1970-01-04 08:12:31.127487854,-1.3901701,1.2692626,1.7821875,15.737210012350873,2.5922563028853878,98.76185607910156,-15.771244049072266,4.999488830566406,22388545.0,42297.0,0.45707107858725005,0.1552965866265,0.2647255110133484,0.017193231660654007,0.002394754577981095,0.007506532550687935,22.388545980036724
1607,A,288751165377960.0,-1.6519991,4.9200845,2.4594315439463417,36,1970-01-04 08:12:31.165377960,-1.1278487,-0.3749731,0.88017476,5.246441250800388,1.4789709679220744,98.28627014160156,-15.025325775146484,5.086162090301514,22426436.0,37891.0,0.1122870684712,-0.04841860702175002,0.2032094157196708,0.010786774775095865,0.002024856762601791,0.008865261154420415,22.426436086010654
1607,A,288751204957021.0,-1.8794483,3.721188,10.56200884394634,36,1970-01-04 08:12:31.204957021,-0.9648633,0.50786483,-0.2892193,9.800766761344638,1.1280672305896973,96.823974609375,-14.6535005569458,5.474465370178223,22466015.0,39579.0,-0.06988557832230001,-0.21686773786125005,0.2576877945562022,0.0008391042893016564,-0.00524988412206213,0.009120925342754391,22.466015146987047
1607,A,288751247193166.0,2.7820623,8.15106,-2.5240995560536588,36,1970-01-04 08:12:31.247193166,-1.2777847,-2.0879183,-0.5203817,9.589364046763146,2.5025853992868794,97.2833251953125,-14.691667556762695,5.244662761688232,22508251.0,42236.0,0.019061402452000005,-0.16319466673600005,0.16974456834171767,-0.0010733049460289956,-0.008026157860284728,0.009026516639678272,22.508251291990746
1607,A,288751284322595.0,3.127426,10.307038,5.565908243946342,36,1970-01-04 08:12:31.284322595,-3.114567,0.6487461,-0.8546084,11.446497049975534,3.2942001483068344,96.45148468017578,-14.72160816192627,5.452713489532471,22545380.0,37129.0,0.10970669554535,-0.021198839679000034,0.056469657386383716,0.0023905153552718043,-0.003423173249841269,0.004199553993529339,22.545380720985122
1607,A,288751327487230.0,0.93972415,9.222465,2.1469881739463412,36,1970-01-04 08:12:31.327487230,-1.0796455,-1.9473034,0.24181503,9.28137245481265,2.239665029877395,96.18585205078125,-14.505642890930176,5.411127090454102,22588545.0,43165.0,0.087779268112375,-0.0015215015025000294,0.16646358693916882,0.00426224081064285,-0.0004903617635497251,0.004811456745656238,22.588545356004033
1607,A,288751366453532.0,-1.6023195,8.583812,3.0166819439463417,36,1970-01-04 08:12:31.366453532,-0.83223784,-0.74115777,0.5067996,8.831976022544822,1.2242469101122528,95.77970123291016,-13.934213638305664,5.462160587310791,22627511.0,38966.0,-0.012909345204049998,-0.03494710520900003,0.10060378490690314,0.001458690708022896,-0.0007105178645601557,0.00520327360567702,22.62751165800728
1607,A,288751403884626.0,-0.729633,8.528147,2.3385243439463412,36,1970-01-04 08:12:31.403884626,-1.1243867,-0.6106629,0.6069344,8.583678298438745,1.4161652426453137,95.47393035888672,-13.504748344421387,5.488693714141846,22664942.0,37431.0,-0.04364365701375,-0.046564931335500014,0.10022536328105551,-0.0010584177130072358,-0.0015255385199485904,0.00375861792291174,22.664942751987837
1607,A,288751444445615.0,1.7711107,13.932458,-1.7956635560536585,36,1970-01-04 08:12:31.444445615,-0.93130744,0.5070659,0.6849651,14.471165910617914,1.2623892279959352,95.64015197753906,-13.383410453796387,5.460537433624268,22705503.0,40561.0,0.021121688494849997,0.05801449970249999,0.011009488208857552,-0.00045675678254755145,0.00023220297126694308,0.0022558984056411818,22.705503740988206
1607,A,288751484434730.0,-2.3906105,12.114062,2.8850008439463415,36,1970-01-04 08:12:31.484434730,-0.09321064,-0.57790595,0.14221281,12.405182520079068,0.6024018540664597,95.36078643798828,-12.79996109008789,5.494081020355225,22745492.0,39989.0,-0.012386588751100004,0.12889494414,0.02178075440277025,0.00017465395182640923,0.0037371608749088656,0.000655624505898192,22.745492856018245
1607,A,288751525317803.0,1.4030021,12.588114,2.6832893439463414,36,1970-01-04 08:12:31.525317803,0.391751,-0.65859973,-0.85753787,12.704782777300863,1.1500407161666972,95.1369857788086,-12.597657203674316,5.519556045532227,22786375.0,40883.0,-0.020188197108600005,0.10429613070399997,0.11382420387580829,-0.0006658774851510577,0.004766775356423626,0.0027719687546515635,22.786375929019414
1607,A,288751564925980.0,1.4041992,12.522872,3.474573043946341,36,1970-01-04 08:12:31.564925980,2.6988475,-0.021837922,-1.2381036,12.726796332146865,2.9693695033502463,94.93709564208984,-12.38775634765625,5.596572399139404,22825984.0,39609.0,0.05559521814585,0.10914232223699995,0.12195338566102064,0.0007012183481322175,0.004227041841270033,0.004669457271982128,22.825984105991665
1607,A,288751605394314.0,4.9524064,12.396578,0.5428730439463414,36,1970-01-04 08:12:31.605394314,3.4693,0.55606806,-1.3800501,13.398588526939964,3.774889727642673,95.11174011230469,-12.553048133850098,5.628932476043701,22866452.0,40468.0,0.12861955771039998,0.10763375129999996,0.08128900414242055,0.003727401774675362,0.0043862470719476555,0.004112406515282828,22.866452440037392
1607,A,288751645184053.0,8.058285,13.89056,3.3865861439463414,36,1970-01-04 08:12:31.645184053,1.9238676,0.59841233,-0.41705105,16.147907974890703,2.0574973723754524,94.9345474243164,-12.96869945526123,5.719879150390625,22906242.0,39790.0,0.25884770540299995,0.13304061051000002,0.07817659054312492,0.007708661199641092,0.004788216428209949,0.003172568006268927,22.90624217898585
1607,A,288751683414574.0,0.54049104,11.519701,-1.5700098560536584,36,1970-01-04 08:12:31.683414574,2.5286715,-1.1611383,-1.0634003,11.98486279214165,2.978798735174841,95.34974670410156,-12.657916069030762,5.604265213012695,22944472.0,38230.0,0.1643656040046,0.11106313901499998,0.03472385574306863,0.008089722409326273,0.004666043172170375,0.0021580920307605897,22.94447270000819
1607,A,288751725144000.0,-0.7266402,10.760141,-0.5824016560536585,36,1970-01-04 08:12:31.725144000,2.3545008,-0.24580978,-0.7803062,11.021885133846627,2.492583846313445,95.636962890625,-12.214546203613281,5.559812545776367,22986202.0,41730.0,-0.0038840022233999987,0.05591490332999998,-0.04491006620011917,0.0033484486211647385,0.0034839968535284246,-0.00021253528118635949,22.986202126019634
1607,A,288751765628792.0,0.8762778,3.7116113,1.7722955939463414,36,1970-01-04 08:12:31.765628792,2.0477047,2.432265,-0.97072226,3.814492651374963,3.324350955402663,95.54141235351562,-12.206832885742188,5.724634170532227,23026686.0,40484.0,0.0030289642992000006,-0.10380598994340003,0.024085833090823686,-1.7307677661656362e-05,-0.0009694113752284437,-0.0004215241265983592,23.026686917990446
1607,A,288751805505093.0,1.6286557,0.58418524,0.5231208439463415,36,1970-01-04 08:12:31.805505093,1.2769858,2.4493093,-0.6540724,2.088128421993568,2.8385946320159716,96.3570556640625,-13.177024841308594,5.681142330169678,23066563.0,39877.0,0.04994461658975,-0.3051428606872101,0.04576716064692326,0.0010562137425543297,-0.00815382665829842,0.0013927639156400677,23.06656321900664
1607,A,288751845806397.0,1.9961656,1.1641805,-1.7483779560536585,36,1970-01-04 08:12:31.845806397,-0.7930894,1.4924355,-0.07962852,4.14449176884699,1.6919501231567085,97.47010040283203,-13.730051040649414,5.485775470733643,23106864.0,40301.0,0.07304196160564999,-0.35971935615613,-0.024689543437518488,0.002478241043926407,-0.013397306100501721,0.0004247245255781108,23.10686452302616
1607,A,288751883293428.0,0.39743748,2.7581203,-1.9291402560536586,36,1970-01-04 08:12:31.883293428,-3.1909997,0.8199873,0.3784352,4.569298805826431,3.3163340389895013,98.34381103515625,-13.635130882263184,5.278334140777588,23144351.0,37487.0,0.044864499329980004,-0.29385495495520003,-0.06892956260863349,0.002209979750546981,-0.012250270100315213,-0.0017547497141760496,23.14435155398678
1607,A,288751922927697.0,-0.10534488,14.233529,-2.2888691560536585,36,1970-01-04 08:12:31.922927697,-2.2423816,0.0974717,1.2924321,14.780138020237302,2.5900109469710473,98.41944122314453,-13.35488510131836,5.229825019836426,23183985.0,39634.0,0.005788399054200001,-0.05168968582190002,-0.08358829251973071,0.001003788487279295,-0.0068476581462797925,-0.0030224463350787935,23.183985823008697
1607,A,288751963064261.0,2.110489,18.324022,-8.140897156053658,36,1970-01-04 08:12:31.963064261,0.8586032,2.3643544,-0.4958806,20.90242998834762,2.5638386753666773,98.92970275878906,-13.17872142791748,5.239955425262451,23224122.0,40137.0,0.040240234772219996,0.26003861224349994,-0.20930976523452569,0.0009237256379455096,0.004181250429891877,-0.005878024672041294,23.22412238700781
1607,A,288752002423688.0,8.540716,10.601525,2.7096255439463413,36,1970-01-04 08:12:32.002423688,0.25007084,-1.3187973,-0.13289174,13.65179625613624,1.3488595027154693,98.67122650146484,-13.78768253326416,5.2406511306762695,23263481.0,39359.0,0.20961038879749996,0.18352210218649992,-0.10688470969046593,0.004916935346540304,0.008729053079625182,-0.006222549169286373,23.26348181400681
1607,A,288752042952542.0,12.043433,11.597513,7.365749143946341,36,1970-01-04 08:12:32.042952542,-3.371562,-1.8208033,1.2897689,17.656075330127432,4.043050678948027,97.91089630126953,-14.581147193908691,5.289947032928467,23304010.0,40529.0,0.41712748741050004,0.05266820555099997,0.2041724303628013,0.012700529692417018,0.004786278491146567,0.00197148701556454,23.30401066801278
1607,A,288752084854885.0,0.19991584,9.298481,-6.309931156053658,36,1970-01-04 08:12:32.084854885,1.2293152,-2.2985744,1.2029499,12.26923205970467,2.870844578725294,98.8046646118164,-14.341968536376953,4.964035511016846,23345913.0,41903.0,0.25651652322126,0.02715301829099997,0.022120970573333558,0.014113852488751322,0.0016723743713256618,0.00474118618971343,23.34591301099863
1607,A,288752124674729.0,-0.7422025,2.1745336,6.446375843946341,36,1970-01-04 08:12:32.124674729,-1.3182647,1.0982877,0.21172132,5.280406830759464,1.728838803526784,97.318603515625,-14.06525707244873,5.363369464874268,23385732.0,39819.0,-0.01079665625727,-0.1618042158213,0.0027165455135993778,0.004892159691319559,-0.0026808380172295082,0.0004945025265327913,23.385732855007518
1607,A,288752164606292.0,-0.25318682,6.985682,10.13165084394634,36,1970-01-04 08:12:32.164606292,-1.0681939,-0.3669836,-0.2828277,10.958560418397422,1.1643481775454712,96.02274322509766,-13.827729225158691,5.646815299987793,23425664.0,39932.0,-0.019873943163119998,-0.20844073533040003,0.3309968808504653,-0.0006123691880275067,-0.007392310694694843,0.006662922270784916,23.425664418027736
1607,A,288752204948271.0,3.1914709,12.947843,-7.095229156053659,36,1970-01-04 08:12:32.204948271,-3.4453316,-2.026932,-0.582167,15.970256731372755,4.039515018225772,96.55603790283203,-13.769122123718262,5.383550643920898,23466006.0,40342.0,0.05926812817768001,0.006727532774999961,0.0612476618664833,0.0007946201059286902,-0.004068757008744975,0.00791196467114357,23.466006397036836
1607,A,288752244396968.0,1.2294226,9.097966,0.6260715439463413,36,1970-01-04 08:12:32.244396968,-0.7795073,-1.4546186,-0.2724414,9.24234062791897,1.672653944679894,96.53752136230469,-13.594464302062988,5.3099846839904785,23505455.0,39449.0,0.08719991384075,0.048242359620499976,-0.12760089932001076,0.0028890088947925224,0.0010842536425550386,-0.0013087844321521024,23.50545509404037
1607,A,288752284357333.0,-0.57879823,8.705916,2.7227936439463414,36,1970-01-04 08:12:32.284357333,-0.42290998,0.076965354,-0.08442221,8.785802815533797,0.43806806142565313,96.17794799804688,-13.171785354614258,5.392426490783691,23545415.0,39960.0,0.0129994749126,-0.03588643764000003,0.06691032645409581,0.002001983787291933,0.0002468713211703889,-0.0012125976458609807,23.545415459026117
1607,A,288752324159261.0,-0.49799395,7.645883,2.108680943946341,36,1970-01-04 08:12:32.324159261,-0.9715212,-0.25300032,-0.13022858,7.673400352420354,1.0123349677939406,95.89539337158203,-12.751901626586914,5.433170795440674,23585217.0,39802.0,-0.02142924117418,-0.064642448101,0.09615117577365226,-0.00016776077837170355,-0.0020006253551316418,0.003245086955834414,23.585217387008015
1607,A,288752361815980.0,2.5558102,8.152855,1.2419799139463414,36,1970-01-04 08:12:32.361815980,-1.1922972,-0.79069257,0.2615224,8.555922473850126,1.4543594188104965,95.77809143066406,-12.876811981201172,5.406363010406494,23622874.0,37657.0,0.038745593263124996,-0.07157206156700001,0.06308791796283238,0.0003260409353067009,-0.0025647148952839386,0.0029982332764174014,23.622874105989467
1607,A,288752401823063.0,1.1133038,11.337144,0.7008903439463414,36,1970-01-04 08:12:32.401823063,-0.47697216,-0.08016115,1.0506171,11.434717131465504,1.1566004246051433,95.73641967773438,-12.746956825256348,5.4012451171875,23662881.0,40007.0,0.073395121899,-0.002200405003500009,0.03886420520375628,0.0022432067957455673,-0.001475707535042997,0.0020393992957628564,23.66288118902594
1607,A,288752441810719.0,-1.7495629,12.855666,2.0937171739463416,36,1970-01-04 08:12:32.441810719,-0.53076804,-0.7105314,0.10173275,12.980386094289157,0.8927032738228107,95.52764129638672,-12.249685287475586,5.4056010246276855,23702868.0,39987.0,-0.01272104631585,0.09182634673499997,0.05587398540898736,0.0012130871301717094,0.0017919362660087446,0.00189414801401589,23.70286884502275
1607,A,288752481740719.0,-1.4263457,12.154165,1.7274043179463414,36,1970-01-04 08:12:32.481740719,-0.09667275,-0.25086978,-0.304133,12.237623789576446,0.405928748426138,95.3809585571289,-11.769813537597656,5.424323558807373,23742798.0,39930.0,-0.063407015199,0.10800727591499998,0.0762886905856374,-0.00151989674814398,0.003989678276207249,0.0026386278262326836,23.74279884499265
1607,A,288752521381969.0,0.6667852,12.157158,3.2740586439463417,36,1970-01-04 08:12:32.521381969,1.2178636,-0.4543353,-0.6178534,12.277773349597087,1.439220322578378,95.12263488769531,-11.528481483459473,5.469604969024658,23782440.0,39642.0,-0.015055248670499998,0.093383133183,0.09913399736767486,-0.0015552005321573593,0.003991759298731457,0.0034770530979226027,23.782440095033962
1607,A,288752562036083.0,4.034828,9.643845,3.1322022439463417,36,1970-01-04 08:12:32.562036083,2.9944584,0.027164243,-1.0543455,10.552606649460728,3.1747698245382407,94.95291900634766,-11.75554370880127,5.53971529006958,23823094.0,40654.0,0.0955696915164,0.04473978798100001,0.13022006506819458,0.0016366170797286095,0.0028076246185006278,0.004662080027133918,23.823094209015835
1607,A,288752601431135.0,6.531981,12.127829,-0.0030049560536584696,36,1970-01-04 08:12:32.601431135,2.7598338,1.0274476,-1.1456919,13.878917768276786,3.1598957425987666,95.14686584472656,-12.105844497680664,5.582682132720947,23862489.0,39395.0,0.2081397202775,0.042776548614999986,0.06163736357826613,0.005982316138810345,0.00172385304009971,0.0037791117007636597,23.862489261024166
1607,A,288752641367437.0,12.913726,12.093113,3.5116831439463416,36,1970-01-04 08:12:32.641367437,2.3289344,0.019973708,-0.43649212,17.78534849282549,2.3695695303866318,95.02346801757812,-12.90036678314209,5.636702537536621,23902425.0,39936.0,0.38829187737599996,0.09227096985599999,0.0700612860558411,0.011909546141945088,0.0026966288488289272,0.0026297586358938526,23.902425563021097
1607,A,288752680755875.0,0.41240123,10.039486,-0.40223815605365854,36,1970-01-04 08:12:32.680755875,2.1816616,-0.40719733,0.15579493,10.263896126241999,2.224798656662529,95.30992126464844,-12.644991874694824,5.577296257019043,23941814.0,39389.0,0.262451412731235,0.04987827100549999,0.06123896431405245,0.012816063727016939,0.0027995582241468115,0.0025858927809098682,23.941814001009334
1607,A,288752721163115.0,-1.6962919,11.670536,-1.6921142560536584,36,1970-01-04 08:12:32.721163115,2.2658174,0.6247776,-1.5962988,12.269134204488857,2.8412049201854415,95.6880111694336,-12.07012939453125,5.558735370635986,23982221.0,40407.0,-0.025939085151345003,0.042629829476999975,-0.042313248958010176,0.004778376810260308,0.001868987408098188,0.0003823656901958001,23.982221240992658
1607,A,288752760662803.0,1.4383167,1.697489,1.7699013979463414,36,1970-01-04 08:12:32.760662803,1.6516925,2.1867216,-1.4098775,2.226270080775418,3.0818166777842353,95.58322143554688,-12.68941593170166,5.7116923332214355,24021720.0,39499.0,-0.005094881212400004,-0.12307839026250002,0.0015362571588095426,-0.000612905318700782,-0.001588818851233233,-0.0008053251995383129,24.0217209290131
1607,A,288752801000563.0,2.4139538,1.5987282,-0.9876202560536584,36,1970-01-04 08:12:32.801000563,1.0013486,2.2024343,-0.77418095,3.945117365307614,2.5402306997360204,96.54429626464844,-13.368175506591797,5.616613864898682,24062058.0,40338.0,0.07769644371449999,-0.3288309952932,0.015777828350833523,0.0014643009141048545,-0.009114560397272913,0.00034920779064399096,24.06205868901452
1607,A,288752840433896.0,1.2599486,1.2282255,-0.09398465605365858,36,1970-01-04 08:12:32.840433896,-1.3259879,1.7049558,-0.14274544,2.507203715903927,2.16460029833243,97.41902923583984,-13.882022857666016,5.47841215133667,24101492.0,39434.0,0.07243833362079999,-0.33071415389709996,-0.021326004052019967,0.0029602074047201093,-0.013004251706585142,-0.00010939338030029312,24.101492021989543
1607,A,288752880858791.0,-0.055066638,4.540005,-3.5733581560536587,36,1970-01-04 08:12:32.880858791,-3.3566482,1.2058793,0.2695119,6.95267001772338,3.576851784596804,98.21968841552734,-13.634836196899414,5.304073810577393,24141916.0,40424.0,0.024353074215944,-0.279567725134,-0.0741243329183131,0.0019563479351962696,-0.012335017338976594,-0.001929242210844372,24.141916916996706
1607,A,288752921044781.0,4.0396166,19.612701,-5.400732756053658,36,1970-01-04 08:12:32.921044781,-2.249306,-0.32490566,1.397627,21.243461940688185,2.6680146927378483,98.40606689453125,-13.641573905944824,5.208280563354492,24182102.0,40186.0,0.08006156238646599,0.09147752165800001,-0.18031640869697235,0.002098003293252224,-0.0037792964584432687,-0.005112477821275931,24.182102906983346
1607,A,288752960570458.0,0.96426475,8.721478,-3.8205596560536588,36,1970-01-04 08:12:32.960570458,1.4013554,1.7350495,-0.5656554,10.36259086919998,2.3009041171045284,99.04830169677734,-13.448009490966797,5.16180944442749,24221628.0,39526.0,0.09889170712004998,0.17261357957700002,-0.18224040194047691,0.003536653465257275,0.005219232433707305,-0.00716521024862791,24.221628584025893
1607,A,288753000511343.0,4.4915223,7.2209125,3.5523845439463413,36,1970-01-04 08:12:33.000511343,-0.04234426,-2.1427794,-0.2412824,8.704943783557802,2.15673683836695,98.5676040649414,-13.876311302185059,5.1737961769104,24261569.0,39941.0,0.10895479528202498,-0.07304429051975003,-0.005355591076339183,0.004150798576220638,0.001988448487117811,-0.0037463857785423257,24.261569469003007
1607,A,288753039899260.0,12.822147,12.568362,5.163083843946342,36,1970-01-04 08:12:33.039899260,-3.9500005,-1.7398431,1.1377025,18.28712597432109,4.463622401270532,97.96436309814453,-14.67081356048584,5.183428764343262,24300957.0,39388.0,0.3409754031942,0.003727572002999996,0.17164243443115848,0.008860925328790775,-0.001365123454468875,0.003274853093029811,24.300957386032678
1607,A,288753080308687.0,-4.1820717,17.00362,-9.792895156053659,36,1970-01-04 08:12:33.080308687,1.2905679,-3.1065774,0.050333746,20.94081414985019,3.3643605830361825,98.7041015625,-14.053776741027832,4.867119789123535,24341366.0,40409.0,0.17456840139885,0.201478910319,-0.09354302265547229,0.01041630479990028,0.00414609437207485,0.0015779595652218516,24.341366812994238
1607,A,288753121708321.0,3.675698,2.4372973,7.8368084439463415,36,1970-01-04 08:12:33.121708321,-1.6631441,-0.4822985,0.7587346,7.563645985169933,1.8905920590397656,97.36713409423828,-14.69166088104248,5.150125026702881,24382766.0,41400.0,-0.010481935589999995,-0.0032930118899999797,-0.040490994940621465,0.003396589842243195,0.004102448097480301,-0.0027745041642391406,24.382766447030008
1607,A,288753161118845.0,1.0570401,7.267599,7.337018843946342,36,1970-01-04 08:12:33.161118845,0.27004454,0.59228706,0.78323567,9.26285876027752,1.0184233548910808,96.33060455322266,-14.635590553283691,5.4395012855529785,24422176.0,39410.0,0.09325860426050002,-0.19498301840850005,0.29900026670792534,0.001631114256152203,-0.003907029177031943,0.005093925200174723,24.422176970983855
1607,A,288753201390146.0,0.3465607,10.693104,-1.1432434560536584,36,1970-01-04 08:12:33.201390146,-1.7752632,-1.7025589,-0.09534117,11.068048264969274,2.461575953721603,96.48249053955078,-14.306924819946289,5.297762870788574,24462448.0,40272.0,0.028262905708800003,-0.03300888439200005,0.12471786121060709,0.0024469571247418254,-0.004590844954790871,0.00853198822376757,24.462448272039182
1607,A,288753240009209.0,2.5115175,9.293094,1.3628871039463415,36,1970-01-04 08:12:33.240009209,-2.9808762,-0.057790596,-1.2650015,9.632117663819612,3.238702127043289,96.22156524658203,-14.26489543914795,5.3294525146484375,24501067.0,38619.0,0.0551880610029,0.007457290280999971,0.004241209018983764,0.0016113964417195713,-0.0004933885064863561,0.0024901351665982847,24.501067335018888
1607,A,288753279861917.0,2.1655555,8.48984,-0.15144545605365867,36,1970-01-04 08:12:33.279861917,-0.98590225,-1.6000272,0.0958738,8.953526470141602,1.8818294483882811,96.34326171875,-14.256061553955078,5.2097487449646,24540920.0,39853.0,0.0931976951345,-0.036207765649000044,0.024139791996733544,0.0029568087696719013,-0.0005728963474204534,0.0005655340167396909,24.54092004301492
1607,A,288753319741864.0,-0.9103952,8.380304,3.1693122439463415,36,1970-01-04 08:12:33.319741864,-0.4511395,-1.408546,0.5028048,8.558066403788931,1.5621591946659246,95.9262924194336,-13.788928985595703,5.23469352722168,24580799.0,39879.0,0.025027268801849998,-0.05443196371200003,0.06017475481718614,0.0023573466684088506,-0.0018073108835936606,0.0016811899061961516,24.58079998998437
1607,A,288753359169468.0,0.49679685,9.184157,1.6609652219463413,36,1970-01-04 08:12:33.359169468,-0.3518036,-0.8050736,0.5888249,9.197636416651486,1.0576502433460364,95.77224731445312,-13.550007820129395,5.225070953369141,24620227.0,39428.0,-0.008153677871899998,-0.040128615846,0.09522408996260835,0.0003326459715930343,-0.0018641672654064125,0.0030635328259888683,24.620227593986783
1607,A,288753399571656.0,0.49799395,12.155362,0.6075164439463414,36,1970-01-04 08:12:33.399571656,-1.4367754,0.33182988,0.46978164,12.213808692838944,1.5476205635061406,95.6797866821289,-13.296510696411133,5.24345588684082,24660629.0,40402.0,0.0200957689508,0.03514002331899999,0.045825598132698084,0.00024124218188485897,-0.00010077455763792712,0.0028493447492132853,24.6606297820108
1607,A,288753439311447.0,-1.3311762,11.971607,0.18853124394634135,36,1970-01-04 08:12:33.439311447,0.3616573,-1.1819109,0.013315806,12.13886702709645,1.236077137104125,95.7491683959961,-12.811075210571289,5.174649715423584,24700369.0,39740.0,-0.0165553313075,0.08995087402999997,0.015817467558427604,7.0348495972371e-05,0.0024855561303246294,0.0012248477152826673,24.700369573023636
1607,A,288753479307020.0,-1.4407109,12.477382,3.232758643946341,36,1970-01-04 08:12:33.479307020,0.58962387,-0.3089267,-0.8567389,12.65442095959338,1.0849394254150215,95.45868682861328,-12.300021171569824,5.233529090881348,24740365.0,39996.0,-0.05543219822579999,0.09697008202199998,0.06841895517807786,-0.0014396066156069332,0.003738045279127895,0.0016845599818846363,24.74036514601903
1607,A,288753519814105.0,1.6400281,10.596737,3.4296817439463414,36,1970-01-04 08:12:33.519814105,3.0858047,0.40400153,-1.257811,10.862769114130346,3.35670916144152,95.23798370361328,-12.158756256103516,5.338640213012695,24780872.0,40507.0,0.004036870910200002,0.07036306916649997,0.13493773639618445,-0.0010409352617865044,0.003389081977596284,0.004118684752799322,24.780872231000103
1607,A,288753558921707.0,7.133524,14.364013,0.1657863439463414,36,1970-01-04 08:12:33.558921707,3.3284187,0.77897465,-1.3923006,16.110295977940854,3.6910260780185054,95.41364288330078,-12.442601203918457,5.380400657653809,24819979.0,39107.0,0.17155365098735,0.10482142512499996,0.07030398525660958,0.0034334092699237445,0.0034254700091288443,0.004013194004337908,24.81997983303154
1607,A,288753600667281.0,13.168708,13.565547,0.7541613439463414,36,1970-01-04 08:12:33.600667281,2.4383903,-0.42104578,-0.97445065,18.929306529019634,2.659432434425684,95.51256561279297,-13.14354133605957,5.3687872886657715,24861725.0,41746.0,0.42376848853599997,0.17386290587999995,0.019202068089383968,0.012426159018270884,0.005816978041067363,0.001868259851490923,24.861725407012273
1607,A,288753640835614.0,0.24361002,10.699089,0.3315847439463415,36,1970-01-04 08:12:33.640835614,1.4892397,-0.7821704,-0.7755125,10.78799450309887,1.8523080349522052,95.63951873779297,-12.80715274810791,5.322929859161377,24901893.0,40168.0,0.26937299511368,0.09368454942400001,0.021806124429236642,0.013921053557620173,0.005373423092325535,0.0008236085385439764,24.901893739996012
1607,A,288753678722907.0,-2.15538,9.801862,0.8295786839463414,36,1970-01-04 08:12:33.678722907,2.4735441,0.7203851,-1.4663365,10.0730376308524,2.9643747803169336,95.73828125,-12.128761291503906,5.371004581451416,24939781.0,37888.0,-0.03621657050112,0.017067615743999984,0.021997079977998983,0.004416915307860337,0.002098089016942592,0.0008298079042906716,24.93978103302652
1607,A,288753720284989.0,1.8171991,1.5885528,1.2066654439463416,36,1970-01-04 08:12:33.720284989,2.2487733,2.6549053,-0.71985245,2.4619807910591036,3.5529834022314235,96.01419067382812,-12.94094181060791,5.467395782470703,24981343.0,41562.0,-0.0070277372829,-0.17060339004120004,0.042315189221737846,-0.0008986599600597198,-0.0031906269256701146,0.0013364732662397311,24.981343115039635
1607,A,288753760736967.0,1.9045875,-0.049081136,-2.3319646560536587,36,1970-01-04 08:12:33.760736967,0.7869641,1.6104136,-0.47963533,4.45228897557622,1.855476894908147,97.35982513427734,-13.493352890014648,5.249014377593994,25021795.0,40452.0,0.07527685577160001,-0.365292246123936,-0.022760301864082597,0.0013804066705524465,-0.010839025137076042,0.00039551715169593507,25.021795093023684
1607,A,288753799789366.0,2.391209,0.46627077,0.11251524394634149,36,1970-01-04 08:12:33.799789366,-1.3520869,1.1211908,-0.16591494,2.9035056103962593,1.7642946359583631,98.04583740234375,-14.562117576599121,5.122042655944824,25060847.0,39052.0,0.08387972245900001,-0.3745635552065161,-0.04333696922080748,0.0031076913465306966,-0.01444642437677841,-0.0012906153152035637,25.060847492015455
1607,A,288753840566864.0,0.061650693,3.517681,-2.1081067560536586,36,1970-01-04 08:12:33.840566864,-2.6474485,1.546764,0.51052797,5.178742571740744,3.108392066648056,98.82836151123047,-14.334465980529785,4.96417236328125,25101624.0,40777.0,0.05001012985073049,-0.31838779933735506,-0.040687117544600034,0.0027298132538169403,-0.014128238692117717,-0.0017131250930165112,25.101624989998527
1607,A,288753880450456.0,1.9201498,19.612701,-4.258099756053658,36,1970-01-04 08:12:33.880450456,-1.9489013,1.1531488,1.4460965,20.585183313388036,2.686850111077166,98.92525482177734,-14.194601058959961,4.960620403289795,25141508.0,39884.0,0.039521065431406,0.070402877844,-0.12695489026444412,0.001785431096316366,-0.004945315304420487,-0.0033431169197279584,25.14150858198991
1607,A,288753918197386.0,4.255095,10.714052,-8.004427156053659,36,1970-01-04 08:12:33.918197386,1.3235911,2.2793996,-0.021571605,15.063837016146252,2.635909951159494,99.7397232055664,-14.32108211517334,4.885567665100098,25179255.0,37747.0,0.11654848273280001,0.20245137274549999,-0.23143680167565747,0.0029455786172771425,0.005149714698500928,-0.006764105597831508,25.179255512019154
1607,A,288753958046395.0,6.8773446,11.070788,2.2517344839463416,36,1970-01-04 08:12:33.958046395,-0.75820196,-1.5414376,-0.03222425,13.045053384757532,1.7181206270601792,99.44615173339844,-14.744384765625,4.876523971557617,25219104.0,39849.0,0.2218082928102,0.04353184457999999,-0.11461952514540225,0.006741589574306504,0.004901092613601925,-0.006894999283746204,25.21910452103475
1607,A,288753998660874.0,11.035474,11.580753,5.895709343946342,36,1970-01-04 08:12:33.998660874,-2.7925909,-2.221609,0.6066681,16.53982900009747,3.619690134141515,98.7939224243164,-15.443580627441406,4.900049209594727,25259719.0,40615.0,0.3637645637195,0.061969168857499965,0.16545421553493067,0.011891520783976883,0.0021424618303820305,0.0010323254750853484,25.259719000023324
1607,A,288754038922749.0,-1.1025299,9.181165,-0.8834726560536588,36,1970-01-04 08:12:34.038922749,0.5134575,-1.0916297,0.112918034,9.599108559081165,1.2116288576254548,99.01068878173828,-14.905871391296387,4.797318935394287,25299980.0,40261.0,0.19995513120504999,0.023389990298999963,0.10089883064562365,0.011347959318678652,0.0017183225533999218,0.005361819996137648,25.29998087498825
1607,A,288754078885719.0,1.0869676,3.007716,5.627559043946341,36,1970-01-04 08:12:34.078885719,-1.6764599,-0.36085832,0.6846987,5.071072068532885,1.8464963669617447,97.65835571289062,-15.059016227722168,5.102981090545654,25339943.0,39963.0,-0.00031095809745000056,-0.14808527429850002,0.09479396215967764,0.0039891900449495095,-0.0024915988172360105,0.003910235539439128,25.339943844999652
1607,A,288754118318896.0,-0.5069722,7.3029137,6.719314843946341,36,1970-01-04 08:12:34.118318896,-0.57817227,-0.33289513,0.35633096,8.88045947695532,0.7563557988335855,96.64131927490234,-14.718232154846191,5.338578224182129,25379377.0,39434.0,0.011435769301799998,-0.18315851420510001,0.24344331244758,0.00021934790251616887,-0.006531133777925482,0.006669024343431298,25.37937702203635
1607,A,288754158663531.0,3.6828809,11.28926,-3.505123156053658,36,1970-01-04 08:12:34.158663531,-1.9060245,-1.0743192,0.3422162,12.962331041851764,2.2145435343725643,97.00135040283203,-14.790420532226562,5.169151782989502,25419721.0,40344.0,0.0640644302964,-0.02032987212360003,0.0648366747281712,0.0015229900262948902,-0.004104767729022537,0.006218623901309253,25.41972165700281
1607,A,288754197346760.0,0.46806642,10.086173,4.356836343946341,36,1970-01-04 08:12:34.197346760,-2.218946,-0.28229508,-0.35073832,10.442741300478666,2.264161927121077,96.34468841552734,-14.493494987487793,5.295340061187744,25458404.0,38683.0,0.08028554758978002,0.034339537369499996,0.01647341062362633,0.002791945097285551,0.00027096794035357425,0.001572659015831792,25.45840488601243
1607,A,288754237447542.0,1.127669,8.506598,1.8309535439463414,36,1970-01-04 08:12:34.237447542,-0.7139935,-0.7568704,-0.19680761,8.582140177970917,1.0589488919642545,96.1326904296875,-14.309228897094727,5.303772449493408,25498505.0,40101.0,0.03199529303871,-0.020195445064500012,0.12406828114719222,0.002251286995021539,0.00028359612276140217,0.002817931190850797,25.49850566801615
1607,A,288754277514521.0,-0.2753332,7.796119,3.1567427439463414,36,1970-01-04 08:12:34.277514521,-0.55074173,-0.8330368,0.070041135,7.937284671136701,1.00108567261235,95.69004821777344,-13.92112922668457,5.364418029785156,25538572.0,40067.0,0.0170752692493,-0.06605611898050003,0.09992101358349806,0.0009830551095968483,-0.0017279207082955082,0.004487289535987283,25.53857264702674
1607,A,288754318350301.0,1.5047557,8.501212,1.8393332539463414,36,1970-01-04 08:12:34.318350301,-1.1014835,-1.2290488,0.29987195,8.634614977369571,1.677423631629915,95.48143005371094,-13.835254669189453,5.340411186218262,25579408.0,40836.0,0.025102348605,-0.06743389564200002,0.10200987972497279,0.0008611826013490975,-0.0027255991185622056,0.0041230249795723576,25.57940842700191
1607,A,288754359042489.0,0.9451111,13.5930805,0.6051222439463415,36,1970-01-04 08:12:34.359042489,-1.6122777,1.1464908,0.5965481,13.66918326141958,2.066337380975222,95.3642807006836,-13.624858856201172,5.40158224105835,25620100.0,40692.0,0.0498449899128,0.05074887520499997,0.049734891560124526,0.0015248785494831588,-0.000339473425811203,0.00308739911656659,25.62010061502224
1607,A,288754397157751.0,-2.2212207,12.898163,1.8465158539463413,36,1970-01-04 08:12:34.397157751,-0.23116238,-1.1081413,0.13156016,13.088937220616577,1.139614523596545,95.21321105957031,-13.059348106384277,5.379510402679443,25658215.0,38115.0,-0.024319458702,0.13132987300124999,0.04672209305058981,0.0004864528110498211,0.0034699657439406085,0.0018382289842186887,25.658215877017938
1607,A,288754436635614.0,-1.4053963,12.942456,4.589672343946342,36,1970-01-04 08:12:34.436635614,0.49721217,0.105993815,-0.659665,13.337102024663976,0.8328340429157319,94.78924560546875,-12.573164939880371,5.487236022949219,25697693.0,39478.0,-0.071585792963,0.12318357844099997,0.12704391883820368,-0.0018930737626154349,0.005023841018018572,0.0034299673086728944,25.697693740017712
1607,A,288754477010041.0,0.712275,13.785813,4.155723343946342,36,1970-01-04 08:12:34.477010041,2.6690202,0.8833706,-1.5933694,14.022320270515726,3.2315380996993923,94.53451538085938,-12.267280578613281,5.6205291748046875,25738068.0,40375.0,-0.013992386243750002,0.1439019304375,0.17654767544933356,-0.0017276094927362656,0.005391788710484719,0.006128755309679658,25.738068167003803
1607,A,288754516574677.0,6.5565214,13.627796,-0.7009148560536587,36,1970-01-04 08:12:34.516574677,3.1902008,1.4032196,-1.1576761,15.3111484931894,3.672413422077641,94.80306243896484,-12.540811538696289,5.669547080993652,25777632.0,39564.0,0.14379133038480002,0.15456881323799992,0.06834302150749307,0.002567682712998252,0.00590434825138874,0.004844427767199945,25.777632803015877
1607,A,288754558258114.0,19.529503,8.623316,3.5463990439463418,36,1970-01-04 08:12:34.558258114,1.9752666,-0.2282329,-0.44208476,21.428988050583946,2.0369603169286896,94.7275161743164,-13.66958999633789,5.698831558227539,25819316.0,41684.0,0.5436849205448,0.05525447630399999,0.0593055814440593,0.014328380021874722,0.004373137000634362,0.0026604521827162542,25.819316240027547
1607,A,288754598461655.0,0.9900024,7.0784574,0.5177338439463415,36,1970-01-04 08:12:34.598461655,3.2083101,-1.5084145,0.22530343,7.243188243471,3.55236958059575,95.02568054199219,-13.53036117553711,5.592693328857422,25859519.0,40203.0,0.4124728377981,-0.07836020199990003,0.08169516724597477,0.019220205179329805,-0.00046445974507613465,0.00283432654979272,25.859519781020936
1607,A,288754638477644.0,-1.2814964,10.724228,-0.4836408560536585,36,1970-01-04 08:12:34.638477644,2.9691584,0.2692456,-0.69135666,11.017490789563633,3.0604523895555498,95.33394622802734,-13.004324913024902,5.572663307189941,25899535.0,40016.0,-0.005832211952000001,-0.03596067051680004,0.0006821325017568016,0.00813606564192877,-0.002287332017314135,0.0016482050133526133,25.89953577000415
1607,A,288754678486760.0,0.6961141,3.9875429,0.0424849439463415,36,1970-01-04 08:12:34.678486760,1.871137,1.4567492,-1.2138689,4.371071898935457,2.663972524418533,95.83702087402344,-12.868786811828613,5.557248592376709,25939544.0,40009.0,-0.011710280220350002,-0.09778657903095005,-0.008825103443750823,-0.00035092878466177563,-0.0026755468535779666,-0.00016289606220911941,25.939544886001386
1607,A,288754717811291.0,1.8417397,2.220622,-1.4257591560536587,36,1970-01-04 08:12:34.717811291,0.9869675,1.4285196,-1.000017,4.24784057801621,2.0036983540267257,96.86493682861328,-13.240747451782227,5.410271644592285,25978869.0,39325.0,0.049900550342499995,-0.26331695765375,-0.027198629195560122,0.0007509161862767743,-0.007100198290062915,-0.0007083166430204515,25.978869416983798
1607,A,288754758250353.0,1.6448165,1.4879963,-1.4915997560536587,36,1970-01-04 08:12:34.758250353,-1.197091,1.1773835,-0.4135889,3.880133216351483,1.729252597672318,97.92367553710938,-13.659419059753418,5.209594249725342,26019308.0,40439.0,0.0704964230859,-0.32131579228315005,-0.05898753852335391,0.002434366604235534,-0.011820981887349152,-0.0017426412181925823,26.019308479037136
1607,A,288754796060928.0,-0.26755205,2.35769,-3.520087456053658,36,1970-01-04 08:12:34.796060928,-3.320962,1.4405038,0.30999196,5.726873356570275,3.6331714546003857,98.98497009277344,-13.43731689453125,4.988989353179932,26057119.0,37811.0,0.026037873059474997,-0.29784317765535,-0.09474845258849487,0.0018250291357763868,-0.011705509906172312,-0.0029064557799650566,26.057119054021314
1607,A,288754836193843.0,1.9488802,18.347366,-1.6544055560536584,36,1970-01-04 08:12:34.836193843,-2.5110946,0.15526229,1.4652712,18.751613387496267,2.911481093600754,98.8948974609375,-13.32473373413086,4.976991176605225,26097251.0,40132.0,0.0337375306579,0.02217405369599999,-0.10383137678094541,0.0011994532509928468,-0.005531576641368318,-0.003984702856127189,26.09725196904037
1607,A,288754877974883.0,2.321777,13.020866,-7.601603156053658,36,1970-01-04 08:12:34.877974883,1.6868463,2.0804615,-0.5025385,16.164972298334877,2.7251266827045293,99.6065673828125,-13.223881721496582,4.936802387237549,26139033.0,41782.0,0.08921829956520001,0.245850134712,-0.19336727800463396,0.0025686702491907825,0.005599293320031528,-0.006208777097125539,26.139033009007107
1607,A,288754915484469.0,6.67683,8.161235,2.0188983839463415,36,1970-01-04 08:12:34.915484469,0.3422162,-1.8221349,-0.2727077,10.549531714533206,1.8739415708553295,99.40929412841797,-13.829574584960938,4.901628017425537,26176542.0,37509.0,0.1687643749815,0.029671513204499962,-0.10470083664848667,0.004838336069786085,0.005167270745849999,-0.005590118456261952,26.176542595028877
1607,A,288754955871396.0,11.423335,10.780492,6.773782843946341,36,1970-01-04 08:12:34.955871396,-3.921771,-1.6450347,1.0839065,16.50863998125036,4.388767508240479,98.6281509399414,-14.628276824951172,4.9593682289123535,26216929.0,40387.0,0.3655056819275,-0.013292835825500024,0.17755500837545088,0.010788782394191891,0.0003307428216528352,0.0014711807167684518,26.216929521993734
1607,A,288754995832854.0,-1.0905589,13.415909,5.005066443946341,36,1970-01-04 08:12:34.995832854,1.0492855,-2.508964,0.31664985,13.861881075914544,2.7379129900914077,98.14938354492188,-14.18285846710205,4.969420909881592,26256890.0,39961.0,0.20645403286605002,0.09183839018049998,0.23534729819673977,0.011428041081432527,0.0015693794487900768,0.008249994536465655,26.256890980002936
1607,A,288755036548531.0,1.9806033,3.6577415,5.1421344439463414,36,1970-01-04 08:12:35.036548531,-1.7957696,0.24527714,0.7163904,5.404134533371861,1.948888025747734,96.98072052001953,-14.522928237915039,5.243989944458008,26297606.0,40716.0,0.018119523895200003,-0.05143142312100005,0.20657671567571925,0.004571868468545528,0.0008226050353972997,0.008996689074415521,26.297606657026336
1607,A,288755077568895.0,1.1234791,6.827066,8.312057843946342,36,1970-01-04 08:12:35.077568895,-0.13209279,-0.24980451,0.08548747,9.575751238285005,0.2952268719363552,95.834228515625,-14.461681365966797,5.5167460441589355,26338627.0,41021.0,0.0636662820652,-0.18695715577125002,0.2759522109208229,0.0016774677731507843,-0.0048894689473694955,0.009896909548958378,26.33862702100305
1607,A,288755115396760.0,3.1130607,9.753379,-3.025086156053659,36,1970-01-04 08:12:35.115396760,-2.847452,-1.3073457,-0.38136467,11.272590574242528,3.1563546510391856,96.19390869140625,-14.495417594909668,5.330167770385742,26376454.0,37827.0,0.0801277955073,-0.05711035349250001,0.09999513901895825,0.002719649286167479,-0.004616170836459936,0.00711048020308605,26.376454885990825
1607,A,288755155190613.0,0.56323594,9.672575,2.876621143946341,36,1970-01-04 08:12:35.155190613,-1.9816582,-0.3965447,-0.58429754,9.761099131522657,2.103715887655788,95.7629165649414,-14.19550609588623,5.396124839782715,26416248.0,39794.0,0.07314727424608002,-0.003462993262000012,-0.0029540083458993,0.0030497140628830024,-0.001205227880374287,0.001930827377001854,26.416248738998547
1607,A,288755195025300.0,0.34117374,8.814254,2.773670443946341,36,1970-01-04 08:12:35.195025300,-0.86659265,-1.0977551,0.16325177,8.886916770831037,1.4080838828060513,95.40782928466797,-13.909016609191895,5.417977809906006,26456083.0,39835.0,0.0180135798014,-0.022171583392500027,0.11253968270185251,0.0018156963104906834,-0.0005105766805160045,0.002182672668984698,26.456083426019177
1607,A,288755235837957.0,-1.3724761,7.867945,3.0669601439463414,36,1970-01-04 08:12:35.235837957,-0.7600662,-0.6628608,0.3930826,8.104228372270756,1.0824042678139438,94.99496459960938,-13.362519264221191,5.472350597381592,26496896.0,40813.0,-0.021045271609340006,-0.059542106106500035,0.11918682809183204,-6.186621887872774e-05,-0.001667490404761345,0.004728727042511325,26.496896083001047
1607,A,288755277049155.0,1.5592239,9.065046,1.3838363739463415,36,1970-01-04 08:12:35.277049155,-0.95208013,-0.721184,0.49987534,9.203328656209896,1.2947734517424014,94.87928009033203,-13.294610977172852,5.450952529907227,26538107.0,41211.0,0.0038480317929,-0.05495505394950002,0.09171088764943768,-0.0003543577250376545,-0.002359271231533909,0.004345652881706732,26.538107281026896
1607,A,288755316918789.0,0.9187749,13.236344,-1.2216536560536584,36,1970-01-04 08:12:35.316918789,-0.88843054,0.24101609,1.026915,13.584360529189377,1.379112757271348,95.0255126953125,-13.11523723602295,5.414768695831299,26577976.0,39869.0,0.0493976670786,0.053850858955000004,0.003233031389831692,0.0010614263841539167,-2.2011575117860507e-05,0.0018926595540883153,26.577976914995816
1607,A,288755356827228.0,-2.4558525,12.153566,2.7724733439463414,36,1970-01-04 08:12:35.356827228,-0.0039947415,-0.6013418,-0.03195793,12.44618843362033,0.6022036430284832,94.7796859741211,-12.522004127502441,5.440225124359131,26617885.0,39909.0,-0.03067161496920001,0.11553475909499998,0.030945831462054544,0.00037366900681702213,0.003380005315378725,0.0006820221187779638,26.617885354033206
1607,A,288755394948739.0,0.53570265,11.77229,2.0254824439463412,36,1970-01-04 08:12:35.394948739,0.6740461,-0.40559945,-0.7688546,11.789187410464377,1.0999938430312566,94.65385437011719,-12.237218856811523,5.457911014556885,26656006.0,38121.0,-0.036599016215925005,0.08245297828799997,0.09145143629512849,-0.0012822118657040754,0.003773745268388671,0.0023329531220857872,26.656006865028758
1607,A,288755434921185.0,0.6452374,11.173739,3.9366538439463414,36,1970-01-04 08:12:35.434921185,3.037069,0.7603325,-1.1313108,11.415202236166285,3.328927416978912,94.39328002929688,-11.97140121459961,5.5862555503845215,26695979.0,39973.0,0.023602858309324997,0.06687540860849996,0.11916223691796711,-0.00025974771000026106,0.0029845518047068955,0.004209430179673536,26.695979311014526
1607,A,288755474337958.0,6.4739213,13.152547,1.5951246739463414,36,1970-01-04 08:12:35.474337958,3.02109,0.41518682,-1.5403724,14.659827824022894,3.416447279599595,94.44762420654297,-12.249088287353516,5.632203102111816,26735396.0,39417.0,0.14030793923895,0.09314800763099997,0.10902305691988794,0.0032304359534801774,0.0031538214989561843,0.004497189863603366,26.735396084026434
1607,A,288755514535093.0,17.518972,13.521255,1.7591274939463415,36,1970-01-04 08:12:35.514535093,2.3347933,0.86606,-0.6982809,22.130142583325725,2.5862938527224046,94.48008728027344,-13.140707969665527,5.694674015045166,26775593.0,40197.0,0.48222116599005,0.14217280949699992,0.06741543719639108,0.012511901221445054,0.004729595443047106,0.0035461490739960334,26.775593219033908
1607,A,288755553839259.0,0.3549404,8.629301,-0.5865916560536584,36,1970-01-04 08:12:35.553839259,2.3579628,-1.5145397,-0.3206446,8.93214463690526,2.8207502598722014,94.8778305053711,-12.853649139404297,5.559724807739258,26814897.0,39304.0,0.35125812648480004,0.05012352651199997,0.02304267428626701,0.016379535055715752,0.003779007595248866,0.0017776828068571968,26.814897385018412
1607,A,288755593738998.0,-0.9780314,10.254366,0.6978976039463415,36,1970-01-04 08:12:35.593738998,2.534264,0.2213087,-0.99282646,10.348767351304124,2.7307830272776745,95.01780700683594,-12.355960845947266,5.572225570678711,26854797.0,39900.0,-0.012430665450000001,-0.014290843350000046,0.002220553660459028,0.00675960784764426,0.0007148620290818985,0.0005040013975371844,26.854797123989556
1607,A,288755634173634.0,0.961272,3.5152867,1.7291999719463413,36,1970-01-04 08:12:35.634173634,2.0463731,3.1342742,-1.1126688,3.644538599436294,3.9050415469854722,94.94622802734375,-12.388947486877441,5.766709804534912,26895231.0,40434.0,-0.0003388247897999996,-0.11787213136410005,0.049068631691822365,-0.0002581607841780366,-0.002671938859794962,0.001036913460267073,26.895231759990565
1607,A,288755675000300.0,2.5420437,-0.075417355,-0.3944571560536585,36,1970-01-04 08:12:35.675000300,1.0807108,1.8503643,-0.727043,3.289582394978713,2.262824650696587,95.91191101074219,-13.431095123291016,5.655621528625488,26936058.0,40827.0,0.07151493504195,-0.3298848271258426,0.027246772472225282,0.001452953526632264,-0.009140286672134445,0.0015578645029027866,26.93605842598481
1607,A,288755714102020.0,1.83336,0.016759412,-2.2439777560536585,36,1970-01-04 08:12:35.714102020,-1.5022892,1.4088123,-0.17630127,4.342132876739305,2.0670527508681396,97.14971160888672,-13.982956886291504,5.4138922691345215,26975160.0,39102.0,0.08554351773869999,-0.384346421443593,-0.05158404096661015,0.003070649810314488,-0.013963935140781033,-0.00047581793633371853,26.975160146015696
1607,A,288755755358686.0,-0.6536171,4.074931,-1.8363649560536586,36,1970-01-04 08:12:35.755358686,-3.37316,0.79442096,0.3291667,5.429757936024078,3.4810434877599863,97.7844467163086,-13.550353050231934,5.258345603942871,27016416.0,41256.0,0.024335736541200005,-0.319905410181264,-0.08416930946534974,0.002266589257285777,-0.01452730678275755,-0.0028003201127104692,27.016416812024545
1607,A,288755794394467.0,4.4963107,19.612701,-6.294368456053658,36,1970-01-04 08:12:35.794394467,-1.8881812,-0.016245283,1.7366474,21.648518808546104,2.565431025223627,98.05088806152344,-13.607259750366211,5.161449909210205,27055452.0,39036.0,0.07500169368480002,0.07978240137599998,-0.1586956547375106,0.0019388679631510686,-0.004686720885861143,-0.004740238371311429,27.055452593020163
1607,A,288755833694416.0,1.1480197,8.690353,-5.398338556053659,36,1970-01-04 08:12:35.833694416,1.7182716,2.2429142,-0.54807854,11.274500405415916,2.8781090121704445,98.86722564697266,-13.450305938720703,5.102342128753662,27094752.0,39300.0,0.11091109236,0.17101501109999998,-0.22976169278790878,0.0036531862457803207,0.004928169155153399,-0.0076331868788744916,27.094752542034257
1607,A,288755874546655.0,6.120178,10.227431,3.220189043946341,36,1970-01-04 08:12:35.874546655,0.017310547,-2.147307,-0.3123888,12.016322681106962,2.1699801311652323,98.51439666748047,-13.854260444641113,5.084998607635498,27135604.0,40852.0,0.1484602062202,-0.013934944016000044,-0.044490881934304075,0.005297918144799165,0.0032085174502577826,-0.00560188309127592,27.135604781040456
1607,A,288755912884468.0,12.719196,12.51928,7.405852143946341,36,1970-01-04 08:12:35.912884468,-3.5955338,-1.1723236,1.0980214,18.739194172261445,3.9380016410506182,97.75829315185547,-14.63217544555664,5.1638078689575195,27173942.0,38338.0,0.36113196020599997,0.06031930315899996,0.2036905835307148,0.009768372238223827,0.0008891417804121652,0.003051699079901597,27.17394259403227
1607,A,288755952831291.0,-2.304419,13.261483,0.1562094439463415,36,1970-01-04 08:12:35.952831291,0.7289072,-2.6724823,0.5765744,13.547553538921857,2.8294708672754503,97.80023956298828,-14.050418853759766,5.030754089355469,27213889.0,39947.0,0.20801954840950004,0.12345146978049999,0.1510408371257745,0.01136794765733169,0.0036705455333071024,0.00708522803048239,27.213889417005703
1607,A,288755992782801.0,1.5556326,2.2104468,6.650481543946341,36,1970-01-04 08:12:35.992782801,-1.5611451,0.35739622,0.8410263,5.6472751033079565,1.8089309877980388,96.3542709350586,-14.379610061645508,5.37853479385376,27253840.0,39951.0,-0.014957382733200004,-0.08246026628010003,0.1359670558286503,0.0038565132904669315,0.0008188197855222394,0.005733126165711113,27.253840927034616
1607,A,288756032593166.0,1.9476831,6.3404446,8.358145843946343,36,1970-01-04 08:12:36.032593166,-0.064182185,-0.20799288,0.1222391,9.403776357338087,0.2496453255538317,95.20138549804688,-14.458758354187012,5.6541619300842285,27293651.0,39811.0,0.06973525066635,-0.21993803123730005,0.2987542324696978,0.0010903808501433172,-0.006019389311232607,0.008653344604222768,27.293651291984133
1607,A,288756072432176.0,3.5063083,10.682928,-2.3086211560536585,36,1970-01-04 08:12:36.072432176,-3.1419976,-0.47004795,-0.4101268,11.934187741666959,3.203326081713069,95.4237289428711,-14.513802528381348,5.538452625274658,27333490.0,39839.0,0.10864078169229999,-0.05132512949430003,0.12050350702047832,0.0035531613765681282,-0.0054034265301931075,0.008351404541774562,27.33349030202953
