Subject-id_accel,Activity_accel,Timestamp_accel,accel_x,accel_y,accel_z,Segment_accel,DateTime,gyro_x,gyro_y,gyro_z,accel_magnitude,gyro_magnitude,Roll,Pitch,Yaw,Time_Difference,Difference_Microseconds,vx,vy,vz,dx,dy,dz,Time_diff
1636,A,504642887756094.0,6.271464280320796,9.936058457062781,-0.25611296208385087,184,1970-01-06 20:10:42.887756094,0.78471375,-0.5259552,0.47833252,8.037261776419488,1.0588704082821716,-96.02405548095703,28.460439682006836,112.05587768554688,15005509.0,50354.0,0.27583688465427336,-0.10342543633846077,0.04978495135522977,0.007660921840620962,-0.004961764021593114,0.0012263123666001853,15.005509486014489
1636,A,504642938110098.0,6.752360180320796,12.58803625706278,-0.20133391208385093,184,1970-01-06 20:10:42.938110098,1.2431488,0.031784058,0.15467834,5.376179458172334,1.2531378831355882,-95.97281646728516,28.266481399536133,112.04851531982422,15055863.0,50354.0,0.3279008284455734,0.07361993261753924,-0.011517139950920229,0.015200304402714842,-0.0007504131671816414,0.0009634686877263015,15.055863489978947
1636,A,504642988464102.0,5.278055980320795,12.74723095706278,0.3084011929161491,184,1970-01-06 20:10:42.988464102,0.4045105,0.19717407,0.38201904,5.8919316820365815,0.590292220356271,-95.83333587646484,28.444934844970703,112.09478759765625,15106217.0,50354.0,0.30288978767647334,0.1443968226500392,0.002695632929514771,0.01588141534210477,0.005489007847371823,-0.00022209908227792524,15.106217494001612
1636,A,504643038818106.0,5.058176880320795,11.81145525706278,1.7422390379161492,184,1970-01-06 20:10:43.038818106,0.036972046,0.014877319,0.17007446,6.935202388063167,0.17468139211245565,-95.83236694335938,28.453323364257812,112.09296417236328,15156571.0,50354.0,0.26023533473237337,0.12484484281303919,0.05162896909166478,0.014177801206887535,0.006778697411363925,0.0013677305050872376,15.156571498024277
1636,A,504643089172110.0,3.0358682803207957,7.61751625706278,3.869314337916149,184,1970-01-06 20:10:43.089172110,0.26512146,-0.37791443,-0.15538025,11.963812907068172,0.48708492795899466,-95.80848693847656,28.447513580322266,112.115234375,15206925.0,50354.0,0.20378377500947337,-0.004305984188860798,0.1412820793433298,0.011682609125970475,0.0030348068435809396,0.004856921466447859,15.206925501988735
1636,A,504643139526114.0,3.6388042803207963,5.371559257062781,4.212423337916149,184,1970-01-06 20:10:43.139526114,-0.17926025,0.011367798,0.0766449,13.753330749421428,0.19528928479934918,-95.81796264648438,28.451271057128906,112.11415100097656,15257279.0,50354.0,0.16804823105927338,-0.16644324578086078,0.20347390946442975,0.009361614416792839,-0.004298953362947681,0.008679921530212962,15.2572795060114
1636,A,504643189880118.0,1.3794506803207964,5.555763257062781,-2.086435262083851,184,1970-01-06 20:10:43.189880118,0.10897827,-0.47755432,-0.076049805,14.263478575588772,0.49569947016654486,-95.93794250488281,28.50456428527832,112.0755615234375,15307633.0,50354.0,0.1263446051440734,-0.21835200106186078,0.05352600178522977,0.007411928437091662,-0.009687989929759203,0.006470486765532679,15.307633509975858
1636,A,504643240234122.0,3.156977480320796,9.48612225706278,0.2910672079161491,184,1970-01-06 20:10:43.240234122,-0.3179474,-0.65644836,0.80433655,9.781296634821837,1.0858049015266749,-95.80952453613281,28.68715476989746,112.16964721679688,15357987.0,50354.0,0.11421365180047338,-0.11475964841086081,-0.045201981499780226,0.006056535235092854,-0.008386751998774712,0.0002095738587267631,15.357987513998523
1636,A,504643290588125.0,9.983744480320796,10.14846085706278,-2.210718062083851,184,1970-01-06 20:10:43.290588125,0.33058167,0.21450806,-0.1772461,7.9954970614598535,0.4321043025823308,-95.79834747314453,28.67725372314453,112.15850830078125,15408341.0,50354.0,0.3308439568030734,0.000870699064339183,-0.04833104955538023,0.011205215411811497,-0.002867382077697375,-0.0023548811228757747,15.40834151697345
1636,A,504643340942129.0,1.125071280320796,8.27928925706278,0.20828827791614907,184,1970-01-06 20:10:43.340942129,-0.46925354,1.5780945,-0.2696991,11.961188963127968,1.66832812728,-95.86398315429688,28.655824661254883,112.07061004638672,15458695.0,50354.0,0.27968665440567336,-0.02951373537666081,-0.05041517467599023,0.015371329198402617,-0.0007211457252353216,-0.002486133687473214,15.458695520996116
1636,A,504643391296133.0,3.623881280320796,12.57349425706278,-0.05593291208385093,184,1970-01-06 20:10:43.391296133,-0.43499756,0.047805786,-0.39691162,7.099686986870834,0.5908020857038809,-95.88591003417969,28.63583755493164,112.0702133178711,15509049.0,50354.0,0.11956437861927337,0.0315413305351392,0.0038358510455597703,0.010051943258469085,5.1048763305010524e-05,-0.0011727276310433477,15.509049525018781
1636,A,504643441650137.0,6.319407280320796,10.13991595706278,0.4151516819161491,184,1970-01-06 20:10:43.441650137,-1.0913391,0.64151,-0.6272278,7.804953979625914,1.412788315488789,-95.95613098144531,28.601341247558594,112.03756713867188,15559403.0,50354.0,0.25034217609127335,0.07838632896103918,0.009044050968067771,0.009313137327947436,0.0027676486831352833,0.00032427729299710063,15.559403528983239
1636,A,504643492004141.0,5.482493280320796,10.06183665706278,0.06123933791614905,184,1970-01-06 20:10:43.492004141,-0.6201172,0.13212585,-0.09555054,8.168920832759023,0.6411961382200879,-95.89353942871094,28.44784927368164,112.07695007324219,15609757.0,50354.0,0.29713645041527337,0.015150325565839192,0.01199409670631777,0.013783869379555329,0.002354972351023217,0.0005296774439980048,15.609757533005904
1636,A,504643542358145.0,4.8956707803207955,9.693870957062781,-0.44625276208385095,184,1970-01-06 20:10:43.542358145,-0.6091461,0.44995117,0.31124878,8.77513108042144,0.8187739795456787,-95.93500518798828,28.378427505493164,112.0506362915039,15660111.0,50354.0,0.26129103655477337,0.003920250600839241,-0.009693482980270231,0.014059528839444868,0.000480139896148463,5.792255178069891e-05,15.66011153702857
1636,A,504643592712149.0,5.423624880320796,8.19945525706278,1.4439450379161491,184,1970-01-06 20:10:43.592712149,-0.4620514,0.12754822,0.412735,9.986337391853885,0.6325426664598433,-95.96271514892578,28.398298263549805,112.04100799560547,15710465.0,50354.0,0.25980890684797336,-0.04296892590696077,0.02511889842862977,0.013119733275050957,-0.0009831284981822218,0.0003883656847433482,15.710465540993027
1636,A,504643643066153.0,4.860606080320796,4.60747575706278,0.879858097916149,184,1970-01-06 20:10:43.643066153,-0.124313354,-0.10064697,0.033554077,13.53341377379628,0.1634304091539642,-95.96630096435547,28.40048599243164,112.04649353027344,15760819.0,50354.0,0.2589260828960734,-0.1710290978573608,0.05850639155084977,0.013060190836785866,-0.005387828244314325,0.0021054339258133564,15.760819545015693
1636,A,504643693420157.0,5.4977672803207955,6.778114757062781,-2.582239062083851,184,1970-01-06 20:10:43.693420157,0.086746216,0.10206604,-0.18363953,11.638947404195829,0.22730125272470705,-95.9642105102539,28.390823364257812,112.04182434082031,15811173.0,50354.0,0.2607927661008734,-0.20681418762586082,-0.042860845534850235,0.013084961461196129,-0.009512960398611072,0.0003939079120448204,15.81117354898015
1636,A,504643743774161.0,2.9438272803207957,9.94268085706278,-4.417749362083851,184,1970-01-06 20:10:43.743774161,0.40438843,0.26287842,-0.6369324,10.661382755800705,0.7989480259624661,-95.94925689697266,28.3577823638916,112.03070831298828,15861527.0,50354.0,0.21253402625327333,-0.07248972882316082,-0.17623870855527024,0.011916948651100353,-0.007032034704437018,-0.005516269473326963,15.861527553002816
1636,A,504643794128164.0,-2.281681719679204,10.49356885706278,-3.013742362083851,184,1970-01-06 20:10:43.794128164,0.776886,-1.0518951,-0.5490875,13.444821185585118,1.4182849646866669,-95.88067626953125,28.335899353027344,112.09337615966797,15911881.0,50354.0,0.016670838780273353,0.02105425905253916,-0.18710266713937024,0.005770690886949606,-0.0012949908224149417,-0.009147845815863963,15.911881555977743
1636,A,504643844482168.0,5.025034780320796,6.65952325706278,-0.356470022083851,184,1970-01-06 20:10:43.844482168,-0.16479492,-0.20230103,0.26583862,11.536263294630853,0.37249596545515995,-95.88420104980469,28.35015296936035,112.10325622558594,15962235.0,50354.0,0.06906940000777337,-0.061605799842660826,-0.08485183719619024,0.0021586819919666525,-0.0010209661424728932,-0.006846998555656406,15.962235560000408
1636,A,504643894836172.0,5.791773680320796,8.656761257062781,-0.9681185620838508,184,1970-01-06 20:10:43.894836172,1.15094,-0.40422058,0.3777008,9.471246323395489,1.276994540010323,-95.81684875488281,28.371002197265625,112.12391662597656,16012588.999999998,50353.99999999814,0.2723347866135633,-0.10785110478785678,-0.033349166783589,0.008595533206565075,-0.004266416487882384,-0.002975946677198792,16.012589564023074
1636,A,504643945190176.0,5.823939280320796,12.453133257062781,0.5009518479161491,184,1970-01-06 20:10:43.945190176,1.2932587,-0.07685852,0.12712097,5.858015709928346,1.3017622817688417,-95.56631469726562,28.387088775634766,112.21505737304688,16062943.0,50354.00000000186,0.29244880521008415,0.03801461418214065,-0.01176185636260066,0.014219556491344498,-0.00175827332398018,-0.001135760229751659,16.06294356798753
1636,A,504643995544180.0,5.486185880320797,10.763130657062781,1.131780737916149,184,1970-01-06 20:10:43.995544180,0.6685791,0.27433777,0.25331116,7.559112045791905,0.7657844140395705,-95.54093170166016,28.398374557495117,112.19815063476562,16113297.0,50354.0,0.28475502116947343,0.09104667656593926,0.04110730831349977,0.014532260736758121,0.0032493761171644084,0.000738830443767787,16.113297572010197
1636,A,504644045898184.0,5.489832780320796,11.332787057062781,1.0827999979161491,184,1970-01-06 20:10:44.045898184,0.6388092,0.23916626,-0.013900757,7.041518444265749,0.682254296411683,-95.5154037475586,28.396530151367188,112.18470764160156,16163651.000000002,50354.00000000186,0.27634322181898363,0.06283972028854157,0.05575649918605183,0.014126770463720904,0.003874397813605407,0.002438740081416301,16.163651575974654
1636,A,504644096252188.0,3.907648880320796,8.19287925706278,2.8655301379161493,184,1970-01-06 20:10:44.096252188,0.36169434,-0.04206848,-0.07366943,10.814700002821716,0.37151007727122415,-95.49597930908203,28.3930606842041,112.1874771118164,16214005.0,50353.99999999814,0.2366003957699646,-0.0018714992092607318,0.0994071078298461,0.012914381460036472,0.0015349969021129968,0.003906554133839117,16.21400557999732
1636,A,504644146606192.0,4.236506280320796,4.528450257062781,3.202749337916149,184,1970-01-06 20:10:44.146606192,0.33657837,0.3564148,0.043060303,14.0753358106426,0.49210842149403283,-95.48886108398438,28.393495559692383,112.16708374023438,16264358.999999998,50353.99999999814,0.20504539447946576,-0.1731842868228544,0.15278107236302413,0.011119316061109498,-0.004407379524930399,0.006349341812715659,16.264359584019985
1636,A,504644196960196.0,1.5599468803207959,5.07654625706278,0.03145416791614908,184,1970-01-06 20:10:44.196960196,0.4264984,0.0084991455,-0.015701294,14.37919879941481,0.4268719378338949,-95.36900329589844,28.419832229614258,112.21365356445312,16314713.000000002,50354.000000003725,0.14593730122548415,-0.2516442027638794,0.08142754166634579,0.008836691329764177,-0.010695906882325988,0.005896670275417883,16.314713587984443
1636,A,504644247314200.0,3.935053680320796,10.65299265706278,-0.31865876208385097,184,1970-01-06 20:10:44.247314200,-0.19857788,0.141922,0.3083191,8.40594711672212,0.39323745489729794,-95.38839721679688,28.571430206298828,112.20164489746094,16365067.0,50353.99999999814,0.13834762911526824,-0.09744659875905719,-0.007230950067359963,0.007157441691188858,-0.008789059109942649,0.001868047586687597,16.365067592007108
1636,A,504644297668204.0,6.309107680320796,10.34998365706278,-3.208459662083851,184,1970-01-06 20:10:44.297668204,-0.041656494,0.33457947,0.15162659,8.40236773894819,0.3696881226559504,-95.39994812011719,28.577407836914062,112.1818618774414,16415420.999999998,50353.99999999814,0.2579172505768638,0.035322734660737876,-0.08880226056526694,0.00997676087600844,-0.0015640925264033274,-0.002417828144097558,16.415421595971566
1636,A,504644348022207.0,4.7011364803207965,7.82470025706278,1.5792447379161492,184,1970-01-06 20:10:44.348022207,-0.45796204,1.0298462,-0.15826416,10.600425763931012,1.1381388184557748,-95.45034790039062,28.564664840698242,112.12435150146484,16465775.0,50354.00000000186,0.27720491723248364,-0.03588518309406216,-0.041018744145771745,0.013472770818936438,-1.416076420580608e-05,-0.003268503435609942,16.4657755990047
1636,A,504644398376211.0,4.782862580320796,11.04227495706278,0.46518524791614907,184,1970-01-06 20:10:44.398376211,-0.947052,0.08895874,-0.6145477,7.597734179295318,1.132470760638736,-95.34217071533203,28.582347869873047,112.19740295410156,16516129.0,50354.0,0.2387786443497734,-0.01845536503396081,0.05147261375329977,0.012990918129956485,-0.0013681319802192344,0.0002631970751087331,16.516129603027366
1636,A,504644448730215.0,5.703013280320796,10.027580757062779,0.4174252409161491,184,1970-01-06 20:10:44.448730215,-1.0127411,0.07846069,-0.49775696,8.113354129402563,1.1311775310414045,-95.24055480957031,28.37391471862793,112.26869201660156,16566483.000000002,50354.00000000186,0.2640028965433831,0.037006557314540535,0.02222148427733159,0.01265853085506747,0.000467063368048173,0.0018553963061172744,16.566483606991824
1636,A,504644499084219.0,4.704905280320796,9.776558257062781,0.2817898679161491,184,1970-01-06 20:10:44.499084219,-0.3972931,0.46702576,-0.17216492,8.747527582446521,0.636863900287804,-95.15396118164062,28.32129669189453,112.29947662353516,16616837.0,50353.99999999814,0.2620401656012637,0.005139607958639009,0.01760413879507012,0.013244186175615283,0.0010611140030828022,0.001002689712093821,16.61683761101449
1636,A,504644549438223.0,5.233088280320796,9.37719025706278,0.3919583219161491,184,1970-01-06 20:10:44.549438223,-0.52008057,0.39863586,0.14129639,8.891514415212985,0.670342463220477,-95.05000305175781,28.181957244873047,112.34298706054688,16667190.999999998,50353.99999999814,0.2502088638762641,-0.011235273659860347,0.01696295817540714,0.01289689381515524,-0.00015347057535964394,0.0008702958004256738,16.667191614978947
1636,A,504644599792227.0,5.372706280320796,8.02614625706278,1.5885373379161492,184,1970-01-06 20:10:44.599792227,-0.51493835,0.15835571,0.23277283,10.182208830935162,0.5868741139090524,-95.08052825927734,28.192852020263672,112.33287811279297,16717545.000000002,50354.000000003725,0.2670220896532931,-0.05530539658386487,0.04986293922760146,0.013022323717014624,-0.0016752944547263936,0.0016824756189156717,16.717545619001612
1636,A,504644650146231.0,5.3845165803207955,5.082054257062781,1.089117137916149,184,1970-01-06 20:10:44.650146231,-0.32382202,-0.09135437,-0.006286621,12.947688377813343,0.3365201972520742,-95.0942611694336,28.192941665649414,112.33806610107422,16767899.0,50353.99999999814,0.2708345999623633,-0.16344403565585472,0.06741530673802729,0.013541617874452882,-0.005507454455499217,0.0029527143986765258,16.767899623024277
1636,A,504644700500235.0,5.232172880320796,6.16799225706278,-2.240823662083851,184,1970-01-06 20:10:44.700500235,0.08389282,-0.10133362,-0.288208,12.201556325974085,0.3168128139041362,-95.086669921875,28.179040908813477,112.34524536132812,16818253.0,50354.0,0.26729639055057336,-0.2102267789138608,-0.028996515158970237,0.013548523948144207,-0.009407910098421728,0.0009672699155859193,16.818253626988735
1636,A,504644750854239.0,0.8044382803207961,8.05132325706278,-3.374139662083851,184,1970-01-06 20:10:44.750854239,0.37986755,-0.43466187,-0.4326477,12.891676568782744,0.7213974834237984,-95.05508422851562,28.15941619873047,112.3719711303711,16868607.0,50354.0,0.1519837591914734,-0.13546949330086083,-0.14136793161257025,0.010556216330055511,-0.008703595045550048,-0.004289265676367075,16.8686076310114
1636,A,504644801208243.0,-1.422947719679204,9.516670257062781,-1.6488284620838507,184,1970-01-06 20:10:44.801208243,0.21002197,-0.97828674,-0.004776001,13.048325056919099,1.0005883188045224,-95.01847839355469,28.163475036621094,112.4272689819336,16918961.0,50354.0,-0.015572212154726636,-0.05115982729486079,-0.12646326846217024,0.003434433519744173,-0.004698766404638483,-0.006743186124281741,16.918961634975858
1636,A,504644851562247.0,3.9166822803207957,8.05031625706278,-0.9498995620838508,184,1970-01-06 20:10:44.851562247,0.2079773,-0.35629272,0.29145813,10.724025075303732,0.5051206798215504,-95.07025909423828,28.127105712890625,112.41244506835938,16969315.0,50354.0,0.06278475503327335,-0.05118518053386077,-0.06542817546447023,0.0011886701920531709,-0.0025767402621037225,-0.004831250883741028,16.969315638998523
1636,A,504644901916250.0,5.844965780320797,8.79192425706278,-0.09433928208385095,184,1970-01-06 20:10:44.901916250,0.978775,-0.5626831,0.42097473,9.24401906813691,1.2049201197378947,-95.00731658935547,28.150548934936523,112.44213104248047,17019669.0,50354.0,0.2457690132227734,-0.06943211057586081,-0.026290801379610228,0.007768458223382489,-0.0030367815382694604,-0.0023092086800034135,17.01966964197345
1636,A,504644952270254.0,6.136820680320795,12.58858525706278,0.45218476291614906,184,1970-01-06 20:10:44.952270254,0.7613983,-0.18255615,0.3947296,5.592454377673473,0.8768498025670489,-94.81139373779297,28.130693435668945,112.52308654785156,17070023.0,50354.0,0.3016654377195734,0.04482788803713919,0.00900947567091477,0.013782757171375466,-0.0006194605108573942,-0.00043509193736782553,17.070023645996116
1636,A,504645002624258.0,5.7784832803207955,12.553474857062781,0.570379337916149,184,1970-01-06 20:10:45.002624258,0.2763214,0.062026978,0.31640625,5.794424414423728,0.4246336975992779,-94.62222290039062,28.182750701904297,112.6019287109375,17120377.0,50354.0,0.29999160781707335,0.13953244749333923,0.02574509636665477,0.015147919435476156,0.004641640167650856,0.0008750158601898884,17.12037765001878
1636,A,504645052978262.0,5.004801580320796,10.570930957062782,2.655798037916149,184,1970-01-06 20:10:45.052978262,0.030853271,-0.2434082,0.11228943,8.230111497186188,0.2698303026873823,-94.61444854736328,28.1893310546875,112.61518859863281,17170731.0,50354.0,0.27149076293637336,0.08873396518223926,0.08122546779132979,0.014388211648459527,0.0057470634719330406,0.0026931978938055773,17.17073165398324
1636,A,504645103332266.0,4.024241280320796,7.098427257062781,3.039739737916149,184,1970-01-06 20:10:45.103332266,0.21177673,-0.21914673,0.023757935,11.771024283457075,0.30567811847538257,-94.5980453491211,28.191396713256836,112.62747955322266,17221085.0,50354.0,0.22732421210237339,-0.04860776824296075,0.14339655458212977,0.012558664626550527,0.0010102572603402152,0.005655308657296592,17.221085658005904
1636,A,504645153686270.0,3.3641918803207957,6.13100525706278,3.068777137916149,184,1970-01-06 20:10:45.153686270,0.34803772,-0.1599884,-0.027267456,12.902313260576447,0.3840183027331775,-94.57630920410156,28.190675735473633,112.63664245605469,17271439.0,50354.0,0.18601858168547336,-0.1603917775918608,0.15379412938282977,0.010406731519196619,-0.005261981565483302,0.007482369850185786,17.27143966202857
1636,A,504645204040274.0,-0.5341697196792037,6.366539257062781,2.310140737916149,184,1970-01-06 20:10:45.204040274,-0.24813843,-0.6930237,0.20796204,14.621717948129316,0.7649200868623575,-94.57064819335938,28.203805923461914,112.67489624023438,17321793.0,50354.0,0.07125146793847337,-0.17881852176786078,0.1354250153598298,0.006477288039382107,-0.008540297706979711,0.007281670407185939,17.321793665993027
1636,A,504645254394278.0,1.6525219803207962,8.042015257062781,-3.2458132620838507,184,1970-01-06 20:10:45.254394278,-0.5033417,-0.99201965,0.60180664,12.364764823704995,1.2647636478382442,-94.570556640625,28.237749099731445,112.728271484375,17372147.0,50354.0,0.02815675486617338,-0.13070502299786077,-0.023557427140970224,0.002502800825552591,-0.007792874286566572,0.002816490268586227,17.372147670015693
1636,A,504645304748282.0,7.280756780320796,8.28611025706278,-2.783944962083851,184,1970-01-06 20:10:45.304748282,-0.17141724,0.1487732,0.19950867,9.918099388082059,0.3021937203394976,-94.58354187011719,28.24709701538086,112.71895599365234,17422501.0,50354.0,0.2249131593566734,-0.08237598393086078,-0.15181122280987022,0.006371541230388613,-0.005364740511444423,-0.004415256499812311,17.42250167398015
1636,A,504645355102286.0,4.051554580320796,8.277840257062781,0.3530178926161491,184,1970-01-06 20:10:45.355102286,-0.48362732,0.7779236,-0.20101929,10.380157666013968,0.9378002276814857,-94.5124282836914,28.183109283447266,112.73057556152344,17472855.0,50354.0,0.28531360312687337,-0.07643861790586078,-0.06120345082798833,0.01284597919904826,-0.003998475230443139,-0.005363070438180365,17.472855678002816
1636,A,504645405456289.0,4.666849980320796,11.48520725706278,0.9715023879161491,184,1970-01-06 20:10:45.405456289,-1.2037048,0.029525757,-0.45013428,7.306438484546366,1.2854562948231967,-94.32949829101562,28.28455352783203,112.84579467773438,17523209.0,50354.0,0.21950327162327335,0.0041050472631392375,0.033347447102961676,0.012709774455584444,-0.0018211423080718005,-0.0007013306057849961,17.523209680977743
1636,A,504645455810293.0,5.741114480320796,11.36377765706278,0.3030911349161491,184,1970-01-06 20:10:45.455810293,-1.3453827,0.356781,-0.3867035,6.867529517113435,1.4446061360566556,-94.30735778808594,28.178752899169922,112.87377166748047,17573563.0,50354.0,0.2620413212255734,0.08179969318293921,0.03209044112434877,0.012123848214155415,0.002162823650210917,0.0016475297118989953,17.57356368500041
1636,A,504645506164297.0,5.137980280320797,10.43482255706278,0.06337555791614907,184,1970-01-06 20:10:45.506164297,-0.77490234,0.22544861,-0.05130005,7.970672872847975,0.8086608729364927,-94.30245971679688,28.119630813598633,112.8846435546875,17623917.0,50354.0,0.2739029687886734,0.0553541575910392,0.009226531925438772,0.013493469389688692,0.0034531225009364545,0.001040237430474501,17.623917689023074
1636,A,504645556518301.0,5.601313480320796,9.38773425706278,0.3536587619161491,184,1970-01-06 20:10:45.556518301,-0.61209106,0.120773315,0.36169434,8.747748222754533,0.7211549451650793,-94.22380065917969,27.941940307617188,112.92951202392578,17674271.0,50354.0,0.2703831990116734,0.005603312909239198,0.010499673070417772,0.013703492846709332,0.0015347262347855093,0.0004966466631806802,17.67427169298753
1636,A,504645606872305.0,5.374781480320796,6.765389257062781,0.893545237916149,184,1970-01-06 20:10:45.606872305,-0.31951904,0.13421631,0.33821106,11.320757400131232,0.48424493378750105,-94.2439956665039,27.95831298828125,112.92052459716797,17724625.0,50354.0,0.2763451428240734,-0.0867820092848608,0.03140085510377777,0.013764979462398599,-0.002043836038649025,0.0010549295978417212,17.724625697010197
1636,A,504645657226309.0,4.934107680320796,4.897713257062781,0.5140896679161491,184,1970-01-06 20:10:45.657226309,-0.0013580322,-0.011413574,0.064590454,13.225073204504195,0.06560518783477286,-94.24388885498047,27.96157455444336,112.92090606689453,17774979.0,50354.0,0.25954690239747336,-0.19982726800186076,0.035440024024139774,0.013492154022542883,-0.00721596177424779,0.0016828528138035802,17.774979700974654
1636,A,504645707580313.0,4.8560283803207955,6.296333757062781,-2.610711962083851,184,1970-01-06 20:10:45.707580313,0.12667847,0.2526703,-0.2252655,12.276568382778223,0.3614336187377717,-94.24380493164062,27.94940757751465,112.9075927734375,17825333.0,50354.0,0.24648625559877338,-0.21163667832536076,-0.05278665950026023,0.012740396818871505,-0.010359427776680457,-0.0004367362413822847,17.82533370499732
1636,A,504645757934317.0,-0.17253571967920323,9.29073425706278,-4.305993962083851,184,1970-01-06 20:10:45.757934317,0.76535034,0.03617859,-0.5995636,12.966480545988372,0.9729062358508469,-94.20531463623047,27.91937828063965,112.90804290771484,17875687.0,50354.0,0.11791629471697337,-0.10103358860836077,-0.17414190505277025,0.009174563009299556,-0.007872099310590307,-0.005713380469751649,17.875687709019985
1636,A,504645808288321.0,-0.11150071967920461,9.42824625706278,-1.979104862083851,184,1970-01-06 20:10:45.808288321,0.24095154,-0.11701965,-0.24433899,12.186004252789125,0.3625641807304111,-94.18971252441406,27.90761947631836,112.91565704345703,17926041.0,50354.0,-0.0071511854337266345,-0.022181427595860812,-0.15823993309607023,0.0027887331564243035,-0.0031021844629736867,-0.008368377539073357,17.926041712984443
1636,A,504645858642325.0,5.534388380320796,6.96665225706278,0.48436554791614905,184,1970-01-06 20:10:45.858642325,0.3735199,-0.61154175,0.3222351,11.070611691182053,0.7857072529645394,-94.1554946899414,27.925920486450195,112.9488525390625,17976395.0,50354.0,0.13653204263197335,-0.08069484010986083,-0.037633051712800236,0.0032574218416802575,-0.002590115792026954,-0.004931494138532932,17.976395717007108
1636,A,504645908996329.0,6.544779680320795,9.817879257062781,0.29161652791614906,184,1970-01-06 20:10:45.908996329,1.2248535,-0.43203735,0.1971283,8.052148681883889,1.3136901974659636,-94.08319854736328,27.937299728393555,112.97241973876953,18026749.0,50354.0,0.3041172142627734,-0.07088505006886078,0.01953690072322977,0.01109422634083904,-0.003816326895029674,-0.00045560679346441565,18.026749720971566
1636,A,504645959350332.0,6.116984280320796,12.16779375706278,0.3433743379161491,184,1970-01-06 20:10:45.959350332,1.0780029,0.14685059,0.17233276,5.979794921953282,1.1015234579258746,-93.9330062866211,27.868040084838867,113.01044464111328,18077103.0,50354.0,0.31878523123707336,0.06006408947663923,0.01598716502905977,0.015682814870349643,-0.00027243932483036207,0.000894389403445394,18.0771037240047
1636,A,504646009704336.0,5.909525780320796,12.46646925706278,0.8179379379161491,184,1970-01-06 20:10:46.009704336,0.5255432,0.38809204,0.3062439,5.822185298658933,0.721523674500575,-93.69213104248047,27.88724136352539,113.0927505493164,18127457.0,50354.0,0.30279144379677336,0.1267476399066392,0.029238359168629775,0.01564943594732716,0.004703358910682802,0.0011386430227252298,18.127457728027366
1636,A,504646060058340.0,4.560282580320796,10.65660925706278,1.6076108379161491,184,1970-01-06 20:10:46.060058340,0.33415222,-0.0129852295,0.08081055,8.138619222438457,0.3440300383794976,-93.67521667480469,27.891311645507812,113.09320068359375,18177811.0,50354.0,0.26359836509587337,0.08870054775013918,0.06106804152912977,0.014259996218490166,0.0054243390206347095,0.0022736442503674924,18.177811731991824
1636,A,504646110412344.0,4.280711280320796,6.343132257062781,3.545934737916149,184,1970-01-06 20:10:46.110412344,0.2480774,-0.039031982,0.08944702,12.476480576134527,0.26658331042375616,-93.66193389892578,27.895904541015625,113.09507751464844,18228165.0,50354.0,0.2225897024293734,-0.06546670789886082,0.12975081696272978,0.01224075697608314,0.0005849583859356353,0.004804246400249548,18.22816573601449
1636,A,504646160766348.0,3.805079280320796,4.925835257062781,5.8198603379161495,184,1970-01-06 20:10:46.160766348,0.08505249,-0.1581726,-0.11303711,14.614813085865348,0.21220246389500805,-93.65330505371094,27.890764236450195,113.10441589355469,18278519.0,50354.0,0.20357594894527337,-0.20975040489686078,0.2358026226242298,0.010729572604659484,-0.006929141248857883,0.009203538948480881,18.278519739978947
1636,A,504646211120352.0,-2.2614647196792035,4.16916725706278,2.156606737916149,184,1970-01-06 20:10:46.211120352,-0.394989,-0.34646606,0.28346252,17.378788612663968,0.596997521852205,-93.66437530517578,27.9060115814209,113.12295532226562,18328873.0,50354.0,0.03886358379327338,-0.2644843217018608,0.20082351156822978,0.006103900115758391,-0.011939807711576014,0.010992936180563555,18.328873744001612
1636,A,504646261474356.0,3.897257680320796,9.93218275706278,-1.979364262083851,184,1970-01-06 20:10:46.261474356,-0.05809021,-0.53608704,0.37431335,9.303452996284475,0.6564101392742407,-93.65373992919922,27.926403045654297,113.1518783569336,18379227.0,50354.0,0.04118435937007337,-0.13843951069436083,0.004462433814029771,0.0020153670650235813,-0.010144413328239673,0.005168484246889149,18.379227748024277
1636,A,504646311828360.0,5.902003180320796,9.58504525706278,-3.7909792620838507,184,1970-01-06 20:10:46.311828360,-0.19711304,0.9288635,-0.10441589,9.424305479100408,0.9552714955732656,-93.68798065185547,27.9182186126709,113.09980010986328,18429581.0,50354.0,0.24671599068837338,-0.0020839502883607986,-0.14527993890797022,0.007248467113421515,-0.003537959177161983,-0.003545362325750139,18.429581751988735
1636,A,504646362182364.0,2.6434429803207964,10.99379775706278,-0.006357112083850924,184,1970-01-06 20:10:46.362182364,-0.617218,0.4920807,-0.19537354,8.916184184629259,0.8131865068781094,-93.73152160644531,27.90688705444336,113.07273864746094,18479935.0,50354.0,0.21514869798647338,0.024644330566639196,-0.09560553789242024,0.011628367266766618,0.0005680026942662152,-0.006064773649403431,18.4799357560114
1636,A,504646412536368.0,4.754053980320796,11.692024657062781,0.27771576791614905,184,1970-01-06 20:10:46.412536368,-1.1742249,0.34051514,-0.53790283,7.060297496869746,1.3356998655653292,-93.72867584228516,28.012779235839844,113.08807373046875,18530289.0,50354.0,0.18624678097807337,0.0776917509204392,0.00683199687788977,0.010105933973890395,0.002576515523600173,-0.0022350514421228336,18.530289759975858
1636,A,504646462890372.0,5.217905880320796,9.65250425706278,-0.5606326220838509,184,1970-01-06 20:10:46.462890372,-0.76820374,0.27244568,-0.5582733,8.692340842808063,0.987943678654578,-93.8480453491211,27.861345291137695,113.03977966308594,18580643.0,50354.0,0.25106403341137334,0.043922004470939226,-0.00712299763738023,0.011010174373883101,0.0030618695194887346,-7.3265261216913045e-06,18.580643763998523
1636,A,504646513244375.0,5.580042680320796,9.81719255706278,0.1388607879161491,184,1970-01-06 20:10:46.513244375,-0.50953674,0.2615509,-0.13198853,8.356687629323867,0.5877563566242381,-93.82160186767578,27.692209243774414,113.05287170410156,18630997.0,50354.0,0.27185995091127335,-0.0032806433107607958,-0.01061894946884023,0.013165657153291278,0.0010232275499298122,-0.00044668900229331257,18.63099776697345
1636,A,504646563598379.0,5.549998180320796,9.07891125706278,0.4579831029161491,184,1970-01-06 20:10:46.563598379,-0.56703186,0.35498047,0.21990967,9.056009168561813,0.7041992099512676,-93.7406997680664,27.50827407836914,113.0871810913086,18681351.0,50354.0,0.2802210387483734,-0.017721994271760813,0.015026738639484772,0.013899743076660928,-0.0005287834064151466,0.00011097490794931766,18.681351770996116
1636,A,504646613952383.0,5.040385080320796,6.2578512570627804,0.6249447679161491,184,1970-01-06 20:10:46.613952383,-0.23570251,0.10809326,0.033447266,11.894602468378046,0.2614546723250561,-93.75537109375,27.509599685668945,113.08099365234375,18731705.0,50354.0,0.26663407935317335,-0.10733553018186082,0.02726487500394477,0.013768171308442644,-0.0031485732931688317,0.0010647759567006256,18.73170577501878
1636,A,504646664306387.0,5.899256580320796,5.322396257062781,1.7269345379161491,184,1970-01-06 20:10:46.664306387,-0.0082092285,-0.18890381,-0.13044739,12.647251653489027,0.2297140884292764,-93.75064086914062,27.503705978393555,113.09210205078125,18782059.0,50354.0,0.2754273580899734,-0.20191330833686078,0.059213265282939784,0.013647480810506105,-0.007785958007385854,0.0021772601380028924,18.78205977898324
1636,A,504646714660391.0,6.1230266803207964,6.47838625706278,-3.640863362083851,184,1970-01-06 20:10:46.714660391,-0.09666443,0.48188782,-0.18673706,12.077654391562952,0.5257666903380442,-93.7676773071289,27.492807388305664,113.06568908691406,18832413.0,50354.0,0.3026850256531734,-0.1963608986418608,-0.04818698600607023,0.014555135485501207,-0.010027349709103274,0.0002776086333537448,18.832413783005904
1636,A,504646765014395.0,-1.1602527196792032,7.89189925706278,-3.3187350620838507,184,1970-01-06 20:10:46.765014395,0.6717682,-0.052749634,-0.54985046,14.263229775511693,0.8697071730074357,-93.73178100585938,27.465545654296875,113.07067108154297,18882767.0,50354.0,0.1249477600070734,-0.1316685216108608,-0.17522180952527022,0.010766510644568034,-0.008258796713702771,-0.00562476324509256,18.88276778702857
1636,A,504646815368399.0,-1.0018357196792032,9.226937257062781,-2.574624962083851,184,1970-01-06 20:10:46.815368399,0.21987915,-0.2206726,-0.42190552,13.08874099621012,0.5244497161806391,-93.71435546875,27.44521141052246,113.08462524414062,18933121.0,50354.0,-0.0544349006377266,-0.062468253083860774,-0.14837712532847025,0.0017753022603420445,-0.004887781576489005,-0.008147250382812624,18.933121790993027
1636,A,504646865722403.0,6.303934880320796,4.7621082570627795,0.05682953791614909,184,1970-01-06 20:10:46.865722403,0.9034424,-1.1938477,0.23660278,13.046059635081837,1.5157378983243701,-93.63863372802734,27.460845947265625,113.15089416503906,18983475.0,50354.0,0.13349095056747337,-0.1412670010908608,-0.06339053539427024,0.0019903941690812346,-0.005129442494356966,-0.005331674394016438,18.983475795015693
1636,A,504646916076407.0,5.915201980320796,10.954094257062781,0.34540375691614905,184,1970-01-06 20:10:46.916076407,1.3166656,-0.8365021,0.41566467,7.173662421084046,1.6143485321992828,-93.46016693115234,27.353574752807617,113.23857116699219,19033829.0,50354.0,0.3076412087403734,-0.0977823693018608,0.01012702766399277,0.011106384374893658,-0.006018545998377552,-0.001341015334125196,19.03382979898015
1636,A,504646966430411.0,6.395365580320796,12.65235185706278,0.18056305791614907,184,1970-01-06 20:10:46.966430411,0.78619385,0.12684631,0.28089905,5.426308265510787,0.8444495440399865,-93.38884735107422,27.289817810058594,113.24686431884766,19084183.0,50354.0,0.30994315947427337,0.10087029381533921,0.01324226649703277,0.01554892163854016,7.774467547584615e-05,0.00058836871909214,19.084183803002816
1636,A,504647016784414.0,5.652125280320796,12.505485957062781,0.5049038779161491,184,1970-01-06 20:10:47.016784414,0.4343567,0.206604,0.4116974,5.896895131136411,0.6331237673770035,-93.25090026855469,27.386205673217773,113.2900161743164,19134537.0,50354.0,0.30331967739837334,0.1399296826462392,0.017258001043449774,0.015440118443942627,0.00606262100737316,0.0007679052358667291,19.134537805977743
1636,A,504647067138418.0,5.669047280320796,10.43357125706278,2.472128037916149,184,1970-01-06 20:10:47.067138418,0.26358032,-0.17533875,0.09855652,8.03161745279839,0.3315594214878764,-93.23333740234375,27.391620635986328,113.29955291748047,19184891.0,50354.0,0.2850331615592734,0.08406744348003924,0.07495273254490978,0.014812959426436671,0.005639575644481312,0.002321589639554128,19.18489181000041
1636,A,504647117492422.0,3.0539348803207957,5.276528257062781,1.6219235379161492,184,1970-01-06 20:10:47.117492422,0.40753174,0.17077637,0.02835083,13.579625108679002,0.4427758543772383,-92.98521423339844,27.3205623626709,113.39655303955078,19235245.0,50354.0,0.2196185218584734,-0.09793602453286078,0.10307593652472977,0.012705615433408611,-0.00034916926516688804,0.004482227801166315,19.235245814023074
1636,A,504647167846426.0,4.284220580320796,6.92076925706278,6.029424737916149,184,1970-01-06 20:10:47.167846426,0.11657715,-0.011276245,-0.14898682,12.84375422875759,0.18951110293894372,-92.9788818359375,27.313148498535156,113.39761352539062,19285599.0,50354.0,0.18475274003257336,-0.18637784048686082,0.19263799554062977,0.010180855260630886,-0.007158170179601532,0.007445189667609558,19.28559981798753
1636,A,504647218200430.0,-3.272725219679204,4.00733225706278,0.7085781979161491,184,1970-01-06 20:10:47.218200430,-0.4608307,-0.26893616,0.4287262,18.064443205858744,0.6844689523889858,-92.99556732177734,27.335256576538086,113.41148376464844,19335953.0,50354.0,0.025466418694873368,-0.21833238817886083,0.16964269991544978,0.005292687759280926,-0.010189389427116875,0.009121141069497716,19.335953822010197
1636,A,504647268554434.0,7.730707980320796,10.267555657062779,-1.9200076620838509,184,1970-01-06 20:10:47.268554434,-0.0071105957,-0.8559265,0.48883057,7.7270679861234335,0.9857058689791717,-92.97447967529297,27.361894607543945,113.4581527709961,19386307.0,50354.0,0.11223863196467336,-0.13407034698606085,-0.030500159619350233,0.003467000060455408,-0.008872443663247234,0.0035031917370348985,19.386307825974654
1636,A,504647318908438.0,6.283152480320796,6.99297425706278,-4.366159362083851,184,1970-01-06 20:10:47.318908438,-0.23699951,1.3372803,-0.04508972,11.84249975184865,1.3588673413391053,-93.02081298828125,27.356143951416016,113.38309478759766,19436661.0,50354.0,0.35282696481757336,-0.058900838352060836,-0.15826682716747023,0.011708956530186627,-0.00485843553325789,-0.004752586426331779,19.43666182999732
1636,A,504647369262442.0,0.5935922803207951,9.82057995706278,1.6911374379161492,184,1970-01-06 20:10:47.369262442,-0.6210327,0.40063477,-0.2854309,11.25741848391397,0.7922503594679228,-93.06182861328125,27.340835571289062,113.36143493652344,19487015.0,50354.0,0.17313580283867336,-0.07015434555096083,-0.06734902698477023,0.013242164601281324,-0.003249222365126377,-0.005680330359990958,19.487015834019985
1636,A,504647419616446.0,4.841898780320796,11.66623725706278,0.08759125791614908,184,1970-01-06 20:10:47.419616446,-1.2448425,0.34835815,-0.41638184,7.039023950180134,1.3580721951205166,-93.1220474243164,27.44793701171875,113.34784698486328,19537369.0,50354.0,0.13684935843377335,0.047504397000039195,0.044783052374969774,0.007804496405356391,-0.000570257754666554,-0.0005681435427509461,19.537369837984443
1636,A,504647469970450.0,5.924494580320796,11.73749585706278,-1.5003603620838508,184,1970-01-06 20:10:47.469970450,-1.0993805,0.773407,-0.30145264,6.7137424754461446,1.3775592784313202,-93.19664764404297,27.430763244628906,113.3052749633789,19587723.0,50354.0,0.2710654856408734,0.09576658861433923,-0.03556928773563023,0.010270072029267382,0.003607133604813206,0.00023197495232465175,19.587723842007108
1636,A,504647520324454.0,5.754725280320796,9.31929825706278,0.5735531679161491,184,1970-01-06 20:10:47.520324454,-0.6705475,-0.19943237,0.05026245,8.763187867558967,0.7013797358350676,-93.10084533691406,27.22862434387207,113.3734130859375,19638077.0,50354.0,0.2940477184313734,0.036677705411339204,-0.023334224727560228,0.01422785513892696,0.003334549990684506,-0.0014830137332857462,19.638077845971566
1636,A,504647570678457.0,5.439326180320796,8.98474925706278,-1.3110751620838508,184,1970-01-06 20:10:47.570678457,-0.85621643,0.25471497,0.574173,9.332538586433953,1.0619138029393185,-93.15100860595703,27.256593704223633,113.35735321044922,19688431.0,50354.0,0.2818326336245734,-0.0326281957368608,-0.018568591247160225,0.014498939623712574,0.00010195450507434278,-0.001054987197795537,19.6884318490047
1636,A,504647621032461.0,4.923807980320796,6.09587925706278,0.6626034679161491,184,1970-01-06 20:10:47.621032461,-0.24856567,0.024337769,0.28308105,12.085177505158091,0.3775077484920657,-93.16447448730469,27.270660400390625,113.35511016845703,19738785.0,50354.0,0.2609126287624734,-0.1137842158998608,-0.016326571844060226,0.013664697471118677,-0.0036862252877777404,-0.0008785555211476574,19.738785853027366
1636,A,504647671386465.0,6.095438780320796,3.8733452570627804,0.6341610779161491,184,1970-01-06 20:10:47.671386465,0.041931152,-0.20262146,-0.06088257,13.957028504060744,0.21568580131845397,-93.15707397460938,27.2681827545166,113.36668395996094,19789139.0,50354.0,0.2774315756926734,-0.2424740344078608,0.03264864097041977,0.013553892035567231,-0.008969513967997509,0.0004109407343943543,19.789139856991824
1636,A,504647721740469.0,4.951411080320796,6.016167257062781,-4.943109662083851,184,1970-01-06 20:10:47.721740469,0.001083374,0.5690613,-0.113098145,13.255491011482066,0.5801923192005862,-93.1714859008789,27.260967254638672,113.33506774902344,19839493.0,50354.0,0.27812653894137335,-0.24448094343186078,-0.10848639850359024,0.013987286652141395,-0.012260065477070672,-0.0019093672214126327,19.83949386101449
1636,A,504647772094473.0,-1.4331107196792043,11.61690565706278,-3.7757662620838506,184,1970-01-06 20:10:47.772094473,0.99964905,-0.13108826,-0.7514343,12.40964374080263,1.2574322495833405,-93.11708068847656,27.22381591796875,113.3447494506836,19889847.0,50354.0,0.08858024817987335,-0.04952132324106078,-0.21951513914277024,0.00923257677935163,-0.007402095068024146,-0.008258094713322417,19.889847864978947
1636,A,504647822448477.0,-0.9464317196792038,8.38384325706278,-1.767373962083851,184,1970-01-06 20:10:47.822448477,-0.35777283,0.055511475,-0.3895111,13.453275857529047,0.5317911420530569,-93.13584899902344,27.204219818115234,113.34282684326172,19940201.0,50354.0,-0.059909739995726644,0.01008965541093921,-0.13955964142387023,0.0007218373845522617,-0.000992771100958971,-0.009040425750326308,19.940201869001612
1636,A,504647872802481.0,7.0945080803207965,3.98925025706278,0.23106964791614906,184,1970-01-06 20:10:47.872802481,0.6276703,-1.0147247,0.39970398,13.693693688558085,1.2583320284885147,-93.07897186279297,27.2269287109375,113.39859008789062,19990555.0,50354.0,0.15479011853187338,-0.1819518245948608,-0.03867953371780023,0.0023888032904045664,-0.004326973833543595,-0.004487527712541837,19.990555873024277
1636,A,504647923156485.0,5.274897480320796,12.310051257062781,-1.3410433620838509,184,1970-01-06 20:10:47.923156485,1.4397736,-0.33166504,0.12710571,6.484971691584546,1.4829381576889058,-92.9986343383789,27.23415184020996,113.41683197021484,20040909.0,50354.0,0.3114245238002734,-0.08310168577886078,-0.02794580820160023,0.011737886049996461,-0.0066732522306791895,-0.0016774262335047456,20.040909876988735
1636,A,504647973510489.0,6.7254436803207955,13.99382825706278,0.5412503179161491,184,1970-01-06 20:10:47.973510489,1.1623993,0.07118225,0.20518494,4.076532935927799,1.1825142303407412,-92.79617309570312,27.260269165039062,113.47928619384766,20091263.0,50354.0,0.30213258940147336,0.16878357452713924,-0.02013638947301023,0.015447527439080379,0.002157212913015407,-0.0012105654908536676,20.0912638810114
1636,A,504648023864493.0,5.824366480320796,11.81365245706278,0.31708344391614907,184,1970-01-06 20:10:48.023864493,0.52549744,0.38560486,0.31256104,6.425174524548504,0.7228644902248655,-92.719970703125,27.239728927612305,113.48433685302734,20141617.0,50354.0,0.31596657041447335,0.1562857419395392,0.021610269121651773,0.01556188254668609,0.008184270180681564,3.710786791384816e-05,20.141617884975858
1636,A,504648074218497.0,4.618342280320796,9.69126175706278,2.447057837916149,184,1970-01-06 20:10:48.074218497,0.57121277,0.11647034,-0.033798218,9.104975911981509,0.5839449359749291,-92.69436645507812,27.237762451171875,113.4778823852539,20191971.0,50354.0,0.26291607846667336,0.047960025169039175,0.06959278505269177,0.014574528450880631,0.0051422956784926786,0.0022962192949474475,20.191971888998523
1636,A,504648124572500.0,3.240259980320796,5.317787257062781,2.233221137916149,184,1970-01-06 20:10:48.124572500,0.54422,-0.09365845,-0.013381958,13.537652963227789,0.552382467549719,-92.66473388671875,27.237316131591797,113.48319244384766,20242325.0,50354.0,0.19785602911617337,-0.1155863729713608,0.11783538377452978,0.011600859352613332,-0.0017026285586190517,0.004718879006562957,20.24232589197345
1636,A,504648174926504.0,2.4567822803207964,4.48343725706278,6.925420837916149,184,1970-01-06 20:10:48.174926504,-0.07173157,-0.03147888,0.020935059,15.90940114985172,0.08108399790373426,-92.66753387451172,27.238433837890625,113.48490142822266,20292679.0,50354.0,0.1434344329961734,-0.2467037704078608,0.23058712902552977,0.008592669964602555,-0.009121378939858663,0.0087722336047671,20.292679895996116
1636,A,504648225280508.0,-2.692677719679205,5.255959257062781,-0.19854156208385093,184,1970-01-06 20:10:48.225280508,-0.58976746,-0.54663086,0.45385742,16.753236936130815,0.9233728995742986,-92.68350982666016,27.262380599975586,113.5144271850586,20343033.0,50354.0,-0.005939139476726652,-0.2482604139638608,0.16936263952762978,0.003461719004939111,-0.012461713269926835,0.010069535322862899,20.34303390001878
1636,A,504648275634512.0,7.729487280320796,11.44077325706278,-1.9376162620838508,184,1970-01-06 20:10:48.275634512,0.10354614,-0.62641907,0.20579529,6.630950905403791,0.6674386531770156,-92.66244506835938,27.274118423461914,113.549072265625,20393387.0,50354.0,0.12681175430827335,-0.0730955654918608,-0.05378204553907023,0.0030432098236138514,-0.008090779494756704,0.0029099726148499637,20.39338790398324
1636,A,504648325988516.0,5.456293880320796,8.566887257062781,-1.940652662083851,184,1970-01-06 20:10:48.325988516,-0.43685913,1.2881165,-0.12513733,9.841723853921748,1.3659243640832153,-92.7173080444336,27.264848709106445,113.4770278930664,20443741.0,50354.0,0.3319784122814734,0.01026366876413922,-0.09764317670377023,0.011550960024230054,-0.0015819186639138463,-0.0038124328204079947,20.443741908005904
1636,A,504648376342520.0,2.6462202803207964,10.89894925706278,1.4551602379161492,184,1970-01-06 20:10:48.376342520,-0.6657715,0.581131,-0.30503845,9.044045044505351,0.9348868302375707,-92.76516723632812,27.248226165771484,113.44519805908203,20494095.0,50354.0,0.20399699902247342,-0.003377834083860783,-0.012223242763270225,0.01349425293039947,0.00017336465974537025,-0.0027661068429216777,20.49409591202857
1636,A,504648426696524.0,5.037150280320796,12.01664025706278,-0.30430022208385094,184,1970-01-06 20:10:48.426696524,-1.0524902,0.50593567,-0.4295349,6.66648861622025,1.244269566288752,-92.92548370361328,27.35918426513672,113.37421417236328,20544449.0,50354.0,0.1934442206052734,0.08347659719713921,0.028975202618609777,0.010006377586567783,0.0020166465589030107,0.00042176409327788393,20.544449915993027
1636,A,504648477050528.0,5.087015980320796,9.25685925706278,-0.633752762083851,184,1970-01-06 20:10:48.477050528,-0.5917053,0.46044922,-0.38549805,9.113071193248723,0.8430524258908819,-93.0664291381836,27.22714614868164,113.30364227294922,20594803.0,50354.0,0.2548961339441734,0.04213369726713921,-0.023617359982390233,0.011287865106491421,0.0031624903837271377,0.00013489440405209946,20.594803920015693
1636,A,504648527404532.0,5.0878246803207965,9.77008865706278,-0.18630400208385095,184,1970-01-06 20:10:48.527404532,-0.63194275,0.43470764,0.22106934,8.605642966926938,0.7982443389338679,-93.13300323486328,27.16298484802246,113.26783752441406,20645157.0,50354.0,0.25617196331297337,-0.014427732366060791,-0.02064656915145023,0.012867161484643185,0.0006975530783144514,-0.0011144329438027014,20.64515792398015
1636,A,504648577758536.0,5.341059580320795,8.27716825706278,0.9223385679161491,184,1970-01-06 20:10:48.577758536,-0.6691742,0.4546051,0.3975067,9.896865445510901,0.9013720005838544,-93.0044937133789,26.99146842956543,113.3204574584961,20695511.0,50354.0,0.26256801903017335,-0.03909341267306081,0.018531142263959775,0.013060316535453404,-0.0013475018686499645,-5.326010274634722e-05,20.695511928002816
1636,A,504648628112539.0,5.402140480320796,5.41384125706278,0.3249722379161491,184,1970-01-06 20:10:48.628112539,-0.20350647,0.12712097,0.013687134,12.60168891202343,0.24033718393693423,-93.0179214477539,26.991817474365234,113.31329345703125,20745865.0,50354.0,0.27048154792677337,-0.14877065346286084,0.031403544158439774,0.013420588947275049,-0.0047298535931041,0.0012572056000567536,20.745865930977743
1636,A,504648678466543.0,5.615778780320796,5.359535257062781,-2.119516262083851,184,1970-01-06 20:10:48.678466543,0.15974426,0.119400024,-0.1963501,12.842881649564774,0.2798713206174548,-93.0126953125,26.981687545776367,113.30717468261719,20796219.0,50354.0,0.27739815322517336,-0.22222789950386082,-0.04518123489647023,0.013793967235902564,-0.009340630568043152,-0.00034688091971139286,20.79621993500041
1636,A,504648728820547.0,1.2533062803207962,7.142601257062781,-4.175287162083851,184,1970-01-06 20:10:48.728820547,0.45332336,0.30126953,-0.4637909,13.571080103699456,0.7150995716338533,-92.9970703125,26.957744598388672,113.29167175292969,20846573.0,50354.0,0.1729429545717734,-0.17870290898386076,-0.15848426581027023,0.01133823807100373,-0.010094234965295367,-0.005127686311293605,20.846573939023074
1636,A,504648779174551.0,-3.214726719679204,9.30069825706278,-2.890817662083851,184,1970-01-06 20:10:48.779174551,0.6717987,-0.7942505,-0.27082825,14.816874646026738,1.0749396685721493,-92.94295501708984,26.9462833404541,113.33695220947266,20896927.0,50354.0,-0.049382682401726635,-0.07947624813286078,-0.17790332115807025,0.0031108769724252673,-0.006500176638727699,-0.008469230277101909,20.89692794298753
1636,A,504648829528555.0,2.6938579803207956,8.62860925706278,-1.5533999620838508,184,1970-01-06 20:10:48.829528555,-0.0069885254,-0.19908142,0.20672607,10.920154728393577,0.28708521260094144,-93.15209197998047,27.1121883392334,113.25045013427734,20947281.0,50354.0,-0.013113912250826648,-0.042063024716860783,-0.11189206712367022,-0.0015734767635673342,-0.00305999427253744,-0.0072961784907693795,20.947281947010197
1636,A,504648879882559.0,6.267054380320796,8.83849425706278,-0.0671481220838509,184,1970-01-06 20:10:48.879882559,0.8747406,-1.0188446,0.40467834,9.079770311491622,1.4024906399340695,-93.08287048339844,27.13516616821289,113.3063735961914,20997635.0,50354.0,0.22560889050387337,-0.053699934824860775,-0.040800539115090226,0.005349986067476957,-0.002411024032381924,-0.0038443417472732726,20.997635950974654
1636,A,504648930236563.0,6.412485980320795,12.76361895706278,-0.2377108620838509,184,1970-01-06 20:10:48.930236563,1.1117096,-0.2815857,0.14041138,5.348376486397552,1.1553804987146676,-93.12133026123047,27.076595306396484,113.27566528320312,21047989.0,50354.0,0.3192327876598734,0.05040720439203922,-0.007675434644390229,0.013717478931128652,-8.290107410714834e-05,-0.0012204795913424394,21.04798995499732
1636,A,504648980590567.0,6.163294680320796,12.99010525706278,0.6474972579161491,184,1970-01-06 20:10:48.980590567,0.6274872,0.06544495,0.23248291,5.230548651208808,0.6723626484914302,-92.92615509033203,27.11652946472168,113.34680938720703,21098343.0,50354.0,0.3166204296929734,0.1549323145390392,0.010317192087869772,0.016008876453292624,0.005169833068127762,6.651152715448445e-05,21.098343959019985
1636,A,504649030944571.0,5.267802080320796,11.23297925706278,2.177923337916149,184,1970-01-06 20:10:49.030944571,0.36723328,0.23376465,0.045455933,7.42084689913095,0.4376898849346206,-92.91382598876953,27.118202209472656,113.33356475830078,21148697.0,50354.0,0.28780072314267335,0.1163953988121392,0.07113561434126978,0.015217511364943077,0.006831217839042619,0.0020507373074664464,21.148697962984443
1636,A,504649081298575.0,3.8798015803207964,7.34218625706278,3.614080537916149,184,1970-01-06 20:10:49.081298575,0.42997742,0.08773804,-0.15863037,11.75828128931764,0.4666284814059627,-92.89437103271484,27.110055923461914,113.32910919189453,21199051.0,50354.0,0.23030921736397342,-0.02580225785086081,0.14582528158182978,0.013044453972135845,0.002280863509982106,0.0054624244766558775,21.199051967007108
1636,A,504649131652579.0,2.9880779803207957,5.0764392570627805,2.868444537916149,184,1970-01-06 20:10:49.131652579,0.31877136,-0.010482788,-0.054870605,13.95767989196296,0.32362918918658834,-92.8780746459961,27.107336044311523,113.32984161376953,21249405.0,50354.0,0.17291260369827338,-0.18080546543086082,0.16321053383422976,0.010151915788884188,-0.005201762649063906,0.007780594724730131,21.249405970971566
1636,A,504649182006582.0,1.288843980320796,5.87435225706278,1.6588955379161492,184,1970-01-06 20:10:49.182006582,-0.024917603,-0.50149536,0.24093628,13.889086600643541,0.5569279792406138,-92.64790344238281,27.246692657470703,113.45730590820312,21299759.0,50354.0,0.10768006420307337,-0.2177611220488608,0.11398484108922978,0.007064481599752207,-0.010034710972976951,0.006978947954447941,21.2997599740047
1636,A,504649232360586.0,4.075068280320796,9.74623925706278,-1.801385762083851,184,1970-01-06 20:10:49.232360586,-0.3127594,-0.5339203,0.5972748,9.326796673523607,0.8600154159987424,-92.65050506591797,27.27775764465332,113.48575592041016,21350113.0,50354.0,0.13504721898617336,-0.10018956744886084,-0.003587476373870227,0.006111144808855665,-0.008005044509484138,0.0027794744514386075,21.350113978027366
1636,A,504649282711140.0,6.867029980320796,9.86687525706278,-2.1637362620838507,184,1970-01-06 20:10:49.282711140,0.002105713,0.61416626,0.09902954,8.318694600232915,0.6221024664331734,-92.66632843017578,27.28127670288086,113.45098114013672,21400464.0,50351.0,0.2754727947607824,0.0003301644503679848,-0.09982392951943397,0.010335046606086485,-0.002514010400188557,-0.0026034338490668802,21.40046453202376
1636,A,504649333065144.0,3.424921880320796,9.76929525706278,-0.034845262083850914,184,1970-01-06 20:10:49.333065144,-0.7737274,0.8274231,-0.09150696,9.404953846341785,1.1365107125112424,-92.73135375976562,27.431406021118164,113.40229034423828,21450818.0,50354.0,0.2591204719953734,0.0009106650341391835,-0.05535368703397023,0.013459454677119736,3.1240363931436974e-05,-0.0039069068519650575,21.45081853598822
1636,A,504649383419148.0,4.748072480320796,11.68637895706278,0.6971493579161491,184,1970-01-06 20:10:49.383419148,-1.4372253,-0.51127625,-0.47018433,7.075915105897295,1.5962748105986329,-92.64794921875,27.55642318725586,113.49755859375,21501172.0,50354.0,0.20577147901787338,0.046720309689039195,0.01667483022076977,0.011704584650660514,0.0011992050506054622,-0.0009738175779859481,21.501172540010884
1636,A,504649433773152.0,6.2254436803207955,10.040962657062781,0.17964753791614907,184,1970-01-06 20:10:49.433773152,-1.4007416,-0.020614624,-0.48695374,7.929298588865509,1.4831135956470796,-92.71684265136719,27.532146453857422,113.50000762939453,21551526.0,50354.0,0.2762802163764733,0.05356007981883924,0.02207511544636977,0.012136615534943466,0.0025247593666398553,0.0009756073820615722,21.551526543975342
1636,A,504649484127156.0,5.285609080320796,10.313209957062782,-0.569909962083851,184,1970-01-06 20:10:49.484127156,-0.7772217,0.17442322,-0.032928467,8.06575184927589,0.7972335382841269,-92.87679290771484,27.454896926879883,113.43648529052734,21601880.0,50354.0,0.2898137753546734,0.018987803905839266,-0.009825637053270234,0.014252548429815081,0.0018265380685362309,0.00030840511750306705,21.601880547998007
1636,A,504649534481160.0,5.676279880320796,9.44275725706278,0.47070893291614907,184,1970-01-06 20:10:49.534481160,-0.7434845,0.055023193,0.32714844,8.671080525893105,0.8141393340839139,-92.81898498535156,27.283374786376953,113.47703552246094,21652234.0,50354.0,0.2759874783620734,0.003926786550039234,-0.0024975843113552326,0.014245178164826533,0.0005769206439076531,-0.00031026174429717537,21.652234552020673
1636,A,504649584835164.0,6.129343880320796,5.911034257062781,1.9434720379161492,184,1970-01-06 20:10:49.584835164,-0.2571106,-0.07217407,0.16087341,12.053533264449168,0.3117614649980863,-92.8301773071289,27.291580200195312,113.48064422607422,21702588.0,50354.0,0.29723018942167334,-0.10690679104886079,0.06078183430264477,0.014431901221791391,-0.0025927275732668302,0.0014674225620306968,21.70258855598513
1636,A,504649635189168.0,5.342554880320796,3.66350625706278,-1.1815279620838508,184,1970-01-06 20:10:49.635189168,-0.079559326,0.2587738,-0.15493774,14.39700749297259,0.3119283077829293,-92.84062194824219,27.283206939697266,113.46653747558594,21752942.0,50354.0,0.2888279950966734,-0.2524109934758608,0.019183465997229778,0.014755186911618418,-0.009046543860978917,0.0020132863656499417,21.752942560007796
1636,A,504649685543172.0,3.2977245803207964,6.96764425706278,-4.372491662083851,184,1970-01-06 20:10:49.685543172,0.13322449,0.3252411,-0.35491943,12.795787167162624,0.4994980877405788,-92.84188079833984,27.26467514038086,113.44925689697266,21803296.0,50354.0,0.21753631598057338,-0.22580872350586084,-0.13983355207767023,0.012748734259991843,-0.012040137814448806,-0.003037607217247249,21.803296563972253
1636,A,504649735897175.0,-1.1506857196792044,10.71389055706278,-3.247262862083851,184,1970-01-06 20:10:49.735897175,0.618103,-0.5064087,-0.55859375,12.486879095614675,0.9749502898013582,-92.7972412109375,27.238025665283203,113.479248046875,21853650.0,50354.0,0.05405599739437336,-0.04830119798476084,-0.19184255965497024,0.006837879673841034,-0.006901265493369383,-0.008350609465092688,21.85365056700539
1636,A,504649786251179.0,0.22751928032079682,8.56827625706278,-1.3089083620838509,184,1970-01-06 20:10:49.786251179,0.23828125,-0.9370117,-0.11206055,12.441644711979853,0.9733069643769919,-92.76109313964844,27.23470115661621,113.53218078613281,21904004.0,50354.0,-0.02324256144372663,-0.008002086120760813,-0.11471072291087024,0.0007757898769294329,-0.0014175477839247189,-0.007718091995160166,21.904004571028054
1636,A,504649836605183.0,5.185953980320797,7.543038257062781,-0.523263862083851,184,1970-01-06 20:10:49.836605183,0.24142456,-0.7294922,0.3713379,10.661792829560406,0.853426343633968,-92.79071044921875,27.04568099975586,113.54475402832031,21954358.0,50354.0,0.1362950162831734,-0.08783463447786077,-0.04612860008787023,0.0028463216554927514,-0.0024128811145114957,-0.004049451635139289,21.95435857499251
1636,A,504649886959187.0,6.060358880320797,11.69567155706278,-0.5428256120838508,184,1970-01-06 20:10:49.886959187,1.0093689,-0.3948822,0.20755005,6.4967063256467386,1.1035554138415762,-92.8822250366211,26.965106964111328,113.49736022949219,22004712.0,50354.0,0.2831484188923734,-0.00909620300976077,-0.02684093469112023,0.010560327367414744,-0.0024404276954258478,-0.001837153977130643,22.004712579015177
1636,A,504649937313191.0,6.468699280320796,13.10114325706278,0.23724945791614907,184,1970-01-06 20:10:49.937313191,0.91900635,-0.19299316,0.2451477,4.986963453835611,0.9705237894881289,-92.79803466796875,26.94400978088379,113.52272033691406,22055066.0,50354.0,0.3154440973104734,0.13084020657523923,-0.007693490833480228,0.015070763780439075,0.0030651487777680515,-0.0008694732314328659,22.055066582979634
1636,A,504649987667195.0,6.089960880320795,12.04705095706278,1.0320187379161492,184,1970-01-06 20:10:49.987667195,0.37594604,0.03164673,0.31240845,6.137789185266451,0.4898326042055357,-92.53361511230469,26.90381622314453,113.6318359375,22105420.0,50354.0,0.31618938686447334,0.1396868857290392,0.03195636536646977,0.015902636231072634,0.006811060602944818,0.0006108663921170778,22.1054205870023
1636,A,504650038021199.0,4.059855280320796,9.13974825706278,1.788015437916149,184,1970-01-06 20:10:50.038021199,0.33590698,-0.023986816,0.027648926,9.71559796483182,0.3378954419099076,-92.5162582397461,26.90525245666504,113.63312530517578,22155774.0,50354.0,0.25554192147647337,0.039950843814039204,0.07100000044492978,0.014394479150100017,0.004522739116706085,0.002592132422033607,22.155774591024965
1636,A,504650088375203.0,3.8159435803207957,5.8101272570627795,3.032201837916149,184,1970-01-06 20:10:50.088375203,0.35720825,0.009292603,0.010559082,13.007141850755312,0.35748507738262425,-92.4986343383789,26.905757904052734,113.632568359375,22206128.0,50354.0,0.19828898791437335,-0.11707618418086081,0.12135861035362977,0.011426100805733348,-0.0019417846944154678,0.004843012744075334,22.206128594989423
1636,A,504650138729207.0,0.8579510803207961,4.51783025706278,0.7566891579161491,184,1970-01-06 20:10:50.138729207,0.14596558,-0.3498993,0.06378174,15.215960030901288,0.3844523130931248,-92.38027954101562,27.00570297241211,113.69837951660156,22256482.0,50354.0,0.11767464587097337,-0.23344221366686083,0.09539290860206978,0.007955016407813676,-0.008825001702612089,0.005457152992747648,22.256482599012088
1636,A,504650189083211.0,1.9045362803207961,8.02591725706278,-1.031396762083851,184,1970-01-06 20:10:50.189083211,-0.017807007,-0.74160767,0.3865509,11.776395977827182,0.8364930507732488,-92.49824523925781,27.223384857177734,113.67731475830078,22306836.0,50354.0,0.06955114427887338,-0.17765526883686084,-0.006916313350130228,0.004713783718602692,-0.010350201316996202,0.0022275752386580823,22.306836602976546
1636,A,504650239437214.0,6.501917680320796,9.74068495706278,-3.1565036620838507,184,1970-01-06 20:10:50.239437214,0.08656311,-0.06278992,0.18754578,8.86444072771112,0.21589155996075182,-92.49250793457031,27.232894897460938,113.68038940429688,22357190.0,50354.0,0.21164929136707336,-0.04615945605496084,-0.10543876897927024,0.007079783368258002,-0.005634983328601395,-0.0028287639078073156,22.35719060600968
1636,A,504650289791218.0,3.7403822803207962,8.08242125706278,-2.318933362083851,184,1970-01-06 20:10:50.289791218,-0.2052002,1.1087646,-0.15441895,11.024598146012684,1.138117424702874,-92.5311050415039,27.222755432128906,113.61848449707031,22407544.0,50354.0,0.25787038610907337,-0.044736854846960834,-0.13785507795747023,0.011821096919816948,-0.002288496419577682,-0.0061254091843263156,22.40754460997414
1636,A,504650340145222.0,2.5904492803207964,10.723915557062782,0.43788727791614906,184,1970-01-06 20:10:50.340145222,-0.6694031,0.6875458,-0.37182617,9.145740847679445,1.0291134233329768,-92.58179473876953,27.20265007019043,113.58080291748047,22457898.0,50354.0,0.15939134620227338,-0.019982058030760773,-0.04735909726109023,0.010505398634402778,-0.001629428069522397,-0.0046631372894776965,22.457898613996804
1636,A,504650390499226.0,5.036143280320796,11.44849425706278,0.010397037916149099,184,1970-01-06 20:10:50.390499226,-1.1016235,0.20695496,-0.61260986,7.127002961816018,1.2773783823871732,-92.65762329101562,27.247173309326172,113.5633316040039,22508252.0,50354.0,0.19201472089927338,0.06476556189023923,0.01128645421970977,0.008847350551415643,0.0011275142766700892,-0.0009082009338528358,22.50825261801947
1636,A,504650440853230.0,5.337931480320796,10.66329225706278,-0.5383242620838509,184,1970-01-06 20:10:50.440853230,-0.8572998,0.015640259,-0.33714294,7.724960047864144,0.9213430016956067,-92.82029724121094,27.18044662475586,113.5085678100586,22558606.0,50354.0,0.26118808024867335,0.0632392490661392,-0.013291623722870228,0.011410286924501856,0.0032227771254487404,-5.048415258107083e-05,22.558606621983927
1636,A,504650491207234.0,4.985087280320796,10.07729385706278,-0.03646270208385094,184,1970-01-06 20:10:50.491207234,-0.68496704,0.06814575,0.07826233,8.36294958859591,0.6927832860472696,-92.86119842529297,27.149507522583008,113.50232696533203,22608960.0,50354.0,0.25990264333667334,0.028716536595339213,-0.01447141139685023,0.013119501147708275,0.002315170815599042,-0.000698989935209202,22.608960626006592
1636,A,504650541561238.0,6.128153680320796,8.16057625706278,0.9440976079161492,184,1970-01-06 20:10:50.541561238,-0.64863586,0.14279175,0.2181549,9.778099500922362,0.6990776231149243,-92.89755249023438,27.1600399017334,113.49369812011719,22659314.0,50354.0,0.2797980676660734,-0.03429434413666078,0.022851524024139775,0.013588044800916155,-0.00014043246046785304,0.0002109860956172689,22.659314630029257
1636,A,504650591915242.0,6.183375280320796,5.48416925706278,1.7739773379161492,184,1970-01-06 20:10:50.591915242,-0.117507935,-0.06764221,-0.051986694,12.436687393555088,0.1452108801526179,-92.90164184570312,27.157617568969727,113.49763488769531,22709668.0,50354.0,0.30996736464207336,-0.1499354421908608,0.06843297291121977,0.01484852428922221,-0.004638353330368011,0.0022982697793415474,22.709668633993715
1636,A,504650642269246.0,6.454539280320796,5.412804257062781,-2.360391562083851,184,1970-01-06 20:10:50.642269246,0.18022156,0.28944397,-0.22270203,12.67075115531466,0.4072515397445606,-92.8997573852539,27.145761489868164,113.48202514648438,22760022.0,50354.0,0.3181847748932734,-0.2191160978348608,-0.014764150921870228,0.015814986417081428,-0.009291610623227593,0.0013512199312258537,22.76002263801638
1636,A,504650692623250.0,1.9618175803207958,7.85269975706278,-4.3131960620838505,184,1970-01-06 20:10:50.692623250,0.6534729,0.5453491,-0.6125488,12.69483500951753,1.048641265775222,-92.88025665283203,27.113800048828125,113.45317077636719,22810376.0,50354.0,0.21189861668037338,-0.15948360543636078,-0.16802091561367025,0.013345909549649707,-0.009532004729259547,-0.004601979620165303,22.810376641980838
1636,A,504650742977254.0,-2.8302047196792035,9.63637585706278,-2.629373462083851,184,1970-01-06 20:10:50.742977254,0.6956482,-0.33370972,-0.50845337,14.265179033795189,0.9240202513203243,-92.83628845214844,27.089244842529297,113.47331237792969,22860730.0,50354.0,-0.021863383007626632,-0.053146743263160795,-0.17479307290997023,0.004784517078178745,-0.005353394289207855,-0.008631027789059697,22.860730646003503
1636,A,504650793331257.0,4.200892280320796,6.34787825706278,-0.18325226208385087,184,1970-01-06 20:10:50.793331257,0.27268982,-1.1490479,0.19119263,12.09929653768617,1.1963383451985308,-92.79165649414062,26.960668563842773,113.53804016113281,22911084.0,50354.0,0.034509800714273384,-0.09103363416866081,-0.07081347785737023,0.0003183988586002453,-0.0036300293626009726,-0.0061836361286693306,22.91108464897843
1636,A,504650843685261.0,5.794947480320796,9.04488425706278,0.6309872579161491,184,1970-01-06 20:10:50.843685261,1.0336304,-0.5241699,0.41680908,9.011678844236993,1.2316150766536664,-92.60477447509766,26.768857955932617,113.62150573730469,22961438.0,50354.0,0.25166525765367337,-0.10592561818186083,0.011272623990069772,0.007205029444529796,-0.004958843096429084,-0.0014990600778170236,22.961438653001096
1636,A,504650894039265.0,6.086939680320796,12.10704825706278,-0.2109927320838509,184,1970-01-06 20:10:50.894039265,1.4204865,0.34074402,0.1806488,6.074322155038276,1.4719111293788938,-92.62699890136719,26.72605323791504,113.56392669677734,23011792.0,50354.0,0.2991502730434734,0.0390730049081392,0.010574202176879773,0.013867882616362064,-0.0016831482443924897,0.0005500375424052887,23.01179265702376
1636,A,504650944393269.0,6.8316448803207965,12.93756925706278,-0.2687319620838509,184,1970-01-06 20:10:50.944393269,0.7971039,0.22468567,0.17738342,5.03127182835456,0.8469493227988646,-92.72467041015625,26.590530395507812,113.49181365966797,23062146.0,50354.0,0.3252512034832734,0.13707913515313921,-0.012078028625060229,0.015720555974513904,0.0044349824303228065,-3.786183848583934e-05,23.06214666098822
1636,A,504650994747273.0,6.272196680320796,12.57509655706278,1.8129330379161492,184,1970-01-06 20:10:50.994747273,0.4793396,0.15887451,0.11361694,5.732450553784458,0.5176063862732604,-92.70479583740234,26.595827102661133,113.48262786865234,23112500.0,50354.0,0.3299154189722734,0.1488631872022392,0.03887835048622978,0.016495130053563303,0.007199169849941363,0.0006747517034986657,23.112500665010884
1636,A,504651045101277.0,2.655878880320796,7.5826342570627805,4.169347837916149,184,1970-01-06 20:10:51.045101277,0.6270294,-0.107910156,-0.03831482,12.26449840759322,0.6373997926450374,-92.67070007324219,26.594165802001953,113.48876190185547,23162854.0,50354.0,0.22478215839027335,0.014041988707239206,0.15061588561082978,0.013965620905256841,0.004101463613872938,0.004770896382215669,23.162854668975342
1636,A,504651095455281.0,4.112238780320796,5.470726257062781,4.703954737916149,184,1970-01-06 20:10:51.095455281,0.13851929,0.22161865,0.07321167,13.648181525324551,0.27140812138570114,-92.66940307617188,26.597307205200195,113.4761962890625,23213208.0,50354.0,0.1704008983419734,-0.16482474233586078,0.22340313895172978,0.009949523819347777,-0.0037962573881078054,0.009416676981411562,23.213208672998007
1636,A,504651145809285.0,-0.5566147196792048,4.06032625706278,0.8579159679161491,184,1970-01-06 20:10:51.145809285,-0.2950592,-0.40141296,0.22872925,16.363524119430252,0.5481873454998428,-92.56365203857422,26.79917335510254,113.54776763916016,23263562.0,50354.0,0.08951994697477335,-0.2535058908518608,0.1400312187607398,0.006544027122539734,-0.010532310351767266,0.009150186824126846,23.263562677020673
1636,A,504651196163289.0,3.6594799803207962,9.95531525706278,-0.48884002208385097,184,1970-01-06 20:10:51.196163289,-0.29571533,-0.84931946,0.49691772,9.151799316941565,1.027481543377641,-92.64622497558594,26.978105545043945,113.5539779663086,23313916.0,50354.0,0.07812083866717336,-0.1405973935988608,0.009292225088219771,0.004220692060107292,-0.00992233839261582,0.003759516345785255,23.31391668098513
1636,A,504651246517293.0,6.9276378803207965,9.87123925706278,-3.768518362083851,184,1970-01-06 20:10:51.246517293,-0.5245819,0.16105652,0.032989502,8.921666952361226,0.5497396471824899,-92.67658233642578,26.979379653930664,113.54486083984375,23364270.0,50354.0,0.2665518663773734,0.005703963002139181,-0.10718751203819024,0.008677824694906553,-0.0033962119021336604,-0.002464709639539407,23.364270685007796
1636,A,504651296871297.0,3.370768280320796,9.689751257062781,-2.0853518620838507,184,1970-01-06 20:10:51.296871297,-0.73095703,1.0487671,-0.18478394,9.802575847551624,1.2916484483909523,-92.73956298828125,26.967670440673828,113.486572265625,23414624.0,50354.0,0.25928297190647337,-0.0009821418258608061,-0.14738289063387025,0.013238943723472408,0.00011888129175516066,-0.006409319028074467,23.414624688972253
1636,A,504651347225300.0,3.5506542803207957,11.372658257062781,-0.1825350620838509,184,1970-01-06 20:10:51.347225300,-1.0356903,0.42448425,-0.2358551,8.047999324936935,1.143883256371979,-92.80184936523438,26.954862594604492,113.46343231201172,23464978.0,50354.0,0.17426065580927336,0.03681908433713925,-0.05709858908977023,0.010915327914999357,0.0009022667016064574,-0.005148230215002096,23.46497869200539
1636,A,504651397579304.0,5.933344680320796,10.367744857062782,0.5119534379161491,184,1970-01-06 20:10:51.397579304,-1.3171997,0.27799988,-0.40022278,7.714934422620488,1.4044490936274738,-92.76893615722656,26.772457122802734,113.49665069580078,23515332.0,50354.0,0.2387786418320734,0.05388892920433926,0.008293766448329772,0.010399090396716187,0.0022837556569338044,-0.0012287590196435466,23.515332696028054
1636,A,504651447933308.0,5.568095080320796,10.15873005706278,-0.3221072320838509,184,1970-01-06 20:10:51.447933308,-0.68196106,0.25691223,-0.12562561,8.070021196937729,0.7394975153222414,-92.8730697631836,26.653173446655273,113.45402526855469,23565686.0,50354.0,0.28957174885367337,0.023325858912939222,0.004779757924239772,0.013302277786295046,0.0019440367204287205,0.0003291521231281834,23.56568669999251
1636,A,504651498287312.0,4.966532580320796,9.49414825706278,-0.09160796208385091,184,1970-01-06 20:10:51.498287312,-0.64263916,0.34587097,0.30114746,8.90116795455814,0.789494528491932,-92.92212677001953,26.607563018798828,113.4303207397461,23616040.0,50354.0,0.2652303206119734,0.0013313173147392015,-0.01041610744356023,0.01396825170293659,0.0006207937258842597,-0.00014190637184793116,23.616040704015177
1636,A,504651548641316.0,5.7056072803207964,7.7209402570627805,0.9972439379161491,184,1970-01-06 20:10:51.548641316,-0.401062,0.12734985,0.33906555,10.317663381131124,0.5404018498634373,-92.94579315185547,26.62416648864746,113.4222412109375,23666394.0,50354.0,0.2686924652713734,-0.06004491647986078,0.022801196963529773,0.013442573980185024,-0.0014782322861802662,0.0003118193988442732,23.666394707979634
1636,A,504651598995320.0,5.550043880320796,4.40700575706278,1.034673777916149,184,1970-01-06 20:10:51.598995320,-0.08055115,-0.23529053,-0.028961182,13.559965672271076,0.2503774577250127,-92.94390106201172,26.623323440551758,113.43547058105469,23716748.0,50354.0,0.2833835292714734,-0.1881239032023608,0.05115759233150978,0.013899617314605256,-0.006248146373139293,0.0018620604380812106,23.7167487120023
1636,A,504651649349324.0,4.946711380320796,4.49637625706278,-5.616311962083851,184,1970-01-06 20:10:51.649349324,-0.088394165,0.6510773,-0.17437744,14.86082713474167,0.6797960507110135,-92.96440124511719,26.612939834594727,113.39961242675781,23767102.0,50354.0,0.2642768071971734,-0.26930875103036084,-0.11535190456279025,0.01378844429127112,-0.011516781935617233,-0.0016162201990469484,23.767102716024965
1636,A,504651699703328.0,-0.3327987196792037,9.53516425706278,-2.926156962083851,184,1970-01-06 20:10:51.699703328,0.8923645,-0.46421814,-0.42097473,12.490165065830102,1.090427716845038,-92.90763092041016,26.593111038208008,113.42674255371094,23817456.0,50354.0,0.11616447905697337,-0.14019710447586084,-0.21507374010377026,0.009578370264020654,-0.010310128924080142,-0.008319126455769994,23.817456719989423
1636,A,504651750057332.0,-2.3015797196792036,11.19614455706278,-2.703302262083851,184,1970-01-06 20:10:51.750057332,0.45747375,-0.69714355,-0.74305725,13.027379544717075,1.1168820161607167,-92.86639404296875,26.557756423950195,113.46775817871094,23867810.0,50354.0,-0.06632574596772663,0.028482962013239195,-0.14173289488687024,0.0012547897829879653,-0.0028126269647814257,-0.008983320649159356,23.867810724012088
1636,A,504651800411336.0,5.354609280320796,2.8661272570627805,1.873449437916149,184,1970-01-06 20:10:51.800411336,-0.18534851,-0.6088867,0.31030273,15.164795096325106,0.7080853535002423,-92.86084747314453,26.574779510498047,113.50088500976562,23918164.0,50354.0,0.07686612524827337,-0.1394233825357608,-0.020893204554070233,0.0002653751291463253,-0.002793146967495527,-0.004094437305624559,23.918164727976546
1636,A,504651850765339.0,5.708979480320796,11.784294557062779,-0.5451754620838509,184,1970-01-06 20:10:51.850765339,1.2805023,-0.7078552,0.09864807,6.564941430041305,1.466450328578181,-92.92879486083984,26.57923698425293,113.47322082519531,23968518.0,50354.0,0.2785479742266734,-0.12461552998576084,0.03344195388952977,0.008948260782480734,-0.006647707700554352,0.00031593986201886487,23.96851873100968
1636,A,504651901119343.0,5.193613880320796,13.16420795706278,-0.11716643208385091,184,1970-01-06 20:10:51.901119343,1.2267761,0.123565674,0.20550537,5.625025517561902,1.2499922129441932,-92.87081146240234,26.58919334411621,113.46574401855469,24018872.0,50354.0,0.27449459304087337,0.13465924779813918,-0.01667578186946023,0.013923952716095025,0.0002528706833622495,0.0004221219129492909,24.01887273497414
1636,A,504651951473347.0,6.647852780320796,12.51120825706278,0.13165863791614907,184,1970-01-06 20:10:51.951473347,0.6717224,-0.15913391,0.47857666,5.46064521133975,0.8399822637832324,-92.82576751708984,26.4793758392334,113.47687530517578,24069226.0,50354.0,0.2981326061149734,0.1529607540230392,0.0003648702662397707,0.014417034993146753,0.007241408785851809,-0.00041065982143428156,24.069226738996804
1636,A,504652001827351.0,5.521906680320797,10.970680657062779,1.8680783379161492,184,1970-01-06 20:10:52.001827351,0.18867493,-0.19128418,0.008575439,7.470200040676295,0.26881481522196654,-92.81159973144531,26.48027229309082,113.48751831054688,24119580.0,50354.0,0.3063980339405734,0.09773431719093917,0.050347377840529776,0.015220267924678503,0.006311749807954334,0.0012767822705841369,24.11958074301947
1636,A,504652052181355.0,0.4753672803207962,5.71564525706278,4.442785337916149,184,1970-01-06 20:10:52.052181355,0.73747253,-1.1280975,-0.07345581,14.974512442762068,1.34976496399692,-92.74656677246094,26.47933578491211,113.55065155029297,24169934.0,50354.0,0.1509933665070734,-0.07335757246006083,0.15888861476642976,0.011515743289070405,0.0006137333020893239,0.005267934585865421,24.169934746983927
1636,A,504652102535359.0,6.522456080320795,7.627876757062781,5.0707303379161495,184,1970-01-06 20:10:52.102535359,0.16415405,-0.30122375,-0.11512756,11.22468236999912,0.3618517027278145,-92.73072814941406,26.47430419921875,113.5677719116211,24220288.0,50354.0,0.17618419875087335,-0.1575193462503608,0.2395217841704298,0.008237349560499325,-0.005812788182372286,0.010030778614033314,24.220288751006592
1636,A,504652152889363.0,-4.172429219679204,6.663902757062781,-2.8067263620838507,184,1970-01-06 20:10:52.152889363,-0.10801697,-1.2312164,-0.0872345,17.12587588685516,1.23902031760064,-92.70540618896484,26.472869873046875,113.6366958618164,24270642.0,50354.0,0.059166626270373356,-0.1336450671728608,0.05700082809952979,0.005925427721559929,-0.00733064643675645,0.007465549809120772,24.270642755029257
1636,A,504652203243367.0,8.708124984320795,11.91326185706278,-0.1796206620838509,184,1970-01-06 20:10:52.203243367,0.5812683,-0.570343,-0.21594238,5.709480820374566,0.8424933742848987,-92.66190338134766,26.46341896057129,113.66908264160156,24320996.0,50354.0,0.11419521226638135,-0.02575192651016079,-0.07518725902747023,0.0043647310088398734,-0.004013138109957434,-0.0004578797714727564,24.320996758993715
1636,A,504652253597371.0,3.596934280320796,2.86832475706278,-2.716638462083851,184,1970-01-06 20:10:52.253597371,-1.0545502,2.2089386,-1.0298004,15.863629749780031,2.6555554459905673,-92.76825714111328,26.40675163269043,113.54859161376953,24371350.0,50354.0,0.3098044771058814,-0.12131319381616082,-0.07291911596917022,0.01067504017932546,-0.0037026585344557992,-0.0037288742032904167,24.37135076301638
1636,A,504652303951375.0,2.815012780320796,10.13121825706278,1.3399258379161492,184,1970-01-06 20:10:52.303951375,-0.2957306,0.27301025,-0.14012146,9.509961455769076,0.4261750907009396,-92.7896499633789,26.39909553527832,113.53375244140625,24421704.0,50354.0,0.16143359114577335,-0.1661797055333608,-0.03466149373867023,0.011864360844371912,-0.007238208726922906,-0.0027085570106142993,24.421704766980838
1636,A,504652354305379.0,4.867167280320796,11.00827825706278,0.636953437916149,184,1970-01-06 20:10:52.354305379,-1.6062775,0.37576294,-0.43327332,7.589322305729531,1.7055940208348281,-92.75265502929688,26.460561752319336,113.57006072998047,24472058.0,50354.0,0.19341424738677337,0.03875990373613922,0.04977188952762977,0.00893400403073393,-0.003208048349848648,0.0003804344347786344,24.472058771003503
1636,A,504652404659382.0,5.4829204803207965,11.74457595706278,-0.0511874320838509,184,1970-01-06 20:10:52.404659382,-1.0076599,-0.0124053955,-0.33145142,6.654435354299308,1.0608451403129193,-92.83329772949219,26.48680305480957,113.55784606933594,24522412.0,50354.0,0.2605841595496734,0.07937941054903921,0.01474783072883977,0.011430317891438922,0.0029743935157579377,0.0016244129968971338,24.52241277397843
1636,A,504652455013386.0,6.431147480320796,11.21208995706278,-0.18035306208385088,184,1970-01-06 20:10:52.455013386,-0.8204193,-0.05517578,0.17024231,6.772164881277528,0.8397110447202862,-92.92577362060547,26.30650520324707,113.53712463378906,24572766.0,50354.0,0.2999604890450734,0.0845107777199392,-0.005829495021660228,0.01411283261766994,0.00412626327004807,0.00022453693809965935,24.572766778001096
1636,A,504652505367390.0,6.555933780320796,7.43123625706278,2.536855737916149,184,1970-01-06 20:10:52.505367390,-0.8693695,0.071624756,0.46829224,10.599799718065064,0.9900661873059433,-92.97161102294922,26.3297061920166,113.53178405761719,24623120.0,50354.0,0.32697574489917336,-0.024086175906960813,0.05932966786942978,0.015784373562014304,0.001521310199845357,0.0013469738517882942,24.62312078202376
1636,A,504652555721394.0,5.3411815803207965,3.87845625706278,1.116293037916149,184,1970-01-06 20:10:52.555721394,-0.16955566,0.014389038,0.15582275,14.125843363794306,0.2307312195394536,-92.98063659667969,26.337451934814453,113.53053283691406,24673474.0,50354.0,0.2995336734348734,-0.20872507157186082,0.09197532672912978,0.015773627625396296,-0.005861488777774293,0.0038094058490079344,24.67347478598822
1636,A,504652606075398.0,6.260493180320796,6.032082257062781,0.20357330791614908,184,1970-01-06 20:10:52.606075398,0.20129395,-0.2374115,-0.13009644,11.80464875268335,0.33735524056923455,-92.96453857421875,26.331571578979492,113.54413604736328,24723828.0,50354.0,0.2920953654486734,-0.2439515718298608,0.03323027498901977,0.014895444311971059,-0.011397039850925146,0.0031523014344578514,24.723828790010884
1636,A,504652656429402.0,4.004893280320796,6.64417325706278,-3.0556124620838507,184,1970-01-06 20:10:52.656429402,0.4750824,-0.016311646,-0.30815125,12.367402989595481,0.5665037947459415,-92.93997955322266,26.31622314453125,113.5459213256836,24774182.0,50354.0,0.25845163491957335,-0.1743191149208608,-0.07180578978448023,0.01386112182827135,-0.010530801080322918,-0.0009712157360053079,24.774182793975342
1636,A,504652706783406.0,-0.5416007196792041,8.23021725706278,-2.691751362083851,184,1970-01-06 20:10:52.706783406,0.8019562,-0.2068634,0.28463745,13.455317714270686,0.8757537844168888,-92.89513397216797,26.330963134765625,113.55664825439453,24824536.0,50354.0,0.08719531679927336,-0.11897667002586082,-0.14470137900107022,0.008702353303425404,-0.00738430797760361,-0.005451000988513804,24.824536797998007
1636,A,504652757137410.0,1.0268962803207957,5.05374925706278,-0.409997862083851,184,1970-01-06 20:10:52.757137410,-0.19285583,0.48580933,-0.17797852,14.684411209153769,0.5521597865305189,-92.93124389648438,26.44133186340332,113.52352142333984,24874890.0,50354.0,0.012218286330273354,-0.15901877507386084,-0.07809274021687024,0.002502936285992598,-0.006999091321275692,-0.005609287539550087,24.874890802020673
1636,A,504652807491414.0,6.719096080320796,7.29192425706278,0.3588772676061491,184,1970-01-06 20:10:52.807491414,1.335846,-0.565979,0.37771606,10.479322194531573,1.4991618278688008,-92.85087585449219,26.461626052856445,113.55403137207031,24925244.0,50354.0,0.19502084966387337,-0.18264217793486084,-0.0012870632071651008,0.005217659726924633,-0.008601997813900586,-0.001998545310806938,24.92524480598513
1636,A,504652857845418.0,5.922312580320796,13.93433425706278,0.42152985791614905,184,1970-01-06 20:10:52.857845418,1.3794861,-0.82559204,0.33840942,4.551445095870866,1.6428953259868104,-92.76178741455078,26.480548858642578,113.59915924072266,24975598.0,50354.0,0.31827274584897336,0.04094431061013918,0.0196483101992749,0.012923192854226943,-0.0035675272056345177,0.0004622811155203485,24.975598810007796
1636,A,504652908199422.0,6.214808280320796,13.241844657062781,0.002248837916149049,184,1970-01-06 20:10:52.908199422,0.90708923,0.2715454,0.29170227,4.989577562118261,0.9907764580198228,-92.77054595947266,26.554527282714844,113.562255859375,25025952.0,50354.0,0.3055762919083734,0.19074545652093922,0.01066947622496977,0.01570664722361672,0.005833253267059161,0.0007633109088032082,25.025952813972253
1636,A,504652958553425.0,5.845835580320796,12.153831957062781,1.600805337916149,184,1970-01-06 20:10:52.958553425,0.57507324,0.27430725,0.14201355,6.235755379846084,0.6527798611708717,-92.74880981445312,26.56096076965332,113.54655456542969,25076306.0,50354.0,0.30365083047937336,0.14591775011383926,0.040360094984929776,0.015338511260356302,0.008476169553443817,0.001284771514351641,25.07630681700539
1636,A,504653008907429.0,4.139368880320796,8.13027225706278,3.623052637916149,184,1970-01-06 20:10:53.008907429,0.4539032,-0.07858276,-0.11689758,10.971710651267161,0.4752561513008685,-92.72401428222656,26.555309295654297,113.55125427246094,25126660.0,50354.0,0.2513974927055734,0.017223691799039213,0.1315210722575298,0.013974451632827406,0.004107412083040541,0.004327452147663405,25.126660821028054
1636,A,504653059261433.0,3.805384280320796,4.08178025706278,4.6879023379161495,184,1970-01-06 20:10:53.059261433,0.27526855,0.08364868,0.0060577393,14.98700739226144,0.28776131166345426,-92.71234893798828,26.555418014526367,113.54656982421875,25177014.0,50354.0,0.20002505032547338,-0.18600635385186082,0.20924491342652982,0.011365465365892665,-0.00424944108250389,0.008579465221567568,25.17701482499251
1636,A,504653109615437.0,3.187495280320796,6.48066025706278,5.060781337916149,184,1970-01-06 20:10:53.109615437,0.061691284,-0.286438,-0.008773804,13.237362369958639,0.2931373773543713,-92.70211029052734,26.555652618408203,113.56258392333984,25227368.0,50354.0,0.17605972869827338,-0.22753863517586081,0.2454426089064298,0.009468686481480873,-0.010411822188750948,0.011447667749776924,25.227368829015177
1636,A,504653159969441.0,-3.125996719679204,4.93700425706278,-1.271615862083851,184,1970-01-06 20:10:53.159969441,-0.26582336,-0.34901428,0.694397,17.349012075933317,0.8213770266903063,-92.70750427246094,26.591157913208008,113.58025360107422,25277722.0,50354.0,0.0015483492612733641,-0.20600666052786082,0.09539981918502977,0.004471638578787508,-0.010915369909932601,0.008581389812058679,25.277722832979634
1636,A,504653210323445.0,8.379404890320796,11.74814655706278,-3.054315462083851,184,1970-01-06 20:10:53.210323445,0.17131042,0.25265503,0.06349182,6.7761068250363445,0.3117900501808704,-92.705322265625,26.593727111816406,113.56595611572266,25328076.0,50354.0,0.13226505751224338,-0.07338715795276081,-0.10891397294857025,0.0033690201423368315,-0.0070342981678866105,-0.00034024584930465875,25.3280768370023
1636,A,504653260677449.0,4.837855280320796,9.53037325706278,-1.0346774620838508,184,1970-01-06 20:10:53.260677449,-1.1232147,1.690979,-0.3945923,9.01899047950591,2.068024256133467,-92.98274993896484,26.529827117919922,113.39236450195312,25378430.0,50354.0,0.33277095931624334,0.04226009336023921,-0.10294857485177022,0.011708211795690811,-0.0007836861052459163,-0.0053340633659691725,25.378430841024965
1636,A,504653311031453.0,2.501566780320796,11.83922625706278,-1.213937662083851,184,1970-01-06 20:10:53.311031453,-0.55259705,-0.02923584,-0.20617676,8.550226384269733,0.5905311933956628,-93.0093765258789,26.51960563659668,113.39459228515625,25428784.0,50354.0,0.18478462922077338,0.044553206967139214,-0.05661338298117023,0.013030497052596469,0.002185698462342407,-0.004017291412359942,25.428784844989423
1636,A,504653361385457.0,5.280085480320796,10.62493175706278,1.2521267779161491,184,1970-01-06 20:10:53.361385457,-1.6842499,-0.12236023,-0.54200745,7.783599381043968,1.773539350392645,-92.83122253417969,26.475099563598633,113.51842498779297,25479138.0,50354.0,0.1959186589661734,0.0721109063216392,0.0009614873693097725,0.00958496668668276,0.0029372523802715742,-0.001401147775819811,25.479138849012088
1636,A,504653411739461.0,6.221690080320796,10.35814725706278,-0.866006762083851,184,1970-01-06 20:10:53.411739461,-1.0326233,0.16847229,-0.04548645,7.724491936433842,1.047264440976746,-92.88697814941406,26.472408294677734,113.50914764404297,25529492.0,50354.0,0.2895802032902734,0.03482178033863922,0.009721343638609771,0.012223404855030562,0.00269224425204583,0.00026896163628639035,25.529492852976546
1636,A,504653462093464.0,5.500178280320796,9.07306725706278,0.10735138791614907,184,1970-01-06 20:10:53.462093464,-0.8088379,0.21437073,0.33354187,9.081475420297311,0.9007906179574917,-92.90180969238281,26.330154418945312,113.51025390625,25579846.0,50354.0,0.2951214797158734,-0.004249512177860798,-0.01910066635542023,0.014721034273045759,0.0007697179954839182,-0.00023614320804113694,25.57984685600968
1636,A,504653512447468.0,6.0764721803207955,6.579415257062781,2.128774737916149,184,1970-01-06 20:10:53.512447468,-0.31732178,-0.14300537,0.19137573,11.445594827638988,0.39720060164133464,-92.91438293457031,26.340076446533203,113.51768493652344,25630200.0,50354.0,0.29146532864757335,-0.0993866477418608,0.05629894747007977,0.014768496074166498,-0.002609247598298831,0.0009365411236237832,25.63020085997414
1636,A,504653562801472.0,5.898005280320795,4.44992875706278,0.6959591779161491,184,1970-01-06 20:10:53.562801472,-0.019195557,0.0034484863,-0.11155701,13.430602268047739,0.11324896443871633,-92.91529083251953,26.334497451782227,113.51781463623047,25680554.0,50354.0,0.3014814190265733,-0.2157834057563608,0.07111832579890978,0.014928620266191992,-0.007935036436924725,0.00320798468909335,25.680554863996804
1636,A,504653613155476.0,5.461146280320796,6.50373125706278,-3.1128786620838507,184,1970-01-06 20:10:53.613155476,0.17001343,0.32951355,-0.32263184,12.046186470863258,0.4915028486140777,-92.91451263427734,26.317550659179688,113.50035858154297,25730908.0,50354.0,0.2859893588422734,-0.21768890182436082,-0.06085078185289022,0.014790751774403955,-0.01091353228795983,0.00025850595392893445,25.73090886801947
1636,A,504653663509480.0,0.5768532803207957,9.19225325706278,-3.864908162083851,184,1970-01-06 20:10:53.663509480,0.50086975,0.02420044,-0.53678894,12.378692349609155,0.7345737089411652,-92.889404296875,26.29068374633789,113.50053405761719,25781262.0,50354.0,0.15201871493827337,-0.09829139788786079,-0.17567973887207022,0.011027729273572826,-0.007955436005854605,-0.00595512892029233,25.781262871983927
1636,A,504653713863484.0,-1.0156607196792038,9.39435625706278,-0.9610842620838509,184,1970-01-06 20:10:53.713863484,0.3785553,-0.6744232,0.026687622,12.725701726760924,0.7738623889454409,-92.8538589477539,26.293703079223633,113.53802490234375,25831616.0,50354.0,-0.01104785490072664,-0.02551413226286079,-0.12150401126327025,0.0035492233431653145,-0.003117051832604717,-0.007482195277157468,25.831616876006592
1636,A,504653764217488.0,5.456339680320796,7.34459725706278,-0.23218716208385087,184,1970-01-06 20:10:53.764217488,0.16682434,-0.29309082,0.3449402,10.746549604600876,0.48240681044192146,-92.85063934326172,26.08388900756836,113.54811096191406,25881970.0,50354.0,0.11180297419207337,-0.07203256737486081,-0.03004299464627023,0.0025367116383982367,-0.002455933256778917,-0.003815498967784501,25.881970880029257
1636,A,504653814571492.0,7.237864380320796,9.53945225706278,0.8789273379161491,184,1970-01-06 20:10:53.814571492,1.1231995,-0.59332275,0.29779053,8.192085118411686,1.3047176714621036,-92.78031158447266,26.1002140045166,113.58028411865234,25932324.0,50354.0,0.3196019756347734,-0.06837948538286079,0.01628297740692977,0.010861482421790521,-0.0035351542522811573,-0.0003464359540348748,25.932324883993715
1636,A,504653864925496.0,5.812357780320796,13.41902965706278,0.5080471879161491,184,1970-01-06 20:10:53.864925496,1.1624603,-0.18919373,0.17086792,5.0378703877275,1.1900857375132807,-92.60620880126953,26.305978775024414,113.63970947265625,25982678.0,50354.0,0.3285654433384734,0.08455649915193919,0.03491985763687977,0.016318911107489432,0.00040728867566408697,0.0012891337778979928,25.98267888801638
1636,A,504653915279500.0,6.106501480320796,13.01711325706278,1.1299649379161492,184,1970-01-06 20:10:53.915279500,0.59765625,0.023269653,0.24909973,5.282464057362113,0.6479082847138751,-92.57716369628906,26.318368911743164,113.63778686523438,26033032.0,50354.0,0.3000811196051734,0.17211357014893913,0.04124023129207977,0.0158274345152322,0.006462182334788214,0.0019174825589644143,26.033032891980838
1636,A,504653965633504.0,5.510523680320796,9.73065995706278,1.5279446379161492,184,1970-01-06 20:10:53.965633504,0.40065002,0.018035889,0.014190674,8.540146477526925,0.4013067493160251,-92.5575942993164,26.31903648376465,113.63674926757812,26083386.0,50354.0,0.2924818424694734,0.0792514862120392,0.06691818939072978,0.014918957696153385,0.0063286180240003514,0.0027231045575310964,26.083386896003503
1636,A,504654015987507.0,4.292567280320796,6.085838757062781,3.7203274379161493,184,1970-01-06 20:10:54.015987507,0.3037262,0.04664612,-0.035003662,12.749855173996599,0.3092745082138271,-92.54353332519531,26.31718635559082,113.63423919677734,26133740.0,50354.0,0.24681242111607338,-0.09525721187446078,0.13213574605322978,0.013577811674293313,-0.000402976155002788,0.00501158093267257,26.13374089897843
1636,A,504654066341511.0,2.6944378803207956,4.82827025706278,1.129781837916149,184,1970-01-06 20:10:54.066341511,0.16856384,-0.0036468506,0.07292175,14.099133238499181,0.18369716736495098,-92.3836441040039,26.287736892700195,113.70137786865234,26184094.0,50354.0,0.17591182892947335,-0.2186846773513608,0.12211120123762978,0.01064292844339673,-0.00790411494503851,0.006401175391941971,26.184094903001096
1636,A,504654116695515.0,2.977610280320796,7.064049257062781,-1.3402499620838508,184,1970-01-06 20:10:54.116695515,-0.015731812,-0.43907166,0.37313843,12.07083399669068,0.5764231956356578,-92.540771484375,26.3511962890625,113.6510238647461,26234448.0,50354.0,0.14280515654047338,-0.19405627159286082,-0.005298955962170228,0.00802433754317685,-0.010391578871568668,0.0029409818993002454,26.23444890702376
1636,A,504654167049519.0,7.784510480320796,11.84908325706278,-1.9777316620838508,184,1970-01-06 20:10:54.167049519,-0.1277771,0.33132935,0.32946777,6.260963728779208,0.4844121560454542,-92.55571746826172,26.366910934448242,113.6317367553711,26284802.0,50354.0,0.27095791439067335,-0.01729326269186079,-0.08353682335167023,0.010417312836833482,-0.005321147224686436,-0.0022366184157845614,26.28480291098822
1636,A,504654217403523.0,5.467921080320796,9.40856225706278,-1.5462283620838508,184,1970-01-06 20:10:54.217403523,-0.35083008,1.8096924,-0.15766907,8.979735361970816,1.850115635111825,-92.61788940429688,26.354957580566406,113.53125,26335156.0,50354.0,0.3336564694022734,0.04173454110913919,-0.08872274152847022,0.01522237634075502,0.0006153580667118183,-0.004336979064987296,26.335156915010884
1636,A,504654267757527.0,1.964518280320796,9.04877525706278,2.016424237916149,184,1970-01-06 20:10:54.267757527,-0.77737427,1.4649658,-0.16914368,10.961846762762605,1.6670468305694401,-92.69279479980469,26.343114852905273,113.45001983642578,26385510.0,50354.0,0.18712652578287337,-0.028768813406860796,0.011838121565829777,0.013111753469776442,0.00032643812636026315,-0.0019357240767993984,26.385510918975342
1636,A,504654318111531.0,4.781702880320796,12.55954785706278,-0.20151702208385097,184,1970-01-06 20:10:54.318111531,-0.8732605,0.76283264,-0.4244995,6.360025319229175,1.234786363307382,-92.75481414794922,26.32010269165039,113.40865325927734,26435864.0,50354.0,0.16984961016147337,0.05056355104433922,0.04569391897300978,0.008987588174670819,0.0005487261094987943,0.0014484841846463636,26.435864922998007
1636,A,504654368465535.0,5.429697880320796,10.65650225706278,-1.055490362083851,184,1970-01-06 20:10:54.368465535,-0.7317047,0.65808105,-0.17678833,7.769821074123924,0.9998582649532789,-93.02931213378906,26.265050888061523,113.27422332763672,26486218.0,50354.0,0.25709243695067335,0.09104129372333919,-0.03164767491119023,0.01074911992014252,0.0035651851767158392,0.0003536422867444308,26.486218927020673
1636,A,504654418819539.0,4.599436580320796,8.62690025706278,-0.20478240208385096,184,1970-01-06 20:10:54.418819539,-0.74742126,0.35343933,0.33496094,9.847412229218158,0.8920519778670524,-93.09022521972656,26.227306365966797,113.24717712402344,26536572.0,50354.0,0.2525035183155734,-0.0079709749018608,-0.03172988738345023,0.012830097365738296,0.0020914614169683615,-0.0015956568858921628,26.53657293098513
1636,A,504654469173543.0,5.237604980320796,7.580528257062781,-0.1798037620838509,184,1970-01-06 20:10:54.469173543,-0.49971008,0.2627716,0.40130615,10.586823998322325,0.6926800876652864,-93.12187957763672,26.05787467956543,113.23155212402344,26586926.0,50354.0,0.24766719537227336,-0.08541477229986078,-0.00968272585525023,0.012592798058518918,-0.0023511729572977444,-0.0010426453635107615,26.586926935007796
1636,A,504654519527547.0,6.488947780320796,5.70514725706278,0.5373288079161491,184,1970-01-06 20:10:54.519527547,-0.08753967,-0.09580994,0.038513184,12.08297452898295,0.1353735711589613,-93.12397003173828,26.06005859375,113.23676300048828,26637280.0,50354.0,0.29523941885467336,-0.1589757475808608,0.009001408078919772,0.01366875982639184,-0.006153020119036927,-1.7153537654671923e-05,26.637280938972253
1636,A,504654569881550.0,5.584559280320796,5.52298825706278,-3.626428562083851,184,1970-01-06 20:10:54.569881550,-0.0818634,0.65400696,-0.17608643,13.072694385504292,0.6822266125109357,-93.14379119873047,26.04947853088379,113.20094299316406,26687634.0,50354.0,0.30397468726577337,-0.21077843216086084,-0.07777426451068023,0.01508641354979449,-0.009309300983357326,-0.0017314942063824332,26.68763494200539
1636,A,504654620235554.0,-0.28346771967920326,8.34400225706278,-4.99715606208385,184,1970-01-06 20:10:54.620235554,0.73553467,0.004257202,-0.4043579,13.915569152349292,0.8393656448969589,-93.10658264160156,26.029277801513672,113.2019271850586,26737988.0,50354.0,0.1334655822222734,-0.14433997982586083,-0.21711599008267024,0.011013433664900554,-0.008940816258589692,-0.007424451939896786,26.737988946028054
1636,A,504654670589558.0,-1.8970847196792047,9.254463257062781,-2.767511262083851,184,1970-01-06 20:10:54.670589558,0.61531067,-0.49375916,-0.5758362,13.786245390580147,0.9767254772607268,-93.06302642822266,26.001855850219727,113.23108673095703,26788342.0,50354.0,-0.054899768765726636,-0.050392633750860796,-0.19549102922057024,0.001978051485395478,-0.00490278301202112,-0.010388206924997687,26.78834294999251
1636,A,504654720943562.0,3.7995862803207956,6.087181257062781,-0.8552340620838508,184,1970-01-06 20:10:54.720943562,-0.00982666,-0.5945587,0.04647827,12.53863628685913,0.5964535527387179,-93.1250228881836,25.92226791381836,113.2307357788086,26838696.0,50354.0,0.04789928179227334,-0.10721261606786077,-0.09120985902657024,-0.00017625126053063368,-0.003968027374685953,-0.007218268263398256,26.838696954015177
1636,A,504654771297566.0,6.3995464803207955,8.55666425706278,0.3257962129161491,184,1970-01-06 20:10:54.771297566,0.72442627,-0.57951355,0.34150696,9.309714493077918,0.9885627845656325,-93.0751724243164,25.940879821777344,113.26187133789062,26889050.0,50354.0,0.25678356551467335,-0.1247811014908608,-0.013329656728495225,0.007671000046646997,-0.005840905826975933,-0.002631991388165283,26.889050957979634
1636,A,504654821651570.0,6.639826680320796,12.58618975706278,0.3596859834161491,184,1970-01-06 20:10:54.821651570,1.1439514,-0.07493591,0.15692139,5.389039044210558,1.157093133161294,-92.93681335449219,25.84139633178711,113.30026245117188,26939404.0,50354.0,0.3282922980654734,0.03884443551363917,0.01725838525705827,0.014730455017357355,-0.0021636274393085093,9.891359816363183e-05,26.9394049620023
1636,A,504654872005574.0,6.768473480320796,13.20105785706278,0.5617886379161491,184,1970-01-06 20:10:54.872005574,0.8608246,0.13282776,0.1928711,4.775500855843593,0.8921106809174452,-92.75475311279297,25.778947830200195,113.35436248779297,26989758.0,50354.0,0.3375807731444734,0.1557763331808392,0.023199966541283274,0.01676468631385283,0.004899967093420882,0.0010186199232268451,26.989758966024965
1636,A,504654922359578.0,6.049067280320796,11.84861025706278,1.582067537916149,184,1970-01-06 20:10:54.922359578,0.75857544,0.37524414,-0.066970825,6.416091921111811,0.8489581580836087,-92.72579956054688,25.77470588684082,113.33373260498047,27040112.0,50354.0,0.3227072237306734,0.1372062941093392,0.05397586693892977,0.01662407089732557,0.007376423607284823,0.0019430559595313241,27.040112969989423
1636,A,504654972713582.0,3.385523680320796,6.406090257062781,2.066198437916149,184,1970-01-06 20:10:54.972713582,0.7470703,0.17286682,-0.23207092,12.473371118833352,0.8011578386988726,-92.69234466552734,25.762704849243164,113.32475280761719,27090466.0,50354.0,0.2375346966160734,-0.03387060515586078,0.09185239247352978,0.014105210828570046,0.0026016826407817264,0.0036715180872274942,27.090466974012088
1636,A,504655023067586.0,2.3424328803207963,4.78749925706278,4.929052337916149,184,1970-01-06 20:10:55.023067586,0.46569824,-0.0029144287,-0.070510864,14.980588766197714,0.47101499612620773,-92.66890716552734,25.75918960571289,113.32508850097656,27140820.0,50354.0,0.1442127623272734,-0.2116481968028608,0.17611942878312978,0.009611255773816644,-0.006181426876914733,0.0067467265437789175,27.140820977976546
1636,A,504655073421589.0,-1.0156447196792033,4.477486257062781,3.283910837916149,184,1970-01-06 20:10:55.073421589,-0.2242279,-0.48905945,0.44898987,16.5405734052353,0.7007490279232141,-92.66883850097656,25.78275489807129,113.35106658935547,27191174.0,50354.0,0.03340454552047339,-0.2602046597108608,0.20677777387792978,0.0044718709596827215,-0.01187983936844597,0.009640202871397496,27.19117498100968
1636,A,504655123775593.0,4.846430680320796,9.48117875706278,-1.5043581620838509,184,1970-01-06 20:10:55.123775593,-0.022415161,-0.5795593,0.2810974,9.143475663282494,0.6445208840261935,-92.91435241699219,25.772558212280273,113.27024841308594,27241528.0,50354.0,0.09644769813107339,-0.1420318909393608,0.04480379771942977,0.003269289938414993,-0.010127109635720631,0.006334069228106722,27.24152898497414
1636,A,504655174129597.0,5.864207180320796,8.88819125706278,-3.458307162083851,184,1970-01-06 20:10:55.174129597,-0.5928345,1.074234,-0.11289978,9.900792064358965,1.2321435758345283,-92.9697494506836,25.764169692993164,113.21101379394531,27291882.0,50354.0,0.2696617294173734,-0.030983571154360786,-0.12494502486657023,0.009217537057387246,-0.004356010289133629,-0.0020177156758835555,27.291882988996804
1636,A,504655224483601.0,2.9245098803207963,10.27761125706278,-1.040307962083851,184,1970-01-06 20:10:55.224483601,-0.48466492,0.92985535,-0.15763855,9.381402895441216,1.0603683176370047,-93.01618957519531,25.753868103027344,113.15991973876953,27342236.0,50354.0,0.22127352943577336,-0.010931790101860787,-0.11326163298117024,0.012360277012145674,-0.0010553030503478906,-0.0059973290246325625,27.34223699301947
1636,A,504655274837605.0,4.111185880320796,12.81035655706278,0.5023709179161491,184,1970-01-06 20:10:55.274837605,-0.93707275,0.49658203,-0.36950684,6.579874671034013,1.123046907354394,-93.07452392578125,25.73409652709961,113.13348388671875,27392590.0,50354.0,0.17713771216567337,0.08781656565623921,-0.013543640961010229,0.010030799829799625,0.0019357279941325856,-0.003192576382042278,27.392590996983927
1636,A,504655325191609.0,6.348490580320796,11.546532257062779,-1.5236758620838509,184,1970-01-06 20:10:55.325191609,-0.9863739,0.68058777,-0.36697388,6.7324911045007205,1.2533168042745766,-93.13973999023438,25.71393394470215,113.09687805175781,27442945.0,50355.0,0.2633485040878037,0.11976656811764623,-0.02571390523178231,0.011090341709721918,0.005226424350592,-0.000988406869269034,27.442945001006592
1636,A,504655375545613.0,5.3951519803207955,8.97341225706278,-0.1943148620838509,184,1970-01-06 20:10:55.375545613,-0.55578613,0.31385803,0.11465454,9.22453205596134,0.6484988425883808,-93.18899536132812,25.5883731842041,113.07321166992188,27493299.0,50354.0,0.29566968874927335,0.02316144303213916,-0.04325385246237023,0.014074401041059089,0.0035984985367181472,-0.0017364012354656785,27.493299005029257
1636,A,504655425899617.0,5.794916980320796,8.86051225706278,2.034048137916149,184,1970-01-06 20:10:55.425899617,-0.5627594,0.34823608,0.5234375,9.334331643789723,0.8437732670026803,-93.22615814208984,25.613529205322266,113.05229949951172,27543653.0,50354.0,0.28173236622207337,-0.04446448250786082,0.04631896468562977,0.014537251538013598,-0.0005363466248802444,7.717033044500555e-05,27.543653008993715
1636,A,504655476253621.0,5.8802592803207965,5.00949925706278,1.323461637916149,184,1970-01-06 20:10:55.476253621,-0.3588562,0.18241882,0.23902893,12.918779554687868,0.4681764918762766,-93.248779296875,25.62494659423828,113.04145050048828,27594007.0,50354.0,0.29394591271417336,-0.14426392010886083,0.08453202362612978,0.014493852028777883,-0.004751614992681201,0.003294435332725171,27.59400701301638
1636,A,504655526607625.0,6.588816480320796,4.320198257062781,-0.6933230620838509,184,1970-01-06 20:10:55.526607625,0.1938324,0.0382843,-0.028564453,13.472703192868051,0.199631197189816,-93.23998260498047,25.623414993286133,113.0394287109375,27644361.0,50354.0,0.3139339204256734,-0.25857540568686077,0.01586499892372977,0.015304590558961922,-0.010142285705558883,0.002527695836737814,27.644361016980838
1636,A,504655576961629.0,4.463465580320796,7.996132257062781,-3.5600832620838507,184,1970-01-06 20:10:55.576961629,0.61087036,1.0975342,-0.5552826,11.173153657511786,1.3733472549792092,-93.23494720458984,25.592588424682617,112.98039245605469,27694715.0,50354.0,0.2782633054407734,-0.18338094664586077,-0.10708801102357023,0.01490974955563953,-0.011127135082680931,-0.0022967217756376833,27.694715021003503
1636,A,504655627315632.0,-1.1063737196792047,10.78447765706278,-4.809183062083851,184,1970-01-06 20:10:55.627315632,1.2150726,-0.048599243,-0.37678528,12.953614815349995,1.2730791243735056,-93.17253112792969,25.57391929626465,112.98426055908203,27745069.0,50354.0,0.08452150177537335,-0.020629784192060786,-0.21071301824357025,0.009133833091280926,-0.005136378170306352,-0.008001276513858797,27.74506902397843
1636,A,504655677669636.0,1.568232280320796,6.64304425706278,-2.604791662083851,184,1970-01-06 20:10:55.677669636,0.38237,-0.11097717,-0.033721924,13.362245292236295,0.3995746705178779,-93.15071868896484,25.572540283203125,112.99051666259766,27795423.0,50354.0,0.011628212981273344,-0.05469648076806082,-0.18666164163037022,0.0024207613684280936,-0.001896489372900982,-0.010004701811646201,27.795423028001096
1636,A,504655728023640.0,5.5211895803207955,6.91457425706278,0.695425117916149,184,1970-01-06 20:10:55.728023640,0.74716187,0.0036773682,0.2786255,11.128680621764886,0.7974312210272592,-93.11380767822266,25.58643913269043,112.98945617675781,27845777.0,50354.0,0.17849037418537336,-0.15212903866986083,-0.048072121482510236,0.004786615669094664,-0.005207246102888554,-0.005909891953892992,27.84577703202376
1636,A,504655778377644.0,6.665125680320796,11.89594325706278,1.010839537916149,184,1970-01-06 20:10:55.778377644,1.2838135,-0.05496216,0.07084656,6.063022118375769,1.2869410153064316,-93.04840087890625,25.590124130249023,112.99230194091797,27896131.0,50354.0,0.3068148593171734,-0.019876800546860796,0.04295862523988977,0.01221852986389362,-0.0043305910139594,-0.00012874249490045552,27.89613103598822
1636,A,504655828731648.0,7.740015880320796,12.998650257062781,1.015447697916149,184,1970-01-06 20:10:55.828731648,1.0110016,0.31437683,0.28074646,4.728004499231621,1.0953426866720481,-93.00572204589844,25.603313446044922,112.97407531738281,27946485.0,50354.0,0.36267824907227336,0.13330198090513926,0.05101583373654977,0.0168558279899211,0.002855705765880377,0.0023659949536498186,27.946485040010884
1636,A,504655879085652.0,5.553431280320796,12.92179155706278,0.999700637916149,184,1970-01-06 20:10:55.879085652,0.8359375,0.7876892,0.20864868,5.629678487803915,1.1673817076554833,-92.9830322265625,25.611677169799805,112.92985534667969,27996839.0,50354.0,0.3346891191634734,0.1591297635542393,0.05073538965124977,0.017557618230071396,0.007362554030253775,0.002561790551234629,27.996839043975342
1636,A,504655929439656.0,3.6952312803207956,9.243355257062781,1.868520837916149,184,1970-01-06 20:10:55.929439656,0.61502075,0.25689697,-0.0289917,9.815757886691697,0.6671484803210103,-92.95838928222656,25.609560012817383,112.91570281982422,28047193.0,50354.0,0.23285357728927336,0.06458270133923924,0.07221321209702977,0.014289022468590807,0.00563240872862311,0.003095476946216434,28.047193047998007
1636,A,504655979793660.0,3.974070280320796,4.95450625706278,4.252187837916149,184,1970-01-06 20:10:55.979793660,0.32559204,0.44406128,0.032577515,14.021511170620029,0.5515993939356489,-92.95277404785156,25.610042572021484,112.89102935791016,28097547.0,50354.0,0.19309000539227336,-0.1360096406588608,0.15410108233142977,0.010723981581173303,-0.0017983160512501117,0.005697914990825326,28.097547052020673
1636,A,504656030147664.0,2.551020280320796,5.10125025706278,0.694448557916149,184,1970-01-06 20:10:56.030147664,0.15124512,-0.21664429,-0.2906952,13.897080441342226,0.3928276136124579,-92.82781982421875,25.60529899597168,112.95220184326172,28147901.0,50354.0,0.16428220504527338,-0.2402954182438608,0.12454146453786978,0.008997560142186115,-0.009474232467993822,0.007015383402528355,28.14790105598513
1636,A,504656080501668.0,1.869608780320796,7.70615425706278,1.8290463379161492,184,1970-01-06 20:10:56.080501668,-0.37852478,-0.2443695,0.7849121,12.066686903904,0.9050328537300225,-92.84180450439453,25.645095825195312,112.96357727050781,28198255.0,50354.0,0.11129817785977338,-0.17101717654786083,0.06353403099236979,0.006938287300400363,-0.010355617199071177,0.004735176750964841,28.198255060007796
1636,A,504656130855672.0,8.371806010320796,11.72435825706278,-2.9581240620838507,184,1970-01-06 20:10:56.130855672,0.35209656,0.22123718,0.038009644,6.749133771027509,0.4175674920479236,-92.82955932617188,25.64645004272461,112.95121765136719,28248609.0,50354.0,0.25784810018398335,-0.0042671864318608085,-0.028426789861370223,0.009293995842307664,-0.004413134406740452,0.0008838950099551762,28.248609063972253
1636,A,504656181209675.0,1.2546337803207956,5.53598825706278,0.08600433791614909,184,1970-01-06 20:10:56.181209675,-0.6305542,2.182724,-0.23147583,14.1365437722633,2.2837389779017716,-92.87703704833984,25.77373695373535,112.84652709960938,28298963.0,50354.0,0.24236487460898334,-0.058905455813860814,-0.07231135829537022,0.012593862066362522,-0.0015904976138205334,-0.0025362843561422543,28.29896306700539
1636,A,504656231563679.0,2.800257580320796,11.56871825706278,0.4470730679161491,184,1970-01-06 20:10:56.231563679,-0.68395996,0.11065674,-0.24978638,8.382113071768098,0.7365048381539212,-92.91358184814453,25.760984420776367,112.84109497070312,28349317.0,50354.0,0.10208999978687336,-0.06282400409386081,0.013421289846639773,0.008672340372664485,-0.003064782612096708,-0.0014826752533336864,28.349317071028054
1636,A,504656281917683.0,5.603571780320796,13.20638325706278,0.30183991391614906,184,1970-01-06 20:10:56.281917683,-1.0236816,0.50076294,-0.5539398,5.329238167038537,1.2670978029655182,-92.92662048339844,25.95067024230957,112.8364028930664,28399671.0,50354.0,0.21158321181287335,0.13029353082113923,0.01885538214359177,0.007897350448446824,0.001698680274412689,0.0008126297706980596,28.39967107499251
1636,A,504656332271687.0,5.831400780320796,9.10726225706278,0.18538483791614907,184,1970-01-06 20:10:56.332271687,-0.830246,-0.073898315,-0.28330994,8.938601578750532,0.8803600988110734,-92.919677734375,25.74393653869629,112.8615493774414,28450025.0,50354.0,0.28789830415927337,0.06832145310913922,0.01226685757688177,0.01257544612763074,0.0050005294504126205,0.0007835646294423624,28.450025079015177
1636,A,504656382625691.0,4.488871280320796,9.209404257062781,-1.0309695620838508,184,1970-01-06 20:10:56.382625691,-0.9291992,0.6218872,0.38633728,9.453959122314851,1.182967174828735,-93.14328002929688,25.7698917388916,112.75570678710938,28500379.0,50354.0,0.2598334896707734,-0.03231048717386078,-0.021289286600370227,0.01379024337325909,0.0009066480893525052,-0.0002271576955243689,28.500379082979634
1636,A,504656432979695.0,6.2177074803207955,7.2694482570627805,1.137090767916149,184,1970-01-06 20:10:56.432979695,-0.5628052,0.09576416,0.35583496,10.632353054720205,0.6727101799777875,-93.17420196533203,25.787395477294922,112.74930572509766,28550733.0,50354.0,0.26955953345667333,-0.07858113025186078,0.0026718135992397727,0.013328528143279728,-0.002791918251927392,-0.0004687321177494614,28.5507330870023
1636,A,504656483333699.0,5.924433580320796,3.38538425706278,1.8339444379161491,184,1970-01-06 20:10:56.483333699,-0.07533264,-0.20323181,-0.045959473,14.54040645558786,0.22156364413793936,-93.17301177978516,25.785669326782227,112.7607192993164,28601087.0,50354.0,0.3057026854837734,-0.22521248179186082,0.07480175337723978,0.014483376886263628,-0.007648611770424778,0.001950551995766826,28.601087091024965
1636,A,504656533687703.0,5.380884980320796,4.771645257062781,-4.758661162083851,184,1970-01-06 20:10:56.533687703,0.14544678,0.7380676,-0.2842865,14.184117811876744,0.8041873923808919,-93.18315124511719,25.769428253173828,112.7206802368164,28651441.0,50354.0,0.28463400540127337,-0.2880996679228608,-0.07363559296437024,0.014862906866412822,-0.012923659993367547,2.93604207148165e-05,28.651441094989423
1636,A,504656584041707.0,0.503947280320796,10.44940995706278,-3.7576996620838505,184,1970-01-06 20:10:56.584041707,0.99287415,0.24864197,-0.8008728,11.574353721357157,1.2996226947708875,-93.13842010498047,25.728759765625,112.70933532714844,28701795.0,50354.0,0.14816242182617337,-0.11024869287396077,-0.21441641647007023,0.010896515648305426,-0.010029216679781577,-0.007252285441530908,28.701795099012088
1636,A,504656634395711.0,-3.0255477196792047,9.27208725706278,-1.7203006620838508,184,1970-01-06 20:10:56.634395711,0.5489502,-0.95181274,-0.529129,14.468379061819642,1.2195373355282517,-93.08740234375,25.70492935180664,112.76368713378906,28752149.0,50354.0,-0.06348633426172666,0.003058935360039217,-0.13791961416157023,0.002131889856610075,-0.0026987165249280033,-0.00887076424321281,28.752149102976546
1636,A,504656684749714.0,5.076639980320795,5.1405722570627805,0.23906525791614908,184,1970-01-06 20:10:56.684749714,0.16802979,-0.6937256,0.5375519,12.951919706860345,0.8935610016201546,-93.0630111694336,25.7336368560791,112.800537109375,28802503.0,50354.0,0.05164034984617333,-0.13060167141286078,-0.03729306377073023,-0.0002982463496303862,-0.0032111434656018887,-0.004411329592301528,28.80250310600968
1636,A,504656735103718.0,6.265131780320797,9.75782055706278,-0.15639676208385095,184,1970-01-06 20:10:56.735103718,1.0364075,-0.025222778,0.36705017,8.202272167068973,1.0997738503362025,-93.02963256835938,25.52750015258789,112.79271697998047,28852857.0,50354.0,0.28555178761767336,-0.11837236411876079,0.0020813447195697703,0.008489486444927268,-0.006268419292579637,-0.0008865254505510669,28.85285710997414
1636,A,504656785457722.0,6.227579980320796,13.31249285706278,0.7023678679161491,184,1970-01-06 20:10:56.785457722,1.2122498,-0.27949524,0.212677,4.920854721123619,1.2621008965656024,-92.77876281738281,25.633750915527344,112.88699340820312,28903211.0,50354.0,0.31452900399767336,0.08737208082743922,0.013745914531539774,0.015108234090499587,-0.0007804941324256031,0.00039848290616518496,28.903211113996804
1636,A,504656835811726.0,6.2133434803207965,13.29485365706278,-0.19590176208385096,184,1970-01-06 20:10:56.835811726,0.40504456,0.16526794,0.3602295,4.962329101852296,0.5666920506303994,-92.8736801147461,25.738739013671875,112.82887268066406,28953565.0,50354.0,0.3132251299685734,0.1764239631861393,0.01275129714653977,0.015804965830868194,0.006641593000129866,0.0006671202984190087,28.95356511801947
1636,A,504656886165730.0,5.706477080320796,11.36588325706278,2.4151363379161492,184,1970-01-06 20:10:56.886165730,0.4146881,0.47296143,-0.029785156,7.180682636736666,0.6297188976576765,-92.86429595947266,25.736066818237305,112.802734375,29003919.0,50354.0,0.3001053222552734,0.12741417328693921,0.05587366891572978,0.01544182079563979,0.007649732761982698,0.0017277707705497605,29.003919121983927
1636,A,504656936519734.0,2.2298229803207956,5.93618025706278,3.233007537916149,184,1970-01-06 20:10:56.936519734,0.6592102,-0.1849823,-0.12986755,13.605594022684357,0.6968802764035817,-92.82673645019531,25.73004150390625,112.81334686279297,29054273.0,50354.0,0.19981222662677336,-0.05785514690486081,0.14220331836182978,0.012586424128203292,0.0017512876072215881,0.004986984308687117,29.054273126006592
1636,A,504656986873738.0,4.041254880320796,5.985909257062781,3.7570248379161493,184,1970-01-06 20:10:56.986873738,0.23098755,0.23928833,0.04673767,12.936677676894357,0.33585497305566325,-92.82099914550781,25.731788635253906,112.79995727539062,29104627.0,50354.0,0.15788692729737336,-0.1933067523028608,0.1759880451263298,0.009005791598348243,-0.006323503136352807,0.008011103958541394,29.104627130029257
1636,A,504657037227742.0,-0.5278067196792033,7.32001525706278,-0.523019702083851,184,1970-01-06 20:10:57.037227742,-0.22718811,-0.8944092,-0.030792236,13.789233287575728,0.9233257367624341,-92.810791015625,25.73244857788086,112.84962463378906,29154981.0,50354.0,0.08845808434047339,-0.1584659385078608,0.08142254730484977,0.006202228358006068,-0.008856581036541538,0.006480826485639809,29.154981133993715
1636,A,504657087581746.0,4.539027280320796,12.48812125706278,-0.833017262083851,184,1970-01-06 20:10:57.087581746,-0.3946991,-0.52723694,0.44970703,6.648689536934896,0.7974977011081564,-92.818359375,25.75619888305664,112.87761688232422,29205335.0,50354.0,0.10099050005527338,0.005240253016139168,-0.034140942646850234,0.004769747009331716,-0.0038577630836250758,0.0011904089604744543,29.20533513801638
1636,A,504657137935750.0,5.573695080320796,9.87418425706278,-3.4676913620838508,184,1970-01-06 20:10:57.137935750,-0.38679504,0.3516388,-0.043045044,9.142457605271284,0.5245122729231448,-92.84612274169922,25.75318145751953,112.85824584960938,29255689.0,50354.0,0.25460801087387336,0.06954656592913917,-0.10827894103067023,0.008952903709663129,0.001882907740585273,-0.0035857054113489326,29.255689141980838
1636,A,504657188289754.0,4.348933280320796,7.98957125706278,1.0318966779161491,184,1970-01-06 20:10:57.188289754,-0.08491516,1.1689758,-0.123565674,10.536845626015173,1.1785514334022678,-92.70498657226562,25.7027530670166,112.86905670166016,29306043.0,50354.0,0.24982201423587339,-0.04371342742086083,-0.06132600276329023,0.012700034742188095,0.0006504009282229239,-0.004270143669900543,29.306043146003503
1636,A,504657238643757.0,4.770655480320796,11.64484455706278,0.3007107639161491,184,1970-01-06 20:10:57.238643757,-1.1230927,0.139328,-0.52326965,7.0905402644301425,1.246820207964409,-92.71395874023438,25.856578826904297,112.88434600830078,29356397.0,50354.0,0.22960388622667335,0.0008664869522392003,0.03355105756301177,0.01207050589594554,-0.0010787574201784867,-0.0006992897953074107,29.35639714897843
1636,A,504657288997761.0,5.688822580320796,10.42426325706278,0.3214932339161491,184,1970-01-06 20:10:57.288997761,-0.8825073,0.2469635,-0.60827637,7.749834071818941,1.099913745339114,-92.70132446289062,25.736164093017578,112.89928436279297,29406751.0,50354.0,0.26333827913277336,0.06216472743623921,0.01566523005342377,0.01241080489725479,0.0015869368846587208,0.0012391184733189977,29.406751153001096
1636,A,504657339351765.0,4.706400780320796,10.061195857062781,-0.21825591208385092,184,1970-01-06 20:10:57.339351765,-0.6105652,0.13395691,-3.0517578e-05,8.512579602127005,0.6250874483775136,-92.7764663696289,25.777681350708008,112.87385559082031,29457105.0,50354.0,0.26172053855087335,0.022293204116339217,0.002599206051771771,0.013219405852821173,0.0021263973426992673,0.0004598437078205082,29.45710515702376
1636,A,504657389705769.0,4.345606680320796,8.79283925706278,-0.1962374620838509,184,1970-01-06 20:10:57.389705769,-0.95443726,0.5961304,0.35565186,9.804089797022964,1.180173793388892,-92.85979461669922,25.79644203186035,112.83079528808594,29507459.0,50354.0,0.22790239183657338,-0.018781157931660762,-0.010435699681420229,0.012327236518364747,8.842278679164945e-05,-0.00019729940011365926,29.50745916098822
1636,A,504657440059773.0,6.268183580320796,6.6010362570627805,1.0193386979161492,184,1970-01-06 20:10:57.440059773,-0.45066833,-0.14749146,0.062057495,11.264529093793238,0.4782330050546444,-92.87882995605469,25.799901962280273,112.83880615234375,29557813.0,50354.0,0.26722339739217343,-0.10589759618086078,0.020723219814549772,0.01246578199541216,-0.003139036992290955,0.0002590088943918025,29.557813165010884
1636,A,504657490413777.0,6.989680180320796,3.59876325706278,-0.14318266208385094,184,1970-01-06 20:10:57.490413777,-0.108291626,-0.15310669,-0.26620483,14.10192310259681,0.32562823326580403,-92.88023376464844,25.78699493408203,112.84803771972656,29608167.0,50354.0,0.3337932359016734,-0.2366688476328608,0.022058980514149774,0.015131795776439185,-0.008624795355898069,0.0010771274576756686,29.608167168975342
1636,A,504657540767781.0,3.1059672803207956,6.902748257062781,-4.1673676620838505,184,1970-01-06 20:10:57.540767781,0.31455994,0.65509033,-0.5147095,12.856765114766079,0.8905151125627024,-92.87966918945312,25.759641647338867,112.81314086914062,29658521.0,50354.0,0.25417811611657337,-0.22907264460886081,-0.10852672551157024,0.0148033547297634,-0.011725973550169825,-0.0021769984158000553,29.658521172998007
1636,A,504657591121785.0,-2.0848287196792032,9.409569257062781,-3.8861483620838513,184,1970-01-06 20:10:57.591121785,1.1154938,-0.3257904,-0.4277954,14.132543002544987,1.2383354581177752,-92.81553649902344,25.739091873168945,112.8323974609375,29708875.0,50354.0,0.025709205541273372,-0.08277398194686077,-0.20276337294047025,0.007046723097379608,-0.007851362516793404,-0.007837350808727023,29.708875177020673
1636,A,504657641475789.0,0.2536112803207953,6.81438525706278,-2.163705662083851,184,1970-01-06 20:10:57.641475789,0.119155884,-0.8220215,-0.13764954,13.881098379907586,0.8419411303744954,-92.78962707519531,25.734224319458008,112.87833404541016,29759229.0,50354.0,-0.04610456147072664,-0.0849986971978608,-0.15231717476647025,-0.000513493876235845,-0.004224012742826654,-0.008939862949617643,29.75922918098513
1636,A,504657691829793.0,6.430842280320796,5.7047812570627805,1.3780270379161492,184,1970-01-06 20:10:57.691829793,0.9894409,-0.48335266,0.20532227,12.135282750091333,1.120169774221675,-92.72875213623047,25.745641708374023,112.90458679199219,29809583.0,50354.0,0.16829448729627336,-0.17827414467386082,-0.01978103072067023,0.00307637576250979,-0.006628420339804335,-0.004332916519549736,29.809583185007796
