Subject-id_accel,Activity_accel,Timestamp_accel,accel_x,accel_y,accel_z,Segment_accel,DateTime,gyro_x,gyro_y,gyro_z,accel_magnitude,gyro_magnitude,Roll,Pitch,Yaw,Time_Difference,Difference_Microseconds,vx,vy,vz,dx,dy,dz,Time_diff
1626,A,598612415731494.0,3.677002,9.022345745190583,3.9253082,129,1970-01-07 22:16:52.415731494,-0.12464905,-0.06462097,0.36264038,9.811547437049635,0.38887183060256214,-76.59747314453125,-6.811117649078369,-105.02787780761719,15005472.0,50354.0,0.173060756228,-0.07308103896067343,0.23212736282139998,0.008399285435260221,-0.003847397886235524,0.012504812273932325,15.005472013028339
1626,A,598612466085498.0,1.4034729,8.501135745190583,1.9389343,129,1970-01-07 22:16:52.466085498,0.9151459,-0.5615387,0.20896912,9.049475829466306,1.0938399439580155,-76.57706451416016,-6.8602447509765625,-104.9953384399414,15055826.0,50354.0,0.1279111165573,-0.05228050651667344,0.1476440334225,0.007577568841115499,-0.0031562276304831624,0.009561504443232671,15.055826016934589
1626,A,598612516439502.0,-0.001083374,0.6692877451905836,-0.08152771,129,1970-01-07 22:16:52.516439502,1.4292145,-1.3449097,-0.013381958,16.559236733330827,1.9625532514977153,-76.51346588134766,-6.876540660858154,-104.92961883544922,15106180.0,50354.0,0.035307961096102,-0.26258544778267345,0.04676392571643,0.004109366718079702,-0.007927380131394657,0.004894609187240841,15.106180020957254
1626,A,598612566793506.0,2.9793396,4.436163745190582,-0.37071228,129,1970-01-07 22:16:52.566793506,1.9859619,-1.5900421,0.21488953,13.139758350604131,2.5531267219093614,-76.4238052368164,-6.884699821472168,-104.84923553466797,15156534.0,50354.0,0.074983557002002,-0.36492924782667346,-0.011386046228230001,0.0027768095511559645,-0.015798937491356527,0.0008907088718744115,15.15653402497992
1626,A,598612617147510.0,3.7437286,10.606741745190583,-1.3240204,129,1970-01-07 22:16:52.617147510,1.5237885,-1.2017975,-0.10896301,7.721002657219988,1.943739067181282,-76.3545150756836,-6.904135227203369,-104.79169464111328,15206888.0,50354.0,0.16926668807140002,-0.11473396846867347,-0.04266828468436,0.006149488420213044,-0.01207648079666795,-0.0013609258893862786,15.206888029002585
1626,A,598612667501514.0,2.1840363,12.653799745190582,2.9527588,129,1970-01-07 22:16:52.667501514,0.5364075,-1.1387024,-0.36608887,5.86643579333066,1.3108765092715204,-76.33389282226562,-6.935363292694092,-104.74031829833984,15257242.0,50354.0,0.1492433368873,0.09216145310332656,0.041006746696799996,0.00801912689838519,-0.0005683082193533391,-4.1832541912798213e-05,15.25724203302525
1626,A,598612717855517.0,-0.8596802,11.683142445190583,2.415329,129,1970-01-07 22:16:52.717855517,0.4629364,-0.9295807,-0.09806824,6.1091652354788,1.0430952822988644,-76.31609344482422,-6.951117038726807,-104.69599914550781,15307596.0,50354.0,0.03334331352969999,0.11926199352722658,0.1351523465406,0.004596984097548809,0.005323008115817436,0.0044351574904380195,15.307596036000177
1626,A,598612768209521.0,-0.34577942,11.103583145190584,1.4423676,129,1970-01-07 22:16:52.768209521,0.2621765,-0.8962097,0.52944946,6.301780313380787,1.0734267903404646,-76.30905151367188,-6.935999870300293,-104.64582824707031,15357950.0,50354.0,-0.030349856852740005,0.08023219018902661,0.0971252272982,7.536625875582159e-05,0.005022665063424107,0.005848052476539468,15.357950040022843
1626,A,598612818563525.0,4.672394,8.953833745190583,2.9819183,129,1970-01-07 22:16:52.818563525,-0.54582214,-0.84988403,0.64501953,9.959432072121928,1.198446856162025,-76.34228515625,-6.914706707000732,-104.5965576171875,15408304.0,50354.0,0.10893117528065999,0.011516385049126582,0.11139024610430001,0.001978441854059742,0.002309953878770983,0.005249794073854743,15.408304043929093
1626,A,598612868917529.0,9.468262,5.655874745190582,6.4976196,129,1970-01-07 22:16:52.868917529,-0.25320435,-0.3361969,-0.1565094,16.30302492252739,0.4490389634729848,-76.3567123413086,-6.926278114318848,-104.58196258544922,15458658.0,50354.0,0.356019296112,-0.12564056933767345,0.23866632570830001,0.011706058018253002,-0.002873304587832745,0.008813374308525832,15.458658047951758
1626,A,598612919271533.0,5.279724,3.4696107451905824,4.6782074,129,1970-01-07 22:16:52.919271533,0.78630066,-0.26098633,-0.39564514,15.46167175340234,0.9181054782370728,-76.318359375,-6.948581218719482,-104.57389068603516,15509012.0,50354.0,0.371310043522,-0.2637168518086735,0.281373796379,0.018311970783965216,-0.009802851792201578,0.013093050153791953,15.509012051974423
1626,A,598612969625537.0,2.4304352,4.7335267451905825,-0.80081177,129,1970-01-07 22:16:52.969625537,-0.035949707,-0.5314636,-0.09915161,12.754147044141313,0.541827446078489,-76.32315826416016,-6.959681987762451,-104.54906463623047,15559366.0,50354.0,0.1941186781784,-0.2869388074046735,0.09762118977650999,0.01423579892625097,-0.013863857532014436,0.009541956766437276,15.559366055997089
1626,A,598613019979541.0,-2.2162933,7.160147745190583,0.32437134,129,1970-01-07 22:16:53.019979541,-0.8498688,-0.20794678,-0.34020996,10.314326964218958,0.9387553767670308,-76.36639404296875,-6.978666305541992,-104.54293060302734,15609720.0,50354.0,0.0053914506163000005,-0.19402215735567344,-0.01199534070611,0.0050230665126641625,-0.012109154209771255,0.0021558020020454607,15.609720060019754
1626,A,598613070333545.0,-1.5607452,5.870688245190582,1.482666,129,1970-01-07 22:16:53.070333545,-0.825943,-0.03805542,0.39094543,11.559848969503852,0.9145864548954687,-76.40847778320312,-6.960116863250732,-104.53643798828125,15660074.0,50354.0,-0.0950944983145,-0.16539184227017345,0.04549577910918,-0.0022584536318975812,-0.009048966268579947,0.0008434405376740935,15.660074063926004
1626,A,598613120687549.0,0.69351196,9.174444745190582,2.2034912,129,1970-01-07 22:16:53.120687549,-0.41352844,1.4124298,0.5740204,8.378621560482458,1.579703494404261,-76.37875366210938,-6.86039400100708,-104.60397338867188,15710428.0,50354.0,-0.02183433128348,-0.11467788670117347,0.09280637982440001,-0.0029439171427883427,-0.007051315566311602,0.003482033455470744,15.71042806794867
1626,A,598613171041553.0,1.8839264,11.955191445190582,2.3074188,129,1970-01-07 22:16:53.171041553,-0.5832367,1.8223114,-0.027145386,6.056342497953175,1.913562321634166,-76.39723205566406,-6.840266704559326,-104.69347381591797,15760782.0,50354.0,0.06489216558972,0.03851165036522655,0.11357118107000003,0.0010840670943282045,-0.0019176373322301358,0.00519596785063831,15.760782071971335
1626,A,598613221395557.0,0.9059601,10.585562745190582,1.7396393,129,1970-01-07 22:16:53.221395557,-0.71240234,2.387848,-0.42889404,6.926281996859318,2.528494663369689,-76.39154052734375,-6.849946022033691,-104.8186264038086,15811136.0,50354.0,0.07024097241050001,0.07403936825122655,0.10189278178370001,0.0034022470154315395,0.0028336969957064397,0.005424736192767606,15.811136075994
1626,A,598613271749560.0,2.6775665,9.344031145190582,1.650528,129,1970-01-07 22:16:53.271749560,-0.75138855,1.9824066,-0.34428406,8.48856141187192,2.1478017121617037,-76.41706085205078,-6.843374252319336,-104.91973876953125,15861490.0,50354.0,0.09022244920820001,0.008298185378126554,0.0853542421121,0.004039987566094011,0.002073012587726223,0.004714318320624557,15.861490078968927
1626,A,598613322103564.0,4.230713,8.503881745190583,2.5769043,129,1970-01-07 22:16:53.322103564,-0.92108154,1.2198181,-0.08155823,10.032709328545877,1.530685841476661,-76.45588684082031,-6.833035469055176,-104.98041534423828,15911844.0,50354.0,0.1739297529715,-0.044112297158873444,0.10643406301710001,0.0066505599942783085,-0.0009016918923038646,0.00482865415823787,15.911844082991593
1626,A,598613372457568.0,4.0594482,8.657400745190582,4.7014923,129,1970-01-07 22:16:53.372457568,-0.9812927,0.6609497,-0.11767578,10.585077732703315,1.1889648683632281,-76.50093841552734,-6.831030368804932,-105.01416778564453,15962198.0,50354.0,0.20872138853240002,-0.06139959073967345,0.18324819119820002,0.00963400778964369,-0.0026564728016217156,0.00729333011437861,15.962198087014258
1626,A,598613422811572.0,3.5923462,7.704336745190583,5.379486,129,1970-01-07 22:16:53.422811572,-0.4693451,0.22575378,0.084350586,11.513042570103675,0.5276027041599027,-76.52320098876953,-6.824298858642578,-105.02423095703125,16012552.0,50354.0,0.19264922760880002,-0.08152973520467345,0.2538087906591,0.010105308002586995,-0.003598531639300822,0.011003783632221244,16.012552091036923
1626,A,598613473165576.0,3.261673,8.658423245190583,4.8236694,129,1970-01-07 22:16:53.473165576,-0.14131165,-0.022537231,0.44491577,10.36095998541282,0.4673616924840575,-76.53101348876953,-6.802923202514648,-105.01790618896484,16062906.000000002,50354.00000000186,0.17256364139840638,-0.08150399172217643,0.2568848435058095,0.009194964402994776,-0.004104700142837451,0.012857733627370404,16.062906094943173
1626,A,598613523519580.0,2.3315277,10.115835745190584,2.4505157,129,1970-01-07 22:16:53.523519580,0.45765686,-0.0030670166,0.12831116,7.875819586681616,0.47531354059865566,-76.50833129882812,-6.796721935272217,-105.01625061035156,16113260.0,50353.99999999814,0.1408200140238948,-0.020789681399172626,0.18314215826269323,0.007890060292566985,-0.00257544780817611,0.011078559823525184,16.11326009896584
1626,A,598613573873584.0,1.3921509,4.1324377451905825,0.91444397,129,1970-01-07 22:16:53.573873584,1.2223969,-0.9316406,-0.0688324,13.201383337652011,1.5384883125938038,-76.689208984375,-6.794549942016602,-104.94343566894531,16163613.999999998,50353.99999999814,0.09375105611219654,-0.13474041833266842,0.08471958961158686,0.005905795832816153,-0.003915781320948417,0.0067439552262305,16.163614102988504
1626,A,598613624227588.0,3.4981384,2.309805745190582,-1.6638947,129,1970-01-07 22:16:53.624227588,2.000763,-1.3471222,-0.035812378,15.413231236654001,2.4122755502470805,-76.59693908691406,-6.811851978302002,-104.87784576416016,16213968.000000002,50354.000000003725,0.1231228137061091,-0.33127283564269794,-0.018868921029211394,0.0054602334204158845,-0.011732815695338666,0.0016579222828985898,16.21396810701117
1626,A,598613674581592.0,4.8963776,10.369772745190582,-2.4182434,129,1970-01-07 22:16:53.674581592,1.7763519,-1.150238,-0.14248657,8.7671053696774,2.1210318130353385,-76.5146255493164,-6.832152843475342,-104.82318115234375,16264322.0,50353.99999999814,0.21134872933199217,-0.17423545234766702,-0.10277599094369619,0.008420990039069964,-0.012727182166732947,-0.0030626539487417807,16.264322111033835
1626,A,598613724935596.0,2.217575,13.280203745190583,1.5613403,129,1970-01-07 22:16:53.724935596,0.7294922,-0.9629669,-0.45802307,4.789892895193909,1.2919942929474089,-76.4831314086914,-6.865660190582275,-104.78141784667969,16314675.999999998,50353.99999999814,0.17910798461019337,0.1019662580983228,-0.02157424934869921,0.00983052868692204,-0.0018195215036156721,-0.003130765999841523,16.314676114940085
1626,A,598613775289600.0,-0.30723572,11.473059445190582,2.6444855,129,1970-01-07 22:16:53.775289600,0.46673584,-0.74076843,-0.40805054,6.341195826514796,0.9659634850342234,-76.46355438232422,-6.894161224365234,-104.74994659423828,16365030.0,50354.00000000186,0.04809661205256178,0.12974370734423138,0.10589007616660391,0.005720330130178398,0.005833761799947402,0.0021228195717944653,16.36503011896275
1626,A,598613825643603.0,-1.1686859,11.569296745190583,1.8437653,129,1970-01-07 22:16:53.825643603,0.39968872,-0.79367065,0.14845276,6.065466494926165,0.9009452788700758,-76.44844818115234,-6.896242141723633,-104.70934295654297,16415384.0,50354.0,-0.037159278626740004,0.08666820180522655,0.11300069039160002,0.00027536924366191484,0.005448602636655903,0.005511012829635901,16.415384121937677
1626,A,598613875997607.0,1.8341675,10.171881445190582,2.1049652,129,1970-01-07 22:16:53.875997607,-0.24250793,-0.73921204,0.62849426,7.5887038975372185,1.000124777738655,-76.39114379882812,-7.051414966583252,-104.67476654052734,16465738.000000002,50354.00000000186,0.016754830243200618,0.053908443299228545,0.09941718779850367,-0.0005137227969523901,0.003539298193794997,0.005348044919192438,16.465738125960343
1626,A,598613926351611.0,9.855545,7.733954245190583,4.548218,129,1970-01-07 22:16:53.926351611,-0.7472229,-0.51568604,0.035247803,14.420856646714135,0.9085794196170296,-76.43164825439453,-7.055760860443115,-104.64909362792969,16516092.0,50353.99999999814,0.29431189161248905,-0.04265397482327186,0.16750719342639384,0.007831726856160409,0.000283353752819151,0.006720355146098995,16.516092129983008
1626,A,598613976705615.0,9.785828,5.772589745190583,5.5014343,129,1970-01-07 22:16:53.976705615,0.32356262,-0.49897766,-0.3381195,16.039390589469306,0.6841025292458653,-76.4179916381836,-7.0780534744262695,-104.62865447998047,16566446.0,50354.0,0.4945108480210001,-0.15341494195417343,0.2530200959571,0.01986019011575236,-0.00493642711770574,0.010587615564808224,16.566446134005673
1626,A,598614027059619.0,6.575119,3.597296745190583,3.7630005,129,1970-01-07 22:16:54.027059619,0.47763062,-0.8714447,0.08106995,15.59478309249251,0.9970552698384763,-76.39949035644531,-7.084349155426025,-104.58501434326172,16616800.000000002,50354.00000000186,0.41191956261901524,-0.25756356783168294,0.23325067495960863,0.02282119844868451,-0.010347205940878889,0.012242839199370427,16.61680013802834
1626,A,598614077413623.0,1.365097,7.569449245190583,0.7498627,129,1970-01-07 22:16:54.077413623,-0.2743683,-0.568573,-0.02128601,9.783641474165462,0.6316694662524144,-76.64419555664062,-7.117588520050049,-104.529296875,16667154.0,50353.99999999814,0.19991081823199258,-0.21232403620016554,0.11362035678639579,0.015404053498685254,-0.011830360206709412,0.00873317196626883,16.66715414193459
1626,A,598614127767627.0,-1.8582153,8.365088745190583,1.723999,129,1970-01-07 22:16:54.127767627,-0.72058105,-0.6348419,0.0079956055,9.218572086737733,0.960377643076943,-76.68409729003906,-7.124523639678955,-104.49807739257812,16717507.999999998,50353.99999999814,-0.012415239439099538,-0.09228533701617,0.062284416020897695,0.004720576187268494,-0.007669150189467395,0.004428754464969064,16.717508145957254
1626,A,598614178121631.0,-0.3323822,5.982473745190582,2.4689026,129,1970-01-07 22:16:54.178121631,-0.4921875,0.21487427,0.3829193,11.51846778862812,0.6595806829924394,-76.73145294189453,-6.884847640991211,-104.5013656616211,16767862.000000002,50354.000000003725,-0.05515267325750407,-0.13224061917968322,0.1055646835832078,-0.001701157337962515,-0.005652889999143414,0.004225936780732876,16.76786214997992
1626,A,598614228475635.0,1.6265106,9.364935745190582,2.0109406,129,1970-01-07 22:16:54.228475635,-0.39987183,0.958725,0.48579407,8.277819137139003,1.1467549801503867,-76.7198715209961,-6.961289882659912,-104.54592895507812,16818216.0,50353.99999999814,0.03258227072679879,-0.10706747126066951,0.11278901224639581,-0.0005682550245155459,-0.006025059793016538,0.005497490999901727,16.818216154002585
1626,A,598614278829639.0,1.6349182,10.781576745190582,1.5380249,129,1970-01-07 22:16:54.278829639,-0.5879364,1.5082703,0.1219635,6.826347851942519,1.6233987814579942,-76.73699951171875,-7.110020637512207,-104.61885833740234,16868570.0,50354.0,0.0821129928976,0.013759544970326545,0.0893523043935,0.002887682652271489,-0.002349213660211965,0.005089311929042657,16.86857015802525
1626,A,598614329183642.0,1.7078094,9.272620045190582,1.2875671,129,1970-01-07 22:16:54.329183642,-0.48008728,1.549881,-0.08255005,8.238183255179777,1.624632087992171,-76.85166931152344,-7.217978000640869,-104.68331909179688,16918924.0,50354.0,0.08415985278520001,0.011435312591426536,0.071139929784,0.004186251435755856,0.0006343309288322574,0.004040712979886917,16.918924161000177
1626,A,598614379537646.0,2.6493073,9.446646545190582,1.2159576,129,1970-01-07 22:16:54.379537646,-0.38835144,1.1043854,0.10055542,8.309746211517588,1.174987380857603,-76.86442565917969,-7.200527667999268,-104.73636627197266,16969278.0,50354.0,0.1096991271559,-0.022174225053973477,0.0630312413719,0.004880787537977075,-0.0002703735990695444,0.0033780275761920945,16.969278165022843
1626,A,598614429891650.0,3.332199,8.500860745190582,2.7486572,129,1970-01-07 22:16:54.429891650,-1.0361176,0.97714233,0.23831177,9.737929810544017,1.4440011474469545,-76.91056060791016,-7.177834987640381,-104.78160095214844,17019632.0,50354.0,0.15059638411509998,-0.041604808950073464,0.0998171068196,0.006553460087269967,-0.00160576473911989,0.004100032862417396,17.019632168929093
1626,A,598614480245654.0,2.7344818,8.940786745190582,4.864502,129,1970-01-07 22:16:54.480245654,-0.8400879,0.6671448,-0.17939758,9.991198123793975,1.087664174092034,-76.9482192993164,-7.17903470993042,-104.81639862060547,17069986.0,50354.0,0.1527408225016,-0.054340841134673454,0.1916765091784,0.007637120850988656,-0.0024156236321836735,0.007338934769981646,17.069986172951758
1626,A,598614530599658.0,2.4847717,7.439169745190583,5.3030243,129,1970-01-07 22:16:54.530599658,-0.5409241,0.35525513,0.04084778,11.407177265354797,0.6484393807311947,-76.97314453125,-7.173035144805908,-104.83338165283203,17120340.0,50354.0,0.13140514536950001,-0.08107103544167345,0.2559878096551,0.007153943033090686,-0.003409264816562686,0.011270844555271031,17.120340176974423
1626,A,598614580953662.0,3.338562,9.466147245190584,5.0545197,129,1970-01-07 22:16:54.580953662,-0.24952698,-0.044692993,0.5479126,9.846093115682196,0.6037130068252451,-76.98665618896484,-7.14684534072876,-104.82495880126953,17170694.0,50354.0,0.1466140725649,-0.06784403413317341,0.26077188528800005,0.006999689849934389,-0.003749234706685919,0.01301045883958243,17.17069418099709
1626,A,598614631307666.0,2.5637817,9.330756045190583,1.5939941,129,1970-01-07 22:16:54.631307666,1.0238647,-0.04559326,0.344635,8.454902091223351,1.0812728390598358,-76.93624114990234,-7.130575656890869,-104.81881713867188,17221048.0,50354.0,0.1486033073349,-0.020219565858073406,0.1673896319426,0.007432687973737266,-0.0022171772569796215,0.010779822519314818,17.221048185019754
1626,A,598614681661670.0,0.54823303,1.8966437451905822,1.9354858,129,1970-01-07 22:16:54.681661670,1.1587982,-0.9521942,-0.12483215,15.46308754290632,1.5050149927859529,-77.03136444091797,-7.020994186401367,-104.75527954101562,17271402.0,50354.0,0.07835119485721,-0.21079695547757346,0.08886171544230001,0.0057140335016907535,-0.005816302957667581,0.006451640173109628,17.271402188926004
1626,A,598614732015674.0,3.2321014,2.4869757451905823,-0.31607056,129,1970-01-07 22:16:54.732015674,1.7040558,-1.1942444,-0.021240234,15.094824308877685,2.080979818255183,-76.95330810546875,-7.035473823547363,-104.69690704345703,17321756.0,50354.0,0.09517747994411001,-0.3831028120906735,0.04077201749748,0.004368931445472834,-0.014952614448065754,0.0032637884942248413,17.32175619294867
1626,A,598614782369678.0,3.7745514,9.741446345190582,-1.3725891,129,1970-01-07 22:16:54.782369678,1.3609009,-1.0622864,-0.12257385,8.496150440717933,1.730759372053086,-76.89147186279297,-7.0534586906433105,-104.64615631103516,17372110.0,50354.0,0.1764064975456,-0.1855942170304735,-0.04251538425982,0.00683766980125843,-0.014318085102183117,-4.389274497543418e-05,17.372110196971335
1626,A,598614832723682.0,2.7997284,12.539267345190583,1.6347961,129,1970-01-07 22:16:54.832723682,0.57914734,-0.13491821,-0.4671936,5.700726911958047,0.756230404506219,-76.86267852783203,-7.07774019241333,-104.64488220214844,17422464.0,50354.0,0.1655206425246,0.06749232858272654,0.006601585639000002,0.008608699605547426,-0.0029734512454489253,-0.0009042017078763853,17.422464200994
1626,A,598614883077685.0,0.57992554,11.258551445190584,2.4628906,129,1970-01-07 22:16:54.883077685,0.36592102,-0.49728394,-0.4945526,6.4838510974080785,0.7910573835231702,-76.61483001708984,-7.0611066818237305,-104.65470123291016,17472818.0,50354.0,0.08508954724738,0.10568848368542659,0.10316745804590002,0.006309612747889141,0.0043601733104752915,0.002763655212854728,17.472818203968927
1626,A,598614933431689.0,0.18959045,11.227637145190583,1.6301117,129,1970-01-07 22:16:54.933431689,0.22949219,-0.6521301,-0.09425354,6.221048815483419,0.6977277853142569,-76.56149291992188,-6.940659999847412,-104.62938690185547,17523172.0,50354.0,0.01937410408023,0.0726655701400266,0.10304951890710001,0.0026300813494752376,0.004490420013163435,0.005191924828745682,17.523172207991593
1626,A,598614983785693.0,2.1316223,10.481467045190582,2.5525208,129,1970-01-07 22:16:54.983785693,-0.16087341,-0.5510864,0.51060486,7.521918066199926,0.768305796779907,-76.5735092163086,-6.922228813171387,-104.5964126586914,17573526.0,50354.0,0.05844117340675,0.05310091620122656,0.10530613845250002,0.0019591552412896954,0.0031664228266137305,0.0052457703853426504,17.573526212014258
1626,A,598615034139697.0,10.28894,7.708838745190583,4.5229034,129,1970-01-07 22:16:55.034139697,-0.60562134,-0.45533752,0.23664856,14.728867443037043,0.7937959470375365,-76.60680389404297,-6.915998458862305,-104.57133483886719,17623880.0,50354.0,0.3127124970271,-0.03549187111557344,0.1781379550834,0.009344535960513042,0.0004433429281214886,0.007136271942953355,17.623880216036923
1626,A,598615084493701.0,7.152115,4.981360245190583,7.4219666,129,1970-01-07 22:16:55.084493701,0.4462738,-0.15556335,-0.5372162,16.007075065578746,0.7155148537746107,-76.58466339111328,-6.943931579589844,-104.56999969482422,17674234.0,50354.0,0.439113441735,-0.17396806001917342,0.30073599199,0.018928721660213393,-0.005273572686179522,0.012056609365466993,17.674234219943173
1626,A,598615134847705.0,4.9577637,4.727835745190582,2.0450897,129,1970-01-07 22:16:55.134847705,0.026184082,-0.96284485,-0.0073394775,13.602353216419129,0.9632287782513966,-76.58904266357422,-6.955455303192139,-104.52290344238281,17724588.0,50354.0,0.3048904160299,-0.24902077255017346,0.2383520764651,0.018731785126946888,-0.010649589837598446,0.013572620299494055,17.72458822396584
1626,A,598615185201709.0,0.6752777,8.365149745190582,-0.20379639,129,1970-01-07 22:16:55.185201709,-0.7045288,-0.05621338,-0.16841125,8.891197123839417,0.7265556573635821,-76.62435913085938,-6.964300632476807,-104.52210998535156,17774942.0,50354.0,0.1418230833278,-0.16382710430867348,0.046358241665870006,0.011246905773328814,-0.01039427099567519,0.007168151679583433,17.774942227988504
1626,A,598615235555713.0,-0.7961273,5.274572745190582,0.5564575,129,1970-01-07 22:16:55.235555713,-1.2268829,-0.84625244,-0.13375854,11.993149152625117,1.4964211270699488,-76.6905517578125,-6.9805707931518555,-104.4822006225586,17825296.0,50354.0,-0.0030426303792,-0.15006190685967347,0.008878948766470001,0.0034940754638869025,-0.007902783634185472,0.0013907067435150245,17.82529623201117
1626,A,598615285909717.0,-2.005844,7.405737745190583,2.3353424,129,1970-01-07 22:16:55.285909717,-0.8069916,0.41389465,0.6687317,10.293708272773703,1.126830204757608,-76.72937774658203,-6.94327449798584,-104.49474334716797,17875650.0,50354.0,-0.0705452314201,-0.17421702278367343,0.07280684608230001,-0.001852721596520976,-0.008164370611630545,0.0020566032569074824,17.875650236033835
1626,A,598615336263721.0,1.6337128,12.528158745190582,3.6915588,129,1970-01-07 22:16:55.336263721,-0.34196472,1.4106598,0.5537262,6.195819147938897,1.5535487265055956,-76.7389144897461,-6.900140285491943,-104.55748748779297,17926004.0,50354.0,-0.009369147222400002,0.008406511938326575,0.1517392915124,-0.002012004311082223,-0.004174611231553298,0.005653398106221763,17.926004239940085
1626,A,598615386634872.0,2.156952,11.603094745190582,1.5619049,129,1970-01-07 22:16:55.386634872,-0.6018677,2.2705994,-0.26184082,6.223760129486757,2.363562349209752,-76.75528717041016,-6.886853218078613,-104.67182922363281,17976375.0,50371.0,0.0954697883204,0.11412188478199477,0.13231111001635001,0.002168487696373679,0.003085938935599653,0.007153951387702334,17.976375391008332
1626,A,598615436988875.0,2.357605,9.102224745190583,1.124939,129,1970-01-07 22:16:55.436988875,-0.88031006,2.169342,-0.47206116,8.535647254165731,2.3882697195839815,-76.78589630126953,-6.885009288787842,-104.78363037109375,18026729.0,50354.0,0.113663001589,0.02782862880932654,0.0676466688703,0.005265336251548964,0.0035738880806886965,0.005034336999029188,18.02672939398326
1626,A,598615487342879.0,3.8785706,9.289709745190581,2.537323,129,1970-01-07 22:16:55.487342879,-0.23936462,1.0499115,-0.026641846,9.192546445164657,1.077181213676827,-76.79166412353516,-6.874308109283447,-104.83541107177734,18077083.0,50354.0,0.1570081930812,-0.030415465335673467,0.092204770374,0.006814688668211626,-6.512878322383657e-05,0.004024579685853741,18.077083398005925
1626,A,598615537696883.0,3.9679413,7.266180745190583,2.025406,129,1970-01-07 22:16:55.537696883,-1.0371704,0.81814575,0.21626282,10.91288782942126,1.3386017011021518,-76.83901977539062,-6.854450225830078,-104.873046875,18127437.0,50354.0,0.19755163010630003,-0.07664154512367345,0.114875828033,0.008926752668391689,-0.0026953743523349775,0.0052136682260930396,18.12743740202859
1626,A,598615588050887.0,1.6521606,10.052649345190583,6.763611,129,1970-01-07 22:16:55.588050887,-0.6981964,0.58488464,-0.23631287,9.99831843373318,0.9409633508317561,-76.87018585205078,-6.859305381774902,-104.9044418334961,18177791.0,50354.0,0.1414973055363,-0.057433014814473424,0.22128108100899999,0.008536235052673742,-0.003375595195562724,0.008463422498950435,18.17779140593484
1626,A,598615638404891.0,2.6564178,5.939001745190582,4.4499207,129,1970-01-07 22:16:55.638404891,-0.3746643,0.24179077,0.16490173,12.42204254477215,0.47542475188895644,-76.68219757080078,-6.987264633178711,-104.93917083740234,18228145.0,50354.0,0.10847707837680001,-0.09084740049747346,0.2823230876109,0.006293605063780119,-0.003733256016308887,0.012679242153343222,18.228145409957506
1626,A,598615688758895.0,4.102524,10.611044745190583,5.818054,129,1970-01-07 22:16:55.688758895,-0.17170715,-0.16477966,0.38172913,9.71950805757848,0.44983642627225623,-76.69229888916016,-6.970589637756348,-104.92667388916016,18278499.0,50354.0,0.1701698776986,-0.07678867951167345,0.2585167990219,0.007015494413110347,-0.004220573586390292,0.013616725825754007,18.27849941398017
1626,A,598615739112899.0,2.5339203,9.784582745190583,-0.2740326,129,1970-01-07 22:16:55.739112899,1.4686584,0.005859375,0.51065063,7.86798106426902,1.5549134683593642,-76.61954498291016,-6.945679187774658,-104.92101287841797,18328853.0,50354.0,0.16708575814110002,0.020031513325326582,0.1395818267878,0.008491085143536128,-0.001428975173073655,0.010022929102010818,18.328853418002836
1626,A,598615789466903.0,1.0371399,-1.1877222548094188,1.624054,129,1970-01-07 22:16:55.789466903,1.2182007,-1.5075684,-0.005935669,18.51658610114737,1.9382493798078533,-76.77647399902344,-6.87180233001709,-104.8220443725586,18379207.0,50354.0,0.0899085826554,-0.2770260434336735,0.033989488787800004,0.006470346518233481,-0.00647035128453785,0.004370005012246882,18.3792074220255
1626,A,598615839820907.0,5.3574524,3.6342227451905824,-4.1287537,129,1970-01-07 22:16:55.839820907,2.2955627,-0.8774719,0.07234192,15.183823146089738,2.4586171719709,-76.66693878173828,-6.878361701965332,-104.77820587158203,18429561.0,50354.0,0.1609966503371,-0.43187365715367354,-0.0630608243469,0.006317041051052173,-0.017847967761687636,-0.0007319290153714606,18.42956142593175
1626,A,598615890174911.0,4.5492096,13.356436545190583,-0.70484924,129,1970-01-07 22:16:55.890174911,1.0859985,-0.96899414,-0.26097107,6.015283112654347,1.4786643583766854,-76.61797332763672,-6.902252197265625,-104.73374938964844,18479915.0,50354.0,0.24942002917400002,-0.06569537104607344,-0.12169562122038,0.010333060740050967,-0.01252729542298503,-0.004651613030047409,18.479915429954417
1626,A,598615940528914.0,1.2463074,11.528113145190583,2.3166962,129,1970-01-07 22:16:55.940528914,0.31877136,0.040756226,-0.6395569,6.277958609511659,0.7157578349215764,-76.38604736328125,-7.048364162445068,-104.76933288574219,18530269.0,50354.0,0.14591373150900003,0.13304910755472657,0.04058147091192,0.009953318092715893,0.0016957650240783599,-0.0020422109623160975,18.530269432929344
1626,A,598615990882918.0,-0.98349,10.972632245190582,2.7583618,129,1970-01-07 22:16:55.990882918,0.2939453,-0.624176,-0.2853546,6.907205552390307,0.7466101835022411,-76.37467956542969,-7.069579124450684,-104.74214935302734,18580623.0,50354.0,0.006616953679800003,0.07303206669362654,0.12777473526600003,0.0038402650609984184,0.005188505724050786,0.004238704202941493,18.58062343695201
1626,A,598616041236922.0,-0.67019653,10.977545745190582,1.2842255,129,1970-01-07 22:16:56.041236922,0.4290161,-0.69984436,0.4060669,6.416433910589144,0.9158205444073799,-76.35802459716797,-7.058095455169678,-104.70305633544922,18630977.0,50354.0,-0.04163486576581,0.059170431263826526,0.10178022045210001,-0.0008816459725894737,0.003328462291074796,0.005779505120114605,18.630977440974675
1626,A,598616091590926.0,5.500717,8.872519745190584,1.8438568,129,1970-01-07 22:16:56.091590926,-0.5616455,-0.8603821,0.9002228,10.172372186437697,1.3660542138987384,-76.39258575439453,-7.0244855880737305,-104.65026092529297,18681331.0,50354.0,0.12161801387319,0.006295898851326575,0.0787557280671,0.0020137357198995063,0.0016482457933092096,0.004545353575867899,18.68133144499734
1626,A,598616141944930.0,11.493881,8.364218745190582,6.1651154,129,1970-01-07 22:16:56.141944930,-0.6244354,-0.6167145,-0.30026245,15.769917748311281,0.9275849730150939,-76.42707061767578,-7.046321868896484,-104.62361145019531,18731685.0,50354.0,0.427872993846,-0.05949983502767343,0.20164189307940003,0.013834535101346048,-0.0013395155011118847,0.007059570907605431,18.731685449020006
1626,A,598616192298934.0,5.833557,5.997076745190583,5.6255493,129,1970-01-07 22:16:56.192298934,1.1348877,-0.78163147,-0.50990295,13.849841203926797,1.4693259900118671,-76.37428283691406,-7.080295562744141,-104.59136199951172,18782039.0,50354.0,0.4362529065260001,-0.13189486343867346,0.29685356515190003,0.021756097793665847,-0.004818744323287215,0.012550620151889442,18.782039452926256
1626,A,598616242652938.0,6.7248383,-1.5347992548094176,0.112854004,129,1970-01-07 22:16:56.242652938,0.28282166,-0.4002533,-0.07141113,19.932159213203537,0.4952679527426769,-76.36247253417969,-7.08848237991333,-104.5726318359375,18832393.0,50354.0,0.31618271846810003,-0.38112243962467346,0.144475779984808,0.01894407173047646,-0.012916236639225887,0.011111348922506899,18.83239345694892
1626,A,598616293006942.0,-2.1979218,9.707892245190582,0.05331421,129,1970-01-07 22:16:56.293006942,-0.68618774,-0.53559875,-0.35102844,7.835214903887156,0.9385843602024827,-76.39950561523438,-7.1118483543396,-104.55056762695312,18882747.0,50354.0,0.11397417672050002,-0.2876952377811735,0.004183617123878,0.010830060150163384,-0.01683882266404701,0.0037427976410053876,18.882747460971586
1626,A,598616343360946.0,1.1195221,2.8425207451905834,2.7541199,129,1970-01-07 22:16:56.343360946,-0.9814148,-0.32543945,0.25782776,14.689786727885922,1.0656270450312153,-76.520263671875,-7.034820556640625,-104.5230712890625,18933101.0,50354.0,-0.027150869246900005,-0.17748745214117345,0.07068276858747001,0.0021859504122628275,-0.01171190458417493,0.001884910993054609,18.93310146499425
1626,A,598616393714950.0,1.2518158,9.680533245190583,1.0105591,129,1970-01-07 22:16:56.393714950,-0.42359924,1.2516937,0.82699585,7.717345004832471,1.5588763808158392,-76.68037414550781,-7.038460731506348,-104.55686950683594,18983455.0,50354.0,0.0597031743083,-0.1781762696841734,0.094783323183,0.0008195693845308679,-0.00895454552439676,0.004165939792505124,18.983455469016917
1626,A,598616444068954.0,2.5981445,12.120077745190581,2.2065887,129,1970-01-07 22:16:56.444068954,-0.5848694,1.8470001,-0.023605347,6.1411371691539305,1.9375342053402207,-76.69850158691406,-7.018345355987549,-104.64769744873047,19033809.0,50354.0,0.0969304504731,0.05540478290482655,0.08099813016060001,0.003943564771121308,-0.003091017722643616,0.0044256496508318175,19.033809473039582
1626,A,598616494422957.0,2.3549652,8.590673745190582,0.84643555,129,1970-01-07 22:16:56.494422957,-0.86421204,2.1414948,-0.40647888,8.99284781123393,2.344800099879317,-76.72831726074219,-7.013517379760742,-104.75741577148438,19084163.0,50354.0,0.12470444291690003,0.027965390273326517,0.07686599154225,0.005580101710880031,0.00209901085010636,0.003974544992112655,19.08416347601451
1626,A,598616544776961.0,1.4211578,9.270087045190582,1.1925201,129,1970-01-07 22:16:56.544776961,-0.500473,1.5831299,-0.37124634,8.17161704038018,1.7013516241407611,-76.86097717285156,-7.089093208312988,-104.82487487792969,19134517.0,50354.0,0.095071448771,-0.043788825580573475,0.05133478640005001,0.0055332976250262594,-0.0003983866307305567,0.0032277109862532873,19.134517480037175
1626,A,598616595130965.0,2.8973236,8.586615745190583,1.5484772,129,1970-01-07 22:16:56.595130965,-0.7205963,0.9437866,0.18403625,9.245073436122656,1.2016078874688334,-76.89155578613281,-7.06942081451416,-104.86907958984375,19184871.0,50354.0,0.1087264062078,-0.04389099384657344,0.06901008902210001,0.0051310185948012475,-0.0022075148137172783,0.0030299229285034716,19.184871483943425
1626,A,598616645484969.0,4.1950836,9.185492745190583,5.677231,129,1970-01-07 22:16:56.645484969,-0.82255554,0.4717865,-0.033935547,10.701252671202141,0.9488581239137549,-76.92977905273438,-7.0657267570495605,-104.89262390136719,19235225.0,50354.0,0.1785655360744,-0.04602082453767342,0.1819216553514,0.00723314923083895,-0.002263709851460183,0.00631770852809161,19.23522548796609
1626,A,598616695838973.0,1.5930176,7.910894745190582,4.0198975,129,1970-01-07 22:16:56.695838973,-0.7402344,0.34152222,-0.56121826,10.271891946202366,0.9897223494771228,-76.96394348144531,-7.089208126068115,-104.915771484375,19285579.0,50354.0,0.1457270239124,-0.06303345215467344,0.24414460424450002,0.008164713782787665,-0.0027456595242832172,0.010727070217845976,19.285579491988756
1626,A,598616746192977.0,2.520218,7.4117187451905835,5.419739,129,1970-01-07 22:16:56.746192977,-0.32032776,0.17607117,0.48695374,11.493076321058256,0.6088800174351052,-76.97958374023438,-7.063501834869385,-104.91888427734375,19335933.0,50354.0,0.1035589327012,-0.10769176015267344,0.2376617281605,0.006276272529660607,-0.004298348670262073,0.012130438030960687,19.33593349601142
1626,A,598616796546981.0,3.867279,10.766608045190583,3.854309,129,1970-01-07 22:16:56.796546981,0.2962494,-0.09664917,0.6886444,8.459628509512015,0.7558676330637587,-76.96630096435547,-7.031043529510498,-104.90631103515625,19386287.0,50354.0,0.160818011969,-0.0357934663985734,0.233492706496,0.006656218335961626,-0.003612527548880742,0.0118622552013467,19.386287500034086
1626,A,598616846900985.0,2.2325745,7.608816745190582,-1.4845734,129,1970-01-07 22:16:56.846900985,1.3178406,0.120513916,0.40667725,9.986153513795331,1.3844182303861712,-76.90025329589844,-7.0098772048950195,-104.90760803222656,19436641.0,50354.0,0.15357601156950001,-0.03083113005257343,0.05966283320120001,0.007915498330628814,-0.0016774074648505236,0.007380777022956406,19.436641503940336
1626,A,598616897254989.0,2.1484833,-0.7095882548094181,3.2930908,129,1970-01-07 22:16:56.897254989,1.411087,-1.3435822,-0.022079468,18.363799019461293,1.9485551448786362,-76.90515899658203,-7.019090175628662,-104.83370208740234,19486995.0,50354.0,0.11030189223060002,-0.31976732429767346,0.0455330425798,0.006643653983975119,-0.008827017285176167,0.0026485165645382374,19.486995507963
1626,A,598616947608993.0,5.6265717,5.269140745190583,-3.105301,129,1970-01-07 22:16:56.947608993,2.003128,-0.6700897,-0.165802,13.576570311508384,2.118733653301917,-76.80878448486328,-7.034780502319336,-104.80272674560547,19537349.0,50354.0,0.19575255973500003,-0.3786733469496735,0.0047279837946,0.007705532937137913,-0.017584640779994457,0.001265421861028269,19.537349511985667
1626,A,598616997962997.0,3.3317719,13.408530045190583,-1.5170746,129,1970-01-07 22:16:56.997962997,0.72657776,-0.708313,-0.531723,5.2908452298431925,1.1455792840413175,-76.77597045898438,-7.06875467300415,-104.77410888671875,19587703.0,50354.0,0.22554421681720005,-0.023221482510573425,-0.1163775504812,0.010606988943254743,-0.010118506121320637,-0.0028110011404685283,19.587703516008332
1626,A,598617048317000.0,1.0698547,10.472937345190584,1.9971466,129,1970-01-07 22:16:57.048317000,0.15911865,-0.1237793,-0.6965637,7.125196771620318,0.7251489833434248,-76.68697357177734,-7.1435136795043945,-104.78607177734375,19638057.0,50354.0,0.11081975290820001,0.10779450448762659,0.012086772744000001,0.008468635665776398,0.0021292949743162673,-0.002625728911089485,19.63805751898326
1626,A,598617098671004.0,-0.26005554,11.321646545190582,3.191803,129,1970-01-07 22:16:57.098671004,0.1693573,-0.81900024,-0.1038208,6.718933756162024,0.842746727490524,-76.683349609375,-7.157993316650391,-104.74711608886719,19688411.0,50354.0,0.020388313451320004,0.055253038608126574,0.1306421840792,0.0033034254867336356,0.004105047992521778,0.0035934869459377065,19.688411523005925
1626,A,598617149025008.0,0.7905731,11.580069345190584,1.9973602,129,1970-01-07 22:16:57.149025008,0.291687,-0.53970337,0.51956177,6.042948896201838,0.8039312572626405,-76.51927947998047,-7.148951530456543,-104.73373413085938,19738765.0,50354.0,0.013356840608120002,0.08312730097212657,0.1306475618864,0.0008496017437545211,0.0034840018096120337,0.006578491934175912,19.73876552702859
1626,A,598617199379012.0,4.9776917,9.987753745190583,3.0869446,129,1970-01-07 22:16:57.199379012,-0.41879272,-0.3816986,0.6549988,9.313028269506006,0.8660857876494674,-76.54348754882812,-7.121551990509033,-104.70734405517578,19789119.0,50354.0,0.14522760286960001,0.04954388194652659,0.1280075419496,0.003992680533438557,0.0033402623723429305,0.006512159549278972,19.78911953093484
1626,A,598617249733016.0,11.543137,7.202902745190583,5.9977875,129,1970-01-07 22:16:57.249733016,-0.3428955,-0.54463196,-0.25590515,16.423353278888154,0.6925956551771127,-76.56358337402344,-7.1403279304504395,-104.68365478515625,19839473.0,50354.0,0.4159449041799,-0.06066004154167343,0.22872630008170003,0.014128640209985261,-0.00027987155012701204,0.008981487940822042,19.839473534957506
1626,A,598617300087020.0,6.1656647,3.277578745190583,5.3595123,129,1970-01-07 22:16:57.300087020,0.99320984,-0.53904724,-0.57136536,16.166727539663132,1.2662922600380897,-76.5163803100586,-7.174387454986572,-104.6639404296875,19889827.0,50354.0,0.44585450040089997,-0.22960211751667342,0.2859427370646,0.0216975236091308,-0.007307930378611999,0.012957822348232399,19.88982753898017
1626,A,598617350441024.0,4.2526703,6.278326745190583,1.3455353,129,1970-01-07 22:16:57.350441024,-0.2575531,-0.578598,0.2806244,11.823624834375336,0.6927187732398841,-76.533203125,-7.167479515075684,-104.63228607177734,19940181.0,50354.0,0.262302420295,-0.2528801674686734,0.16881298342519999,0.017829266792360673,-0.012147456489076077,0.011449384774771695,19.940181543002836
1626,A,598617400795028.0,-0.5957031,9.287634745190584,-0.6844177,129,1970-01-07 22:16:57.400795028,-1.1140289,-0.025802612,-0.13815308,7.992360825572373,1.1228590465123924,-76.58885192871094,-7.174500942230225,-104.63263702392578,19990535.0,50354.0,0.0920714631944,-0.10156498755667341,0.016644957815200003,0.008922071264612625,-0.008923865668073159,0.004669274586609551,19.9905355470255
1626,A,598617451149032.0,-2.1080322,5.433523745190582,0.42485046,129,1970-01-07 22:16:57.451149032,-1.3339844,0.003189087,-0.14302063,11.989228695358142,1.3416331280662575,-76.65533447265625,-7.181419372558594,-104.63446807861328,20040889.0,50354.0,-0.0680719436481,-0.12283459268767342,-0.006535124401480001,0.0006042359036171952,-0.005649708231811921,0.0002545352758572285,20.04088955093175
1626,A,598617501503036.0,0.09901428,9.096945745190583,3.2635956,129,1970-01-07 22:16:57.501503036,-0.82240295,1.288971,0.7185669,8.762429357596401,1.6894174264477422,-76.68962097167969,-7.13160514831543,-104.6893310546875,20091243.0,50354.0,-0.05058104417184,-0.12763556964067346,0.09286400645262001,-0.0029873262743426296,-0.00630608727694079,0.002173502263401552,20.091243554954417
1626,A,598617551857039.0,3.3392181,12.642645745190583,3.659256,129,1970-01-07 22:16:57.551857039,-0.66122437,2.0017853,0.124694824,6.750479591302207,2.1118501021403904,-76.71070098876953,-7.102511405944824,-104.78604125976562,20141597.0,50354.0,0.08656437663126,0.05386849495332658,0.1742966347332,0.0009059523613308174,-0.0018572336394033328,0.006726303463135391,20.141597557929344
1626,A,598617602211043.0,2.6278229,10.286688745190583,2.2956085,129,1970-01-07 22:16:57.602211043,-0.98236084,2.241394,-0.42704773,7.769270754212499,2.4842000013887082,-76.74562072753906,-7.0975661277771,-104.9009017944336,20191951.0,50354.0,0.15023219125700002,0.08382265446432657,0.14992562351650002,0.005961827189722723,0.0034666500688882535,0.008162943795952698,20.19195156195201
1626,A,598617652565047.0,3.1692505,10.091696745190582,1.5503998,129,1970-01-07 22:16:57.652565047,-0.82984924,1.8796844,-0.43319702,7.961113817093642,2.0998863928481506,-76.77510070800781,-7.0971221923828125,-104.99809265136719,20242305.0,50354.0,0.14595291699180002,0.01959741149132655,0.09683095096910001,0.00745705247038004,0.0026038070005654787,0.006212590275823952,20.242305565974675
1626,A,598617702919051.0,4.2685547,9.802771345190582,1.503067,129,1970-01-07 22:16:57.702919051,-0.81684875,1.3006592,-0.3105774,8.695895473068134,1.5669762462500707,-76.80760955810547,-7.097382068634033,-105.06546020507812,20292659.0,50354.0,0.1872616215204,0.007413823111526523,0.0768771336236,0.00838934243612166,0.0006800618535960319,0.004373448445790408,20.29265956999734
1626,A,598617753273055.0,3.8956451,7.433828745190583,3.656128,129,1970-01-07 22:16:57.753273055,-1.0285645,0.8156128,-0.21847534,11.156856860360046,1.330751909400173,-76.85379028320312,-7.09873104095459,-105.10799407958984,20343013.0,50354.0,0.20555005836460002,-0.05950331952447345,0.129893052515,0.009889819664464646,-0.001311457251188765,0.005205852976411532,20.343013574020006
1626,A,598617803627059.0,2.011673,7.930639745190582,6.917389,129,1970-01-07 22:16:57.803627059,-0.3420105,0.482193,0.03781128,11.76197375443875,0.5923773833077091,-76.86801147460938,-7.091411113739014,-105.13121795654297,20393367.0,50354.0,0.14872854780369998,-0.10663797681767344,0.266209437509,0.00891967246749929,-0.004182939418006232,0.009972672391334248,20.393367577926256
1626,A,598617853981063.0,3.1519165,7.365774745190583,3.8927765,129,1970-01-07 22:16:57.853981063,-0.32232666,0.1377716,0.48402405,11.061562244065053,0.5976242720068505,-76.88397979736328,-7.066275596618652,-105.13243865966797,20443721.0,50354.0,0.1300036928415,-0.10835137237567344,0.27216753679350003,0.0070176416227242,-0.005412786844640895,0.013554717082014042,20.44372158194892
1626,A,598617904335067.0,4.8119965,9.983252345190582,4.313446,129,1970-01-07 22:16:57.904335067,0.1363678,-0.22311401,0.50901794,9.708356519103848,0.5722545775937172,-76.87922668457031,-7.04402494430542,-105.11567687988281,20494075.0,50354.0,0.200507437601,-0.05667274494547344,0.2066080638825,0.008321278731150824,-0.004154812201794515,0.012054133298219652,20.494075585971586
1626,A,598617954689071.0,2.6294556,7.111212745190583,0.44059753,129,1970-01-07 22:16:57.954689071,1.4904785,-0.29589844,0.51597595,10.462509159954626,1.604778248461477,-76.80719757080078,-7.022273063659668,-105.0952377319336,20544429.0,50354.0,0.18735343952170003,-0.06308185241947344,0.11969255395481,0.009765173303318218,-0.0030150614978572674,0.008215270655289954,20.54442958999425
1626,A,598618005043075.0,2.2685547,-0.6249322548094156,-0.58200073,129,1970-01-07 22:16:58.005043075,1.4229431,-0.4990387,0.19833374,18.00621601220391,1.5209020226029315,-76.73931884765625,-7.018324375152588,-105.0684814453125,20594783.0,50354.0,0.1233172053231,-0.3301641160936734,-0.003560108366399999,0.007821754825257531,-0.0099007537492555,0.0029238665825793986,20.594783594016917
1626,A,598618055397079.0,4.2521515,6.363134745190582,-1.7578125,129,1970-01-07 22:16:58.055397079,2.2071228,-0.5430908,0.014846802,11.799280875113936,2.2730066209437463,-76.63224792480469,-7.023855209350586,-105.04169464111328,20645137.0,50354.0,0.16417181999740002,-0.3489984758996734,-0.05890947769171,0.00723811119049423,-0.017099276578616495,-0.0015727967681850356,20.645137598039582
1626,A,598618105751082.0,3.209793,13.472311745190582,-1.5481262,129,1970-01-07 22:16:58.105751082,1.0197754,-0.17454529,-0.55371094,5.1775565644538775,1.1734580221644182,-76.5815200805664,-7.052812099456787,-105.03960418701172,20695491.0,50354.0,0.1878693766765,0.005927836288326537,-0.0832336186499,0.00886334120865878,-0.00863748949349488,-0.0035787367365927147,20.69549160101451
1626,A,598618156105086.0,2.0427856,12.476294345190583,2.1094818,129,1970-01-07 22:16:58.156105086,0.0874176,-0.019180298,-0.7590027,5.5861140241283085,0.76426096277935,-76.57615661621094,-7.0899481773376465,-105.04753875732422,20745845.0,50354.0,0.1322441714122,0.15983885553752658,0.014133249941200006,0.008059498800229199,0.004173508000099505,-0.00173973998297894,20.745845605037175
1626,A,598618206459090.0,-0.24884033,12.558966445190583,3.3214874,129,1970-01-07 22:16:58.206459090,-0.041244507,-0.47018433,-0.34381104,5.735599153816152,0.5839353087124494,-76.58057403564453,-7.112125396728516,-105.02851867675781,20796199.0,50354.0,0.045166160062790006,0.1368435609194266,0.1367355115484,0.004466659915545824,0.00746957319913671,0.0037984228080236593,20.796199608943425
1626,A,598618256813094.0,1.5221405,11.775961745190582,3.1805878,129,1970-01-07 22:16:58.256813094,0.065841675,-0.51226807,0.3032837,6.493173479454641,0.5989446588742741,-76.5808334350586,-7.103323459625244,-104.99986267089844,20846553.0,50354.0,0.03205787838009,0.11921128704922655,0.16370274731040002,0.00194426961587639,0.0064466929073067804,0.00756413404328801,20.84655361296609
1626,A,598618307167098.0,7.365143,8.136358745190583,4.1230774,129,1970-01-07 22:16:58.307167098,-0.2630005,-0.45736694,0.3400879,12.406003636065272,0.6277049948276846,-76.59724426269531,-7.092083930969238,-104.97347259521484,20896907.0,50354.0,0.22375513667949998,0.00786329298632654,0.1838843787404,0.006440604280155297,0.00319935670155512,0.008751201072580992,20.896907616988756
1626,A,598618357521102.0,10.156448,4.234091745190582,5.1129913,129,1970-01-07 22:16:58.357521102,0.2396698,-0.4841919,-0.48020935,17.26691000962256,0.7228308438943876,-76.58749389648438,-7.1210527420043945,-104.9553451538086,20947261.0,50354.0,0.44114109660700007,-0.18201836800367346,0.23253650165990003,0.01674009246545421,-0.004384702323711744,0.010484228505838354,20.94726162101142
1626,A,598618407875106.0,5.7706757,3.4439917451905835,2.8592682,129,1970-01-07 22:16:58.407875106,0.58480835,-0.65626526,-0.10385132,15.214595668644161,0.8851384040805892,-76.56210327148438,-7.133725166320801,-104.92440032958984,20997615.0,50354.0,0.40099719339490003,-0.30015809196267346,0.2007175774315,0.02120251572737784,-0.012139756732572718,0.010908037949284178,20.997615625034086
1626,A,598618458229110.0,3.3683777,4.425558745190582,-2.4855194,129,1970-01-07 22:16:58.458229110,-1.1473083,-0.19326782,0.1713562,13.469764907482933,1.1760236956689616,-76.62089538574219,-7.1276350021362305,-104.91292572021484,21047969.0,50354.0,0.2300939474518,-0.29533752730367346,0.0094098735376,0.015888981653097368,-0.014992793206268819,0.005290378833049032,21.047969628940336
1626,A,598618508583114.0,-0.26783752,8.048163245190583,-0.2508545,129,1970-01-07 22:16:58.508583114,-1.373352,0.25439453,-0.1798706,9.187492134584401,1.4082491702615274,-76.687744140625,-7.133449554443359,-104.927490234375,21098323.0,50354.0,0.07806230011186,-0.17941830144817345,-0.0688936856803,0.007758449844910268,-0.01195292750048525,-0.0014976239383167579,21.098323632963
1626,A,598618558937118.0,-0.16770935,8.035238745190583,4.657425,129,1970-01-07 22:16:58.558937118,-1.3634644,0.6282654,0.31298828,10.30691737979535,1.5335299952468744,-76.75254821777344,-7.111001968383789,-104.95466613769531,21148677.0,50354.0,-0.010965763545990001,-0.08853738808817344,0.11094422547850001,0.0016892895011189088,-0.006746320395456605,0.001058706440499282,21.148677636985667
1626,A,598618609291122.0,1.0250549,11.386465745190582,3.1285706,129,1970-01-07 22:16:58.609291122,-0.8075714,2.105423,0.30342102,6.705668977765185,2.2753113831747953,-76.78060913085938,-7.072132587432861,-105.05443572998047,21199031.0,50354.0,0.02158538891235,-0.004488946045673443,0.1960280112212,0.00026737030784884576,-0.002342124014487863,0.007728640003388348,21.199031641008332
1626,A,598618659645125.0,2.5089417,11.737921745190583,1.8320007,129,1970-01-07 22:16:58.659645125,-1.0666656,3.072525,-0.5468445,6.308369768839123,3.2980637175513468,-76.81463623046875,-7.063668727874756,-105.2114486694336,21249385.0,50354.0,0.08897543239820001,0.08873350384532658,0.1248923036201,0.0027835897981357176,0.002121025231721867,0.008079810766759411,21.24938564398326
1626,A,598618709999129.0,3.1717377,9.701575045190584,1.9132996,129,1970-01-07 22:16:58.709999129,-1.1237793,2.542282,-0.8039093,8.388836712555152,2.893500966866778,-76.85433959960938,-7.073856830596924,-105.34539794921875,21299739.0,50354.0,0.1430224652538,0.046313010691426605,0.0942954256531,0.005841011069184405,0.003400066096491835,0.005518489459911357,21.299739648005925
1626,A,598618760353133.0,4.4972076,8.136694745190583,1.60289,129,1970-01-07 22:16:58.760353133,-0.6525574,1.6766357,-0.47377014,10.268975139868571,1.8604828879527135,-76.87615966796875,-7.077872276306152,-105.4330825805664,21350093.0,50354.0,0.19308103581810002,-0.044355081487573396,0.0885271055592,0.008462077846487228,4.9294783565412254e-05,0.004602922868332078,21.35009365202859
1626,A,598618810707137.0,4.404175,8.633108745190583,4.5028687,129,1970-01-07 22:16:58.810707137,-0.6638489,0.90382385,-0.063690186,10.655998538677157,1.123231656272537,-76.90379333496094,-7.070721626281738,-105.47816467285156,21400447.0,50354.0,0.22411010972020004,-0.07125585752267341,0.15372468678989998,0.010503621471217781,-0.002910736611460984,0.006099173375973291,21.40044765593484
1626,A,598618861061141.0,3.1353455,8.221411745190583,7.1228485,129,1970-01-07 22:16:58.861061141,-0.7776184,0.26234436,-0.09156799,11.903353558307275,0.8257721453494358,-76.94095611572266,-7.072216987609863,-105.49208068847656,21450801.0,50354.0,0.1898225076285,-0.06912293761367343,0.2927006819444,0.010421581506988221,-0.0035343169251478043,0.011239651508623471,21.450801659957506
1626,A,598618911415145.0,3.3958893,8.192160745190582,4.6383514,129,1970-01-07 22:16:58.911415145,-0.4359436,0.0920105,0.30177307,10.709743676218654,0.5381261378788759,-76.9626235961914,-7.056481838226318,-105.4931640625,21501155.0,50354.0,0.1644368985596,-0.08022468540967344,0.29611172988230006,0.008919189069597796,-0.0037601251048588044,0.01482453009256083,21.50115566398017
1626,A,598618961769149.0,3.590561,10.656119145190583,1.7624664,129,1970-01-07 22:16:58.961769149,0.67611694,-0.10107422,0.82592773,7.69365254025103,1.0721505163392522,-76.93057250976562,-7.017395496368408,-105.47882080078125,21551509.0,50354.0,0.1758978592031,-0.018926057199873423,0.1611533897506,0.008568608196191499,-0.0024963182466805614,0.011512563916997525,21.551509668002836
1626,A,598619012123153.0,2.125885,4.471930745190583,1.0497742,129,1970-01-07 22:16:59.012123153,1.7737732,-0.92118835,0.24247742,12.974859354715935,2.013368977714671,-77.05490112304688,-7.078062057495117,-105.40546417236328,21601863.0,50354.0,0.143922960942,-0.11259028790987341,0.0708037815862,0.008052128788793182,-0.003311187020828096,0.005839985702746614,21.6018636720255
1626,A,598619062477157.0,3.5333405,1.1738647451905813,-0.37763977,129,1970-01-07 22:16:59.062477157,2.0450745,-0.8548279,-0.15655518,16.443015558817272,2.222064349552797,-76.9576187133789,-7.095296382904053,-105.36528015136719,21652217.0,50354.0,0.1424823204135,-0.35132500693867347,0.016922328544110004,0.007210825768687425,-0.011679995378401866,0.002208680274750815,21.65221767593175
1626,A,598619112831161.0,5.5532227,11.289236745190582,-3.5854034,129,1970-01-07 22:16:59.112831161,1.6832428,-0.11859131,-0.15455627,8.88629024340843,1.694478640513261,-76.87395477294922,-7.10416841506958,-105.36122131347656,21702571.0,50354.0,0.22877240168640003,-0.1796856937766735,-0.09977753789109,0.009347080138309184,-0.01336925641191029,-0.0020860456057289157,21.702571679954417
1626,A,598619163185164.0,3.0938873,15.666907145190583,-0.12614441,129,1970-01-07 22:16:59.163185164,0.5827484,0.09358215,-0.73979187,3.4678628629216437,0.9463854011021512,-76.84319305419922,-7.139126777648926,-105.37429809570312,21752925.0,50354.0,0.21770828847,0.18520563472812662,-0.09344563921237001,0.011241044336067684,0.000138975553334735,-0.004864779929933813,21.752925682929344
1626,A,598619213539168.0,0.64460754,13.078787745190581,2.3844757,129,1970-01-07 22:16:59.213539168,0.20690918,0.03062439,-0.71894836,4.8290674316902376,0.7487563064027134,-76.83163452148438,-7.1737799644470215,-105.38404846191406,21803279.0,50354.0,0.09412408458668,0.23026116025512652,0.056858006888329995,0.007851003656448032,0.010460207497293364,-0.0009211668190223554,21.80327968695201
1626,A,598619263893172.0,0.68122864,11.791601745190583,2.4304657,129,1970-01-07 22:16:59.263893172,0.3210907,-0.7243805,-0.013702393,5.994095601849935,0.7924734077435447,-76.81999206542969,-7.182701587677002,-105.34866333007812,21853633.0,50354.0,0.033380577503860004,0.13269259619932655,0.12122577962780001,0.003210184877453526,0.009138086726253766,0.0044836154931166055,21.853633690974675
1626,A,598619314247176.0,6.179596,9.043905745190582,3.8783875,129,1970-01-07 22:16:59.314247176,-0.14987183,-1.2375336,0.6934967,10.964214259220597,1.426495232893331,-76.83607482910156,-7.163044452667236,-105.27997589111328,21903987.0,50354.0,0.17273498196128004,0.03110637208532655,0.1588379970164,0.005189371440653831,0.0041239666245027114,0.007051165704571024,21.90398769499734
1626,A,598619364601180.0,10.279602,7.3189147451905825,7.2244263,129,1970-01-07 22:16:59.364601180,-0.3000946,-0.79325867,-0.07333374,16.001841749367998,0.8512895652489325,-76.85581970214844,-7.175638198852539,-105.24188995361328,21954341.0,50354.0,0.41439322804600004,-0.08150246851367347,0.27953554304260003,0.014782126943353293,-0.0012688225197764905,0.011036930618065445,21.954341699020006
1626,A,598619414955184.0,7.24028,6.1844087451905825,3.2662354,129,1970-01-07 22:16:59.414955184,0.7270508,-0.17080688,-0.47042847,13.603602710085228,0.8826555395070691,-76.81983947753906,-7.200485706329346,-105.23890686035156,22004695.0,50354.0,0.44109806911400007,-0.15349602448267347,0.26412338962090004,0.021538704388597327,-0.005916557058169028,0.013687700947668942,22.004695702926256
1626,A,598619465309188.0,3.6785736,5.874182745190582,-0.82850647,129,1970-01-07 22:16:59.465309188,-0.30308533,-0.30392456,0.14045715,11.96389754843002,0.45161827511574976,-76.83706665039062,-7.197113990783691,-105.22238159179688,22055049.0,50354.0,0.27490397708720005,-0.18987004204667346,0.06137470127060999,0.018026783517207615,-0.008644927457009368,0.008195065434375549,22.05504970694892
1626,A,598619515663192.0,0.83522034,6.682379745190582,-1.9053497,129,1970-01-07 22:16:59.515663192,-1.1730042,-0.16873169,-0.15959167,10.749180682581152,1.1957753708624732,-76.89652252197266,-7.206800937652588,-105.21592712402344,22105403.0,50354.0,0.11364379002738001,-0.17733262617967346,-0.06883029679209,0.009782467132643783,-0.009245061577934737,-0.00018770952844430233,22.105403710971586
1626,A,598619566017196.0,1.1542206,6.802710745190582,-0.16506958,129,1970-01-07 22:16:59.566017196,-1.2949066,0.31318665,0.0079956055,10.490609114130349,1.332266080844624,-76.95935821533203,-7.2028679847717285,-105.23121643066406,22155757.0,50354.0,0.05008815454638,-0.15395507672367345,-0.05212694621256,0.0041222791685335556,-0.008340830495997566,-0.003045340507128073,22.15575771499425
1626,A,598619616371200.0,2.632965,10.455572745190583,2.6778564,129,1970-01-07 22:16:59.616371200,-0.98361206,1.0712128,0.6526947,7.7442608232320636,1.5940514166329058,-77.00289154052734,-7.1590070724487305,-105.27640533447266,22206111.0,50354.0,0.0953499718512,-0.05895739656267344,0.06326443376714,0.003661695708311872,-0.005360497339930356,0.0002804085241616607,22.206111719016917
1626,A,598619666725204.0,1.9145508,12.750403245190583,2.6679535,129,1970-01-07 22:16:59.666725204,-0.88861084,2.1160278,0.21002197,5.552949905074161,2.3046284089243163,-77.03470611572266,-7.125008583068848,-105.3779296875,22256465.0,50354.0,0.11449280529660001,0.09078765750982659,0.1345914558523,0.0052832116002501615,0.000801390479866475,0.004981417732948641,22.256465723039582
1626,A,598619717079207.0,1.9488678,11.057379745190582,1.6358032,129,1970-01-07 22:16:59.717079207,-1.131485,2.586731,-0.48117065,6.6749148056093635,2.864081138167601,-77.0748519897461,-7.119479656219482,-105.51038360595703,22306819.0,50354.0,0.0972692900922,0.10593935234882657,0.1083556824359,0.005331534275603819,0.004952995927211311,0.006116680100682012,22.30681972601451
1626,A,598619767433211.0,3.8881073,9.980856745190582,2.025406,129,1970-01-07 22:16:59.767433211,-1.0970306,1.9535828,-0.78334045,8.470267159732229,2.373517253865748,-77.11669921875,-7.135845184326172,-105.61515808105469,22357173.0,50354.0,0.14695752209270002,0.036210480118326546,0.0921782640284,0.006148898450379229,0.0035789063320255145,0.005048843170131681,22.357173730037175
1626,A,598619817787215.0,5.206848,8.558645745190583,2.901001,129,1970-01-07 22:16:59.817787215,-1.0895538,1.4201813,-0.54148865,10.520950029383705,1.8700942131462128,-77.1617431640625,-7.146435737609863,-105.69099426269531,22407527.0,50354.0,0.22898368958810003,-0.02670014579967343,0.12403214903899999,0.009465071886487503,0.00023944168714072953,0.00544352956979793,22.407527733943425
1626,A,598619868141219.0,3.0506897,8.533331745190583,4.7627563,129,1970-01-07 22:16:59.868141219,-0.5882416,0.56411743,-0.13702393,10.372725827811115,0.8264576287947313,-77.1875228881836,-7.146857261657715,-105.72025299072266,22457881.0,50354.0,0.20790002667290003,-0.0631444827246734,0.19295041754210002,0.0109994213243032,-0.0022620182123574803,0.007980670078812356,22.45788173796609
1626,A,598619918495223.0,3.6677704,6.417028745190583,5.1526794,129,1970-01-07 22:16:59.918495223,-0.7470398,0.18835449,0.07368469,12.525443875700594,0.7739349521940434,-77.22382354736328,-7.141176700592041,-105.72867584228516,22508235.0,50354.0,0.1691506699377,-0.1170639739336734,0.2496409246189,0.009493005388565078,-0.004537108313287198,0.011143122221587498,22.508235741988756
1626,A,598619968849227.0,5.1553802,8.659872745190583,4.724182,129,1970-01-07 22:16:59.968849227,-0.5647888,0.06312561,-0.0067596436,11.05957472577843,0.5683457785757813,-77.25166320800781,-7.140810012817383,-105.73186492919922,22558589.0,50354.0,0.22214046265620002,-0.11387805117667342,0.2486697394678,0.009851536845316622,-0.005814427366203203,0.012545967589710846,22.55858974601142
1626,A,598620019203231.0,3.7028503,9.578772345190583,1.7636566,129,1970-01-07 22:17:00.019203231,0.7689514,-0.0073242188,0.45845032,8.679701698110115,0.8952745923185202,-77.2138900756836,-7.1185383796691895,-105.72639465332031,22608943.0,50354.0,0.2230236692985,-0.03427483255947343,0.16334431243220002,0.011207897350223484,-0.0037300451538249697,0.0103732777846863,22.608943750034086
1626,A,598620069557235.0,3.0647278,1.7679967451905831,3.5559845,129,1970-01-07 22:17:00.069557235,1.5561523,-1.713913,0.5207367,16.157329395641536,2.3728199390369213,-77.14317321777344,-7.207485675811768,-105.63692474365234,22659297.0,50354.0,0.1703873138237,-0.20779159461147342,0.1339326039747,0.00990490832206763,-0.006094506436882929,0.007484540924376522,22.659297753940336
1626,A,598620119911239.0,4.176422,2.797216745190582,-1.6195831,129,1970-01-07 22:17:00.119911239,2.2747498,-1.452713,0.31373596,15.110340809701766,2.717221368524501,-77.03883361816406,-7.208418369293213,-105.56202697753906,22709651.0,50354.0,0.1823104285146,-0.37853081995267346,0.048752778047800004,0.00887987105885138,-0.014761839431481528,0.004599469863180483,22.709651757963
1626,A,598620170265243.0,4.234894,13.860022345190583,-1.8955841,129,1970-01-07 22:17:00.170265243,1.9356842,-1.2917633,0.081222534,5.7334998554679295,2.3285452208161885,-76.95012664794922,-7.218998908996582,-105.49767303466797,22760005.0,50354.0,0.21177170293199998,-0.07408989142147346,-0.0885013645944,0.009921805823431048,-0.011395631650266897,-0.0010007501634837481,22.760005761985667
1626,A,598620220619247.0,2.446167,14.279227045190583,2.6727448,129,1970-01-07 22:17:00.220619247,0.9590759,-1.0287323,-0.39485168,4.67166663020457,1.4608300983423508,-76.9079818725586,-7.249863624572754,-105.45169067382812,22810359.0,50354.0,0.168209072797,0.21499268190162651,0.019566574943899996,0.009566775990529033,0.0035475095559188135,-0.001735571199030639,22.810359766008332
1626,A,598620270973250.0,0.270813,12.310461745190583,3.2433014,129,1970-01-07 22:17:00.270973250,0.55604553,-0.8698883,-0.34687805,5.897262950153653,1.0891357433679574,-76.88506317138672,-7.2766194343566895,-105.4129409790039,22860713.0,50354.0,0.06840540546,0.17597939467542653,0.14894829517740002,0.005957242719076489,0.009843503971980465,0.004242698885043971,22.86071376898326
1626,A,598620321327254.0,-0.8938446,11.373175445190583,2.2516937,129,1970-01-07 22:17:00.321327254,0.5297394,-0.7845459,0.07395935,6.336548295607139,0.9495294026893493,-76.86356353759766,-7.281928062438965,-105.37358093261719,22911067.0,50354.0,-0.0156860665932,0.10281373354222659,0.13834749163270002,0.0013273147946494235,0.007019174589135853,0.007233246024517889,22.911067773005925
1626,A,598620371681258.0,3.0696564,9.439642745190582,1.8478088,129,1970-01-07 22:17:00.371681258,-0.31381226,-0.92614746,0.49150085,8.57325722786733,1.0944406506254607,-76.88572692871094,-7.268509387969971,-105.32250213623047,22961421.0,50354.0,0.0547804136886,0.03053512357922656,0.1032131744425,0.0009842783768208858,0.003357324175746826,0.006081772889775312,22.96142177702859
1626,A,598620422035262.0,12.225143,7.868307745190583,6.37352,129,1970-01-07 22:17:00.422035262,-0.42530823,-0.8134918,-0.3119049,16.663906447202137,0.9695053717318862,-76.91159057617188,-7.292919635772705,-105.28612518310547,23011775.0,50354.0,0.3850771644938,-0.05770693050367345,0.2069883951976,0.011074294245898285,-0.0006841045829367994,0.007809944918828799,23.01177578093484
1626,A,598620472389266.0,9.014343,4.679525745190583,6.4344788,129,1970-01-07 22:17:00.472389266,0.673584,-0.30015564,-0.2087555,16.737181016948536,0.7664122076663834,-76.87947082519531,-7.306488513946533,-105.27376556396484,23062129.0,50354.0,0.534746539022,-0.17755239621267344,0.3224669857876,0.023158401383417297,-0.005923124068737466,0.013330098127064384,23.062129784957506
1626,A,598620522743270.0,5.8166046,-0.08626625480941641,-1.2570343,129,1970-01-07 22:17:00.522743270,0.4738922,0.1938324,-0.15631104,18.308687860472624,0.5353297654123873,-76.85433959960938,-7.311897277832031,-105.28507995605469,23112483.0,50354.0,0.37339876772520003,-0.3778247058106734,0.1303525201765,0.022864374387974257,-0.013982729297641806,0.011400636701658147,23.11248378898017
1626,A,598620573097274.0,-0.42774963,8.522924745190583,0.6951599,129,1970-01-07 22:17:00.573097274,-0.51560974,-0.5233307,-0.12553406,8.743579860774084,0.7453101540737529,-76.88322448730469,-7.3239569664001465,-105.26083374023438,23162837.0,50354.0,0.13567520157969,-0.28105944918767345,-0.014146311768799998,0.012816955325189217,-0.01658872637039338,0.0029257237090806634,23.162837793002836
1626,A,598620623451278.0,-0.7624054,2.152716745190583,1.2661438,129,1970-01-07 22:17:00.623451278,-1.2140656,0.18399048,0.402359,15.147881321646159,1.2921689296353596,-76.94334411621094,-7.302279472351074,-105.26526641845703,23213191.0,50354.0,-0.029964533190310005,-0.22468857419667343,0.04937974325490001,0.0026614774980394207,-0.012733217984747702,0.00088707210452554,23.2131917970255
1626,A,598620673805282.0,2.188034,9.901663745190582,3.0260468,129,1970-01-07 22:17:00.673805282,-0.93299866,0.7904358,0.68045044,8.223405546155817,1.3993884574268967,-76.98606872558594,-7.260223388671875,-105.29635620117188,23263545.0,50354.0,0.0358930512622,-0.18997606239367346,0.1080644827362,0.0001492622994959744,-0.010440011555435166,0.003963973277777925,23.26354580093175
1626,A,598620724159286.0,2.9270325,14.333395745190582,2.5456085,129,1970-01-07 22:17:00.724159286,-0.8176422,1.6759796,0.086761475,4.840273754294533,1.8668084905477518,-77.01668548583984,-7.237144947052002,-105.37767028808594,23313899.0,50354.0,0.1287820292705,0.11669689278932656,0.1402775654881,0.004146024502571788,-0.001844949653128642,0.006252507748143202,23.313899804954417
1626,A,598620774513289.0,3.0994873,9.834952145190583,1.6104431,129,1970-01-07 22:17:00.774513289,-0.76342773,1.5453949,-0.3308258,8.176936597337994,1.7551390274917265,-77.04483032226562,-7.2359232902526855,-105.45731353759766,23364253.0,50354.0,0.15172968900460002,0.11501729483612656,0.10463691113319999,0.007062443531012193,0.005833868101846033,0.006166211777894471,23.364253807929344
1626,A,598620824867293.0,2.2556305,8.318136745190582,0.69950867,129,1970-01-07 22:17:00.824867293,-0.45303345,1.1595764,-0.40979004,9.217842139400329,1.3106428236323822,-77.05972290039062,-7.242902755737305,-105.51891326904297,23414607.0,50354.0,0.13482580085060003,-0.036428881006873456,0.058157655713290006,0.0072146075680843726,0.0019786204949791054,0.004098678809494079,23.41460781195201
1626,A,598620875221297.0,2.9440002,6.860571745190583,2.448944,129,1970-01-07 22:17:00.875221297,-0.70648193,0.80641174,0.039352417,11.052363793607231,1.0728304733507967,-77.08154296875,-7.436398029327393,-105.55912017822266,23464961.0,50354.0,0.1309111021339,-0.11131485633767345,0.07926859287259001,0.0066904580064407575,-0.003719744075123658,0.003459980660646701,23.464961815974675
1626,A,598620925575301.0,3.7278137,10.184714145190583,5.681656,129,1970-01-07 22:17:00.925575301,-0.8416748,0.7145691,0.22761536,9.78724915803495,1.1273128313550678,-77.11941528320312,-7.417327404022217,-105.59168243408203,23515315.0,50354.0,0.16797625856030002,-0.06432003713787343,0.20470411620000004,0.007525087080197874,-0.004421959713033844,0.007149580896320599,23.51531581999734
1626,A,598620975929305.0,3.1941986,7.2588107451905834,4.0881195,129,1970-01-07 22:17:00.975929305,-0.68911743,0.27546692,-0.278656,11.238630485948507,0.7927256919515674,-77.15171813964844,-7.4278483390808105,-105.60834503173828,23565669.0,50354.0,0.1742755036771,-0.05429357383487342,0.24597363776350006,0.008616872617851021,-0.0029863348834608477,0.011346713811539042,23.565669824020006
1626,A,598621026283309.0,4.5160065,7.261313245190582,4.59346,129,1970-01-07 22:17:01.026283309,-0.55862427,0.07136536,0.3534546,11.867412851449659,0.6648941599248128,-77.17970275878906,-7.409824371337891,-105.60790252685547,23616023.0,50354.0,0.1941198338027,-0.12789603829417345,0.21857612707150006,0.009275089411728926,-0.004586987864573014,0.011695969429250799,23.616023827926256
1626,A,598621076637313.0,3.7528229,11.102927045190583,3.1567383,129,1970-01-07 22:17:01.076637313,0.59825134,0.06736755,0.86898804,7.846601885263594,1.0571581084529595,-77.15061950683594,-7.366711139678955,-105.60147857666016,23666377.0,50354.0,0.2081843178038,-0.031112722209073445,0.19512674259910004,0.01012881162499685,-0.004003363563190247,0.010415797149696699,23.66637783194892
1626,A,598621126991317.0,3.9449768,4.797232745190582,0.78826904,129,1970-01-07 22:17:01.126991317,1.0695801,-0.8264618,0.29040527,13.065842241594751,1.3825251961606426,-77.1027603149414,-7.361764430999756,-105.55758666992188,23716731.0,50354.0,0.1938075030469,-0.09315087695757344,0.09932344979918001,0.010120948073558074,-0.003128584636218669,0.007413372494011498,23.716731835971586
1626,A,598621177345321.0,4.101227,1.9910957451905826,-0.15090942,129,1970-01-07 22:17:01.177345321,2.0537567,-1.2527618,0.4273529,15.780239341738698,2.4433499977433732,-77.00858306884766,-7.354970932006836,-105.49122619628906,23767085.0,50354.0,0.20257927307260004,-0.32255945359767346,0.016046803152740003,0.009979829862360652,-0.010466338992389452,0.00290467685857049,23.76708583999425
1626,A,598621227699325.0,2.1184235,9.160620745190583,-1.5646362,129,1970-01-07 22:17:01.227699325,1.4016724,-0.7172699,-0.16244507,8.486674039923512,1.5828929297760714,-76.9427719116211,-7.370967388153076,-105.45782470703125,23817439.0,50354.0,0.15659214063850002,-0.21270243392167346,-0.043192292074740006,0.009042858683004367,-0.013476288542074598,-0.0006834419745891941,23.817439844016917
1626,A,598621278053329.0,1.9891052,13.668555045190583,4.539261,129,1970-01-07 22:17:01.278053329,0.42071533,-0.30477905,-0.6282654,6.101916348188307,0.8152355923615402,-76.92274475097656,-7.4050164222717285,-105.45002746582031,23867793.0,50354.0,0.10341525007989999,0.0813009588744266,0.07489212858960001,0.0065462060761171574,-0.0033082949372645345,0.0007981067839346304,23.867793848039582
1626,A,598621328407332.0,0.7110443,12.730246345190583,2.4971466,129,1970-01-07 22:17:01.328407332,0.21409607,-0.5014496,-0.43881226,5.193652417600239,0.6998892970005418,-76.91456604003906,-7.43206262588501,-105.43040466308594,23918147.0,50354.0,0.0679816639615,0.1711734226056266,0.17715563414520002,0.004315260104820328,0.0063565475025233,0.0063458065223740605,23.91814785101451
1626,A,598621378761336.0,0.6826172,13.206366345190583,2.3547668,129,1970-01-07 22:17:01.378761336,0.47387695,-0.5286255,0.1113739,4.710311481370721,0.7186156334180064,-76.89440155029297,-7.432626724243164,-105.40316772460938,23968501.0,50354.0,0.0350882155855,0.15953689770572654,0.12215662367180002,0.002594990357354819,0.00832629373447894,0.007535784715058611,23.968501855037175
1626,A,598621429115340.0,1.7593994,11.093191745190584,1.9927979,129,1970-01-07 22:17:01.429115340,0.057647705,-0.6216583,0.66711426,6.686297508815231,0.9136868915257592,-76.7776870727539,-7.602841854095459,-105.38055419921875,24018855.0,50354.0,0.0614826519382,0.1183207740415266,0.10945863645190002,0.002431364731644195,0.0069956226015805935,0.0058313774041343965,24.018855858943425
1626,A,598621479469344.0,14.015274,6.799551745190582,4.6644135,129,1970-01-07 22:17:01.479469344,-0.78681946,-0.8683319,0.1846466,18.08159130226215,1.1862459770569769,-76.82295989990234,-7.603766441345215,-105.33577728271484,24069209.0,50354.0,0.39715895219180003,-0.04298359714267342,0.1676086114178,0.011547219667181011,0.0018967641027824269,0.0069757220996154385,24.06920986296609
1626,A,598621529823348.0,7.296875,3.797003745190583,8.590805,129,1970-01-07 22:17:01.529823348,0.7247772,-0.049087524,-0.55973816,17.53415730099539,0.9170705438582553,-76.78617095947266,-7.631575584411621,-105.33981323242188,24119563.0,50354.0,0.536575975373,-0.22667972241867346,0.3337266361745,0.023508644271298968,-0.00678931339659603,0.012622117528631337,24.119563866988756
1626,A,598621580177352.0,5.820511,6.076345745190583,-1.5653992,129,1970-01-07 22:17:01.580177352,0.7114105,-0.464859,0.47737122,12.676570366978822,0.974721535145058,-76.7543716430664,-7.61366605758667,-105.31148529052734,24169917.0,50354.0,0.330256427322,-0.24488787988067343,0.1768786418266,0.021824239402652015,-0.011872657523090658,0.012855509084233696,24.16991787101142
1626,A,598621630531356.0,-0.56718445,7.594366745190582,2.4051666,129,1970-01-07 22:17:01.630531356,-0.8826752,-0.49276733,0.0036010742,9.945835915192164,1.0109144958629106,-76.80171966552734,-7.619121551513672,-105.28723907470703,24220271.0,50354.0,0.13226300254935,-0.14928167162967346,0.021142823829799994,0.01164485168587098,-0.009924006798376003,0.004985586440831183,24.220271875034086
1626,A,598621680885360.0,-0.7804718,4.563788245190583,-2.3715515,129,1970-01-07 22:17:01.680885360,-1.3491821,-0.5074768,-0.3899231,12.908286182855868,1.4932732721817061,-76.87187957763672,-7.6438889503479,-105.26678466796875,24270625.0,50354.0,-0.033929941406250004,-0.18736333180717346,0.0008463273727000002,0.002475731480399829,-0.008475711251529496,0.0005536208598253424,24.270625878940336
1626,A,598621731239364.0,-2.883072,6.411825745190583,4.322998,129,1970-01-07 22:17:01.731239364,-1.3672943,1.1291656,0.42808533,11.999876868084604,1.8242164632512938,-76.93354797363281,-7.610244274139404,-105.31737518310547,24320979.0,50354.0,-0.0922370422526,-0.21713616656417342,0.04913156853050001,-0.003176506147578867,-0.010184083870495401,0.0012582934851548668,24.320979882963
1626,A,598621781593368.0,2.08786,13.677405145190583,5.0079193,129,1970-01-07 22:17:01.781593368,-0.9624634,2.1033478,0.42945862,6.4843995866031,2.3526245918966127,-76.96865844726562,-7.565581798553467,-105.41583251953125,24371333.0,50354.0,-0.020021052523999997,0.012317366127126599,0.2349245048621,-0.002826322052190458,-0.005156722938603528,0.007151679759805491,24.371333886985667
1626,A,598621831947372.0,2.3330688,10.898093045190581,0.9423218,129,1970-01-07 22:17:01.831947372,-1.1187286,2.7477264,-0.5299988,6.811974832272296,3.0137107986195955,-77.00603485107422,-7.56046724319458,-105.55690002441406,24421687.0,50354.0,0.11130572439760002,0.12526811793922654,0.14980922017470003,0.0022982741837616278,0.0034639897323385737,0.009686440995251514,24.421687891008332
1626,A,598621882301375.0,2.2865295,9.534323545190583,1.8616333,129,1970-01-07 22:17:01.882301375,-0.89352417,2.4658966,-0.89120483,8.239631956321785,2.7700681459633945,-77.01844787597656,-7.7891645431518555,-105.69013977050781,24472041.0,50354.0,0.1163076263991,0.02095775249602654,0.0705951775527,0.0057306213330085174,0.0036815287399483672,0.005549121521582751,24.47204189398326
1626,A,598621932655379.0,6.53006,8.590643745190583,2.5195007,129,1970-01-07 22:17:01.932655379,-0.60180664,1.248764,-0.6636963,11.117512453930532,1.5369045312828573,-77.03919219970703,-7.807486534118652,-105.75906372070312,24522395.0,50354.0,0.22197527384149998,-0.03713689853007342,0.11030381071800001,0.008516948579357586,-0.00040734235969919826,0.004554493827691414,24.522395898005925
1626,A,598621983009383.0,5.6927795,7.485037745190583,2.5359955,129,1970-01-07 22:17:01.983009383,-0.80641174,1.0375977,-0.0050201416,11.565925544003665,1.3141286403076382,-77.07257080078125,-7.796108245849609,-105.81014251708984,24572749.0,50354.0,0.3077344300915,-0.08873176711667342,0.1272822278274,0.013336501215921141,-0.0031689953949881455,0.005981703692457536,24.57274990202859
1626,A,598622033363387.0,2.1352386,9.520743145190583,6.0963593,129,1970-01-07 22:17:02.033363387,-1.0113525,0.6386719,-0.3821106,10.056422788403578,1.2556847477524842,-77.11827850341797,-7.807598114013672,-105.84587097167969,24623103.0,50354.0,0.19708601170370002,-0.06531465452287342,0.2173367967996,0.012709864263077752,-0.003878426757618871,0.008676473183033979,24.62310390593484
1626,A,598622083717391.0,3.3389435,6.433172745190582,3.1638641,129,1970-01-07 22:17:02.083717391,-0.55578613,0.41773987,0.5101929,11.73430291292423,0.8623813637239639,-77.0605239868164,-7.995660781860352,-105.87212371826172,24673457.0,50354.0,0.1378234827317,-0.09179745962787346,0.2331446445418,0.008432016341400067,-0.003955611697973355,0.011341771248652429,24.673457909957506
1626,A,598622134071395.0,5.3045654,11.789999745190583,4.7005005,129,1970-01-07 22:17:02.134071395,0.4296112,0.20358276,0.7102661,8.933559590798811,0.8546868760802798,-77.03876495361328,-7.958770751953125,-105.87410736083984,24723811.0,50354.0,0.2176176235753,-0.03466438620967345,0.1980011075342,0.00894894073349134,-0.003183929892651919,0.010854956600017453,24.72381191398017
1626,A,598622184425399.0,5.026947,5.729391745190583,-0.8336792,129,1970-01-07 22:17:02.184425399,1.5509644,-0.5436096,0.4298401,12.57738662401477,1.698753801716873,-76.96559143066406,-7.943946838378906,-105.84248352050781,24774165.0,50354.0,0.26011648769480006,-0.05238348044667343,0.09735495987010002,0.01202791171944731,-0.0021916041388068456,0.007436179709038063,24.774165918002836
1626,A,598622234779403.0,4.4589386,1.1971807451905825,2.3471375,129,1970-01-07 22:17:02.234779403,2.1571503,-1.2439423,0.2615204,16.80442601724097,2.5038136476454356,-76.98111724853516,-8.131427764892578,-105.76248168945312,24824519.0,50354.0,0.2388261417512,-0.31907888440967347,0.03810433961910001,0.012561878581561945,-0.009352307959988246,0.00341045878323959,24.8245199220255
1626,A,598622285133407.0,1.2754974,9.286276745190584,-2.399826,129,1970-01-07 22:17:02.285133407,1.5515137,-0.5828247,-0.43429565,8.394174706181172,1.7133277864514727,-76.90689849853516,-8.159165382385254,-105.73875427246094,24874873.0,50354.0,0.144375895172,-0.22952719076467343,-0.001326538364499998,0.009647877683615406,-0.013812255154664532,0.0009259547021870646,24.87487392593175
1626,A,598622335487411.0,2.9071808,12.884451745190582,4.1257477,129,1970-01-07 22:17:02.335487411,0.9246216,-0.53808594,-0.8001709,6.65903283069906,1.335939763319834,-76.8631362915039,-8.204233169555664,-105.7214584350586,24925227.0,50354.0,0.1053072890414,0.06472323120232656,0.0434535306409,0.0062862735289407725,-0.004149269289901207,0.0010606312845429229,24.925227929954417
1626,A,598622385841414.0,0.57899475,11.160849345190583,1.7482758,129,1970-01-07 22:17:02.385841414,0.29005432,-0.50665283,-0.72628784,6.340816097952105,0.9318383042296217,-76.77716064453125,-8.171533584594727,-105.71537780761719,24975581.0,50354.0,0.08777144182235,0.11191934555252654,0.14789028965950002,0.004861143206956634,0.004447330154956937,0.004817463363703171,24.975581932929344
1626,A,598622436195418.0,-0.22961426,12.407568745190583,2.1430511,129,1970-01-07 22:17:02.436195418,0.22117615,-0.38417053,-0.15696716,5.280631543256124,0.47026011394521755,-76.7685317993164,-8.183568000793457,-105.69830322265625,25025935.0,50354.0,0.00879635259673,0.09991286226152657,0.09797193736130001,0.0024312873600891775,0.005333299496134415,0.006190073289702683,25.02593593695201
1626,A,598622486549422.0,2.3348694,12.318259045190583,2.694809,129,1970-01-07 22:17:02.486549422,-0.07676697,-0.3239746,0.55966187,6.0681418918581205,0.6512097341563913,-76.77554321289062,-8.160036087036133,-105.6759033203125,25076289.0,50354.0,0.05300400865978001,0.12905296627842658,0.12180280373770001,0.0015559476953551526,0.005764672665150401,0.005533268656649524,25.076289940974675
1626,A,598622536903426.0,9.834488,8.708700745190583,5.517807,129,1970-01-07 22:17:02.536903426,-0.52272034,-0.49299622,0.2698059,14.133199367925224,0.7675135506678784,-76.8055648803711,-8.152533531188965,-105.64854431152344,25126643.0,50354.0,0.3063879112598,0.03592656664242659,0.20676903303200003,0.009048410367815268,0.0041536897003483205,0.008272453134350738,25.12664394499734
1626,A,598622587257430.0,8.4721985,3.9813907451905823,7.908783,129,1970-01-07 22:17:02.587257430,-0.11073303,-0.637619,-0.7162781,17.601370113459357,0.9653362676464564,-76.81438446044922,-8.194681167602539,-105.62545013427734,25176997.0,50354.0,0.4609074460105,-0.17397076654667343,0.33804125643000005,0.019318195209994345,-0.0034755388209892226,0.013716688657784776,25.176997949020006
1626,A,598622637611434.0,5.944519,8.697409745190583,3.571991,129,1970-01-07 22:17:02.637611434,0.85884094,-1.0380554,0.6121979,10.99422209712165,1.479848993125195,-76.77971649169922,-8.176736831665039,-105.56732177734375,25227351.0,50354.0,0.3629696964975,-0.17425504005367343,0.289051446998,0.02074275481692392,-0.008767281132776934,0.015788312994206757,25.227351952926256
1626,A,598622687965438.0,3.863922,4.041861745190582,0.4633789,129,1970-01-07 22:17:02.687965438,-1.0063477,-0.833725,0.60139465,13.748723333622406,1.4385786714562792,-76.83684539794922,-8.156972885131836,-105.51940155029297,25277705.0,50354.0,0.246947119057,-0.17273256168667345,0.10159850797230001,0.01535587566521565,-0.008736106849016713,0.009835393916287244,25.27770595694892
1626,A,598622738319442.0,-0.6756592,8.619268745190583,-2.5145416,129,1970-01-07 22:17:02.738319442,-0.7087555,0.07324219,-0.016616821,8.994179384785484,0.7127235760913148,-76.87174987792969,-8.156949996948242,-105.52320098876953,25328059.0,50354.0,0.0802708925156,-0.17469991764367346,-0.0516421232979,0.00823836787736335,-0.008747307532100145,0.0012577518969473691,25.328059960971586
1626,A,598622788673446.0,-0.5943451,7.482489745190582,3.9513855,129,1970-01-07 22:17:02.788673446,-1.3789368,0.7833557,0.28224182,10.53318441037943,1.6108300022266913,-76.93569946289062,-8.134328842163086,-105.55850219726562,25378413.0,50354.0,-0.031974898261100004,-0.08807522648767345,0.03617541887030001,0.0012159482473455465,-0.006615889803794921,-0.0003894052173736849,25.37841396499425
1626,A,598622839027450.0,3.691681,11.130575745190583,3.2822266,129,1970-01-07 22:17:02.839027450,-0.9514618,1.7326965,0.50450134,7.847550619843912,2.040107428552057,-76.97203826904297,-8.090194702148438,-105.63799285888672,25428767.0,50354.0,0.0779816259543,-0.02484805014867343,0.1821206518417,0.0011583113831316963,-0.0028430693358733054,0.005496040172316025,25.428767969016917
1626,A,598622889381454.0,3.4789124,12.980933045190582,1.6855164,129,1970-01-07 22:17:02.889381454,-1.2151947,2.270279,-0.3366089,5.743180719774472,2.5969540712743266,-77.01655578613281,-8.081052780151367,-105.75354766845703,25479121.0,50354.0,0.1805340300318,0.11358625681542657,0.12507286551100003,0.00650864867076204,0.0022341618292488438,0.00773421118638893,25.479121973039582
1626,A,598622939735457.0,3.585022,9.687384445190583,2.5914001,129,1970-01-07 22:17:02.939735457,-0.9575043,1.6653748,-0.5287781,8.742625620775975,1.99245928139903,-77.05204772949219,-8.088129997253418,-105.84148406982422,25529475.0,50354.0,0.1778486763888,0.07725102945532657,0.10767992672050002,0.009023001399551447,0.004804710356438752,0.005860017050012476,25.52947597601451
1626,A,598622990089461.0,3.8879395,8.994146745190582,1.5510254,129,1970-01-07 22:17:02.990089461,-0.353714,1.6786957,-0.88793945,9.237067944669153,1.9317270288166475,-77.05667877197266,-8.112594604492188,-105.93416595458984,25579829.0,50354.0,0.18814675168550002,-0.023124289219773452,0.1042938468135,0.009214666892626653,0.0013627489389105207,0.005336863696265519,25.579829980037175
1626,A,598623040443465.0,3.4317932,7.3112552451905835,3.3855438,129,1970-01-07 22:17:03.040443465,-0.15678406,1.200943,-0.15901184,11.026665816237333,1.2215277712681236,-77.05592346191406,-8.106893539428711,-105.99507904052734,25630183.0,50354.0,0.1842889101879,-0.08294809408817344,0.1242880027484,0.009376812658986593,-0.002670584394544179,0.005755005226419957,25.630183983943425
1626,A,598623090797469.0,3.5611115,9.134649745190583,6.0016937,129,1970-01-07 22:17:03.090797469,-0.8331604,0.36035156,-0.06135559,10.68687986281908,0.909820865526199,-77.09497833251953,-8.105854034423828,-106.01351165771484,25680537.0,50354.0,0.17606036163190003,-0.07941065005717342,0.2363424785375,0.009072513616607106,-0.0040877061013473975,0.009079593627335106,25.68053798796609
1626,A,598623141151473.0,4.0298615,7.8924777451905825,3.3164063,129,1970-01-07 22:17:03.141151473,-0.8481903,0.43937683,-0.014709473,10.695623169856814,0.9553508006752685,-77.13432312011719,-8.101679801940918,-106.03532409667969,25730891.0,50354.0,0.19111792722100002,-0.06477721117467344,0.2346018037,0.009244447778449466,-0.003630217782234208,0.011856964193893538,25.730891991988756
1626,A,598623191505477.0,4.580353,9.925970745190583,2.9671936,129,1970-01-07 22:17:03.191505477,-0.21595764,0.6034088,0.37731934,9.11637158090317,0.7437134976117115,-77.14153289794922,-8.076568603515625,-106.06078338623047,25781245.0,50354.0,0.2167793704665,-0.04485412235767344,0.1582021946823,0.010269630263878188,-0.0027601880843438975,0.009889626267271167,25.78124599601142
1626,A,598623241859481.0,2.8239746,9.055639745190582,1.757019,129,1970-01-07 22:17:03.241859481,0.7280121,-0.19909668,0.45368958,8.82353172327624,0.8806107770939491,-77.10723114013672,-8.056669235229492,-106.04588317871094,25831600.0,50355.0,0.186422458149,-0.015569501878428257,0.11894386273649998,0.010151614039966752,-0.0015213157992044505,0.0069778448606618365,25.831600000034086
1626,A,598623292213485.0,4.0526123,1.2247837451905816,3.0719604,129,1970-01-07 22:17:03.292213485,1.322998,-1.692749,0.21730042,16.79207848019058,2.1593847173528795,-77.10287475585938,-8.212552070617676,-105.95313262939453,25881954.0,50354.0,0.1731318283813,-0.23463897778267348,0.1215792143538,0.009052498271973363,-0.006299498892427558,0.006055649511902483,25.881954003940336
1626,A,598623342567489.0,4.2070923,4.453878745190583,-1.4518585,129,1970-01-07 22:17:03.342567489,1.9445801,-1.1292877,0.25146484,13.527526151620132,2.262723368077398,-77.01399993896484,-8.212945938110352,-105.89469146728516,25932308.0,50354.0,0.2079545827142,-0.3504975144796735,0.0407893055363,0.009594612572151405,-0.01473198146568911,0.004087952225273047,25.932308007963
1626,A,598623392921493.0,2.689743,12.132132345190582,1.1881866,129,1970-01-07 22:17:03.392921493,1.10495,-0.7899933,-0.13342285,5.883678406227054,1.3648463552528587,-76.96408081054688,-8.228337287902832,-105.8573226928711,25982662.0,50354.0,0.17364162234810002,-0.07588319877747346,-0.0066384674262999965,0.009607447654853529,-0.010734987217675188,0.0008598156510954702,25.982662011985667
1626,A,598623443275497.0,2.7010345,13.384207545190582,4.8503723,129,1970-01-07 22:17:03.443275497,0.59469604,-0.7669983,-0.417984,6.752697844410039,1.056721532122144,-76.93907165527344,-8.257352828979492,-105.82433319091797,26033016.0,50354.0,0.1357236051175,0.14895568942012655,0.15203279742530001,0.0077888883319014125,0.001839746096910077,0.0036605930463848237,26.033016016008332
1626,A,598623493629500.0,0.47169495,11.929632745190583,2.071869,129,1970-01-07 22:17:03.493629500,0.52282715,-0.8918915,-0.269516,5.708875860666222,1.068390167871912,-76.71070098876953,-8.194831848144531,-105.81328582763672,26083370.0,50354.0,0.07987980936265,0.14385735699092658,0.1742812692101,0.005428247166366738,0.0073721540694910844,0.008215609255679468,26.08337001898326
1626,A,598623543983504.0,0.5401306,11.712363045190582,1.1209564,129,1970-01-07 22:17:03.543983504,0.31121826,-0.8027649,0.34217834,5.654565125604427,0.9264849196800741,-76.74659729003906,-8.119678497314453,-105.76341247558594,26133724.0,50354.0,0.02547473187235,0.10176532801442655,0.0803857650958,0.0026525112846735952,0.006184042340379775,0.006411751922719644,26.133724023005925
1626,A,598623594337508.0,3.9291687,10.455038745190583,2.4169617,129,1970-01-07 22:17:03.594337508,-0.42900085,-0.9082794,0.7528839,8.194965541327893,1.25532759256072,-76.77557373046875,-8.093437194824219,-105.71005249023438,26184078.0,50354.0,0.11252354847610001,0.06463947487642656,0.0890741640037,0.0034743827043329264,0.004189573722383009,0.004266492634938112,26.18407802702859
1626,A,598623644691512.0,9.324295,8.605764745190582,5.9839935,129,1970-01-07 22:17:03.644691512,-0.5252991,-0.72831726,0.22143555,14.039201514457588,0.9248885762504152,-76.80723571777344,-8.090981483459473,-105.67169189453125,26234432.0,50354.0,0.3336824555749,-0.013575350522673446,0.21151084907040002,0.011234128563992028,0.0012856414588544422,0.007567828874166616,26.23443203093484
1626,A,598623695045516.0,7.5191956,7.002966745190582,5.136688,129,1970-01-07 22:17:03.695045516,0.5170288,-0.16220093,-0.5612793,13.692399054141402,0.7801681705445275,-76.78157806396484,-8.120156288146973,-105.6701889038086,26284786.0,50354.0,0.4240685628362,-0.10048816726667348,0.2799853981255,0.019077897390536266,-0.0028717771873823877,0.012374401015651175,26.284786034957506
1626,A,598623745399520.0,4.4167175,7.083181745190583,-0.7877655,129,1970-01-07 22:17:03.745399520,0.506897,-0.1972351,0.05215454,11.092874927536165,0.546412252171949,-76.7576904296875,-8.119871139526367,-105.6598892211914,26335140.0,50354.0,0.3005104841187,-0.13882223945767347,0.10949282178250001,0.01824272666518352,-0.0060251181100988834,0.009805893142623718,26.33514003898017
1626,A,598623795753524.0,0.17732239,4.793936745190583,-0.9045868,129,1970-01-07 22:17:03.795753524,-1.148468,-0.42417908,-0.24923706,12.468508354029304,1.249410161240531,-76.81766510009766,-8.136852264404297,-105.64192199707031,26385494.0,50354.0,0.11566414231052999,-0.19443898776767343,-0.042608353857100004,0.010478028569608723,-0.00839051791785256,0.001683950248957796,26.385494043002836
1626,A,598623846107528.0,-1.5095367,3.6135777451905824,0.99331665,129,1970-01-07 22:17:03.846107528,-1.1845245,-0.48451233,-0.36672974,13.73414313527896,1.331293052345255,-76.87966918945312,-8.1602201461792,-105.62230682373047,26435848.0,50354.0,-0.03354115968287,-0.28179320767567345,0.00223395143345,0.002067610333616596,-0.011990097984677145,-0.0010165063298202361,26.4358480470255
1626,A,598623896461532.0,0.57507324,8.667929745190582,5.039871,129,1970-01-07 22:17:03.896461532,-1.0693054,0.5322418,0.51330566,9.950444932928432,1.3000684877053346,-76.93025207519531,-8.129194259643555,-105.64260864257812,26486202.0,50354.0,-0.02352698653242,-0.18425768591467348,0.15189756546405,-0.0014368047172623564,-0.011733763347924165,0.003880569200928358,26.48620205093175
1626,A,598623946815536.0,1.6517181,10.612982745190582,2.828354,129,1970-01-07 22:17:03.946815536,-0.631073,2.2871704,0.21261597,7.381767781328847,2.3821433879311718,-76.94628143310547,-8.09299087524414,-105.7527084350586,26536556.0,50354.0,0.056063925567180005,-0.008033666229673471,0.19809830082500002,0.0008191825140781526,-0.004841319372938223,0.008811845925559413,26.536556054954417
1626,A,598623997169539.0,1.1217651,9.736288745190583,1.3666534,129,1970-01-07 22:17:03.997169539,-0.9326477,2.6001282,-0.5460205,7.697836507521744,2.8157835099969564,-77.0418472290039,-8.097705841064453,-105.87730407714844,26586910.0,50354.0,0.06982798652640002,0.018864408313326555,0.1056177013098,0.0031695806707800647,0.0002726855934401337,0.007646657785747859,26.586910057929344
1626,A,598624047523543.0,3.140396,9.584143445190582,1.3583374,129,1970-01-07 22:17:04.047523543,-1.0851746,2.11557,-0.59103394,8.375002088833343,2.450012541930568,-77.08049011230469,-8.102825164794922,-105.98812866210938,26637264.0,50354.0,0.10730843001470002,-0.007038678742773437,0.0686070933716,0.004459763559255275,0.0002977363933978159,0.004386457655693609,26.63726406195201
1626,A,598624097877547.0,5.16214,10.105322745190582,2.7341614,129,1970-01-07 22:17:04.097877547,-1.1385956,1.5775299,-0.50442505,9.211974337070798,2.0098370970804753,-77.12565612792969,-8.109803199768066,-106.07146453857422,26687618.0,50354.0,0.209032948872,0.0022524902752265436,0.10303684228759999,0.007964526896230447,-0.00012050186704742815,0.004321479368091678,26.687618065974675
1626,A,598624148231551.0,5.1579742,9.234640745190582,4.816925,129,1970-01-07 22:17:04.148231551,-1.1774445,1.2110901,-0.66204834,10.66332181864449,1.8142278758179788,-77.17506408691406,-8.128609657287598,-106.13854217529297,26737972.0,50354.0,0.2598295152134,-0.0065469392026734664,0.19011370229280003,0.011804550258278116,-0.00010812134064633117,0.007380651260900732,26.73797206999734
1626,A,598624198585555.0,3.9027557,8.585669745190582,5.449951,129,1970-01-07 22:17:04.198585555,-0.66078186,0.66955566,-0.36868286,10.937501365485605,1.0103783942666604,-77.20285034179688,-8.139162063598633,-106.17564392089844,26788326.0,50354.0,0.22812199669230002,-0.044807242783673464,0.258489137052,0.012285155215249808,-0.0012929442398702568,0.01129447368618403,26.788326074020006
1626,A,598624248939559.0,4.5961456,7.9857697451905825,4.780426,129,1970-01-07 22:17:04.248939559,-0.49777222,0.3322296,0.418396,11.375492585413228,0.7302115467012887,-77.22608947753906,-8.115086555480957,-106.18733978271484,26838680.0,50354.0,0.2139768380301,-0.07625006795067345,0.257570201729,0.011130722361805866,-0.0030478599123586526,0.012992825972489236,26.838680077926256
1626,A,598624299293563.0,4.2877045,10.997778745190583,3.1275177,129,1970-01-07 22:17:04.299293563,0.033416748,0.2129364,0.6766968,8.18446503078598,0.710195148267077,-77.2239990234375,-8.07973575592041,-106.19027709960938,26889034.0,50354.0,0.2236686939677,-0.015520399657673427,0.19909829853490002,0.011018601559108611,-0.0023105050629753494,0.011497542831144212,26.88903408194892
1626,A,598624349647567.0,3.0840454,5.994452745190582,2.200653,129,1970-01-07 22:17:04.349647567,1.0498657,-0.53401184,0.57489014,11.855550063169199,1.3106812375119647,-77.2174072265625,-8.232217788696289,-106.1517562866211,26939388.0,50354.0,0.18559854723230002,-0.06565578776667344,0.1341473537139,0.0103041213316924,-0.0020437728707827815,0.008390125786668038,26.939388085971586
1626,A,598624400001571.0,4.694046,0.3717107451905832,0.33122253,129,1970-01-07 22:17:04.400001571,1.963562,-1.1102448,0.38842773,17.50111933695284,2.288907019781274,-77.127685546875,-8.225607872009277,-106.09271240234375,26989742.0,50354.0,0.19582900717780002,-0.33318830180267345,0.06374503021880999,0.009603201537383088,-0.010041697643087448,0.004982336550273839,26.98974208999425
1626,A,598624450355575.0,6.015808,7.6588657451905835,-1.5648346,129,1970-01-07 22:17:04.450355575,2.0484772,-0.7914734,0.1594696,11.411098966882424,2.201844575611903,-77.03109741210938,-8.226683616638184,-106.05194091796875,27040096.0,50354.0,0.269641994158,-0.2912833757016734,-0.03105865108639,0.011719163400631437,-0.01572232342452694,0.0008229449674169383,27.040096094016917
1626,A,598624500709579.0,4.381363,13.106680745190584,1.0753021,129,1970-01-07 22:17:04.500709579,0.93177795,-0.3703766,-0.4039154,6.110692052745123,1.0809887253301593,-76.98645782470703,-8.250526428222656,-106.03829956054688,27090450.0,50354.0,0.26176957426700004,0.029344963988326613,-0.012324959752499998,0.013379349058236227,-0.006594823391706933,-0.0010922691700907335,27.090450098039582
1626,A,598624551063582.0,1.970108,11.396460345190583,3.4814148,129,1970-01-07 22:17:04.551063582,0.33280945,-0.4270172,-0.6179657,7.071930801243928,0.8215761836139315,-76.9718246459961,-8.285439491271973,-106.02430725097656,27140804.0,50354.0,0.15991098536700002,0.1234463832325266,0.11472446139129999,0.01061665144990522,0.0038468277489794216,0.0025781122527600677,27.14080410101451
1626,A,598624601417586.0,0.59065247,11.556097745190582,2.7939606,129,1970-01-07 22:17:04.601417586,0.27124023,-0.7045746,-0.27389526,6.350530211702441,0.8031284098984922,-76.96280670166016,-8.30672550201416,-105.99274444580078,27191158.0,50354.0,0.06447226635319,0.08440735504152658,0.1579951264458,0.005649297128559224,0.005233133568525838,0.0068662610629746665,27.191158105037175
1626,A,598624651771590.0,1.651474,12.093848045190583,1.9218597,129,1970-01-07 22:17:04.651771590,0.12361145,-0.85520935,0.39500427,5.725709719593771,0.9501006242586929,-76.96336364746094,-8.297130584716797,-105.9461441040039,27241512.0,50354.0,0.05645001813519,0.10196548516442658,0.1187302076931,0.0030444603565639434,0.004692308997865283,0.006967113737615086,27.241512108943425
1626,A,598624702125594.0,8.152985,10.724753145190583,2.8960876,129,1970-01-07 22:17:04.702125594,-0.5961914,-0.9368439,0.60183716,10.823812560566775,1.2630631993522872,-77.00079345703125,-8.278362274169922,-105.8931655883789,27291866.0,50354.0,0.246846864243,0.08103472217022659,0.12130145917210002,0.007636105607635691,0.004607396220064563,0.006043277276665141,27.29186611296609
1626,A,598624752479598.0,9.321457,6.679571745190582,6.6522217,129,1970-01-07 22:17:04.752479598,-0.13922119,-0.32867432,-0.30477905,15.569771446822973,0.46936086084310547,-77.00961303710938,-8.296905517578125,-105.88046264648438,27342220.0,50354.0,0.43995402623400004,-0.055280512234873444,0.2403977832461,0.01729158601953943,0.0006484137435423861,0.009106501826363023,27.342220116988756
1626,A,598624802833602.0,8.320068,1.746313745190582,4.2808075,129,1970-01-07 22:17:04.802833602,0.3597107,-0.5614166,-0.48484802,18.089816970239923,0.8244137243811328,-76.99481964111328,-8.326838493347168,-105.85831451416016,27392574.0,50354.0,0.44416067492500005,-0.2813306810086735,0.2752608761684,0.022259355831080144,-0.008474860012292782,0.01298273806807887,27.39257412101142
1626,A,598624853187606.0,3.175354,6.482107745190582,1.0568085,129,1970-01-07 22:17:04.853187606,-0.45083618,-0.5927429,-0.33821106,11.255259905912625,0.8179144990790456,-77.02102661132812,-8.349979400634766,-105.83296966552734,27442928.0,50354.0,0.289420239694,-0.2863022321366735,0.134385158032,0.018469366687362564,-0.014291293854260404,0.010313658203063472,27.442928125034086
1626,A,598624903541610.0,-1.8287811,6.865728745190582,0.7972717,129,1970-01-07 22:17:04.903541610,-1.1233978,-0.38160706,-0.1734314,10.552888590777556,1.1990517152285982,-77.07964324951172,-8.36270809173584,-105.8161392211914,27493282.0,50354.0,0.0339026659033,-0.15741072068167347,0.046680177195400005,0.008140300794223222,-0.011171361013107523,0.00455868194502025,27.493282128940336
1626,A,598624953895614.0,-1.3261261,5.858740745190582,1.758667,129,1970-01-07 22:17:04.953895614,-1.1176453,0.18249512,0.3742981,11.580973087088978,1.1927005295125488,-77.13484191894531,-8.342432975769043,-105.8209228515625,27543636.0,50354.0,-0.0794310985744,-0.17310523164067348,0.0643508686499,-0.0011462693493602847,-0.00832140013161973,0.0027954286412471183,27.543636132963
1626,A,598625004249618.0,1.2210541,11.732809745190583,4.105591,129,1970-01-07 22:17:05.004249618,-0.8641052,1.1005554,0.47554016,6.967605377646168,1.4778492578436495,-77.17095947265625,-8.307013511657715,-105.86978912353516,27593990.0,50354.0,-0.0026453977440000017,-0.05056673330367345,0.14764442366600003,-0.002066439947808357,-0.0056313890614038235,0.005337405474637415,27.593990136985667
1626,A,598625054603622.0,2.8136444,12.173010745190583,2.1491547,129,1970-01-07 22:17:05.054603622,-0.8435364,1.8998718,-0.031829834,6.171843343941293,2.0789611956197422,-77.1995849609375,-8.287496566772461,-105.96375274658203,27644344.0,50354.0,0.10158160413449999,0.10840764248632657,0.15747573248890004,0.002490916868293618,0.0014562605704916578,0.00768201017151192,27.644344141008332
1626,A,598625104957625.0,2.6971588,9.923636245190583,-0.4227295,129,1970-01-07 22:17:05.104957625,-0.99331665,1.9608154,-0.54130554,7.798193720038246,2.2637329099695207,-77.23444366455078,-8.292196273803711,-106.0664291381836,27694698.0,50354.0,0.1387454921664,0.06285808127682657,0.0434662072604,0.006050715303567759,0.004311957127184907,0.005059115217068127,27.69469814398326
1626,A,598625155311629.0,3.8918152,8.942663745190583,1.2226563,129,1970-01-07 22:17:05.155311629,-0.8304138,1.2282867,-0.45565796,9.235435864889146,1.5510962165960858,-77.2665023803711,-8.300867080688477,-106.13204193115234,27745052.0,50354.0,0.16589059839800002,-0.01847236514217344,0.0201397570436,0.007669822852139899,0.0011174991751221619,0.0016014073632818083,27.745052148005925
1626,A,598625205665633.0,5.023697,9.665335445190582,4.262512,129,1970-01-07 22:17:05.205665633,-0.67658997,0.74380493,-0.13664246,10.030220940930958,1.0147368739095655,-77.29481506347656,-8.299345016479492,-106.17022705078125,27795406.0,50354.0,0.22446585065940003,-0.024975604383773456,0.1381000822891,0.009828004317918162,-0.0010938895287547652,0.003984004434879388,27.79540615202859
1626,A,598625256019637.0,3.6353302,8.749579245190583,4.212204,129,1970-01-07 22:17:05.256019637,-0.52711487,0.42303467,0.07267761,10.141370543320479,0.6797723539483185,-77.31828308105469,-8.291152954101562,-106.19027709960938,27845760.0,50354.0,0.21800832781440002,-0.02983689284027344,0.21336792473200003,0.011140172391434864,-0.0013800142426098286,0.008848910012770236,27.84576015593484
1626,A,598625306373641.0,3.4765167,7.586187745190582,4.640396,129,1970-01-07 22:17:05.306373641,-0.4139557,0.25723267,0.12123108,11.251232378930359,0.5022200143719735,-77.33734893798828,-8.282416343688965,-106.20161437988281,27896114.0,50354.0,0.1790549694013,-0.08218359448317344,0.22288191019999998,0.00999686263399968,-0.0028203398093424223,0.010983462094082965,27.896114159957506
1626,A,598625356715203.0,4.1846466,9.212713745190582,5.181427,129,1970-01-07 22:17:05.356715203,-0.43348694,-0.046447754,0.2700653,10.42153811082225,0.5128387536704867,-77.35978698730469,-8.269750595092773,-106.19633483886719,27946455.0,50341.0,0.19283531084265,-0.07050505003636094,0.24722019582149998,0.009360664298880342,-0.00384324952687894,0.011832705059614163,27.946455721976236
1626,A,598625407069207.0,3.3526,10.205939145190584,1.6490784,129,1970-01-07 22:17:05.407069207,0.8673706,-0.063568115,0.46270752,7.954449811248023,0.9851248205448706,-77.3176040649414,-8.24787425994873,-106.18807983398438,27996809.0,50354.0,0.1897652576482,-0.004565776178873421,0.1719716344558,0.00963273451289413,-0.0018900581916209557,0.010553992710891583,27.9968097259989
1626,A,598625457423211.0,3.5224,2.6891997451905834,1.8097229,129,1970-01-07 22:17:05.457423211,1.4461365,-0.82788086,0.47218323,15.068793097728843,1.7319510667682914,-77.38898468017578,-8.366412162780762,-106.12229919433594,28047163.0,50354.0,0.173091875,-0.1688082881568734,0.08708224033010001,0.00913565402868373,-0.004365038817781098,0.006522199405484605,28.047163730021566
1626,A,598625507777215.0,6.150955,1.9583197451905825,-1.420517,129,1970-01-07 22:17:05.507777215,2.1475372,-1.2767029,0.25598145,16.523472338444183,2.5114563151678255,-77.29118347167969,-8.367918968200684,-106.05651092529297,28097517.0,50354.0,0.24354605883500002,-0.3764586017906734,0.009799036944299998,0.010489693260163796,-0.013728184488209387,0.002439179917937569,28.097517733927816
1626,A,598625558131219.0,6.4743805,10.787787245190582,-1.6470032,129,1970-01-07 22:17:05.558131219,1.5649261,-1.3048096,0.036895752,9.279586887756519,2.0378623818180204,-77.22236633300781,-8.380509376525879,-105.99177551269531,28147871.0,50354.0,0.31786807188349997,-0.17256046430317346,-0.0772309560754,0.014134723569099675,-0.013822653027044784,-0.0016977334279637047,28.14787173795048
1626,A,598625608485222.0,3.3536987,13.412192145190582,2.3452759,129,1970-01-07 22:17:05.608485222,0.7878723,-1.1516876,-0.12666321,5.595576324742703,1.4011319202232722,-77.1910400390625,-8.399435043334961,-105.93641662597656,28198225.0,50354.0,0.2474415500184,0.11581368111162656,0.0175804117679,0.014232800350624138,-0.0014287137604135764,-0.0015018217540299274,28.19822574092541
1626,A,598625658839226.0,0.2766571,12.087942745190583,3.709198,129,1970-01-07 22:17:05.658839226,0.64649963,-1.3250275,0.019561768,6.344935443276425,1.4744633973461914,-77.16828918457031,-8.41318130493164,-105.87088775634766,28248579.0,50354.0,0.0914014679766,0.14854769613512658,0.1524334893803,0.008531050664060116,0.006655826394941504,0.004280439989208231,28.248579744948074
1626,A,598625709193230.0,-1.1616669,11.229849745190583,2.1977234,129,1970-01-07 22:17:05.709193230,0.6411896,-0.963974,0.4300995,6.493161668874352,1.2350528554375355,-77.14389038085938,-8.40293025970459,-105.81856536865234,28298933.0,50354.0,-0.0222818917346,0.09360286153032658,0.14871856008780002,0.001740223571044834,0.006096624590343115,0.007582105149458355,28.29893374897074
1626,A,598625759547234.0,1.3780823,9.905798745190584,1.2174072,129,1970-01-07 22:17:05.759547234,-0.13079834,-0.8270874,0.84198,7.549871753335292,1.1874814075957214,-77.24262237548828,-8.424246788024902,-105.75592803955078,28349287.0,50354.0,0.005448690525800002,0.0386630220423266,0.08598274311620001,-0.00042380950683395754,0.0033300581507086893,0.005909074710767109,28.349287752993405
1626,A,598625809901238.0,11.955994,7.8657897451905825,4.8293457,129,1970-01-07 22:17:05.809901238,-0.68865967,-0.74298096,0.113601685,15.935037349165533,1.0194008979993443,-77.28260803222656,-8.426897048950195,-105.71803283691406,28399641.0,50354.0,0.3357120390051,-0.04603391657767342,0.15223909776330002,0.00858940368739947,-0.00018557701171642685,0.005997711287823173,28.39964175701607
1626,A,598625860255242.0,10.15419,5.6939917451905835,6.0298615,129,1970-01-07 22:17:05.860255242,0.74954224,-0.2942047,-0.4281006,16.50780478899318,0.9119430348254587,-77.24655151367188,-8.451018333435059,-105.70829772949219,28449995.0,50354.0,0.556668102568,-0.15207458141667343,0.2734022596744,0.022467454824385943,-0.004987777654003671,0.010716372456208975,28.449995761038736
1626,A,598625910609246.0,8.872528,4.805166745190583,2.3102417,129,1970-01-07 22:17:05.910609246,0.30230713,-0.6549835,0.10333252,15.44000646599126,0.7287459062050623,-77.23635864257812,-8.453213691711426,-105.67485809326172,28500349.0,50354.0,0.4790356790860001,-0.22913188668767343,0.20997877826640002,0.026075914110702758,-0.009597635247463142,0.012170084392235523,28.500349764944986
1626,A,598625960963250.0,0.64782715,7.207953245190582,-0.6869049,129,1970-01-07 22:17:05.960963250,-0.6208954,-0.4042511,-0.17680359,10.064757489139586,0.7617017520192914,-77.27003479003906,-8.466296195983887,-105.65689086914062,28550703.0,50354.0,0.23969398161155003,-0.19101487800217345,0.04087075061360001,0.018095456667382222,-0.010578035094596277,0.00631563858861176,28.55070376896765
1626,A,598626011317254.0,-1.5904388,4.385473745190582,0.11628723,129,1970-01-07 22:17:06.011317254,-1.429596,-0.8836365,-0.15504456,12.94147651618263,1.6877787185925304,-77.34768676757812,-8.483569145202637,-105.61503601074219,28601057.0,50354.0,-0.023732133512050002,-0.20158148866317346,-0.014366441077590003,0.005437271449601113,-0.00988439872353344,0.0006672990011881239,28.601057772990316
1626,A,598626061671258.0,-0.15618896,7.875616745190582,4.4819794,129,1970-01-07 22:17:06.061671258,-1.2314606,0.5927124,0.49079895,10.37235086955215,1.4521318148801858,-77.40575408935547,-8.453145027160645,-105.63884735107422,28651411.0,50354.0,-0.04397484711352,-0.18477172472367348,0.11577055894351002,-0.0017046586512099763,-0.009727214853440646,0.0025530514755102685,28.65141177701298
1626,A,598626112025262.0,2.359558,13.150442745190583,3.8816528,129,1970-01-07 22:17:06.112025262,-0.5989075,2.28125,0.29640198,6.104412819041062,2.377108724859713,-77.419677734375,-8.413823127746582,-105.74813079833984,28701765.0,50354.0,0.055474222320079994,0.03590389978932656,0.2105711678994,0.0002895197695755609,-0.0037480452283720524,0.008216305656723946,28.701765781035647
1626,A,598626162379265.0,3.0033264,10.221228445190583,0.7424469,129,1970-01-07 22:17:06.162379265,-0.8684082,2.264328,-0.32826233,7.659672408630715,2.447257700101946,-77.44623565673828,-8.40521240234375,-105.86344909667969,28752119.0,50354.0,0.13502134053880002,0.09495936556022659,0.11642095814690001,0.004796106786098023,0.0032947444317056995,0.008232680757467695,28.752119784010574
1626,A,598626212733269.0,3.449356,10.048819345190584,1.1899261,129,1970-01-07 22:17:06.212733269,-0.88734436,1.3867493,-0.5325928,8.053524965368679,1.7303493071880427,-77.47972869873047,-8.416157722473145,-105.93770599365234,28802473.0,50354.0,0.1624591847848,0.016869793218426597,0.04865135502100001,0.0074896671860722784,0.0028155227305701512,0.00415602562862822,28.80247378803324
1626,A,598626263087273.0,4.792221,8.663275745190582,2.3573456,129,1970-01-07 22:17:06.263087273,-0.6560974,1.1976776,-0.34439087,10.093686523415734,1.4083680283107385,-77.50333404541016,-8.419998168945312,-106.00057220458984,28852827.0,50354.0,0.207498184129,-0.022354781909473438,0.08930965959090001,0.009314416677142744,-0.00013809556027448634,0.0034734444648838072,28.85282779193949
1626,A,598626313441277.0,3.6660004,8.887579745190582,3.1041565,129,1970-01-07 22:17:06.313441277,-0.9402466,0.70466614,0.010467529,9.62514192013959,1.1750436616728017,-77.5452651977539,-8.411876678466797,-106.03524017333984,28903181.0,50354.0,0.2129526401878,-0.051591311318673484,0.13750423837170003,0.010585690403824075,-0.0018617407892050552,0.005710493509004382,28.903181795962155
1626,A,598626363795281.0,3.280777,8.871679745190583,5.7796173,129,1970-01-07 22:17:06.363795281,-0.7737732,0.6698761,-0.40653992,10.677123807511284,1.1012418721348443,-77.5784683227539,-8.424511909484863,-106.0727310180664,28953535.0,50354.0,0.1748990145998,-0.046344323810673445,0.2236667729626,0.009764941112587406,-0.0024657254856515678,0.009093202552363674,28.95353579998482
1626,A,598626414149285.0,3.4843445,7.709585745190582,4.343231,129,1970-01-07 22:17:06.414149285,-0.47673035,0.70918274,0.051208496,11.027723483416025,0.8560574136047256,-77.59725952148438,-8.414389610290527,-106.10718536376953,29003889.0,50354.0,0.17032546400550003,-0.07600267874867345,0.25486295164910006,0.00869171669784564,-0.0030803304834366766,0.012047942876548774,29.003889804007486
1626,A,598626464503289.0,4.219574,11.449316745190583,4.7819977,129,1970-01-07 22:17:06.464503289,-0.08677673,0.4571991,0.44699097,8.606348159953226,0.645261299917982,-77.59900665283203,-8.38764762878418,-106.1249008178711,29054243.0,50354.0,0.19396155607450002,-0.011105511999673459,0.22974588297990003,0.009171654304554161,-0.00219312291847113,0.012200996629454335,29.05424380803015
1626,A,598626514857293.0,2.690506,9.117773745190583,-0.32817078,129,1970-01-07 22:17:06.514857293,1.3030853,0.36723328,0.51651,8.551464196228725,1.4490252451616046,-77.53204345703125,-8.358474731445312,-106.13741302490234,29104597.0,50354.0,0.17397508416000002,0.024348437276326566,0.11213400036484,0.009263540791184008,0.0003334171296902953,0.008607509822970521,29.1045978119364
1626,A,598626565211297.0,5.014496,-0.3018732548094185,3.0707245,129,1970-01-07 22:17:06.565211297,1.8347473,-0.69703674,0.29190063,18.490060193188267,1.9842791763160532,-77.50740814208984,-8.535876274108887,-106.0909194946289,29154951.0,50354.0,0.19398883535400002,-0.2715112733536735,0.06904927500844,0.00926422760160398,-0.0062228187239193634,0.00456165132407307,29.154951815959066
1626,A,598626615565301.0,6.463516,6.713156745190583,-5.945938,129,1970-01-07 22:17:06.615565301,2.064392,-0.25187683,-0.03288269,13.700363309780839,2.079960946377716,-77.40596771240234,-8.540212631225586,-106.0788345336914,29205305.0,50354.0,0.288981908124,-0.3320523155626735,-0.07238925028950001,0.012159754408545607,-0.01519592047814687,-8.409055765124772e-05,29.20530581998173
1626,A,598626665919305.0,5.1670685,15.712057845190582,0.70280457,129,1970-01-07 22:17:06.665919305,0.5443115,-0.51123047,-0.20866394,5.430616302668413,0.775352979193989,-77.38215637207031,-8.555975914001465,-106.055908203125,29255659.0,50354.0,0.29282322595650007,0.07113042774202656,-0.13200637036711002,0.01464810786074475,-0.006569230369660429,-0.005146068541271471,29.255659824004397
1626,A,598626716273308.0,1.651535,12.296179745190582,2.6626282,129,1970-01-07 22:17:06.716273308,0.29870605,-0.6941986,-0.42182922,5.843218396089285,0.8654922826890896,-77.37164306640625,-8.58414363861084,-106.02632904052734,29306013.0,50354.0,0.1716719803195,0.21169419781302654,0.08473150085029,0.011694595808410854,0.007120675597599572,-0.0011902393898249775,29.306013826979324
1626,A,598626766627312.0,0.3280487,11.449728745190583,2.9270172,129,1970-01-07 22:17:06.766627312,0.31228638,-0.71665955,-0.023422241,6.4859236668875875,0.7820948120996386,-77.36125946044922,-8.593127250671387,-105.99121856689453,29356367.0,50354.0,0.0498399788149,0.10438153806232656,0.14073050223580003,0.00557700659512679,0.007957838802133766,0.005676456851698489,29.35636783100199
1626,A,598626816981316.0,1.4705505,11.039206345190582,2.3859863,129,1970-01-07 22:17:06.816981316,0.31684875,-1.1865234,0.7736206,6.794160992191802,1.4514543540423457,-77.14778137207031,-8.66829776763916,-105.95528411865234,29406721.0,50354.0,0.04528333205840001,0.07273471877052656,0.1337654891195,0.0023949195978570743,0.004459255998280743,0.006910985574352388,29.406721835024655
1626,A,598626867335320.0,10.481064,10.282568745190583,2.9100342,129,1970-01-07 22:17:06.867335320,-0.43188477,-1.371933,0.7173462,12.90598753049493,1.60726792467883,-77.18077087402344,-8.648564338684082,-105.87957000732422,29457075.0,50354.0,0.3009057982665,0.043349131450526546,0.13333790812850002,0.008716003734190007,0.002922643097015454,0.006724862232512897,29.457075838930905
1626,A,598626917689324.0,8.925903,7.526770745190582,7.904602,129,1970-01-07 22:17:06.917689324,0.36738586,-0.4462433,-0.68769836,15.371226618445974,0.8983509822277255,-77.16455841064453,-8.68704605102539,-105.86528015136719,29507429.0,50354.0,0.48860920815900005,-0.04508345965067346,0.27228009560739996,0.019877619316774817,-4.366518109509883e-05,0.010212244480058754,29.50742984295357
1626,A,598626968043328.0,6.1703644,6.317480745190583,-0.24461365,129,1970-01-07 22:17:06.968043328,0.72280884,-1.050354,0.12571716,12.537133948283502,1.2812107355219169,-77.13645935058594,-8.692597389221191,-105.81208038330078,29557783.0,50354.0,0.38007872432980006,-0.14491248022667347,0.19285552668795,0.02187095607627052,-0.004783527778291964,0.011710719562530027,29.557783846976236
1626,A,598627018397332.0,2.399063,6.918829745190582,0.9875488,129,1970-01-07 22:17:07.018397332,-0.7531433,-0.3075714,-0.1895752,10.630918231572776,0.8353225442234214,-77.3577651977539,-8.815569877624512,-105.77134704589844,29608137.0,50354.0,0.21575247364980002,-0.16021861078367347,0.018704878271550002,0.01500124207153239,-0.007682285478367506,0.005326456315665332,29.6081378509989
1626,A,598627068751336.0,-0.17556763,6.064856745190582,-2.9143524,129,1970-01-07 22:17:07.068751336,-0.8731842,-0.66677856,-0.6796875,11.538945764851249,1.2919053343266154,-77.40533447265625,-8.85601806640625,-105.7459487915039,29658491.0,50354.0,0.055980942930489996,-0.16657892523167347,-0.0485111342372,0.006841432229241963,-0.00822778156425839,-0.0007504321064471701,29.658491855021566
1626,A,598627119105340.0,-1.0847778,3.1566987451905835,1.1423492,129,1970-01-07 22:17:07.119105340,-0.8200531,0.2306366,0.42141724,14.159531585145691,0.9504066594086911,-77.4452896118164,-8.832944869995117,-105.75269317626953,29708845.0,50354.0,-0.03173171689111,-0.26129809741867344,-0.0446137245664,0.0006105227639934702,-0.010772659799267784,-0.0023446045700982374,29.708845858927816
1626,A,598627169459344.0,3.3036346,12.348242745190582,4.3629,129,1970-01-07 22:17:07.169459344,-0.72943115,0.8278961,0.69459534,7.332399917276618,1.3038191750911046,-77.47666931152344,-8.790059089660645,-105.78595733642578,29759199.0,50354.0,0.055864157653600005,-0.10310128809667343,0.1386056591084,0.000607582461077211,-0.00917448332911989,0.002366434935963934,29.75919986295048
1626,A,598627219813347.0,2.0885468,12.214911245190581,1.9571686,129,1970-01-07 22:17:07.219813347,-0.7766876,2.160965,-0.27871704,5.772940460438895,2.313157268238613,-77.49873352050781,-8.780253410339355,-105.895751953125,29809553.0,50354.0,0.1357589511078,0.12495732801582653,0.15912036714220001,0.004824495009285768,0.0005502695170445175,0.007495848162911357,29.80955386592541
1626,A,598627270167351.0,2.5787048,8.780508745190582,0.996521,129,1970-01-07 22:17:07.270167351,-0.77368164,1.673172,-0.26785278,8.888664175409545,1.8627487574578647,-77.66382598876953,-8.977814674377441,-105.95975494384766,29859907.0,50354.0,0.11750739353320001,0.03513248909782653,0.0743650430592,0.006376486759026458,0.004030581325470443,0.005878462172640648,29.859907869948074
1626,A,598627320521355.0,5.978882,10.618750345190582,3.0615845,129,1970-01-07 22:17:07.320521355,-0.38945007,0.2650299,0.056533813,9.423735466923496,0.474455769202287,-77.68135070800781,-8.972222328186035,-105.97225952148438,29910261.0,50354.0,0.2154543628636,-0.005054053881473455,0.1021709221735,0.008382978140802235,0.0007572847634421214,0.004444645996663688,29.91026187397074
1626,A,598627370875359.0,5.4700623,8.366034745190582,2.396759,129,1970-01-07 22:17:07.370875359,-0.5862274,0.76078796,0.093429565,10.68673016359463,0.9649818486416265,-77.70494842529297,-8.959549903869629,-106.00887298583984,29960615.0,50354.0,0.28825007064110003,-0.015489265779473462,0.1374247142995,0.012681766522347834,-0.0005172191591036606,0.006032299339480722,29.960615877993405
1626,A,598627421229363.0,2.6121063,10.394446145190582,5.193939,129,1970-01-07 22:17:07.421229363,-0.92614746,-0.01953125,-0.23265076,8.972289825345728,0.9551214391477095,-77.75100708007812,-8.971124649047852,-106.01040649414062,30010969.0,50354.0,0.20348475884220005,-0.021136572622873478,0.191111003546,0.012380407801901047,-0.000922128733455889,0.008271543768196154,30.01096988201607
1626,A,598627471583367.0,2.8001862,7.389349745190582,5.286133,129,1970-01-07 22:17:07.471583367,0.0761261,0.05859375,0.13638306,11.514758105189856,0.1668195123336479,-77.74699401855469,-8.963839530944824,-106.01184844970703,30061323.0,50354.0,0.1362652882725,-0.045726570867873476,0.263856772744,0.008553886936206803,-0.0016834133636665363,0.01145472370365333,30.061323886038736
1626,A,598627521937371.0,4.394928,9.640631445190582,4.9846344,129,1970-01-07 22:17:07.521937371,-0.47161865,-0.3742218,0.82063293,10.086379264449986,1.0177939439903576,-77.77481079101562,-8.927708625793457,-105.98452758789062,30111677.0,50354.0,0.18115139021340004,-0.06470536356977347,0.2585871108298,0.007991599714239506,-0.0027803448133366373,0.013153569656737564,30.111677889944986
1626,A,598627572291375.0,3.1831207,10.725241445190584,0.85583496,129,1970-01-07 22:17:07.572291375,1.4302063,-0.12269592,0.5656433,7.290733177815519,1.5428858325162063,-77.70519256591797,-8.901371955871582,-105.9723892211914,30162031.0,50354.0,0.19079253211990002,0.019282381761126573,0.14704549707672002,0.009364432132585497,-0.001143614412996303,0.010212612169262454,30.16203189396765
1626,A,598627622645379.0,2.7771606,-1.8344512548094158,0.5934601,129,1970-01-07 22:17:07.622645379,1.4294281,-1.8200531,0.118515015,19.273147293296685,2.3173052860315297,-77.6478500366211,-8.915006637573242,-105.88111114501953,30212385.0,50354.0,0.1500620022901,-0.2696257753767734,0.036488901725620006,0.00858169461284057,-0.006302895621061141,0.004620845558646515,30.212385897990316
1626,A,598627672999383.0,7.6942444,5.095007745190582,-2.4006042,129,1970-01-07 22:17:07.672999383,2.3403625,-1.4426117,0.47940063,14.56645648631969,2.7907436486405444,-77.54267883300781,-8.907092094421387,-105.8045883178711,30262739.0,50354.0,0.26363856368500005,-0.4113781692416734,-0.045498467005700004,0.010415739149555096,-0.017145636313658636,-0.00022683382505657413,30.26273990201298
1626,A,598627723353387.0,4.921768,11.603308445190581,-2.0489502,129,1970-01-07 22:17:07.723353387,1.1282501,-1.0681458,0.032089233,7.750018986630816,1.5539991818151573,-77.49449920654297,-8.91706371307373,-105.75144958496094,30313093.0,50354.0,0.3176333441948,-0.07305569327477349,-0.11202643112880001,0.014634682824689728,-0.012196591356576586,-0.003966004360332307,30.313093906035647
1626,A,598627773707390.0,2.3347015,12.948508045190582,3.3002472,129,1970-01-07 22:17:07.773707390,0.47862244,-0.3605652,-0.21810913,5.8872136958986445,0.6376976525846324,-77.47296905517578,-8.931620597839355,-105.73603820800781,30363447.0,50354.0,0.1826961326015,0.12467188377832653,0.03150390456899999,0.012596795237300446,0.0012995408283079548,-0.0020273156511960854,30.363447909010574
1626,A,598627824061394.0,0.18000793,10.953757045190581,2.5753937,129,1970-01-07 22:17:07.824061394,0.5894623,-1.0122986,-0.15473938,6.784927622135071,1.1815915260385184,-77.45100402832031,-8.95015811920166,-105.6877212524414,30413801.0,50354.0,0.06331283931911,0.10831812818052652,0.1479310109393,0.006193767886045198,0.005865989531088044,0.004517632867752469,30.41380191303324
1626,A,598627874415398.0,0.53564453,11.799231345190583,1.6180267,129,1970-01-07 22:17:07.874415398,0.50704956,-0.5324402,0.28640747,5.6903400383605875,0.7890634079362917,-77.32836151123047,-8.85386848449707,-105.67401123046875,30464155.0,50354.0,0.01801798198542,0.07938278870462653,0.1055777454108,0.0020476660879841517,0.004725745984417499,0.006382589958626468,30.46415591693949
1626,A,598627924769402.0,4.169113,10.849341245190583,2.6675262,129,1970-01-07 22:17:07.924769402,-0.4282074,-0.4285431,0.5337982,8.073946802510015,0.8074350031399494,-77.35391998291016,-8.832523345947266,-105.64691925048828,30514509.0,50354.0,0.11845168033281,0.07675391210802658,0.10789736536330001,0.0034358966881860775,0.003931053716360168,0.0053746628639595164,30.514509920962155
1626,A,598627975123406.0,14.658585,8.838919745190582,5.927231,129,1970-01-07 22:17:07.975123406,-0.51257324,-0.46452332,-0.15649414,17.89939331387525,0.7092275072515587,-77.3828125,-8.84523868560791,-105.62572479248047,30564863.0,50354.0,0.4740249525460001,0.0022221469548265598,0.2163902020244,0.0149167841859898,0.0019883802390254536,0.008164588084120124,30.56486392498482
1626,A,598628025477410.0,8.0372925,4.772879745190583,3.7891235,129,1970-01-07 22:17:08.025477410,0.8871155,0.09803772,-0.61842346,15.300118067058976,1.085832805159901,-77.33665466308594,-8.874338150024414,-105.63741302490234,30615217.0,50354.0,0.5714141078175001,-0.15076492423067347,0.24462865724650001,0.026321019222771847,-0.003739861503473998,0.011607071819863451,30.615217929007486
