Subject-id_accel,Activity_accel,Timestamp_accel,accel_x,accel_y,accel_z,Segment_accel,DateTime,gyro_x,gyro_y,gyro_z,accel_magnitude,gyro_magnitude,Roll,Pitch,Yaw,Time_Difference,Difference_Microseconds,vx,vy,vz,dx,dy,dz,Time_diff
1621,A,166848925860953.0,-0.19393034,14.0312195,-2.228338829378098,104,1970-01-02 22:20:48.925860953,-1.0407634,0.27696875,-0.16831179,14.390509308338704,1.0900591735814742,101.54095458984375,-8.26230239868164,-58.328514099121094,15003260.0,39904.0,0.08648597949152001,0.04551467199199997,-0.12511667474990362,0.00501660966335938,-0.00261708729274911,-0.004272824791071961,15.003260776022216
1621,A,166848965725171.0,4.034828,11.100118,-1.4651869293780981,104,1970-01-02 22:20:48.965725171,1.1867046,1.2144015,-0.024501082,12.057382486023057,1.6981281205735275,101.61030578613281,-8.553681373596191,-58.27101135253906,15043124.0,39864.0,0.07655677215911999,0.11025061904999998,-0.0736193554235285,0.003249768125900556,0.0031047137810491427,-0.003961206553416849,15.043124994001118
1621,A,166849005913818.0,5.544971,9.406818,-0.19566142937809783,104,1970-01-02 22:20:49.005913818,1.901497,-1.4775218,-0.10972224,10.980599820436469,2.410560200541538,101.61614227294922,-9.065420150756836,-58.3282356262207,15083313.0,40189.0,0.19250127100550005,0.018224425451999964,-0.03337391734502638,0.005406586848371457,0.0025816417817454383,-0.0021499763196477263,15.08331364102196
1621,A,166849045815537.0,4.176685,18.492813,-1.390368129378098,104,1970-01-02 22:20:49.045815537,-0.87032104,0.58909124,0.051132694,19.10390914885891,1.0521890296458698,101.46022033691406,-9.163453102111816,-58.28240966796875,15123215.0,39902.0,0.193956758856,0.16558593808100003,-0.03164287572674487,0.0077102241537667865,0.0036672005628468826,-0.0012971500385749082,15.123215360014001
1621,A,166849085877203.0,4.7016134,10.390237,0.14311807062190207,104,1970-01-02 22:20:49.085877203,-0.7137272,-3.6836846,1.0396981,11.433795294185003,3.8935730232577646,101.29559326171875,-9.553131103515625,-58.449729919433594,15163277.0,40062.0,0.1778411952504,0.18594877455,-0.024983665926945363,0.0074474848187053,0.007041591828711561,-0.001134286255865069,15.163277026003925
1621,A,166849125700796.0,-3.6272156,8.159439,-4.082647929378098,104,1970-01-02 22:20:49.125700796,1.4157364,-2.5758095,-1.2218584,10.255482262236512,3.1830868797797165,101.85783386230469,-8.759117126464844,-58.64019012451172,15203100.0,39823.0,0.021392871794700005,-0.020913526325999996,-0.07844194878262399,0.0039670491259685085,0.0032860993450121757,-0.00205935912728959,15.203100619022734
1621,A,166849165300433.0,-1.5765818,7.7171106,-4.119758229378098,104,1970-01-02 22:20:49.165300433,0.89588743,4.67225,-0.7552725,9.373202736263186,4.81694622130954,102.39017486572266,-8.332736015319824,-58.47883987426758,15242700.0,39600.0,-0.10303518852000002,-0.07372431792000002,-0.16240764194337268,-0.0016165178711609403,-0.0018738293160708004,-0.004768821896374734,15.242700255999807
1621,A,166849205250901.0,5.020641,5.2648497,5.199672070621903,104,1970-01-02 22:20:49.205250901,-1.9686087,5.5095477,1.0141318,8.419558603198773,5.937928879673637,101.34382629394531,-9.178513526916504,-58.078372955322266,15282650.0,39950.0,0.06879508252000001,-0.13219534300750002,0.021571278978845,-0.0006839461173500001,-0.004113245227026813,-0.00281320635021644,15.282650724024279
1621,A,166849245056421.0,7.951742,4.3837833,6.4284961706219015,104,1970-01-02 22:20:49.245056421,-1.1579424,-1.530785,-0.083090626,10.59894296810899,1.9212072688993844,100.44425964355469,-10.150238990783691,-58.00985336303711,15322456.0,39806.0,0.258189338849,-0.19806205740100002,0.23143543250547544,0.006507970938507208,-0.006573113040330376,0.00503559257867243,15.322456244000932
1621,A,166849285027100.0,1.388637,7.7087307,-0.290232429378098,104,1970-01-02 22:20:49.285027100,-0.66152924,-3.9585228,-0.25246766,7.932166566225063,4.021350968622446,100.41497802734375,-10.100357055664062,-58.19989013671875,15362426.0,39970.0,0.186667474315,-0.15003710771,0.12267320086875741,0.00889046341108254,-0.006956761814743335,0.007076861037984042,15.362426923005842
1621,A,166849325178192.0,0.4165911,10.794857,-2.478532929378098,104,1970-01-02 22:20:49.325178192,-1.9611518,-2.3904533,0.49002165,11.337335987087291,3.130575758481633,100.52208709716797,-9.905499458312988,-58.35578155517578,15402578.0,40152.0,0.0362417593356,-0.022011573334800017,-0.05558573334238939,0.004475125774769446,-0.0034540493206554057,0.0013468479980593643,15.402578014996834
1621,A,166849365196421.0,-0.8002619,11.222222,-1.407726229378098,104,1970-01-02 22:20:49.365196421,-0.12037488,-1.7395768,0.2759035,11.497440750115084,1.765429210176807,100.56651306152344,-9.559194564819336,-58.45104217529297,15442596.0,40018.0,-0.007676869037199999,0.04836333371099998,-0.07776015950755272,0.0005715548899806856,0.000527272373367385,-0.0026681179700344918,15.442596244014567
1621,A,166849404705953.0,-2.4450784,9.183559,-5.951322229378098,104,1970-01-02 22:20:49.404705953,0.78936094,-2.8016455,0.27377295,11.751638804495023,2.923569706612044,101.2597427368164,-9.043227195739746,-58.69479751586914,15482105.0,39509.0,-0.06411007495635,0.015917800764499994,-0.1453743227784993,-0.0014181151851205835,0.0012698416709962643,-0.004407910130319815,15.482105775998207
1621,A,166849444649652.0,-4.619014,7.240066,-3.443396229378098,104,1970-01-02 22:20:49.444649652,0.033023197,-2.5459821,-0.9129316,9.651710531040665,2.7049139526681936,101.7145004272461,-8.1102294921875,-58.876861572265625,15522049.0,39944.0,-0.1410840534128,-0.06343856150000002,-0.18763131705827876,-0.004098137131788664,-0.0009490846334094065,-0.006650788638820132,15.522049474995583
1621,A,166849484820745.0,-4.39336,12.3834095,-7.368091529378098,104,1970-01-02 22:20:49.484820745,-1.1185277,2.0676782,-0.46552056,15.557307406536463,2.3964779878407487,102.16801452636719,-7.5286431312561035,-58.841556549072266,15562220.0,40171.0,-0.18101803797700003,0.0004715171552499996,-0.2171541373784976,-0.006469581556609829,-0.0012647245691864764,-0.008130318245089871,15.56222056801198
1621,A,166849524469391.0,3.2028434,11.574768,7.993705470621903,104,1970-01-02 22:20:49.524469391,-1.4668691,7.2246237,-0.13102753,13.917171905631854,7.3731988157620165,101.07942962646484,-7.788012504577637,-58.354652404785156,15601869.0,39649.0,-0.02360139633670001,0.08639868984874999,0.012402483578187795,-0.004056477975551946,0.0017221584187507976,-0.004059099160764241,15.601869214006001
1621,A,166849564634600.0,13.930064,12.53185,2.543305270621902,104,1970-01-02 22:20:49.564634600,0.0628506,5.887717,-0.6775082,18.804163707827303,5.926902988161406,100.7343978881836,-8.737818717956543,-58.01194763183594,15642034.0,40165.0,0.34407161286050003,0.09050415598499999,0.2116095182110287,0.006435843123339214,0.003552651401456284,0.00449872102593194,15.642034423013683
1621,A,166849604470328.0,14.411299,13.718177,11.641271470621902,104,1970-01-02 22:20:49.604470328,0.13315806,-1.2250541,-0.24607609,22.581738876245893,1.2565994027292315,99.91124725341797,-9.506596565246582,-57.93765640258789,15681870.0,39836.0,0.5645032682340001,0.13245523778599996,0.28252839953209413,0.018096994481640254,0.004440905205130777,0.00984223904560752,15.68187015102012
1621,A,166849644147412.0,1.9213469,10.896012,4.332372470621902,104,1970-01-02 22:20:49.644147412,1.2942963,-7.0989223,-0.0063915867,11.56626712157296,7.21595049775229,99.3819808959961,-9.473315238952637,-58.18449401855469,15721547.0,39677.0,0.32401519568715,0.09947398847649999,0.31689313532836516,0.017626873546499736,0.004601127955208605,0.01189162411932922,15.721547235007165
1621,A,166849684296683.0,-5.835268,7.687782,-1.016274129378098,104,1970-01-02 22:20:49.684296683,1.099353,-8.062986,-0.0010652645,9.85207025942164,8.137586951276985,99.60181427001953,-8.380742073059082,-58.60187911987305,15761696.0,40149.0,-0.07857000912195,-0.020399827347000007,0.06656901615129875,0.004927189397703107,0.0015873742475941473,0.007697810959878512,15.76169650600059
1621,A,166849724240224.0,-7.9146323,5.602432,-10.329120529378098,104,1970-01-02 22:20:49.724240224,1.2282499,-1.1504856,-0.2759035,14.882979138185886,1.7053849049319103,100.66059112548828,-7.498305797576904,-58.79301452636719,15801640.0,39944.0,-0.2746130087916,-0.126019045992,-0.22659022212467878,-0.007053771233769421,-0.002924277738326508,-0.0031959435257003462,15.801640047022374
1621,A,166849764231735.0,-2.3798366,4.3101616,-2.152322929378098,104,1970-01-02 22:20:49.764231735,1.6948358,6.9210234,0.20453078,5.825460507120659,7.128454680523445,101.26306915283203,-6.8392333984375,-58.5218505859375,15841631.0,39991.0,-0.20584305288995,-0.1937045346712,-0.24957270267955953,-0.009606959181353432,-0.006393032857151016,-0.009521115762923147,15.841631557996152
1621,A,166849803768454.0,3.4183214,4.673482,1.898067870621902,104,1970-01-02 22:20:49.803768454,0.16831179,5.181446,0.61891866,5.865477040596777,5.2209933745663,100.78878021240234,-7.619781494140625,-58.21489334106445,15881168.0,39537.0,0.0205292867688,-0.20986944149340003,-0.005026241129021857,-0.003663375185565954,-0.007978052147809896,-0.005033039220679942,15.881168277002871
1621,A,166849843670015.0,8.363545,4.805163,-3.585252529378098,104,1970-01-02 22:20:49.843670015,-1.8365159,-1.2687299,0.67005134,10.66348666987093,2.3305439297173987,101.19123840332031,-8.654608726501465,-58.35201644897461,15921069.0,39901.0,0.2350541256132,-0.20192609292750002,-0.03366017753451549,0.005099016868727091,-0.008215526809464167,-0.0007718133955469018,15.92106983801932
1621,A,166849883544079.0,-0.28072014,11.417948,-4.241862529378098,104,1970-01-02 22:20:49.883544079,-1.3017532,-0.2130529,-0.40053943,12.550761736297389,1.3785444377652014,101.46034240722656,-8.39139175415039,-58.408180236816406,15960943.0,39874.0,0.16114727923382002,-0.06732503599300001,-0.15604919292642228,0.007899067408435038,-0.005368059757288009,-0.0037822357188797163,15.96094390199869
1621,A,166849923461682.0,2.5007436,14.283808,-0.564967029378098,104,1970-01-02 22:20:49.923461682,0.567786,1.6074841,-0.63915867,14.581169085773515,1.8206893966256241,101.34288024902344,-8.413928985595703,-58.302669525146484,16000861.0,39918.0,0.044309448238139995,0.121784948004,-0.09593951116321492,0.00410071082361285,0.0010869653838275488,-0.005029442544925069,16.000861505017383
1621,A,166849963595693.0,7.064092,9.309255,-2.564125529378098,104,1970-01-02 22:20:49.963595693,2.091114,1.5446335,0.48469532,12.206248676515361,2.6445377599021254,101.62977600097656,-9.104381561279297,-58.26085662841797,16040994.999999998,40133.99999999814,0.19193755598519105,0.08012879522099627,-0.06279150037655767,0.004740768633749364,0.004051803085295813,-0.0031852552085684686,16.040995515999384
1621,A,166850003579078.0,6.9796963,12.076952,-0.023278979378097864,104,1970-01-02 22:20:50.003579078,1.820537,-1.4146712,0.017044231,13.983504483315919,2.3056322513117355,101.57958221435547,-9.60197925567627,-58.30687713623047,16080978.000000002,39983.000000003725,0.28075639379947614,0.03570895724050331,-0.051726097236804304,0.009449861097121055,0.0023157704283342847,-0.0022893785526877392,16.080978901009075
1621,A,166850043542463.0,3.7684734,9.086594,0.29095997062190204,104,1970-01-02 22:20:50.043542463,-2.4746094,-3.9244342,1.0141318,9.85986749095016,4.749035563192725,101.31851196289062,-9.933490753173828,-58.48279571533203,16120942.0,39963.99999999814,0.21476992694539002,0.031242776171998523,0.0053488015670334465,0.009901606941123454,0.0013378295370485495,-0.0009267111220733181,16.120942286011996
1621,A,166850083480015.0,-2.2218192,10.011953,-0.478775929378098,104,1970-01-02 22:20:50.083480015,-0.294013,-3.7848847,-0.10652645,10.356138621915573,3.7977814209104626,101.25763702392578,-9.347539901733398,-58.656890869140625,16160879.000000002,39937.00000000186,0.030884364392701435,-0.010013264230500496,-0.0037504029724232733,0.004905347716584908,0.00042392150920382305,3.191762233647473e-05,16.160879838018445
1621,A,166850123004338.0,-5.7185507,8.717887,-4.635110029378097,104,1970-01-02 22:20:50.123004338,1.3187973,2.082592,-1.5425029,11.833156353255951,2.907873957629474,101.76856994628906,-8.419838905334473,-58.609458923339844,16200403.999999998,39524.999999996275,-0.1569215601487352,-0.01719653699999842,-0.10106317125990977,-0.0024908100811283826,-0.0005377336968176842,-0.002071378260766286,16.20040416100528
1621,A,166850162921527.0,1.9560628,6.114791,-0.877410429378098,104,1970-01-02 22:20:50.162921527,-0.7840346,5.3689327,-0.027696876,6.678161484531836,5.425948369461933,101.80973052978516,-8.68856430053711,-58.36106872558594,16240321.000000002,39917.000000003725,-0.075093614752157,-0.09514859613700892,-0.1100216395760958,-0.00463067486825989,-0.0022422403397151704,-0.004212936197070811,16.240321350021986
1621,A,166850202795953.0,6.7348895,6.407482,4.927331470621902,104,1970-01-02 22:20:50.202795953,-0.90014845,2.2050974,1.0120013,10.106615580774765,2.587830830391711,101.0025405883789,-9.585797309875488,-58.14323806762695,16280195.0,39873.99999999814,0.17327151600509194,-0.14110864319899344,0.08074327579927396,0.0019573728172796725,-0.004710260580641659,-0.0005837227386184699,16.280195776023902
1621,A,166850242653558.0,4.596867,5.644929,2.118334370621902,104,1970-01-02 22:20:50.242653558,-0.26312032,-1.6788567,-0.15446335,7.371231496251791,1.7063560731643952,100.56651306152344,-10.270851135253906,-58.150047302246094,16320053.000000002,39858.00000000186,0.22583057528851058,-0.15041590118100706,0.14041307455015434,0.007953705577390576,-0.0058097926449493026,0.004407424906113963,16.320053381001344
1621,A,166850282597306.0,0.8098387,8.89805,-1.457405729378098,104,1970-01-02 22:20:50.282597306,-1.6245283,-1.9217371,-0.008522116,9.25642729958911,2.5163939090449285,100.61954498291016,-10.122482299804688,-58.26678466796875,16359997.0,39943.99999999814,0.10798272624039497,-0.10099882341199533,0.01320006682292064,0.006666919258134991,-0.00502125487957121,0.0030679616595029103,16.35999712900957
1621,A,166850322792464.0,1.2270284,11.056423,-1.6615115293780978,104,1970-01-02 22:20:50.322792464,-1.031176,-0.45167214,0.19281286,11.429322809354874,1.1421508061589587,100.64102935791016,-10.029165267944336,-58.30320739746094,16400192.0,40195.0,0.04093593654225001,0.0071240211174999745,-0.06268243960785265,0.0029928928252742075,-0.0018866488391136205,-0.000994471987045171,16.400192287022946
1621,A,166850362729026.0,1.9117701,9.903615,-3.154296029378098,104,1970-01-02 22:20:50.362729026,0.36218992,-0.91186637,0.55074173,10.893800340493453,1.1251658846809995,100.96392059326172,-10.054777145385742,-58.40549087524414,16440128.000000002,39936.00000000186,0.06267552844800293,0.027157238784001256,-0.09616204533324822,0.0020689137329254676,0.0006845281977132085,-0.00317180667530405,16.440128849004395
1621,A,166850402622671.0,-0.7457938,10.140641,-2.5581399293780978,104,1970-01-02 22:20:50.402622671,-0.38242993,-2.7451866,0.2727077,10.75990345742732,2.785080180141795,101.17486572265625,-9.69704532623291,-58.58024215698242,16480022.000000002,39894.0,0.0232577292561,0.008861574431999987,-0.11394596006930983,0.001714110691423741,0.0007184672672195767,-0.004191024383764825,16.48002249401179
1621,A,166850442518870.0,-4.367024,9.180567,-3.0992295293780976,104,1970-01-02 22:20:50.442518870,0.23861924,-2.7441213,-1.2751216,10.947232768988746,3.0353049180598695,101.49856567382812,-8.828364372253418,-58.75084686279297,16519918.0,39895.99999999814,-0.10199048947439524,-0.00556134281599976,-0.1128532059632633,-0.0015705611008344797,6.583302027596944e-05,-0.004524189764017557,16.519918692996725
1621,A,166850482480640.0,-4.577115,12.875419,-6.2649628293780975,104,1970-01-02 22:20:50.482480640,-0.5965481,2.2391858,-0.77444726,15.45787170738477,2.443274696192951,101.87384796142578,-8.19389533996582,-58.69492721557617,16559880.0,39962.0,-0.17871284135899998,0.04907305626599998,-0.18710592752030752,-0.005608733253382069,0.0008694075464444545,-0.0059934834461352286,16.55988046299899
1621,A,166850522318817.0,3.2393548,11.634025,7.207808870621902,104,1970-01-02 22:20:50.522318817,-1.4444987,7.255516,-0.3749731,13.596410359534968,7.407408031577664,100.84320068359375,-8.431934356689453,-58.20100021362305,16599718.0,39838.0,-0.026646845423799997,0.09779121503599997,0.018780550295535336,-0.004090559601026593,0.0029253894200645366,-0.0033528731889402373,16.59971864000545
1621,A,166850562246318.0,13.910911,11.845313,2.257796770621902,104,1970-01-02 22:20:50.562246318,-0.2130529,4.507134,0.20879184,18.316814521836655,4.516994848857478,100.52044677734375,-9.429303169250488,-57.93545913696289,16639645.999999998,39927.99999999814,0.34238790643118405,0.07744710383199636,0.1889713510217825,0.006303454541951122,0.003498457797880516,0.0041475589578987395,16.63964614100405
1621,A,166850601785224.0,13.558963,11.01273,10.922412470621902,104,1970-01-02 22:20:50.601785224,1.0737866,-1.6106799,0.07882957,20.108424472495226,1.9374007080905993,99.73358917236328,-10.265690803527832,-57.87089920043945,16679185.0,39539.00000000186,0.5430656740430256,0.06440988108850301,0.26056614659478167,0.01750497455918571,0.0028044416633859442,0.008887131559131085,16.67918504701811
1621,A,166850641736213.0,1.3467385,9.713875,3.0065832706219022,104,1970-01-02 22:20:50.641736213,1.200553,-6.236058,-0.45486793,10.01778950547063,6.366840010469517,99.31686401367188,-10.145652770996094,-58.08497619628906,16719135.999999998,39950.99999999814,0.2977488403132362,0.02250449817749891,0.27823865442920265,0.016795690331522724,0.0017361581830279407,0.010762895302854097,16.719136036001146
1621,A,166850681936890.0,-4.0707417,7.9050555,-2.595848729378098,104,1970-01-02 22:20:50.681936890,0.37390783,-5.824866,-0.09374327,9.57676391028296,5.837607282437009,99.72254180908203,-9.272640228271484,-58.43226623535156,16759336.000000002,40200.000000003725,-0.05475246432000508,-0.03981949695000373,0.008255764279001229,0.004884227157464398,-0.0003480314753273792,0.005758537816035431,16.759336713002995
1621,A,166850721547099.0,-6.3464303,8.198944,-5.834006529378097,104,1970-01-02 22:20:50.721547099,0.51452273,0.53263223,-0.13102753,12.396634493101065,0.7520631261664986,100.36446380615234,-8.374770164489746,-58.49959182739258,16798946.0,39609.99999999814,-0.20631209145999033,-0.06923828990249681,-0.1669532833996586,-0.005170383527222567,-0.0021598894686136716,-0.0031430043661844712,16.79894692200469
1621,A,166850761746838.0,0.10175357,5.5407815,-0.33093392937809796,104,1970-01-02 22:20:50.761746838,1.5595472,4.990764,0.6562029,5.690393326165262,5.26977371608044,100.47718048095703,-8.269155502319336,-58.26753616333008,16839146.0,40200.0,-0.125518002273,-0.11779151745000005,-0.12391530322099953,-0.006669784884033105,-0.0037592991277851867,-0.005846458591075228,16.839146661019186
1621,A,166850801678661.0,3.4141316,4.4801497,0.03178767062190213,104,1970-01-02 22:20:50.801678661,0.85753787,2.3947146,0.63702816,5.708948842660099,2.62218117043241,100.52832794189453,-9.004925727844238,-58.15827941894531,16879078.0,39932.0,0.07019816330422,-0.19125568766080003,-0.005972754202326206,-0.0011045159048506616,-0.006170436497242235,-0.002593344954514122,16.87907848402392
1621,A,166850841268401.0,2.6749218,5.4180784,-4.063494529378097,104,1970-01-02 22:20:50.841268401,-1.2218584,-0.42077947,0.1438107,7.8587344250345295,1.300259523886878,101.20036315917969,-9.310731887817383,-58.29652786254883,16918668.0,39590.0,0.120532812053,-0.19204657476050002,-0.07980763726907887,0.00377551965719617,-0.007587468284629635,-0.0016980228491764635,16.918668224010617
1621,A,166850881098244.0,-0.8523358,12.360664,-4.253235029378098,104,1970-01-02 22:20:50.881098244,-1.5606124,0.49428272,-0.28442562,13.442627970953815,1.66154277815431,101.41083526611328,-8.985426902770996,-58.31595993041992,16958498.0,39830.0,0.03629680018999999,-0.03627034510400003,-0.16562766916262964,0.0031232617278193447,-0.004546931459101519,-0.004887844127587475,16.95849806701881
1621,A,166850921077776.0,3.5410242,12.418126,0.959540819321902,104,1970-01-02 22:20:50.921077776,1.0056096,1.5776566,-0.33981937,12.913121580827204,1.9015068286395704,101.17239379882812,-9.161198616027832,-58.19081115722656,16998477.0,39979.0,0.053745536771799995,0.10352142270499999,-0.06583930041191834,0.0017999012946979009,0.0013443154157051888,-0.004626908988310427,16.99847759900149
1621,A,166850961258036.0,6.1399302,8.6299,-2.798757229378098,104,1970-01-02 22:20:50.961258036,2.126268,0.58696073,0.14274544,11.238871006629257,2.2104105426429106,101.53501892089844,-9.759801864624023,-58.206424713134766,17038657.0,40180.0,0.19449037389600002,0.029090842339999975,-0.03694985767802898,0.004987059445316102,0.0026641804047540492,-0.0020650341860270417,17.038657858996885
1621,A,166851000869026.0,4.8626237,13.818733,-0.7702699293780979,104,1970-01-02 22:20:51.000869026,0.95128113,-1.4966966,0.06391586,14.75130338978938,1.774576495365916,101.49031829833984,-9.984761238098145,-58.26359176635742,17078268.0,39611.0,0.21791108126645,0.056418600881499956,-0.07068636739274584,0.008167817020219905,0.001693557277723417,-0.0021317892556392305,17.07826884899987
1621,A,166851041122203.0,4.19943,7.422025,-1.1988319293780978,104,1970-01-02 22:20:51.041122203,-1.2229236,-2.5992453,0.73290193,8.797044670904176,2.9645848781923543,101.55909729003906,-10.4506254196167,-58.41900634765625,17118522.0,40254.0,0.18239195481989998,0.033023536265999964,-0.039632113111185946,0.008056899207309965,0.0018002018943677309,-0.002220380057102635,17.11852202602313
1621,A,166851081010015.0,-2.0033484,10.657789,-2.0092694293780977,104,1970-01-02 22:20:51.081010015,-0.13102753,-2.7292075,-0.4825648,11.243948176393307,2.7746370173183355,101.67584991455078,-9.893485069274902,-58.567543029785156,17158409.0,39887.0,0.04379755338960001,-0.030317829491000047,-0.06398076944835418,0.004511010456976163,5.3961263067210845e-05,-0.0020664035233261885,17.15840983801172
1621,A,166851120919025.0,-5.159505,10.175956,-4.096414529378098,104,1970-01-02 22:20:51.120919025,0.39840892,2.3957798,-1.2676647,12.480040766638623,2.7396102476902984,102.0103530883789,-9.055809020996094,-58.4909782409668,17198318.0,39909.0,-0.1429311581703,0.024618764602499944,-0.1218358705550005,-0.001978161516596478,-0.00011372199031757532,-0.003707878142946941,17.198318848008057
1621,A,166851160485433.0,2.9526494,7.1867948,1.570062270621902,104,1970-01-02 22:20:51.160485433,-0.43995422,5.0163302,0.34514567,7.793504030679207,5.047400709736408,101.55933380126953,-9.45991039276123,-58.183162689208984,17237885.0,39567.0,-0.0436593277626,-0.044260619548200035,-0.049980089911103205,-0.003691412878453527,-0.0003885846373182577,-0.0033991210538811623,17.237885256006848
1621,A,166851200768869.0,9.93893,3.8905778,2.2805416706219024,104,1970-01-02 22:20:51.200768869,-0.6540724,0.75633776,0.75101143,10.754498013503925,1.2505501507873336,101.2404556274414,-10.732120513916016,-58.103515625,17278168.0,40283.0,0.2596557464851,-0.17165849977710002,0.07755693928256208,0.004350491867699233,-0.004348934941890531,0.0005554391116152389,17.2781686920207
1621,A,166851240499598.0,3.1040826,5.6102133,0.36637733062190203,104,1970-01-02 22:20:51.240499598,-0.72011876,-2.0900488,-0.3110572,6.4392389641470205,2.232404890820036,101.1080093383789,-11.14226245880127,-58.18281173706055,17317899.0,39731.0,0.2591059668053,-0.20062583440295004,0.0525823694192088,0.010305460815370442,-0.007395614440653784,0.0025852824370150296,17.31789942100295
1621,A,166851280199234.0,1.7705121,9.13388,-0.07355712937809789,104,1970-01-02 22:20:51.280199234,-2.0804615,-0.7701862,0.07882957,9.361275645656812,2.219847052559945,100.89552307128906,-11.133628845214844,-58.199684143066406,17357599.0,39700.0,0.09676070479499999,-0.09638974799500004,0.005812480994689512,0.007063953431265955,-0.005895759310599309,0.0011591377807158815,17.357599057024345
1621,A,166851320083557.0,2.6120741,11.99495,0.2945512706219021,104,1970-01-02 22:20:51.320083557,-0.82344943,-0.8064052,0.28868666,12.294159552784803,1.1881491059695835,100.67119598388672,-11.170965194702148,-58.20577621459961,17397483.0,39884.0,0.08739753400040001,0.03048792785999995,0.004407065164683944,0.003672483598057867,-0.001314214097132172,0.00020379818951022548,17.397483380016638
1621,A,166851360020120.0,0.64703304,10.178948,-3.2345020293780977,104,1970-01-02 22:20:51.360020120,0.78083885,-1.9899141,0.6317018,11.028812033017786,2.229016509398567,101.02666473388672,-10.994285583496094,-58.36820602416992,17437419.0,39936.0,0.06507785137152,0.051395595263999956,-0.05870493675084371,0.003044628495106499,0.0016350501897400302,-0.0010842198998324384,17.43741994301672
1621,A,166851399978088.0,-1.8016368,8.392276,-3.798336529378098,104,1970-01-02 22:20:51.399978088,-0.0063915867,-2.9582393,0.23116238,9.81481934047791,2.9672641699673954,101.50936889648438,-10.463661193847656,-58.602821350097656,17477377.0,39958.0,-0.02306782852104,-0.020553915704000014,-0.14050908156539005,0.0008393182465297399,0.0006161859159292388,-0.003980096871940034,17.47737791101099
1621,A,166851439770745.0,-5.481525,8.9602995,-3.622362529378098,104,1970-01-02 22:20:51.439770745,-0.21198763,-1.6532904,-1.212271,11.460557577095726,2.061045579177272,101.85347747802734,-9.493639945983887,-58.732139587402344,17517170.0,39793.0,-0.14490942875370003,-0.04471588156425002,-0.14764593882254268,-0.003342159499366865,-0.001298640521347737,-0.005733276363148504,17.5171705679968
1621,A,166851479723557.0,-2.3259668,11.604695,-5.022371929378098,104,1970-01-02 22:20:51.479723557,-0.90014845,3.1723576,-0.26844665,13.262120260876756,3.308501711985561,102.16249084472656,-9.041353225708008,-58.63350296020508,17557123.0,39953.0,-0.1559663599427,0.019277212629249956,-0.17269153791534314,-0.006010445192893636,-0.0005081755699800288,-0.006399221604054376,17.557123380014673
1621,A,166851519892307.0,4.11264,10.650606,7.848257870621902,104,1970-01-02 22:20:51.519892307,-0.33449304,5.3273873,0.040480047,13.333375503098004,5.338031441666005,101.12622833251953,-9.380755424499512,-58.21350860595703,17597292.0,40169.0,0.0358844378854,0.05333039293449996,0.05675650618691119,-0.002411785363559842,0.0014582874539451353,-0.0023284971447496915,17.597292129998095
1621,A,166851559839807.0,12.385804,9.687539,1.4575347706219022,104,1970-01-02 22:20:51.559839807,0.26525086,4.1555967,-0.5550028,15.732220611085388,4.200877296445288,100.88496398925781,-10.36606216430664,-57.96355056762695,17637239.0,39947.0,0.329531671234,0.014743339157499953,0.18586924931988316,0.007298638655496337,0.0013596706879395605,0.004846085527614958,17.637239630013937
1621,A,166851599765432.0,12.993333,13.34109,8.449800870621901,104,1970-01-02 22:20:51.599765432,-0.44101948,-0.18216023,-0.7765778,20.072082201581786,0.9114568616154926,100.14525604248047,-11.087397575378418,-57.8314208984375,17677165.0,39926.0,0.506643711931,0.06844572072699995,0.19778014140615008,0.016692569174122898,0.0016607032024742716,0.0076587927870638015,17.67716525500873
1621,A,166851639344546.0,3.6254199,12.419323,4.157595770621902,104,1970-01-02 22:20:51.639344546,0.4282363,-5.8184743,-0.44847634,13.326639739352208,5.851423804164075,99.63786315917969,-11.15618896484375,-58.0065803527832,17716744.0,39579.0,0.32887681051455003,0.12191149306349998,0.24949407583189426,0.016534533378936213,0.0037670740823070982,0.00885133312203228,17.716744369012304
1621,A,166851679231734.0,-5.1409497,8.781333,-0.954623529378098,104,1970-01-02 22:20:51.679231734,0.9938917,-7.919176,0.19387813,10.354326428909758,7.983655676417739,99.81997680664062,-10.160785675048828,-58.41523742675781,17756631.0,39887.0,-0.030224968566300008,0.03192268293599998,0.0638784768932458,0.005956163009894924,0.003067991889046027,0.006249745505273831,17.75663155701477
1621,A,166851719245379.0,-7.797915,5.98311,-9.937668529378099,104,1970-01-02 22:20:51.719245379,1.8524948,-0.78936094,-0.74035877,14.676286778655902,2.1454507185998555,100.87894439697266,-9.233180046081543,-58.609336853027344,17796645.0,40014.0,-0.2588678660529,-0.09674498889900003,-0.21792208721953524,-0.005783880342226336,-0.001296899875401742,-0.0030819505117980726,17.796645202004584
1621,A,166851759051943.0,-0.8643068,4.6178164,-0.7972046293780979,104,1970-01-02 22:20:51.759051943,1.8738002,5.7822556,0.58909124,5.016345417634676,6.106769645425979,101.1755142211914,-8.850714683532715,-58.36616134643555,17836451.0,39806.0,-0.17240420048539998,-0.17910856186080007,-0.21365618047872462,-0.008583607940311785,-0.005490313220772302,-0.008589702261998466,17.836451766022947
1621,A,166851798997410.0,3.3566709,3.0897174,-1.2072115293780978,104,1970-01-02 22:20:51.798997410,-0.314253,2.6674223,0.7094661,5.051355617165908,2.7779918685258065,101.57923126220703,-9.701462745666504,-58.31117248535156,17876397.0,39946.0,0.0497799881693,-0.23752822741260005,-0.0400342039388375,-0.002449173392589465,-0.008321486592157621,-0.005066958047971968,17.876397233019816
1621,A,166851838983452.0,2.309806,6.6325374,-3.010644129378098,104,1970-01-02 22:20:51.838983452,-1.3997575,-0.16192019,0.07243799,8.068604960388823,1.4109523270228255,101.97201538085938,-9.88905143737793,-58.398319244384766,17916383.0,39986.0,0.1132898726617,-0.19748575978360003,-0.08432758818551264,0.003260255727594183,-0.00869723464601363,-0.0024863653099421322,17.9163832750055
1621,A,166851878980901.0,-0.5895722,11.629835,-4.455545129378098,104,1970-01-02 22:20:51.878980901,-1.6500946,0.46232477,-0.22583607,12.843023934208656,1.7284554701865356,102.21175384521484,-9.578514099121094,-58.42842483520508,17956380.0,39997.0,0.034402095649299996,-0.02675054555860002,-0.1493125858912358,0.0029536178282675335,-0.004484389752385987,-0.004672453021273853,17.956380724004703
1621,A,166851918637255.0,3.6140475,13.721169,1.3515913506219022,104,1970-01-02 22:20:51.918637255,0.40053943,2.0474384,-0.24181503,14.194510098280286,2.1002167377471275,101.87813568115234,-9.723706245422363,-58.26798629760742,17996037.0,39657.0,0.05997080848604999,0.11403378281399996,-0.061546747502067234,0.0018712731296477872,0.0017306956699186975,-0.004181024292189109,17.9960370780027
1621,A,166851958875745.0,6.5445504,10.468647,-2.635951629378098,104,1970-01-02 22:20:51.958875745,1.3358417,0.9054748,0.39095205,12.85940090451926,1.6604822089661582,102.09246063232422,-10.264031410217285,-58.25420379638672,18036275.0,40238.0,0.20438083115010003,0.09234250810399999,-0.025840044448295907,0.005318490637839703,0.0041520845969792415,-0.001758134867249356,18.03627556801075
1621,A,166851998677516.0,5.2343235,12.872425,2.1464663706219023,104,1970-01-02 22:20:51.998677516,1.1856394,-2.17527,0.017044231,13.946397411631123,2.477464604296647,101.76853942871094,-10.54537296295166,-58.28996658325195,18076077.0,39802.0,0.23441136948389998,0.07445107387199998,-0.009741246134507052,0.008732403584817234,0.0033193590749043753,-0.0007081032638883616,18.076077339006588
1621,A,166852038525223.0,2.385822,8.420407,-2.384560529378098,104,1970-01-02 22:20:52.038525223,-0.58269966,-2.9593046,0.63915867,9.36965460387639,3.083106617485267,102.01011657714844,-10.654914855957031,-58.48855209350586,18115925.0,39848.0,0.15182377894200003,0.033727984767999986,-0.00474378801905844,0.007695349097237632,0.0021553595643433593,-0.0002885998204756389,18.115925046004122
1621,A,166852078531316.0,-1.6633717,8.640076,-2.141549029378098,104,1970-01-02 22:20:52.078531316,-0.037284255,-2.5502431,0.07137272,9.32982406716478,2.551514070102047,102.22415161132812,-10.122386932373047,-58.65079879760742,18155931.0,40006.0,0.014451173350900005,-0.050797958551,-0.09053576950380018,0.0033259978707148793,-0.00034145068558134927,-0.001905876989129741,18.155931139015593
1621,A,166852118523297.0,-4.051588,8.325836,-4.138911829378097,104,1970-01-02 22:20:52.118523297,0.16405073,1.8876486,-1.0695255,10.5710663200215,2.175779095920756,102.65699005126953,-9.33028507232666,-58.62052536010742,18195923.0,39992.0,-0.11427633416119999,-0.052671223648000004,-0.12558409533168888,-0.001996103915562759,-0.002068969767251204,-0.0043215328172504395,18.195923120016232
1621,A,166852158422202.0,2.932897,8.555081,0.2490614706219021,104,1970-01-02 22:20:52.158422202,-0.6679208,5.4488277,0.18216023,9.071859313547305,5.4926335986258525,102.39057922363281,-9.63747501373291,-58.321720123291016,18235822.0,39899.0,-0.02231732610449999,-0.05424434630850002,-0.0776005697320067,-0.002724975225470581,-0.0021329121628471974,-0.004053432475688195,18.235822025017114
1621,A,166852198344130.0,10.79785,5.554548,2.745615370621902,104,1970-01-02 22:20:52.198344130,-0.59122175,1.6799221,0.5209143,12.27315034128521,1.8555411953621408,101.99848175048828,-10.824333190917969,-58.181644439697266,18275743.0,39921.0,0.2740725754935,-0.10959055034550004,0.059775247089646946,0.0050251606554291344,-0.003270226454662168,-0.00035580235260282184,18.275743953010533
1621,A,166852237870588.0,3.5116954,5.5377884,1.440176820621902,104,1970-01-02 22:20:52.237870588,-0.15339808,-3.3001893,-0.6199839,6.5748302659721825,3.361422380933611,101.66130828857422,-11.29386043548584,-58.27061462402344,18315270.0,39527.0,0.2828067005129,-0.1681412095586,0.08272590397164692,0.011005883571352487,-0.005488951636864681,0.002816321498999881,18.315270410996163
1621,A,166852277729805.0,-0.53809685,8.465299,-1.619613029378098,104,1970-01-02 22:20:52.277729805,-1.4998924,-2.2892532,0.02130529,8.866348498729968,2.7369346613812295,101.74274444580078,-10.907615661621094,-58.41112518310547,18355129.0,39859.0,0.059262332302224996,-0.11154366966170003,-0.003576073922406604,0.006817264789489034,-0.00557397980042097,0.0015774165379663348,18.35512962800567
1621,A,166852317694390.0,0.95947635,11.413758,-0.22678612937809794,104,1970-01-02 22:20:52.317694390,-1.1451592,0.2695119,0.37071204,11.51547228130067,1.2334722024379843,101.53685760498047,-10.776907920837402,-58.37397766113281,18395094.0,39965.0,0.00842021585875,0.005576256502499963,-0.036895671189845686,0.0013524665186266827,-0.002117493833453715,-0.0008087266467055813,18.395094213017728
1621,A,166852357907046.0,2.368464,9.664794,-2.213973529378098,104,1970-01-02 22:20:52.357907046,0.716923,-0.83516735,0.644485,10.445116484646402,1.2754779518517843,101.74626922607422,-10.859949111938477,-58.45309829711914,18435306.0,40212.0,0.06691156867709999,0.029727766511999973,-0.04907391369895208,0.0015146208598777998,0.0007098226867295356,-0.001728504473774168,18.435306869010674
1621,A,166852397819285.0,-0.24420857,8.89446,-4.797915529378098,104,1970-01-02 22:20:52.397819285,0.049002163,-2.3329291,0.5368933,10.599058454257408,2.3944130414760063,102.29762268066406,-10.57745361328125,-58.672706604003906,18475219.0,39913.0,0.042392703488794994,-0.020769647549000007,-0.13993276400106802,0.0021813307074786833,0.0001787727010851088,-0.003771911763520451,18.47521910801879
1621,A,166852437751838.0,-3.4901476,8.396465,-2.9555775293780977,104,1970-01-02 22:20:52.437751838,-0.43249738,-2.9507825,-0.41864893,9.900705532910608,3.01155080857077,102.60038757324219,-9.788694381713867,-58.867530822753906,18515151.0,39932.0,-0.07456015529022,-0.04610299145000004,-0.15480624241112623,-0.0006422553426672518,-0.001335179110254035,-0.005884759002025871,18.515151661005802
1621,A,166852477729962.0,-8.411429,13.740324,-4.304111529378098,104,1970-01-02 22:20:52.477729962,-0.6924219,-0.16937704,-1.454086,16.949147001773305,1.619414327673672,102.7476577758789,-8.806204795837402,-58.88970947265625,18555129.0,39978.0,-0.2379006146574,0.05070787532099994,-0.1451139245954776,-0.0062457783304829765,9.204702369741703e-05,-0.005995104218295004,18.555129785003373
1621,A,166852517555327.0,1.204882,10.86788,3.973840770621902,104,1970-01-02 22:20:52.517555327,-0.128897,6.223275,-0.036218993,11.341857805749571,6.224715092089592,102.01206970214844,-8.828768730163574,-58.477638244628906,18594955.0,39826.0,-0.14350397041100002,0.09972836625199995,-0.006576681619112125,-0.00759490950246705,0.002995636878443147,-0.003020615041551125,18.5949551500089
1621,A,166852557048607.0,8.872911,8.851962,6.678091470621903,104,1970-01-02 22:20:52.557048607,0.3206446,4.0820932,0.07137272,13.775596850713583,4.095288990798524,101.2116470336914,-9.664959907531738,-58.150020599365234,18634448.0,39493.0,0.1990011394745,0.0023664600529999693,0.21033838000172078,0.0010958748489124021,0.0020160154876316806,0.004023580377112182,18.63444843000616
1621,A,166852597036890.0,11.09114,13.663111,4.642421470621902,104,1970-01-02 22:20:52.597036890,-0.6892261,2.7931235,-1.1185277,17.978998177739104,3.086693330870553,100.64350128173828,-10.337482452392578,-57.91136932373047,18674436.0,39988.0,0.39916123569399997,0.05828396956199999,0.22634233574722867,0.011959658529118988,0.0012126446897223093,0.008730994230684496,18.674436713015893
1621,A,166852636855484.0,10.266935,14.021044,7.565143470621901,104,1970-01-02 22:20:52.636855484,-0.3206446,-2.5481126,-0.8628642,18.590586220918638,2.7092850365787577,99.93706512451172,-10.876039505004883,-57.89955139160156,18714255.0,39819.0,0.4252285942125,0.16095148397249998,0.2430465141976935,0.016413189318523463,0.004364868262145127,0.009345297307978428,18.714255307015264
1621,A,166852676837307.0,-1.5508442,11.648989,2.5606631706219023,104,1970-01-02 22:20:52.676837307,1.1526161,-7.0904,0.3334278,11.860097316132256,7.191207835391218,99.62043762207031,-10.392908096313477,-58.175994873046875,18754237.0,39982.0,0.17424337118279998,0.12134602970299996,0.20242500056510487,0.011984044060217441,0.005643409595886919,0.0089054210516231,18.754237130022375
1621,A,166852716768243.0,-7.744644,6.127361,-4.877523129378098,104,1970-01-02 22:20:52.716768243,2.1017668,-4.4315,-0.81066626,11.47241670004926,4.971196608130142,100.36038208007812,-9.204803466796875,-58.491188049316406,18794168.0,39931.0,-0.18558906965709998,-0.03641008407500003,-0.046257267506546816,-0.0002265225428886367,0.0016957886224358326,0.003117966874380641,18.794168066000566
1621,A,166852756669389.0,-5.7179523,3.2375593,-5.791509529378098,104,1970-01-02 22:20:52.756669389,2.0165455,3.7316215,-0.31851408,9.422191773988034,4.253575671360596,101.3634033203125,-8.258075714111328,-58.443328857421875,18834069.0,39901.0,-0.26858552748315,-0.20419495755485004,-0.21285253605851548,-0.009061010300246558,-0.004800190883036324,-0.005169370136024775,18.834069211996393
1621,A,166852796326733.0,1.5382746,3.0843303,-0.7439337293780979,104,1970-01-02 22:20:52.796326733,0.07456851,6.211557,0.58269966,3.845429572819049,6.239273973844772,101.72349548339844,-8.735881805419922,-58.20035934448242,18873726.0,39657.0,-0.08287673927445,-0.2632850120664,-0.1295880366562472,-0.006968969556403071,-0.009269426577634956,-0.006790082896074671,18.873726556019392
1621,A,166852836477462.0,4.188656,6.9886746,0.36877153062190204,104,1970-01-02 22:20:52.836477462,-1.2602079,1.8695391,0.32384038,8.1693050475018,2.277756130354996,101.49720764160156,-9.31098461151123,-58.087223052978516,18913877.0,40151.0,0.1149709952603,-0.19125919013005002,-0.00753156872113001,0.0006443082360439317,-0.009125202131194832,-0.0027527446377535363,18.913877284998307
1621,A,166852876440639.0,0.60333884,10.458471,-3.4900829293780977,104,1970-01-02 22:20:52.876440639,-1.5861788,-0.3930826,-0.010652645,11.382388505423187,1.6341941729297949,101.7113265991211,-9.154617309570312,-58.15331268310547,18953840.0,39963.0,0.09575124489546,-0.04301726019360003,-0.06236848371424692,0.004210546441672318,-0.0046811948921420135,-0.001396707897737484,18.95384046199615
1621,A,166852916555223.0,1.276708,13.543999,-0.4350816293780979,104,1970-01-02 22:20:52.916555223,0.43995422,1.7427727,-0.1736381,13.675521040869798,1.8058146608477594,101.57278442382812,-9.069964408874512,-58.041893005371094,18993955.0,40115.0,0.0377090394933,0.08830254202499994,-0.07872898813725239,0.002676879654127554,0.0009083095403333036,-0.0028300625416614474,18.9939550459967
1621,A,166852956464389.0,5.2726307,10.418967,-3.1112005293780975,104,1970-01-02 22:20:52.956464389,2.021872,1.5574167,0.12783173,12.366934359898595,2.555357922682786,101.8847427368164,-9.493736267089844,-58.0022087097168,19033864.0,39909.0,0.13068877908915,0.08706080504699996,-0.0707642873369005,0.0033602942709034986,0.003499287909148222,-0.002983063565448984,19.03386421201867
1621,A,166852996394494.0,3.6601357,4.324527,-0.7361525293780979,104,1970-01-02 22:20:52.996394494,1.0865698,-3.202185,-0.3121225,5.914355080756015,3.395886211212515,102.1552505493164,-10.136338233947754,-58.19070816040039,19073794.0,39930.0,0.178342681176,-0.09696014229000002,-0.07681240381806745,0.006169813104193719,-0.00019764026805649617,-0.0029463686389089353,19.073794317024294
1621,A,166853036113452.0,0.41838676,12.378023,-6.935938029378098,104,1970-01-02 22:20:53.036113452,0.680704,-2.23599,-1.0471549,14.688684263671222,2.561160401128756,102.7127685546875,-9.864669799804688,-58.37828063964844,19113513.0,39719.0,0.08099741679437,-0.05754190827500002,-0.15236388245161867,0.005150364675642563,-0.0030683334731956185,-0.004551326457172831,19.113513275020523
1621,A,166853075869702.0,4.4101195,13.8241205,4.330576770621902,104,1970-01-02 22:20:53.075869702,-3.9095206,2.7888622,2.034655,14.896551339217563,5.2155464393904305,101.87875366210938,-10.200840950012207,-58.154510498046875,19153269.0,39756.0,0.09598104743628,0.131237408493,-0.05178937110155567,0.0035179779119768606,0.0014649191533334036,-0.004058158374129999,19.15326952500618
1621,A,166853115801108.0,1.4514848,9.968858,2.935355770621902,104,1970-01-02 22:20:53.115801108,1.454086,-3.6261601,0.0,10.265558442947347,3.9068405606356666,101.41859436035156,-10.132142066955566,-58.23503494262695,19193200.0,39931.0,0.11702986065165001,0.08371491224174998,0.14506797615220318,0.0042528692854295665,0.004291630559629651,0.001862353989138703,19.193200931011233
1621,A,166853155682722.0,-3.0747535,6.1926026,-6.8287975293780985,104,1970-01-02 22:20:53.155682722,3.3949978,0.9534117,-2.0474384,10.415787237902137,4.0776228287442535,102.47017669677734,-9.440081596374512,-58.317970275878906,19233082.0,39882.0,-0.0323696011467,-0.06856791417540002,-0.07763912211135732,0.0016882102347882083,0.0003020462884410846,0.0013445987784285074,19.233082545018988
1621,A,166853195535900.0,2.60549,4.7506948,-1.0288436293780978,104,1970-01-02 22:20:53.195535900,-0.8926916,6.7974524,-0.23222765,5.772217602731471,6.859751242166208,102.59950256347656,-9.933980941772461,-58.0172233581543,19272935.0,39853.0,-0.009350779132749997,-0.17249778435890006,-0.15657528654995534,-0.0008313411576384602,-0.004803595641843731,-0.004667073414189647,19.27293572301278
1621,A,166853235507306.0,10.796653,4.534618,8.078699470621903,104,1970-01-02 22:20:53.235507306,-3.529221,1.6809874,0.26205507,13.703551819951716,3.9178811066075587,101.56314849853516,-11.02279281616211,-57.781192779541016,19312907.0,39972.0,0.267855229998,-0.20614933837920005,0.14089841884309867,0.005166469954992886,-0.007567641395043669,-0.0003133178779892374,19.31290712900227
1621,A,166853275378295.0,2.5582044,11.1899,2.068056170621902,104,1970-01-02 22:20:53.275378295,-1.0322412,-5.090899,-0.21624869,11.531829874592647,5.1989939429763865,101.13862609863281,-11.018608093261719,-57.95256042480469,19352778.0,39871.0,0.26623575969769997,-0.07725967141100003,0.20228064708601584,0.010647370925078626,-0.005649900314672533,0.006841446268829862,19.35277811801643
1621,A,166853315308555.0,-0.065242,9.277532,-1.973356129378098,104,1970-01-02 22:20:53.315308555,-0.69987875,-3.516438,0.48469532,9.730841545626092,3.6180237735227037,101.300537109375,-10.726651191711426,-58.1637077331543,19392708.0,39930.0,0.049771994316000004,0.01731827987999998,0.0018906863234325456,0.0063090948088835195,-0.0011967298819164159,0.004076280671519637,19.392708377999952
1621,A,166853355535743.0,0.37948096,9.430161,-2.9340297293780977,104,1970-01-02 22:20:53.355535743,-0.165116,-1.1899004,0.41545314,10.210084236529392,1.2711127278538357,101.58538055419922,-10.525992393493652,-58.27909851074219,19432935.0,40227.0,0.006320445321959999,-0.017947416844500012,-0.09870470547009273,0.0011282152846581086,-1.265414633547137e-05,-0.0019472687741063496,19.432935566001106
1621,A,166853395408869.0,-0.7236475,9.097966,-4.1293350293780975,104,1970-01-02 22:20:53.395408869,-0.18855181,-2.9635658,0.551807,10.450434792979882,3.0203915311152816,102.04349517822266,-10.176067352294922,-58.51129913330078,19472808.0,39873.0,-0.00686147622471,-0.021369396064500036,-0.1408187715129429,-1.0786262592675397e-05,-0.0007838396405602794,-0.004775259798872289,19.472808692022227
1621,A,166853435307775.0,-3.4674027,8.120534,-3.6923929293780975,104,1970-01-02 22:20:53.435307775,-0.16192019,-3.976632,-0.53263223,9.981139777477702,4.015409979539874,102.4834976196289,-9.39179515838623,-58.773433685302734,19512707.0,39899.0,-0.0836093559649,-0.047509734250000046,-0.1560395619132067,-0.0018048478667666247,-0.0013741042102091191,-0.005922175322684971,19.51270759801264
1621,A,166853475221576.0,-8.89446,11.629835,-5.805874529378098,104,1970-01-02 22:20:53.475221576,-0.7819041,-1.8801918,-0.7946873,16.12946451489776,2.185868964774728,102.82482147216797,-8.367243766784668,-58.914573669433594,19552621.0,39914.0,-0.2467056939039,0.003000914132999955,-0.1895569236743974,-0.006592097450231642,-0.0008882625230749708,-0.006897069062871814,19.552621399023337
1621,A,166853515117045.0,-0.7062895,11.243171,-0.913921929378098,104,1970-01-02 22:20:53.515117045,-1.2655342,6.3148875,0.20559604,11.420347326584327,6.443729562969692,102.63267517089844,-8.151495933532715,-58.59385299682617,19592516.0,39895.0,-0.19151095065125,0.06528828718499997,-0.13404313986103922,-0.008741326517263854,0.0013621988432908035,-0.0064550122673731215,19.592516867996892
1621,A,166853554684754.0,5.3157263,11.046846,8.454589270621902,104,1970-01-02 22:20:53.554684754,-0.660464,7.069095,-0.036218993,14.367970983021072,7.099973847119081,101.56787872314453,-8.61788272857666,-58.1014518737793,19632084.0,39568.0,0.09119309765119998,0.05321929632799998,0.1491845626791674,-0.00198468840375299,0.002344554032221191,0.00029955790903384813,19.632084577024216
1621,A,166853594853452.0,13.696031,12.352285,7.431067770621903,104,1970-01-02 22:20:53.594853452,0.13209279,4.3004727,-0.48469532,19.545271371060206,4.329716330413019,100.88507080078125,-9.509099960327148,-57.77981185913086,19672253.0,40169.0,0.38184163949185,0.07630364656949999,0.31905547884486124,0.009500666178149588,0.0026014035466248382,0.009404367113989355,19.672253274999093
1621,A,166853634485379.0,10.223241,11.438298,4.956061970621902,104,1970-01-02 22:20:53.634485379,1.0801781,-4.8235173,-0.6402239,15.852670106364897,4.9842743216289875,100.42083740234375,-10.18730354309082,-57.919105529785156,19711885.0,39632.0,0.473984293952,0.08304059272799998,0.24546336295248722,0.016959046697123333,0.0031575654459192596,0.011186505369056257,19.71188520200667
1621,A,166853674423660.0,-1.5765818,10.375273,2.0506982706219024,104,1970-01-02 22:20:53.674423660,1.0396981,-7.303453,0.029827405,10.55076343815553,7.377146300327902,100.1296615600586,-9.672506332397461,-58.21345138549805,19751823.0,39938.0,0.1726651375648,0.044202799298999965,0.13991799525739754,0.01291294249795898,0.002540923295387162,0.007695680342093189,19.751823483005865
1621,A,166853714615274.0,-6.091448,7.48188,-3.8899145293780983,104,1970-01-02 22:20:53.714615274,0.8213189,-5.183577,-0.39627838,10.799023258429672,5.26318076878247,100.67526245117188,-8.626260757446289,-58.54138946533203,19792015.0,40192.0,-0.15409672686079998,-0.03502425331200002,-0.03696088993596451,0.00037315078150758466,0.00018445206015475085,0.002069025988539518,19.7920150970167
1621,A,166853754224337.0,-5.353435,6.3697734,-6.257181829378098,104,1970-01-02 22:20:53.754224337,1.3528858,2.8027108,-0.30360037,11.015456682044892,3.126925167147819,101.49866485595703,-7.801117897033691,-58.509952545166016,19831624.0,39609.0,-0.2266601853735,-0.11384313023970002,-0.20095816983698708,-0.007540700268344193,-0.0029482440975496433,-0.00471186801927342,19.831624159996863
1621,A,166853794447410.0,1.1073183,4.883573,-0.19087302937809802,104,1970-01-02 22:20:53.794447410,1.1483551,5.3082128,0.50173956,5.138387470377661,5.454134684058402,101.56449890136719,-7.994810104370117,-58.25849151611328,19871847.0,40223.0,-0.08539577601205,-0.16786372387640003,-0.12968005529187523,-0.0062759134674054895,-0.005665547396555947,-0.006649630664679115,19.87184723300743
1621,A,166853834413660.0,4.0240545,5.5270147,-0.931878529378098,104,1970-01-02 22:20:53.834413660,-0.91612744,1.7757958,0.49747851,7.09402348101635,2.0591806811279127,101.65914916992188,-8.678919792175293,-58.1973876953125,19911813.0,39966.0,0.10254022266240001,-0.18363202599090003,-0.022435944398625066,0.00034259747741394414,-0.0070239395695982565,-0.0030397340218152676,19.911813483020524
1621,A,166853874335170.0,0.91817635,8.69155,-3.3344599293780983,104,1970-01-02 22:20:53.874335170,-1.2367721,-0.4101268,-0.002130529,9.738580796114611,1.3030018260042733,101.96492004394531,-8.599781036376953,-58.2724723815918,19951734.0,39921.0,0.09864939888142499,-0.10741613930565004,-0.08515824880600306,0.004015845440825519,-0.0058094669034017875,-0.0021476338934609796,19.951734992995625
1621,A,166853913896888.0,0.08200141,11.201273,-3.209961529378098,104,1970-01-02 22:20:53.913896888,-0.8021441,1.4008228,-0.3291667,11.953031751676015,1.6474496625249404,102.12709045410156,-8.396124839782715,-58.231319427490234,19991296.0,39562.0,0.01978451627056,0.00579233176299997,-0.12945520087565632,0.0023427412756214148,-0.002010220537001161,-0.004245268648152905,19.99129671099945
1621,A,166853953785171.0,3.8139634,13.223176,-1.0120842293780978,104,1970-01-02 22:20:53.953785171,1.1909657,2.2849922,-0.30040458,13.90298851336302,2.594191890420272,102.08108520507812,-8.593399047851562,-58.102203369140625,20031184.0,39888.0,0.07770112217064,0.096218810856,-0.08420448061263358,0.0019442535730712928,0.0020345102283933353,-0.004261228687602454,20.031184994004434
1621,A,166853993961420.0,7.709928,11.694478,0.6303380706219021,104,1970-01-02 22:20:53.993961420,1.1419635,1.2697952,0.91186637,14.011187151646736,1.9359650725186823,101.90998077392578,-9.254746437072754,-58.01517105102539,20071361.0,40177.0,0.2314976923889,0.10682369237899998,-0.0076687077101738384,0.006211340386279319,0.004078819326236297,-0.0018455945436227166,20.071361242997227
1621,A,166854033540222.0,6.2901664,12.212224,2.076435870621902,104,1970-01-02 22:20:54.033540222,-0.06178534,-3.0509174,0.8905611,13.782164381465828,3.178838385746417,101.55258178710938,-9.716484069824219,-58.11315155029297,20110940.0,39579.0,0.27705486812880004,0.085227479229,0.05356570291024427,0.010064000896365026,0.003800596660536516,0.0009082785865117938,20.110940045007737
1621,A,166854073762410.0,-0.6075287,9.919776,-1.0234567293780978,104,1970-01-02 22:20:54.073762410,-0.23222765,-5.2943645,0.22903186,10.13461647317085,5.304402014664786,101.57887268066406,-9.348681449890137,-58.37736511230469,20151162.0,40222.0,0.11428352678470002,0.050921052,0.02117646350955415,0.007870206460105401,0.002738083111546419,0.001503139708868566,20.151162232999923
1621,A,166854113629441.0,-3.5966895,7.515399,-3.6409179293780976,104,1970-01-02 22:20:54.113629441,0.75633776,-1.7534252,-0.3387541,9.518305681734045,1.9394074041994547,102.08622741699219,-8.577198028564453,-58.53166580200195,20191029.0,39867.0,-0.0838047834897,-0.04315253913750001,-0.09297731226031661,0.0006075480294708831,0.00015485365114464362,-0.0014312422185733234,20.191029264009558
1621,A,166854153306837.0,-2.27928,7.6710224,-3.5481425293780977,104,1970-01-02 22:20:54.153306837,-0.18002969,3.0956585,-0.52837116,9.185592132853644,3.1455823499987234,102.49580383300781,-8.036245346069336,-58.43704605102539,20230706.0,39677.0,-0.11657042092575,-0.08755877905610002,-0.14262017591103476,-0.003975143492795904,-0.0025931164859837336,-0.004673900769087354,20.230706660018768
1621,A,166854193431108.0,2.606687,7.1909847,1.553901410621902,104,1970-01-02 22:20:54.193431108,-1.1941614,4.699947,0.33662358,7.6717801897421625,4.8609503892419,102.00060272216797,-8.404311180114746,-58.151023864746094,20270830.0,40124.0,0.006568439234,-0.09505361355980003,-0.0400084653244868,-0.0022068597566998888,-0.003663569820660187,-0.0036638958004670333,20.270830930996453
1621,A,166854233092670.0,11.338341,4.781221,2.938348470621902,104,1970-01-02 22:20:54.233092670,-0.57417756,0.35260254,0.6540724,12.463010363923557,0.9390522488465513,101.62887573242188,-9.657196044921875,-58.08652877807617,20310492.0,39662.0,0.27654385026800005,-0.15126678876330005,0.08908580739494588,0.005614399813114164,-0.004884779898469398,0.0009732527705992742,20.310492493008496
1621,A,166854273276629.0,2.8137856,8.1881695,1.379124670621902,104,1970-01-02 22:20:54.273276629,-0.78936094,-2.654639,-0.24074976,8.668221048378776,2.7799567192419996,101.26588439941406,-9.857259750366211,-58.157405853271484,20350676.0,40184.0,0.2843445276472,-0.133222206074,0.0867466703538705,0.0112693692890722,-0.005715952884271032,0.0035328261429292186,20.35067645201343
1621,A,166854313269598.0,-0.077811554,9.730036,-1.663905729378098,104,1970-01-02 22:20:54.313269598,-1.4988271,-2.2572954,0.11504856,10.078271270802981,2.712029013435078,101.3072280883789,-9.585250854492188,-58.287384033203125,20390669.0,39993.0,0.054709905010839,-0.03363000371925001,-0.005694624441418275,0.006779901962646476,-0.0033364602131307243,0.001620757236088351,20.390669421001803
1621,A,166854353117722.0,-0.27114335,10.7194395,-2.241506929378098,104,1970-01-02 22:20:54.353117722,-0.06498113,-0.6956177,0.3898868,11.190983323878784,0.8000739019763154,101.44505310058594,-9.32583999633789,-58.34796142578125,20430517.0,39848.0,-0.006952577507296,0.016924949861999977,-0.07781144181305845,0.0009515169931805907,-0.00033283149305184974,-0.0016637748640541943,20.43051754499902
1621,A,166854393015223.0,1.2533646,8.787319,-3.931214529378098,104,1970-01-02 22:20:54.393015223,0.48043427,-0.6775082,0.551807,10.13533192924115,0.9971586704766062,101.91244506835938,-9.301032066345215,-58.4578857421875,20470415.0,39898.0,0.019594331716250003,-0.0018600746835000263,-0.12313962038072736,0.0002521903547144234,0.0003005291949358955,-0.004008772739703834,20.470415046002017
1621,A,166854432920952.0,-1.151611,9.496601,-3.574478729378098,104,1970-01-02 22:20:54.432920952,-0.5475459,-2.6812706,0.4612595,10.587032538774642,2.7752078966036797,102.24620819091797,-8.917950630187988,-58.649295806884766,20510320.0,39905.0,0.0020302387040000026,-0.026259086200000028,-0.149757344745333,0.00043146424131003825,-0.0005610475575280349,-0.00544497669667772,20.51032077500713
1621,A,166854472448920.0,-4.708796,10.752958,-4.821259129378097,104,1970-01-02 22:20:54.472448920,-0.3153183,-2.2434468,-1.3017532,13.085766213428977,2.6128606102230885,102.61741638183594,-8.121744155883789,-58.801387786865234,20549848.0,39528.0,-0.11582508394800001,0.012837884075999966,-0.16593336304045744,-0.002249041321402416,-0.0002652566387787372,-0.006239311148678362,20.5498487430159
1621,A,166854512431680.0,-4.372411,11.629835,-5.333019829378097,104,1970-01-02 22:20:54.512431680,-0.25566345,2.6887274,-0.112918034,13.928027904606441,2.7032146258813943,102.96011352539062,-7.515823841094971,-58.71873092651367,20589831.0,39983.0,-0.18154694974049998,0.05563220625949996,-0.20299926780397445,-0.005944913011483647,0.0013688198109421468,-0.00737551668952646,20.589831503020832
1621,A,166854552594389.0,3.0304608,9.017162,7.315547770621903,104,1970-01-02 22:20:54.552594389,-0.5592638,5.772668,0.05965481,11.439794772618447,5.800002632117557,101.85607147216797,-7.835045337677002,-58.296714782714844,20629994.0,40163.0,-0.026948372941299988,0.021025270255499984,0.03981213485208748,-0.004186898822434565,0.0015393971146359714,-0.0032770424103733178,20.62999421200948
1621,A,166854592525639.0,12.315175,10.555437,2.753396470621902,104,1970-01-02 22:20:54.592525639,-0.6562029,4.91513,-0.5070659,16.318463916226733,4.984598377985053,101.43883514404297,-8.811321258544922,-57.99736022949219,20669925.0,39931.0,0.3063832915649,-0.0005470746655000223,0.2010315062485532,0.005579057867779486,0.0004088574140521443,0.004808563716394842,20.669925462018
1621,A,166854632434285.0,12.459426,15.014637,11.774748470621901,104,1970-01-02 22:20:54.632434285,-0.7190535,1.1227888,-0.63915867,22.307095274216877,1.4785859564813466,100.50923919677734,-9.456451416015625,-57.79465866088867,20709834.0,39909.0,0.4943647756545,0.11912984163299997,0.28990186823004943,0.01597852730732952,0.0023662598234529776,0.009796330021033276,20.70983410801273
1621,A,166854672476577.0,4.5142674,12.894572,3.756566870621902,104,1970-01-02 22:20:54.672476577,1.6021577,-4.599812,-0.38775626,13.944960029020194,4.88625978107821,100.09545135498047,-9.647967338562012,-57.932403564453125,20749876.0,40042.0,0.33983031556140003,0.16635867338899998,0.3109524644470422,0.016701419921233533,0.005715765559255462,0.012029704594528052,20.749876400019275
1621,A,166854711934389.0,-3.1106665,7.2149267,0.05812387062190205,104,1970-01-02 22:20:54.711934389,1.8407769,-7.106379,0.40586576,7.908679179319003,7.35212956240265,100.17597198486328,-8.829590797424316,-58.27827835083008,20789334.0,39458.0,0.027691642156099996,0.010051899852299965,0.07526003363399901,0.007250840703808558,0.0034804041994776066,0.007619586374640863,20.789334212022368
1621,A,166854751767305.0,-8.392874,4.253299,-7.619482529378098,104,1970-01-02 22:20:54.751767305,2.1784658,-2.0197413,-0.89162636,12.734258560043378,3.1016230793799204,101.17139434814453,-7.734706401824951,-58.49540328979492,20829167.0,39833.0,-0.22911026436825,-0.16195648284595,-0.15059579972711779,-0.004011553989288286,-0.003025407627193031,-0.0015004247853936002,20.829167128016707
1621,A,166854791760066.0,-2.6007016,3.8139634,-2.0505692293780977,104,1970-01-02 22:20:54.791760066,1.2793826,6.3628244,-0.03089267,5.51194535300148,6.490247186315622,101.77511596679688,-6.975128173828125,-58.25450897216797,20869159.0,39992.0,-0.2198275376976,-0.2306086210496,-0.1933623549680889,-0.008976960290108736,-0.007849731817495417,-0.0068777872612853525,20.869159889000002
1621,A,166854832035170.0,3.0621839,5.1277814,2.6881544706219023,104,1970-01-02 22:20:54.832035170,-0.9235843,5.2496233,0.3174488,6.217154713269501,5.339693482938025,101.06027221679688,-7.611839771270752,-57.91753005981445,20909434.0,40275.0,0.009293099816250002,-0.21463061409,0.012839372795547114,-0.004239637242835685,-0.008966005097623695,-0.00363528155349956,20.90943499302375
1621,A,166854871864806.0,5.5527525,8.103774,-1.6579202293780981,104,1970-01-02 22:20:54.871864806,-1.3944311,-0.17896444,0.3089267,10.166844103743657,1.4394103200285226,101.13674926757812,-8.242875099182129,-57.94894790649414,20949264.0,39830.0,0.17156645840600002,-0.12682757420900004,0.020517114914370357,0.003601818101996109,-0.006800139819974586,0.0006642944527430063,20.949264629016398
1621,A,166854911848034.0,0.6691794,11.749545,-3.627749529378098,104,1970-01-02 22:20:54.911848034,-0.6828345,-0.17470337,-0.1736381,12.631679187337102,0.7259024808135159,101.35941314697266,-8.105854034423828,-57.99232482910156,20989247.0,39983.0,0.12438575157885,0.005064226788499953,-0.10566846698217448,0.0059165286059121285,-0.0024342319599569276,-0.001702303254863506,20.989247857010923
1621,A,166854951348973.0,2.5767596,10.523713,0.37715123062190203,104,1970-01-02 22:20:54.951348973,1.2580773,1.4871092,-0.2876214,10.850322471576366,1.969004402036189,101.21134948730469,-8.248836517333984,-57.887420654296875,21028748.0,39501.0,0.0641089182195,0.052798182128999976,-0.06420094169958425,0.003722863975852312,0.0011428115073250824,-0.003355005756169076,21.02874879600131
1621,A,166854991260274.0,5.6407394,8.124125,-3.968324829378098,104,1970-01-02 22:20:54.991260274,1.6895094,0.17470337,0.13209279,11.050832933632424,1.70364661398651,101.72186279296875,-8.814315795898438,-57.943824768066406,21068660.0,39912.0,0.16398841004400003,-0.019001344872000028,-0.07166546033677866,0.004551910282826407,0.0006744496843006909,-0.0027113499190376585,21.068660097022075
1621,A,166855031142722.0,5.7574563,16.597803,-2.132570529378098,104,1970-01-02 22:20:55.031142722,0.77444726,0.6263755,-0.22583607,17.838375150160612,1.0213308749052887,101.72755432128906,-9.058778762817383,-57.906211853027344,21108542.0,39882.0,0.22729142045370002,0.10213636624799995,-0.1216579543489573,0.007802511099954636,0.0016577954612588144,-0.003855062212248261,21.10854254500009
1621,A,166855071129232.0,9.316438,9.405622,2.261986570621902,104,1970-01-02 22:20:55.071129232,-2.1571605,-1.7555559,1.7022926,13.302384481639296,3.2608462148343977,101.28865051269531,-9.963458061218262,-57.95262145996094,21148529.0,39987.0,0.30137990568705,0.1280268777374999,0.0025874796206079935,0.010569990159195086,0.004601768818624092,-0.002380635536481252,21.148529055004474
1621,A,166855111219908.0,-1.2270284,9.347562,-0.2561151293780979,104,1970-01-02 22:20:55.111219908,1.055677,-4.89276,-0.2034655,9.5060350534065,5.009486256655392,101.28499603271484,-9.478299140930176,-58.17720031738281,21188619.0,40090.0,0.162152215432,-0.016974426720000046,0.040207693039732054,0.009291501367831356,0.0022260463806457846,0.0008578292359765163,21.18861973102321
1621,A,166855151197983.0,-4.9164934,7.417835,-6.2098962293780975,104,1970-01-02 22:20:55.151197983,0.40373522,-1.8865833,-2.2945797,11.429031537143375,2.9978816980260294,102.0235366821289,-8.55932331085205,-58.35873794555664,21228597.0,39978.0,-0.1228028572602,-0.056660879367000025,-0.1292491010501776,0.0007865543204961103,-0.0014718961333730445,-0.0017798487047207957,21.22859780600993
1621,A,166855191089806.0,0.35673606,8.074445,-2.976526829378098,104,1970-01-02 22:20:55.191089806,-1.655421,5.5244613,-0.2790993,8.990588970919326,5.773905763146743,102.2493667602539,-8.453143119812012,-58.13442611694336,21268489.0,39892.0,-0.09094891990364,-0.08193258312,-0.18323239432995106,-0.0042634929473099525,-0.002764385202765702,-0.006232755906852045,21.268489629001124
1621,A,166855231137930.0,6.039374,7.0365586,7.599859070621902,104,1970-01-02 22:20:55.231137930,-1.591505,4.0543966,1.4231933,11.404261376951194,4.582193702178188,101.12589263916016,-9.2117338180542,-57.792598724365234,21308537.0,40048.0,0.12807570784143998,-0.08988766391360001,0.09257760479866592,0.0007434268016665069,-0.0034405286266008064,-0.0018152715055744536,21.30853775300784
1621,A,166855270590223.0,6.569091,5.9041014,4.1204856706219015,104,1970-01-02 22:20:55.270590223,0.52411014,-2.3787355,-0.25885928,9.380383445020977,2.449506510432905,100.51419067382812,-10.039562225341797,-57.79885482788086,21347990.0,39453.0,0.2487208848225,-0.13136547051000003,0.2312013805381459,0.007432877985185211,-0.004364549956207146,0.006387026154246619,21.34799004602246
1621,A,166855310428294.0,0.9379285,7.704541,-1.226963929378098,104,1970-01-02 22:20:55.310428294,-1.1867046,-3.516438,0.0127831735,8.064013921889856,3.7113026587749336,100.6197738647461,-9.925046920776367,-57.99783706665039,21387828.0,39838.0,0.1495323214205,-0.11934185203440002,0.05763605956383532,0.007932805615154316,-0.004993839157761904,0.005753352969391363,21.387828117003664
1621,A,166855350412878.0,0.219668,10.739192,-2.037999729378098,104,1970-01-02 22:20:55.350412878,-1.4274544,-1.3134711,0.42077947,11.152332333808854,1.9849150503203028,100.68650817871094,-9.715452194213867,-58.08891677856445,21427812.0,39984.0,0.023142669228000002,-0.023116089864000065,-0.06527315346585387,0.003452118413044812,-0.0028480191744328144,-0.0001526807812891548,21.42781270100386
1621,A,166855390297306.0,0.12629414,10.453683,-2.202002529378098,104,1970-01-02 22:20:55.390297306,0.9757822,-0.97258645,0.61572284,10.922552453671639,1.5090360897798663,100.89990234375,-9.512544631958008,-58.169044494628906,21467697.0,39885.0,0.00689934997695,0.03176590968749995,-0.08455624504524542,0.0005991129679947154,0.0001724990318301464,-0.002987972779807597,21.467697129002772
1621,A,166855430304545.0,-1.1953052,7.4226236,-4.349003029378098,104,1970-01-02 22:20:55.430304545,0.13209279,-3.3907368,0.46232477,9.204553288111502,3.424658923892973,101.53511047363281,-9.104981422424316,-58.439205169677734,21507704.0,40007.0,-0.021383962738710002,-0.03447990092690004,-0.13104303969457956,-0.0002897429513798662,-5.428932375733968e-05,-0.004312740292293089,21.50770436800667
1621,A,166855470415743.0,-4.593276,7.2286935,-4.269994529378097,104,1970-01-02 22:20:55.470415743,-0.5475459,-3.1148334,-1.2314457,10.035886515932674,3.3938845198991174,102.0596694946289,-8.18160629272461,-58.660892486572266,21547815.0,40111.0,-0.11609289025660001,-0.09924830990095003,-0.17285830553963488,-0.00275716702524744,-0.002681986132257947,-0.006094893429344788,21.547815566009376
1621,A,166855510219546.0,-5.358822,11.8094,-7.278308529378098,104,1970-01-02 22:20:55.510219546,-1.1547467,1.4093449,-0.63915867,15.364590828060114,1.9308590817957352,102.51725769042969,-7.494539737701416,-58.656700134277344,21587619.0,39804.0,-0.198066654396,-0.01118306316300002,-0.22983432747536578,-0.006252403257676045,-0.002197805186718734,-0.008014388782264544,21.58761936900555
1621,A,166855549973139.0,2.5312698,10.854114,8.560532470621903,104,1970-01-02 22:20:55.549973139,-0.8948221,7.536746,-0.12357068,13.489510642414128,7.590686172680312,101.37623596191406,-7.707682132720947,-58.14553451538086,21627372.0,39753.0,-0.05620184130329999,0.06089193602099995,0.025486124168132483,-0.005053967754767135,0.0009880384113620357,-0.004061727063036222,21.627372962015215
1621,A,166855589752825.0,13.1950445,11.402985,3.505175670621902,104,1970-01-02 22:20:55.589752825,0.47297743,5.221926,-0.69668293,17.62408534201596,5.289384265084055,100.97211456298828,-8.670239448547363,-57.82432556152344,21667152.0,39780.0,0.31279639142700005,0.05284969910999995,0.23998693492933929,0.005103665601960395,0.002262321122755588,0.005280259145448714,21.667152648005867
1621,A,166855629734181.0,13.041815,14.85243,9.010642470621901,104,1970-01-02 22:20:55.629734181,-0.7850999,0.015978966,-0.7669904,21.341858927487102,1.0976845876783545,100.20174407958984,-9.365216255187988,-57.70150375366211,21707134.0,39982.0,0.5245010582645,0.13304840126499995,0.2502037204616049,0.016738413316782774,0.0037162889245966227,0.009799401391920365,21.707134004012914
1621,A,166855669612721.0,6.157887,13.84507,4.037287070621902,104,1970-01-02 22:20:55.669612721,0.4346279,-4.95348,-0.4644553,15.461791865864361,4.9941550083629265,99.7487564086914,-9.664775848388672,-57.85953903198242,21747012.0,39878.0,0.38282285817799994,0.1813950525,0.2601626671228602,0.018091131569947006,0.006269688024620333,0.010176195402046648,21.747012544015888
1621,A,166855709674493.0,-2.9508536,9.529521,1.660443370621902,104,1970-01-02 22:20:55.709674493,1.2186625,-7.6358156,0.3472762,10.000402887669155,7.7402466966625845,99.53791809082031,-8.978190422058105,-58.188987731933594,21787074.0,40062.0,0.06424008603539999,0.07560883232099998,0.11413123846855464,0.008955117835538614,0.00514804481684945,0.007497481222901631,21.787074316001963
1621,A,166855749781419.0,-9.532514,4.56694,-5.175601129378098,104,1970-01-02 22:20:55.749781419,2.9060414,-4.8288436,-0.76059884,12.222428859686186,5.686942739924876,100.34303283691406,-7.694048881530762,-58.51201629638672,21827181.0,40107.0,-0.2503352121666,-0.11036521933650001,-0.07049121611521737,-0.003731858611872019,-0.0006969872070153298,0.0008751351882626487,21.827181241998915
1621,A,166855789338920.0,-5.9519854,2.3523033,-3.239290529378098,104,1970-01-02 22:20:55.789338920,2.2615564,6.2989087,-0.23861924,7.655372506294716,6.696852044282808,101.11568450927734,-6.55991792678833,-58.28358459472656,21866738.0,39557.0,-0.3062601713829,-0.25080634639095006,-0.16643393467270942,-0.011008621793533787,-0.007143431812740372,-0.004686024094859011,21.866738743003225
1621,A,166855829242878.0,1.2491747,2.6072857,0.8793350606219021,104,1970-01-02 22:20:55.829242878,-0.35473305,7.9085236,0.3089267,2.8922483267842973,7.922500664215318,100.84101867675781,-7.119285583496094,-57.870391845703125,21906642.0,39904.0,-0.09383047908639999,-0.29210548027200006,-0.047085831512623626,-0.007982608658163476,-0.010832176765579182,-0.004260146374929765,21.90664270101115
1621,A,166855869120639.0,10.634445,5.2421045,1.1911798306219021,104,1970-01-02 22:20:55.869120639,-2.1901836,-0.29614353,0.7595336,11.858495183499521,2.336984484672241,100.58638763427734,-8.351962089538574,-57.8712043762207,21946520.0,39878.0,0.23694749319829997,-0.2342954088022,0.04128399641651021,0.0028536101443771733,-0.010495907327250474,-0.00011568278998140536,21.946520462021
1621,A,166855909075794.0,0.7691373,11.9746,-2.024831629378098,104,1970-01-02 22:20:55.909075794,-2.0250678,-1.0546118,-0.60507023,12.365266566787344,2.362036330484426,100.57794189453125,-8.193403244018555,-57.930484771728516,21986475.0,39955.0,0.22781506539825,-0.04761228585125001,-0.0166542788096519,0.009284794014362576,-0.005631810969939297,0.0004920401834910119,21.98647561701364
1621,A,166855948909127.0,-0.26515785,15.696386,-1.0659538293780981,104,1970-01-02 22:20:55.948909127,0.9214538,1.0215886,-0.6764429,15.828984430685587,1.533067307767278,100.53482055664062,-7.941969394683838,-57.86202621459961,22026308.0,39833.0,0.010037506715925001,0.16074579266900002,-0.06155762858931778,0.004737190752511966,0.002253223488535718,-0.0015577074537115796,22.02630895000766
1621,A,166855989179389.0,4.833295,9.605537,-0.9019509293780978,104,1970-01-02 22:20:55.989179389,1.6500946,2.83893,0.51452273,10.913245234594187,3.32371319062518,100.60798645019531,-8.44415283203125,-57.72748565673828,22066579.0,40271.0,0.091981725583825,0.11481107056649999,-0.03962474626993538,0.0020542082519716164,0.005548475219678411,-0.002037357708978492,22.066579211998032
1621,A,166856029114648.0,8.292916,9.433155,3.201112170621902,104,1970-01-02 22:20:56.029114648,2.3872576,-0.12463594,0.40053943,12.75827042444984,2.4238326677562063,100.28108215332031,-9.23741626739502,-57.669429779052734,22106514.0,39935.0,0.2620976181425,-0.011207917490000042,0.04590850208453566,0.007070079295855394,0.0020686959590550127,0.00012547089422803104,22.10651447100099
1621,A,166856068666158.0,5.1786585,11.309011,2.1344953706219023,104,1970-01-02 22:20:56.068666158,-2.2690134,-3.213903,0.7222493,12.493539749102032,3.999904793134338,99.82598114013672,-9.629777908325195,-57.77546691894531,22146065.0,39551.0,0.26640712152475,0.022586903732999958,0.10551430693186688,0.010451445479289702,0.00022502514244844487,0.0029944617597038687,22.146065981010906
1621,A,166856108725899.0,1.1139023,11.645996,0.039568820621902034,104,1970-01-02 22:20:56.108725899,-0.34834146,-4.985438,0.21198763,11.73540185790618,5.002086822504379,99.71668243408203,-9.494433403015137,-58.0041618347168,22186125.0,40060.0,0.126039992824,0.06720079020999997,0.0435465057506134,0.007860715700405462,0.0017984475096782886,0.00298568807803008,22.186125722015277
1621,A,166856148555116.0,-3.750517,8.511387,-4.2071465293780985,104,1970-01-02 22:20:56.148555116,0.77125144,-1.9899141,-1.381648,10.640643916246187,2.542348934545548,100.26713562011719,-8.70516300201416,-58.17008972167969,22225954.0,39829.0,-0.052506863443150004,0.011100003753499961,-0.08299522628102528,0.0014643755050549373,0.0015593211613861193,-0.0007856015450028875,22.225954939000076
1621,A,166856188569024.0,-2.3511062,7.6560583,-3.2476705293780976,104,1970-01-02 22:20:56.188569024,0.17576863,3.987285,-0.68176925,9.047578072762143,4.04896846033192,100.69010162353516,-8.14124584197998,-58.030792236328125,22265968.0,40014.0,-0.12207517536239999,-0.06867512188290005,-0.14914852489453523,-0.003492862850382639,-0.0011519053884149076,-0.00464450002976944,22.265968847001204
1621,A,166856228572670.0,3.311181,6.2871737,3.556052470621902,104,1970-01-02 22:20:56.228572670,-1.1920309,4.612595,1.1408982,7.564722325993777,4.898838536157632,99.88665008544922,-8.705741882324219,-57.707664489746094,22305972.0,40004.0,0.0192034161496,-0.11314667353600003,0.006168255588758577,-0.0020576409277744253,-0.0036367995519688396,-0.0028598913466541444,22.305972493020818
1621,A,166856268585794.0,8.895657,5.021838,3.500387270621902,104,1970-01-02 22:20:56.268585794,-0.48043427,0.07989483,0.24501082,10.52607948501595,0.5451885669823187,99.39781951904297,-9.821795463562012,-57.63079833984375,22345985.0,40013.0,0.24421610444699998,-0.16587365742395005,0.14117466168319417,0.005270102638815878,-0.005582220251350241,0.002947816074401323,22.34598561702296
1621,A,166856308102095.0,2.2146366,7.8463974,-0.32674412937809794,104,1970-01-02 22:20:56.308102095,-1.0247844,-3.919108,-0.19813919,8.254072877124521,4.05571815105059,99.37809753417969,-9.923361778259277,-57.82505416870117,22385501.0,39516.0,0.21951718094880002,-0.13300620496680005,0.06270484118469509,0.009162442252850216,-0.005905268321116441,0.004028251217663756,22.385501918004593
1621,A,166856348011159.0,-0.060453594,10.059837,-1.8799823293780977,104,1970-01-02 22:20:56.348011159,-1.4604776,-2.7846012,0.21518342,10.453567220180389,3.151714226795649,99.49089813232422,-9.657661437988281,-57.99386215209961,22425410.0,39909.0,0.042985644793226994,-0.03379824566520005,-0.044034123121250504,0.005238112636269277,-0.003328499410136246,0.000372564843597005,22.425410982017638
1621,A,166856388350274.0,-1.1935096,10.4010105,-1.7075998293780978,104,1970-01-02 22:20:56.388350274,0.15233281,-0.9321064,0.2428803,10.80410595837805,0.9752017565876028,99.62974548339844,-9.267927169799805,-58.06269836425781,22465750.0,40340.0,-0.025292437622980002,0.01736329407499997,-0.07236153214211247,0.00035687198862388185,-0.0003314929735743357,-0.0023477003666620313,22.465750097006094
1621,A,166856428210326.0,-1.6621746,9.588778,-5.120534529378098,104,1970-01-02 22:20:56.428210326,0.16085494,-1.8887138,0.74248934,11.475915771510792,2.0357810663346094,100.20845794677734,-8.872543334960938,-58.25064468383789,22505610.0,39860.0,-0.056913786105999994,0.007768484804999962,-0.136084717770011,-0.0016383700389185714,0.0005008763530783986,-0.004154333760748621,22.505610149004497
1621,A,166856467707720.0,-2.533664,8.622119,-3.256049729378098,104,1970-01-02 22:20:56.467707720,-0.29507825,-2.6855316,-0.17789917,9.92707085070956,2.707544877358141,100.59577941894531,-8.27266788482666,-58.43968200683594,22545107.0,39497.0,-0.0828615185921,-0.027432700595500042,-0.16542497423404673,-0.0027603526048304277,-0.0003883387655386908,-0.0059543641525421345,22.545107543002814
1621,A,166856507878399.0,-9.594165,12.688072,-6.599552529378098,104,1970-01-02 22:20:56.507878399,-0.77870834,0.017044231,-0.79681784,17.612558462492892,1.1142692020953475,100.97379302978516,-7.299160003662109,-58.48841094970703,22585278.0,40171.0,-0.2435935093795,0.034350041330499965,-0.19795469916824757,-0.006557012464323571,0.00013893824733284094,-0.007298662430121781,22.585278222017223
1621,A,166856547819336.0,-0.5746084,10.403405,-1.2437233293780978,104,1970-01-02 22:20:56.547819336,-0.7797736,4.889564,0.083090626,10.650037517725071,4.952048770911089,100.92961120605469,-7.091338634490967,-58.250553131103516,22625219.0,39941.0,-0.2030754891847,0.06972654142849996,-0.15663414053729058,-0.008920203235826355,0.0020784613959886076,-0.007081316423339448,22.62521915900288
1621,A,166856587554231.0,4.89315,10.368091,7.569931870621902,104,1970-01-02 22:20:56.587554231,-0.128897,6.045376,-0.30253512,13.233055620969864,6.054313579326595,99.96158599853516,-7.536591053009033,-57.83074951171875,22664954.0,39735.0,0.08579862523800001,0.023274696779999954,0.12568594819316128,-0.002329998094461062,0.001847702100107372,-0.0006148632113969888,22.664954054023838
1621,A,166856627308607.0,11.968615,12.3516865,3.410604770621902,104,1970-01-02 22:20:56.627308607,-0.26418558,4.584898,-0.57098174,17.372703290446545,4.627861691807282,99.53691864013672,-8.39838695526123,-57.54487991333008,22704708.0,39754.0,0.33516130290499996,0.06201181736749995,0.21826012681800308,0.00836742049169841,0.0016952400417098556,0.006836616132996914,22.704708430013852
1621,A,166856667231055.0,11.675324,13.603854,8.122992470621902,104,1970-01-02 22:20:56.667231055,0.23435818,-2.4756746,-0.8383631,19.304594034079763,2.62426011840665,98.8663558959961,-9.061079978942871,-57.55529022216797,22744630.0,39922.0,0.47195666637899997,0.1268629439205,0.23022213453246756,0.016110881784877924,0.0037701291100697668,0.008952154418816744,22.74463087800541
1621,A,166856707127096.0,0.24121583,12.319963,3.605133670621902,104,1970-01-02 22:20:56.707127096,0.5603291,-6.5694857,0.11824436,12.602751169198708,6.594398592099443,98.42671203613281,-8.833711624145508,-57.80388641357422,22784526.0,39896.0,0.23771113652884,0.12614750151599996,0.2339526602655314,0.014156453332405592,0.005047052365567302,0.009259358806630483,22.784526919014752
1621,A,166856747018658.0,-4.8500543,6.9120603,-1.868610029378098,104,1970-01-02 22:20:56.747018658,1.3901701,-7.3364763,-0.34408042,8.905515229151362,7.4749480762626765,98.83879089355469,-7.811546802520752,-58.20893859863281,22824418.0,39892.0,-0.09192789212262,-0.007339663258200031,0.03463670054824891,0.0029077925929264633,0.0023697411418900772,0.005357283390791662,22.824418481002795
1621,A,166856786894232.0,-8.41502,6.3566055,-8.607090529378098,104,1970-01-02 22:20:56.786894232,2.0112193,1.2772521,-0.9832391,14.239866233127305,2.577428006252689,99.78898620605469,-6.827907085418701,-58.246341705322266,22864294.0,39876.0,-0.2644790513934,-0.12623414127960003,-0.20886451774048106,-0.0071060416398224064,-0.002663194514874658,-0.003473754219178725,22.864294055005303
1621,A,166856826846367.0,-1.3359646,4.671686,-0.11186452937809799,104,1970-01-02 22:20:56.826846367,1.5041534,7.367369,0.7350325,4.97606389443003,7.555188694463482,99.89913940429688,-6.3814568519592285,-57.895835876464844,22904246.0,39952.0,-0.1947856683696,-0.17122844899600004,-0.17416984625371376,-0.009174272041985688,-0.005942112703345387,-0.0076514944551480365,22.90424619000987
1621,A,166856866978919.0,3.288436,4.0462008,0.08864997062190205,104,1970-01-02 22:20:56.866978919,-0.87032104,3.717773,0.6668556,5.286504891447551,3.8760793572174244,99.87923431396484,-7.207147121429443,-57.722023010253906,22944378.0,40132.0,0.039178291112399996,-0.21836048347120002,-0.00046582333600182763,-0.003122417632042976,-0.007817491518886837,-0.003504239345987233,22.944378742016852
1621,A,166856906987825.0,4.9099092,7.313089,-2.533000829378098,104,1970-01-02 22:20:56.906987825,-1.1313108,0.21944448,-0.007456851,9.476226687893073,1.1524216288433442,100.15497589111328,-7.796885013580322,-57.75433349609375,22984387.0,40009.0,0.16400379655340003,-0.16485128719590006,-0.048898016753988326,0.004064556072710497,-0.007665959866310005,-0.0009874989390802082,22.984387648000848
1621,A,166856946900742.0,0.9804256,12.093113,-3.7145395293780976,104,1970-01-02 22:20:56.946900742,-1.5371766,-0.19813919,-0.38562572,13.002631762657911,1.597146904366325,100.35362243652344,-7.692875862121582,-57.797821044921875,23024300.0,39913.0,0.1175504664362,-0.00386752978700002,-0.124679039169518,0.005618837649351952,-0.0033670370711192453,-0.003463990516537454,23.0243005650118
1621,A,166856986716680.0,2.4863784,12.221801,0.15688471062190212,104,1970-01-02 22:20:56.986716680,1.1100056,1.4839134,-0.31318775,12.498065444930052,1.87941426446672,100.23628234863281,-7.786428928375244,-57.6994743347168,23064116.0,39816.0,0.069017134032,0.09386450791199996,-0.07082579213179833,0.0037141877901209247,0.0017916598405124987,-0.0038921101815466057,23.064116502995603
1621,A,166857026355534.0,6.0699,7.409456,-2.628170429378098,104,1970-01-02 22:20:57.026355534,1.6969663,1.1622036,0.2247708,10.228796801730084,2.069041745282412,100.62699890136719,-8.4995698928833,-57.68864822387695,23103755.0,39639.0,0.1695811597488,0.0006194981114999314,-0.048979647302888424,0.004728898883588566,0.001872625757382756,-0.0023744839068757743,23.103755357005866
1621,A,166857066259023.0,4.6782703,14.01027,-4.615358029378099,104,1970-01-02 22:20:57.066259023,1.3443637,-1.8620822,-0.16831179,15.78839447249442,2.302822775657635,100.97373962402344,-8.69507122039795,-57.81950759887695,23143658.0,39903.0,0.21444211974045,0.03630626328899999,-0.14451925804487425,0.007661840460729771,0.0007367243285820741,-0.0038605934100458873,23.143658846005565
1621,A,166857106342617.0,6.6163764,10.731411,2.828813770621902,104,1970-01-02 22:20:57.106342617,-2.5896578,-1.1377025,1.1089402,12.744688704845373,3.0381643910070317,100.41325378417969,-9.300775527954102,-57.81706237792969,23183742.0,40084.0,0.22636730916140002,0.10304957060199997,-0.035805920033991696,0.00883470257405088,0.002792969622843421,-0.0036140772190566316,23.183742440014612
1621,A,166857146478086.0,-0.1388637,10.724827,1.2312827206219021,104,1970-01-02 22:20:57.146478086,0.664725,-5.098356,-0.24181503,10.729122437785662,5.147190275975321,100.18859100341797,-8.998364448547363,-58.021236419677734,23223877.0,40135.0,0.12998748610725,0.03725005606499995,0.08147598633803504,0.007151149854053633,0.0028154627581400203,0.0009164840555563899,23.223877909011208
1621,A,166857186269180.0,-4.8279076,6.7851677,-6.230246529378098,104,1970-01-02 22:20:57.186269180,1.5371766,-0.44528055,-2.018676,11.00300225198332,2.576089955877291,101.0388412475586,-8.111581802368164,-58.13970184326172,23263669.0,39792.0,-0.0988188817848,-0.04158274544880004,-0.09945938393901328,0.0006201305515994652,-8.620318798008673e-05,-0.00035779767866906304,23.263669003004907
1621,A,166857226154753.0,-0.8690952,7.225701,-2.726931229378098,104,1970-01-02 22:20:57.226154753,-0.41971418,6.1795993,-0.33129725,8.159007294697519,6.202690171958544,101.37132263183594,-7.8109869956970215,-57.885337829589844,23303554.0,39885.0,-0.11361247833899998,-0.11146125095025003,-0.1786285174539954,-0.004236412399268881,-0.003052079898188056,-0.005545767973530076,23.303554576006718
1621,A,166857265724960.0,6.50744,7.2328835,6.898358170621902,104,1970-01-02 22:20:57.265724960,-1.4050838,3.8008635,1.5350461,11.397789511323813,4.333265553803494,100.35519409179688,-8.630121231079102,-57.58000946044922,23343124.0,39570.0,0.111554651868,-0.10172290566750003,0.08253168203250869,-4.071409672873476e-05,-0.004217848538682185,-0.001901275888814115,23.34312478301581
1621,A,166857305679596.0,7.1963716,5.9124813,5.428318470621901,104,1970-01-02 22:20:57.305679596,-0.39947417,-2.3329291,-0.25885928,10.329526974477593,2.380996834304094,99.58598327636719,-9.478666305541992,-57.573089599609375,23383079.0,39955.0,0.273767896239,-0.12894747470800003,0.24625618260044807,0.007697781204807592,-0.004608217523951552,0.006568359565704893,23.38307941899984
1621,A,166857345904024.0,0.7092823,8.417415,-0.4596223293780979,104,1970-01-02 22:20:57.345904024,-1.743838,-5.365737,-0.19600865,8.565925552712663,5.645398472587017,99.54218292236328,-9.306337356567383,-57.839622497558594,23423303.0,40224.0,0.1589985112368,-0.10599232561440004,0.09993041679269539,0.008703797987153289,-0.00472510926408411,0.006962504886994902,23.42330384699744
1621,A,166857385873450.0,-1.2090719,10.262147,-2.907693529378098,104,1970-01-02 22:20:57.385873450,-1.474326,-2.83893,-0.051132694,11.033716919056724,3.1993398149574075,99.7686767578125,-8.899107933044434,-58.02509689331055,23463273.0,39970.0,-0.009988295156,-0.018394953430000013,-0.06729580743724256,0.002977969168374788,-0.002485879771702335,0.0006522026679687248,23.463273273024242
1621,A,166857425724961.0,-3.0609868,10.572196,-2.7155586293780978,104,1970-01-02 22:20:57.425724961,0.78723043,-0.053263225,0.017044231,11.604332209506682,0.7892143098460437,100.03668212890625,-8.315269470214844,-58.061851501464844,23503124.0,39851.0,-0.08508305462685,0.02459490144649998,-0.11204611088929657,-0.0018943441800981773,0.00012353706420277011,-0.003573477393615455,23.503124784008833
1621,A,166857465607148.0,-1.2360066,8.775947,-4.897275129378098,104,1970-01-02 22:20:57.465607148,0.18109496,-2.159291,0.7254451,10.623948792313861,2.2850828432099375,100.63902282714844,-7.977854251861572,-58.25735855102539,23543006.0,39882.0,-0.0856863453894,-0.005022280437000023,-0.15180751798335732,-0.003405312605724041,0.0003902976355504387,-0.005261505213349591,23.5430069710128
1621,A,166857505205741.0,-4.677073,8.871715,-3.1812311293780975,104,1970-01-02 22:20:57.505205741,-0.8607337,-3.4386737,-0.4612595,10.850954115151522,3.574646785869567,100.94157409667969,-7.137721061706543,-58.466243743896484,23582605.0,39599.0,-0.1170760195402,-0.03865531623100002,-0.1599503846702433,-0.004014593444423615,-0.0008647945752280669,-0.006172650593589965,23.58260556400637
1621,A,166857545054440.0,-7.065888,13.077728,-7.903793529378099,104,1970-01-02 22:20:57.545054440,-0.69774824,0.8841695,-0.3387541,17.307347364267812,1.1761643811220257,101.41932678222656,-6.399830341339111,-58.48063659667969,23622454.0,39849.0,-0.23397262644450004,0.046811477053499986,-0.22086357381338786,-0.006994468746922156,0.0001625074263079006,-0.00758752771580711,23.622454263007967
1621,A,166857585023033.0,0.038905777,10.805631,2.287724270621902,104,1970-01-02 22:20:57.585023033,-0.5550028,7.2054486,0.002130529,10.886803000129735,7.226791969774945,100.89689636230469,-6.3230299949646,-58.07492446899414,23662422.0,39968.0,-0.14042721274443198,0.08559864625599997,-0.11223152806698382,-0.007482006386351618,0.002646083904217047,-0.006656572515977347,23.66242285599583
1621,A,166857624892408.0,10.979211,9.630676,9.118381470621902,104,1970-01-02 22:20:57.624892408,0.34088463,6.475743,-0.099069595,16.728131322162735,6.485465636149242,100.02754974365234,-7.235947132110596,-57.653472900390625,23702292.0,39870.0,0.219646157949495,0.01667178004499996,0.22738071795169526,0.0015792296726629311,0.002038760948310434,0.002295499100351723,23.702292230998864
1621,A,166857665136419.0,12.90774,12.633005,6.654149470621903,104,1970-01-02 22:20:57.665136419,-0.49641323,3.1009848,-0.8586032,18.937018959978733,3.2557230041574963,99.3848648071289,-8.07880687713623,-57.41208267211914,23742536.0,40244.0,0.480653228022,0.05359858908199998,0.31737486759970784,0.014091424244518423,0.0014139803675734927,0.010961571892465334,23.742536242003553
1621,A,166857705092461.0,10.544662,13.133992,6.707420470621901,104,1970-01-02 22:20:57.705092461,-0.0958738,-4.796886,-0.56885123,17.796323324927652,4.831448934263401,98.7783432006836,-8.716690063476562,-57.553863525390625,23782492.0,39956.0,0.468532087156,0.12320426606599996,0.2669374442861687,0.018962824226626082,0.0035321674401467425,0.011673391366856042,23.782492284022737
1621,A,166857744733138.0,-1.5771804,11.133636,2.371521370621902,104,1970-01-02 22:20:57.744733138,0.8159926,-8.829977,0.19920446,11.332871218134802,8.869837662588173,98.48941802978516,-8.256434440612793,-57.937835693359375,23822132.0,39640.0,0.17773548531200004,0.09251238695999994,0.1799446272934522,0.012809023286315762,0.004275504062975318,0.008857202658708086,23.82213296100963
1621,A,166857784568971.0,-13.6649065,7.067683,-2.586870329378098,104,1970-01-02 22:20:57.784568971,2.0975058,-6.883739,-0.8586032,15.788336965551423,7.247247246796874,98.86359405517578,-6.837258815765381,-58.30253219604492,23861968.0,39836.0,-0.3035918868742,-0.02785892815800007,-0.004289320560505909,-0.0025068078063158997,0.0012877675924182338,0.0034987023995068246,23.861968794022687
1621,A,166857824794284.0,-9.406818,5.1966147,-7.426748529378099,104,1970-01-02 22:20:57.824794284,2.0900488,4.2472095,-0.25246766,13.632791320657889,4.740340962696414,99.73521423339844,-5.796761512756348,-58.17573547363281,23902194.0,40226.0,-0.4640415948685,-0.14754298035990004,-0.20140391610616337,-0.015439412218290923,-0.0035278585860205247,-0.004137108069076719,23.902194107009564
1621,A,166857864177200.0,-0.095169514,4.051588,-0.10168912937809793,104,1970-01-02 22:20:57.864177200,1.1920309,8.968461,0.6040049,4.189802618786994,9.067472210836922,99.87532806396484,-5.726413726806641,-57.74916458129883,23941577.0,39383.0,-0.187108387131931,-0.20384241653295004,-0.14824623015739766,-0.012822119870561486,-0.006919305542915558,-0.006885135855148913,23.941577023011632
1621,A,166857903998398.0,6.401497,3.8935704,2.1811822706219024,104,1970-01-02 22:20:57.903998398,-0.87351686,2.7057717,1.0620687,7.591250099722891,3.035164265858578,99.46247863769531,-6.934890270233154,-57.584434509277344,23981398.0,39821.0,0.125562133410003,-0.23205372367680002,0.04140374818873477,-0.0012254166847304477,-0.00867891009964623,-0.0021272872372370627,23.981398221018026
1621,A,166857943895690.0,2.297835,8.288726,-2.349844529378098,104,1970-01-02 22:20:57.943895690,-1.623463,-1.0652645,-0.75101143,9.216666642830369,2.081931491504919,99.68508911132812,-7.079801559448242,-57.66741943359375,24021295.0,39897.0,0.17353862440200002,-0.14797206026460002,-0.003364559068797965,0.005966611467212743,-0.0075809443509550194,0.0007588247641590593,24.021295512997312
1621,A,166857984017461.0,0.12988544,13.622409,-3.339248529378098,104,1970-01-02 22:20:57.984017461,-1.2729911,0.3387541,-0.42397526,14.285724641509438,1.3838409236751483,99.81565856933594,-6.899782657623291,-57.67104721069336,24061417.0,40122.0,0.048702499746839996,0.04636367923499996,-0.11412889585170805,0.004458379191549879,-0.002038365731834807,-0.002357036199160271,24.06141728401417
1621,A,166858023902253.0,3.5218706,12.20564,-0.5392294293780979,104,1970-01-02 22:20:58.023902253,1.0205233,2.525742,0.18642128,12.791908315532408,2.7304932429954354,99.78359985351562,-7.156738758087158,-57.539039611816406,24101302.0,39885.0,0.0728251448277,0.12420286718249997,-0.07734654669249542,0.0024235650519277637,0.003401523351930992,-0.003818499012937777,24.10130207601469
1621,A,166858063844440.0,8.996213,9.096769,1.382715970621902,104,1970-01-02 22:20:58.063844440,2.625877,0.23755397,0.49534798,12.800805258410513,2.682728374077749,99.69242095947266,-8.057968139648438,-57.503173828125,24141244.0,39942.0,0.24999864757559997,0.03399881013899999,0.016845269715180012,0.006447113958086303,0.003159445697787675,-0.0012082710025139662,24.141244263009867
1621,A,166858103536940.0,5.475539,15.1858225,-1.196437729378098,104,1970-01-02 22:20:58.103536940,-0.5763081,-1.8546255,0.4101268,16.286396834174614,1.9849359595347402,99.63908386230469,-8.3504056930542,-57.59352493286133,24180936.0,39692.0,0.28720639019199995,0.09293071090899997,0.0036968779757245384,0.010661371179535787,0.002519043274718607,0.0004076794630736917,24.180936763004865
1621,A,166858143648711.0,3.1896753,9.264363,-0.7535105293780979,104,1970-01-02 22:20:58.143648711,-1.1749867,-5.442436,0.5954828,9.94701716840823,5.599580620400847,99.64132690429688,-8.59162425994873,-57.872764587402344,24221048.0,40112.0,0.17378953800080002,0.09727532038799998,-0.03910816227761427,0.009245734335834798,0.003814772163692631,-0.0007102087179587005,24.221048534003785
1621,A,166858183736315.0,-3.1202433,8.406042,-1.650139029378098,104,1970-01-02 22:20:58.183736315,-0.2247708,-4.967328,-1.2623384,9.339018398314629,5.130143039743746,99.8444595336914,-7.81423807144165,-58.13507843017578,24261136.0,40088.0,0.0013916950080000076,-0.03867680218000005,-0.04817875175570918,0.0035113326344283877,0.0011745486989611505,-0.001749578904883935,24.2611361379968
1621,A,166858223424805.0,-6.419453,10.199898,-4.750031529378099,104,1970-01-02 22:20:58.223424805,0.716923,3.283145,-1.401888,13.336679514070847,3.6411961830555084,100.27793884277344,-6.929642200469971,-58.013710021972656,24300824.0,39688.0,-0.1893057333772,-0.019726126640000057,-0.12700498456795795,-0.0037289661773984044,-0.0011589477195040822,-0.0034763460636068506,24.30082462800783
1621,A,166858268694649.0,0.88166475,6.7330937,2.834799270621902,104,1970-01-02 22:20:58.268694649,-0.29614353,8.511463,0.90014845,7.044270463813559,8.56405106376458,99.58882904052734,-7.07057523727417,-57.523807525634766,24346094.0,45270.0,-0.12534783703875,-0.06036773287050004,-0.043351282176946504,-0.007122183566365028,-0.0018129245100201698,-0.003856014097770912,24.346094472013647
1621,A,166858303487096.0,13.758879,3.8911762,2.803674670621902,104,1970-01-02 22:20:58.303487096,-0.85540736,1.3273195,0.97258645,14.41673380482787,1.8545682002412374,99.29061889648438,-8.442742347717285,-57.431915283203125,24380886.0,34792.0,0.254686899075,-0.15614180081960002,0.0980868926818772,0.0022499823231826046,-0.0037663998480729805,0.0009521806803437743,24.380886919010663
1621,A,166858343409492.0,4.3221326,7.0994067,2.170408370621902,104,1970-01-02 22:20:58.343409492,-1.200553,-5.9313927,-0.5539375,8.399063076519742,6.076972405838991,98.87077331542969,-8.9269380569458,-57.66242218017578,24420809.0,39923.0,0.3609241130534,-0.17185687944165004,0.0992901586277882,0.012288519218601057,-0.006547345656034943,0.003939942009717886,24.42080931502278
1621,A,166858385111679.0,-1.0726024,9.625888,-0.442862729378098,104,1970-01-02 22:20:58.385111679,-2.0921793,-5.3305836,0.015978966,9.786724226742592,5.726481560896873,98.79224395751953,-8.510801315307617,-57.92702102661133,24462511.0,41702.0,0.0677559542002,-0.05994048021030003,0.036021054165574565,0.008938408082304814,-0.004833206746102812,0.0028213740979544074,24.4625115020026
1621,A,166858423293137.0,-3.7337575,11.337742,-2.4438168293780977,104,1970-01-02 22:20:58.423293137,-0.89375687,-1.0780476,-0.5933523,12.41291294273311,1.5208730790086487,98.94471740722656,-7.846798419952393,-58.0035285949707,24500692.0,38181.0,-0.09175581367095001,0.026032378514999975,-0.05510815611643516,-0.000458169317226353,-0.0006473226154141257,-0.0003643823197929042,24.500692960020388
1621,A,166858462970117.0,-2.1703439,9.824607,-4.149087129378097,104,1970-01-02 22:20:58.462970117,0.93849796,-0.5305017,0.6828345,11.28493352750264,1.2761165420984486,99.44647979736328,-7.421157360076904,-58.0949821472168,24540369.0,39677.0,-0.11712851562389999,0.030994660636499985,-0.13079332518578476,-0.004143951766715882,0.001131330916207032,-0.0036880065368140895,24.540369940019445
1621,A,166858502800741.0,-3.3584664,7.7919292,-3.0896525293780983,104,1970-01-02 22:20:58.502800741,0.24607609,-2.8868666,0.26418558,9.40233849081507,2.909354950662635,99.89351654052734,-6.73805570602417,-58.29183578491211,24580200.0,39831.0,-0.11010902152964999,-0.03950167330890002,-0.144163119673959,-0.004525549171181525,-0.00016942141087718284,-0.0054758950776042275,24.580200563999824
1621,A,166858543057930.0,-8.04751,10.453085,-4.521983529378097,104,1970-01-02 22:20:58.543057930,-0.29294774,-2.058091,-0.70627034,14.286224184147644,2.195535182094749,100.25263214111328,-5.751660346984863,-58.42726516723633,24620457.0,40257.0,-0.2295851959674,-0.02727383167530003,-0.1532108164086741,-0.0068375350568893704,-0.0013440907520744705,-0.00598569127243928,24.620457753015216
1621,A,166858583054803.0,-4.5352163,10.181941,-4.973291029378098,104,1970-01-02 22:20:58.583054803,-0.8607337,4.08955,0.023435818,12.627743780225465,4.179214153687392,100.64915466308594,-5.151998043060303,-58.26926803588867,24660454.0,39997.0,-0.25163565191055,0.02069896746099997,-0.18989124826328577,-0.009623695126287182,-0.00013148742198967975,-0.006861526640342189,24.66045462602051
1621,A,166858622458710.0,2.356493,9.81922,7.070142170621901,104,1970-01-02 22:20:58.622458710,-0.51984906,7.8062577,-0.113983296,11.802018799671584,7.8243782191148705,99.63451385498047,-5.406325340270996,-57.79515075683594,24699858.0,39404.0,-0.0429252064566,0.007903674021999967,0.041312161184785416,-0.005803438031549589,0.0005635292424980648,-0.002927305173620614,24.699858533014776
1621,A,166858662352407.0,14.067731,10.324995,3.691923470621902,104,1970-01-02 22:20:58.662352407,0.14274544,6.14338,-0.6711166,17.66246536027615,6.1815767871827285,99.24876403808594,-6.484961032867432,-57.44744873046875,24739752.0,39894.0,0.32761399612799996,0.010855456604999954,0.21467092334589014,0.005678687287575416,0.00037418837861676746,0.005106094587133385,24.739752230001613
1621,A,166858702235428.0,13.655928,15.560515,10.817067470621902,104,1970-01-02 22:20:58.702235428,-1.0897655,-0.07882957,-1.6319852,22.929226549335894,1.9639701217471905,98.42325592041016,-7.153505325317383,-57.34640884399414,24779635.0,39883.0,0.5528513459484999,0.12534249766499997,0.2893310428548133,0.017557799619018523,0.0027159915050752035,0.010050555208991329,24.779635251004947
1621,A,166858742216418.0,3.8863878,15.520412,5.926312470621902,104,1970-01-02 22:20:58.742216418,0.40266997,-6.634467,-0.43036684,16.752259115185296,6.660593899630901,97.86519622802734,-7.258820056915283,-57.59635925292969,24819616.0,39981.0,0.3506796639999,0.22950947119349996,0.33470853671543427,0.01806203665437349,0.007093668283465843,0.012474863215399035,24.819616241002223
1621,A,166858782202929.0,-4.945224,8.734048,3.039503470621902,104,1970-01-02 22:20:58.782202929,2.2700787,-10.818826,0.07350325,10.24976160485545,11.054666709142806,97.58507537841797,-6.356330871582031,-58.08086395263672,24859602.0,39986.0,-0.02116931214659999,0.09305661877999997,0.1792535581132874,0.006587900464603028,0.0064490638368401845,0.010275644161910633,24.859602751996135
1621,A,166858822352096.0,-13.066356,3.5901055,-10.224373529378099,104,1970-01-02 22:20:58.822352096,3.36304,-5.43711,-1.1430287,17.570959701278877,6.494514439334451,98.6480712890625,-5.156548500061035,-58.42919921875,24899751.0,40149.0,-0.36157346271,-0.14605898056425004,-0.14423267399450126,-0.007683369833858817,-0.0010639959116379278,0.0007030267382425719,24.899751919001574
1621,A,166858862319804.0,-8.458116,2.2840683,-2.802947229378098,104,1970-01-02 22:20:58.862319804,1.8397117,8.290954,-0.27696875,9.535540154737255,8.497127106128838,99.2159194946289,-3.9035537242889404,-58.055538177490234,24939719.0,39968.0,-0.430145048448,-0.27429691078080004,-0.2603379780429838,-0.01582170272698147,-0.00840039213263948,-0.008084939910317102,24.93971962700016
1621,A,166858902171471.0,-0.3585317,2.8904,2.573831270621902,104,1970-01-02 22:20:58.902171471,-1.0343717,10.564228,0.18322548,3.3291285075725043,10.616327501837258,98.24347686767578,-3.7623722553253174,-57.47533416748047,24979571.0,39852.0,-0.17568052207020002,-0.2874431446542,-0.00456536459417596,-0.012071680318145653,-0.011193232344597811,-0.005278464005388045,24.979571294010384
1621,A,166858942082981.0,12.411542,6.3123126,3.0790079706219022,104,1970-01-02 22:20:58.942082981,-2.2200112,1.0865698,0.63702816,14.084608541233761,2.5524279686272178,97.82228088378906,-5.021226406097412,-57.401268005371094,25019482.0,39911.0,0.24052384704165003,-0.20748306871070005,0.11280523347864073,0.0012939809714677707,-0.009876500050803264,0.0021599807035239367,25.019482803996652
1621,A,166858981652616.0,1.8854338,12.837709,-1.0282451293780979,104,1970-01-02 22:20:58.981652616,-1.7065537,-1.8258632,-0.23648871,13.127073852383173,2.5103842068606537,97.76932525634766,-5.0780229568481445,-57.49256896972656,25059052.0,39570.0,0.282865666203,-0.008902822644000018,0.040574342814008665,0.0103552615195454,-0.004281194860452741,0.0030346149169500685,25.05905243899906
1621,A,166859021569283.0,0.41958386,14.18325,-1.990115829378098,104,1970-01-02 22:20:59.021569283,0.9832391,0.8745821,-0.59867865,14.493160519957259,1.4457071291845531,97.91419982910156,-4.969202995300293,-57.453704833984375,25098969.0,39917.0,0.046004694967109995,0.1481112102015,-0.06024195719533553,0.006563759103413641,0.0027783906030663633,-0.00039253608162971224,25.098969106009463
1621,A,166859061467824.0,5.741296,8.69993,-3.427833529378098,104,1970-01-02 22:20:59.061467824,2.3137543,3.5334823,0.6103965,11.309998897144775,4.267498097526703,98.41488647460938,-5.6475653648376465,-57.31985855102539,25138867.0,39898.0,0.12290339232714002,0.06549615781999997,-0.10808267175782738,0.003369547433432994,0.004261253384660903,-0.003357908022986647,25.138867647008738
1621,A,166859101388501.0,6.849811,6.657676,2.955706470621902,104,1970-01-02 22:20:59.101388501,1.2623384,-1.7939054,-0.3057309,9.75817975616339,2.2147384052024135,98.0518798828125,-6.5291056632995605,-57.36122512817383,25178788.0,39921.0,0.2513247912735,-0.08468030543700002,-0.009423892156303047,0.007469781658760575,-0.0003829251785091294,-0.002345489769008,25.178788324003108
1621,A,166859141571939.0,3.681085,15.54615,1.171427670621902,104,1970-01-02 22:20:59.141571939,-2.1848574,-2.5033715,0.7254451,15.977399816992829,3.4009912258723953,97.74224853515625,-6.719030380249023,-57.466102600097656,25218971.0,40183.0,0.21158149698400003,0.052314770079,0.08292031559879989,0.009300481690525563,-0.0006502721536452575,0.0014766533915949256,25.218971762020374
1621,A,166859181504908.0,2.124854,13.200431,0.745858320621902,104,1970-01-02 22:20:59.181504908,-1.2591426,-4.011786,0.45486793,13.372090858957115,4.229275568069932,97.53435516357422,-6.776625156402588,-57.649478912353516,25258904.0,39933.0,0.11592428104350001,0.18262520953650005,0.038281490744169415,0.00653914411698608,0.004690929102992882,0.002419975866346897,25.258904731017537
1621,A,166859221107565.0,-2.6952724,7.781754,-2.173272029378098,104,1970-01-02 22:20:59.221107565,1.8216022,-2.5587652,-1.3486248,8.811694449706595,3.4182309423078654,97.97990417480469,-6.101473808288574,-57.80587387084961,25298507.0,39603.0,-0.011295139947599998,0.027369336277499996,-0.028264932553935813,0.0020718139374104644,0.004158206998935922,0.00019834287700391066,25.298507388011785
1621,A,166859260989700.0,-2.3211784,5.966949,-5.035540229378098,104,1970-01-02 22:20:59.260989700,1.3773869,4.353736,-0.71798825,8.77239304227931,4.622523007744328,98.86455535888672,-5.603320121765137,-57.669437408447266,25338389.0,39882.0,-0.10003304540279999,-0.11668071347700003,-0.14375092525185731,-0.002219995344072326,-0.00178095817273523,-0.0034301682205053205,25.33838952300721
1621,A,166859300913501.0,3.4404678,5.3037553,4.792059270621902,104,1970-01-02 22:20:59.300913501,-1.5776566,5.9590893,1.0024139,7.391960236334795,6.24536462184645,97.85868072509766,-6.270939350128174,-57.287803649902344,25378313.0,39924.0,0.0223432550028,-0.16626940076340008,-0.004860366898691187,-0.0015508435959647997,-0.005648250180466868,-0.002966578613909249,25.37831332400674
1621,A,166859340794648.0,9.928755,6.025607,6.934271170621901,104,1970-01-02 22:20:59.340794648,-1.8141453,-0.87990844,0.10333065,13.060017783255047,2.018920319260953,97.02787017822266,-7.290419578552246,-57.24362564086914,25418194.0,39881.0,0.2665889872434,-0.16492065105685003,0.23382889216362204,0.005761453376510351,-0.0066040952283216965,0.004565746878045354,25.41819447101443
1621,A,166859381025429.0,2.2756886,9.400833,1.1456900006219022,104,1970-01-02 22:20:59.381025429,-1.6010925,-6.299974,-0.04261058,9.674110084244568,6.500383469900847,96.78904724121094,-7.409707069396973,-57.533077239990234,25458425.0,40231.0,0.24549848523580003,-0.08395324618000002,0.16253245894015475,0.01030089555265535,-0.005006222879867858,0.007973006758128023,25.45842525199987
1621,A,166859420947200.0,-1.0708067,9.892841,-1.1150349293780981,104,1970-01-02 22:20:59.420947200,-1.8418423,-5.2155347,0.09374327,10.164951954179807,5.531995396386703,96.8565902709961,-7.0507588386535645,-57.810787200927734,25498347.0,39922.0,0.0240506476059,-0.0061145732860000065,0.000611905877097573,0.005380470240653174,-0.0017978437443608268,0.003256524666117174,25.498347023007227
1621,A,166859460515533.0,-4.585495,11.274296,-2.8454443293780978,104,1970-01-02 22:20:59.460515533,0.34301516,-0.48043427,-0.4261058,12.75257208369706,0.7280402740054279,97.15127563476562,-6.354856967926025,-57.86423873901367,25537915.0,39568.0,-0.1119042728328,0.031004238407999977,-0.07835412165523258,-0.0017380961214889894,0.0004924171347736474,-0.001538051996954623,25.537915356020676
1621,A,166859500445533.0,-1.6077064,8.295909,-5.201937529378098,104,1970-01-02 22:20:59.500445533,0.6466155,-1.1579424,0.8064052,10.459099980589055,1.5521699498267094,97.89029693603516,-6.031538963317871,-58.00246810913086,25577845.0,39930.0,-0.123647265951,-0.0005948571750000358,-0.16066597881006747,-0.0047027864718185665,0.0006071232963168439,-0.004772036305789715,25.57784535601968
1621,A,166859540305897.0,-5.9621606,8.839992,-2.944803529378098,104,1970-01-02 22:20:59.540305897,-0.4495416,-3.8136468,-0.15765914,11.355648254496808,3.8432858298214483,98.22245788574219,-5.125868320465088,-58.223876953125,25617705.0,39860.0,-0.15086744931,-0.04910949307000002,-0.16236454930101096,-0.00547107827515173,-0.000990607700382851,-0.0064379984252537934,25.617705720011145
1621,A,166859580232042.0,-8.290522,12.785636,-8.783064529378098,104,1970-01-02 22:20:59.580232042,-0.406931,0.02130529,-0.16831179,18.08752591721104,0.4408804971826132,98.82264709472656,-4.364130973815918,-58.27308654785156,25657631.0,39926.0,-0.28452630274380003,0.04043761176399999,-0.23412343005695,-0.00869176547225001,-0.0001731167665116786,-0.007915089531922976,25.657631865004078
1621,A,166859620116106.0,-0.96785605,10.385448,-0.44405982937809796,104,1970-01-02 22:20:59.620116106,-0.6135923,7.387609,0.33449304,10.524704948561707,7.42058945376368,98.73699951171875,-4.197181224822998,-57.90764617919922,25697515.0,39884.0,-0.1846305750731,0.07121455712799998,-0.18400731396231607,-0.009355926457424621,0.0022265675520442636,-0.008338363297232206,25.697515929001383
1621,A,166859660363710.0,5.6670756,9.928755,10.6704224706219,104,1970-01-02 22:20:59.660363710,0.22796659,7.0754867,0.11611383,14.99874236933005,7.080110396706423,97.65707397460938,-4.734062671661377,-57.47487258911133,25737763.0,40248.0,0.09456709422420001,0.01437262117199999,0.2057953217923903,-0.0018124374886032632,0.0017223563761091993,0.00043846186957241377,25.73776353301946
1621,A,166859700457095.0,12.882002,12.381614,5.270899470621902,104,1970-01-02 22:20:59.700457095,0.018109497,3.6719666,-1.2016183,18.37995304738206,3.8636191846883725,97.17711639404297,-5.6232590675354,-57.242156982421875,25777856.0,40093.0,0.3718440841084,0.054333412158499995,0.31956771029514386,0.009349911686444464,0.0013773154971598678,0.010531690022742754,25.777856918022735
1621,A,166859739844023.0,11.327567,13.789405,6.711610170621903,104,1970-01-02 22:20:59.739844023,-0.58696073,-3.827495,-0.7637946,18.749056296742662,3.9468497646320784,96.59619140625,-6.326287269592285,-57.368770599365234,25817243.0,39387.0,0.47677114710150004,0.1294063626765,0.23597755361983486,0.016712204055832167,0.0036184792557130718,0.010940630654909633,25.817243846016936
1621,A,166859779738552.0,-0.61112,11.989564,3.850539270621902,104,1970-01-02 22:20:59.779738552,0.5134575,-7.8456726,-0.1438107,12.347898824659353,7.863771275166356,96.16858673095703,-6.056878089904785,-57.70632553100586,25857138.0,39895.0,0.21376632653250002,0.12325498412749997,0.21068847597921078,0.013774496255314217,0.005039962215372789,0.008909870625426964,25.85713837502408
1621,A,166859819639179.0,-15.311519,7.065289,0.3119092306219021,104,1970-01-02 22:20:59.819639179,1.9611518,-7.4653735,-0.74035877,16.87550528075933,7.754098850637733,96.2911376953125,-4.62372350692749,-58.07245635986328,25897039.0,39901.0,-0.3176646093695,-0.010875955223500036,0.08304292882406451,-0.0020728226917395673,0.002242017816149251,0.005860088391527744,25.897039002011297
1621,A,166859859572460.0,-9.929952,3.9737763,-10.108853529378099,104,1970-01-02 22:20:59.859572460,2.5715485,2.6333337,-0.7914915,15.392983838127217,3.764806350661371,97.39515686035156,-3.6397159099578857,-58.006866455078125,25936972.0,39933.0,-0.5039838307215001,-0.17093190268755,-0.1956106883411156,-0.016405443579076952,-0.003630066594980981,-0.002247584170397201,25.936972283001523
1621,A,166859899452773.0,-3.41473,4.284424,-1.118027529378098,104,1970-01-02 22:20:59.899452773,1.3667343,10.6356,-0.3930826,5.860070360428447,10.730259267008382,97.80339813232422,-2.7874321937561035,-57.496612548828125,25976852.0,39880.0,-0.26609295908,-0.22615548601800006,-0.22386400831159856,-0.015355331188641913,-0.007917922530788667,-0.00836432545125512,25.97685259600985
1621,A,166859939664127.0,3.7433343,5.0062757,4.739985370621902,104,1970-01-02 22:20:59.939664127,-1.2090752,6.1529675,0.37816888,7.30435045540931,6.282028621163051,96.85718536376953,-3.5358266830444336,-57.14548110961914,26017063.0,40211.0,0.0066067537536499965,-0.20727363718165004,0.0728212733771273,-0.00521709990118893,-0.008714309236490565,-0.003036789707225012,26.017063950013835
1621,A,166859979549751.0,5.843648,7.7207017,-1.363433229378098,104,1970-01-02 22:20:59.979549751,-1.5180018,-0.40586576,0.11930962,9.958012394364902,1.5758462061280478,96.9826431274414,-4.3077850341796875,-57.179561614990234,26056949.0,39886.0,0.19119318800889998,-0.13706868971180003,0.06733857935282518,0.003944724238570534,-0.0068672190252360744,0.0027952079429934417,26.056949574005557
1621,A,166860019159647.0,0.9247604,14.280814,-3.5349742293780984,104,1970-01-02 22:21:00.019159647,-0.9757822,-0.90014845,-0.71159667,15.000454666807226,1.5062496322420569,97.19798278808594,-4.2493486404418945,-57.23952865600586,26096559.0,39610.0,0.134048328362,0.04756201843849995,-0.09701295972066647,0.006441408231725674,-0.0017726796245677082,-0.0005877011031850967,26.09655947002466
1621,A,166860059445428.0,3.4183214,11.965023,0.6830105206219022,104,1970-01-02 22:21:00.059445428,0.86392945,2.1038973,-0.04580637,12.446853494705815,2.2748310194511525,97.09194946289062,-4.550928115844727,-57.12382507324219,26136845.0,40286.0,0.08748269669740001,0.13386709469099994,-0.05744710498547607,0.004462299437771495,0.0036545266257675163,-0.0031112890833758294,26.13684525102144
1621,A,166860098836886.0,7.736264,7.3747396,0.3801440406219021,104,1970-01-02 22:21:00.098836886,2.5672874,0.3685815,0.38029942,10.70394083906453,2.6213440379304176,97.17414093017578,-5.5255913734436035,-57.104976654052734,26176236.0,39391.0,0.21969513674570001,-0.005125505711700023,0.020939360660977346,0.006050021018578577,0.0025356299657418014,-0.0007190382783431646,26.17623670899775
1621,A,166860138892096.0,2.681506,12.489353,-5.274361529378098,104,1970-01-02 22:21:00.138892096,1.2687299,-2.7302728,-0.46978164,14.21472273151499,3.0470904008340383,97.71903228759766,-5.625555038452148,-57.28369903564453,26216291.0,40055.0,0.20864188867500003,0.005289114546499958,-0.09801894075606471,0.00857851977661307,3.276675938955696e-06,-0.0015437112903543622,26.216291919001378
1621,A,166860178787199.0,3.7840357,9.727043,1.251034870621902,104,1970-01-02 22:21:00.178787199,-2.7462518,-2.3414512,1.1174624,10.441178902101337,3.7779643839504944,97.37446594238281,-6.0530195236206055,-57.3850212097168,26256187.0,39896.0,0.1289746258316,0.05219186740799996,-0.08025732018886858,0.006734774231377657,0.0011466306280283646,-0.0035562548533295294,26.25618702202337
1621,A,166860218671833.0,-0.70509243,10.967239,0.35979327062190214,104,1970-01-02 22:21:00.218671833,-0.4079963,-3.435478,-0.5496765,11.006331852139954,3.503015033360539,97.2652359008789,-5.76229190826416,-57.54183578491211,26296071.0,39884.0,0.06140028669034,0.021822171643999962,0.03212313479268395,0.003796456505512528,0.0014759879667749826,-0.000959891925170714,26.296071656019194
1621,A,166860258653867.0,-4.5777135,9.458893,-4.236475529378097,104,1970-01-02 22:21:00.258653867,1.6990968,2.304167,-1.6319852,11.723624322745728,3.295374211326884,97.82405090332031,-5.016670227050781,-57.46181869506836,26336053.0,39982.0,-0.10560857334662999,0.016515204811999952,-0.0774987550347951,-0.000883767858545893,0.0007664024927318941,-0.0009071040242600439,26.33605368999997
1621,A,166860298890221.0,1.661576,5.593454,1.152872600621902,104,1970-01-02 22:21:00.298890221,0.083090626,6.593987,0.29827404,5.838171678101577,6.601252609258034,97.5643081665039,-5.36331844329834,-57.11460494995117,26376290.0,40237.0,-0.05866831229375,-0.09149195688050003,-0.06203746552218152,-0.003305004523755985,-0.001508419786490119,-0.002807259453275534,26.376290044019697
1621,A,166860338715794.0,11.428123,4.2054152,3.809837870621902,104,1970-01-02 22:21:00.338715794,-1.28897,1.619202,0.6359629,12.50605743363279,2.1651114492977976,97.10234832763672,-6.667553901672363,-56.99647903442383,26416115.0,39825.0,0.2606486313375,-0.19516501705500003,0.09881997225864225,0.004021933102958672,-0.005708056993490644,0.0007324316653897743,26.416115617001196
1621,A,166860378645221.0,4.015076,7.6967597,1.768780970621902,104,1970-01-02 22:21:00.378645221,-1.4391723,-5.0184608,-0.3920173,8.718538397340483,5.235441077285009,96.76998138427734,-7.129082202911377,-57.209815979003906,26456045.0,39930.0,0.308323468035,-0.1536870781215,0.11137712516543255,0.011359527963971962,-0.006964832080198824,0.0041965850500716535,26.456045044003986
1621,A,166860418328190.0,-0.45789108,9.43076,0.10301517062190213,104,1970-01-02 22:21:00.418328190,-1.8343854,-4.6189866,0.18322548,9.480802385493394,4.9732864972002115,96.6670913696289,-6.865020751953125,-57.43729782104492,26495728.0,39683.0,0.07057988459018,-0.049057717872450037,0.03713924313648894,0.00751801087111251,-0.00402276086971396,0.0029467875216625757,26.49572801301838
1621,A,166860458251158.0,-2.0416555,10.839149,-3.1483108293780977,104,1970-01-02 22:21:00.458251158,-0.7755125,-0.7850999,-0.21198763,11.770501652660288,1.1237171556531818,96.97850036621094,-6.4395060539245605,-57.51549530029297,26535650.0,39922.0,-0.04989344928338,0.013372053548999974,-0.06078714664443242,0.00041292193515903475,-0.0007123215455603867,-0.0004720358019220597,26.535650981008075
1621,A,166860498016887.0,-1.757344,10.481815,-3.290167029378098,104,1970-01-02 22:21:00.498016887,0.5028048,-0.8905611,0.5454154,11.446920356107718,1.1590468921891857,97.37963104248047,-6.089076995849609,-57.60365295410156,26575416.0,39766.0,-0.0755355070585,0.034217927211999975,-0.12801625526564944,-0.0024939039389456,0.000946231587470962,-0.003753978040178158,26.575416710024
1621,A,166860537900323.0,-2.8736405,9.23264,-2.962760129378098,104,1970-01-02 22:21:00.537900323,0.22370553,-2.8495824,0.4644553,10.435419743305577,2.89583886710577,97.7786636352539,-5.560306072235107,-57.78643798828125,26615300.0,39884.0,-0.09235109289900001,0.0022824616099999554,-0.12469587339991606,-0.0033479945763524653,0.0007278907538883227,-0.005039585269848707,26.615300146018853
1621,A,166860577820063.0,-11.157578,9.940127,-4.207745229378098,104,1970-01-02 22:21:00.577820063,0.26205507,-2.7654266,-1.0396981,15.811928320843347,2.9660123531172076,98.14612579345703,-4.391021728515625,-57.94639205932617,26655219.0,39919.0,-0.28005610565075006,-0.008527357063500022,-0.1431197017080943,-0.0074330614794537375,-0.0001246449908041346,-0.005345464971368333,26.655219886015402
1621,A,166860617724542.0,-5.7377043,10.724228,-6.857527829378098,104,1970-01-02 22:21:00.617724542,-0.8511463,4.0543966,-0.033023197,14.459078662627055,4.142906268024338,98.70679473876953,-3.7632243633270264,-57.7891960144043,26695124.0,39905.0,-0.33710312009075005,0.021236543137499984,-0.22077986070483302,-0.012313869451607283,0.0002535800351414842,-0.007260706019043933,26.695124365010997
1621,A,166860657652304.0,1.4173675,10.120291,7.783015470621901,104,1970-01-02 22:21:00.657652304,-1.4221281,8.537029,-0.24074976,12.286762182681743,8.658017840510071,97.64035034179688,-3.907637596130371,-57.29969024658203,26735052.0,39928.0,-0.0862512038752,0.02484557731599997,0.01847643526979129,-0.008451845723656226,0.000919983452733673,-0.004038785585385173,26.73505212701275
1621,A,166860697806833.0,14.484322,8.544906,9.129754470621902,104,1970-01-02 22:21:00.697806833,0.08628642,6.1369886,-0.257794,18.69582988185451,6.143006769428337,96.91088104248047,-5.001927375793457,-56.93760299682617,26775206.0,40154.0,0.3192582200915,-0.018768039831000047,0.3395576821103518,0.0046780818645746555,0.00012201872008634347,0.007188250974641134,26.7752066560206
1621,A,166860737828918.0,12.850878,14.721348,9.445189470621902,104,1970-01-02 22:21:00.737828918,-0.26312032,1.603223,-0.644485,21.303495347796733,1.7478321446154097,96.20101928710938,-5.75973653793335,-56.78904342651367,26815228.0,40022.0,0.5470046872000001,0.07336540879399997,0.37170320320822975,0.017334787037810207,0.0010925479503185915,0.014233041576110137,26.81522874100483
1621,A,166860777341366.0,7.4962454,12.03625,5.358287470621901,104,1970-01-02 22:21:00.777341366,0.9470201,-4.5486794,-0.5028048,14.84581379567729,4.673343986985273,95.72150421142578,-6.319222927093506,-56.95609664916992,26854741.0,39513.0,0.40198794345210004,0.141409084887,0.2924648921896832,0.018748772907478218,0.004243192284408676,0.013121636976728869,26.85474118901766
1621,A,166860817230792.0,-3.0765493,8.9279785,2.609145770621902,104,1970-01-02 22:21:00.817230792,1.2655342,-9.6086855,0.37071204,9.585887083674585,9.698754624480447,95.45532989501953,-5.690462589263916,-57.39826202392578,26894630.0,39889.0,0.08814862886645002,0.02720885531824999,0.15890647227998703,0.009775528866607323,0.0033630005084236084,0.009002376178665337,26.894630615017377
1621,A,166860857160740.0,-11.337742,4.883573,-4.280768029378098,104,1970-01-02 22:21:00.857160740,1.856756,-5.362541,-0.92784536,13.411686638667534,5.750242241183456,96.08026123046875,-4.355493545532227,-57.704978942871094,26934560.0,39930.0,-0.2877813258045,-0.11556637430250002,-0.033373938396067455,-0.003985666794368167,-0.001764057866520552,0.0025062570389924542,26.934560563007835
1621,A,166860897059124.0,-7.9714947,4.3436804,-4.048530529378098,104,1970-01-02 22:21:00.897059124,1.5233282,6.8507156,-0.44528055,10.368753759597208,7.032148164338327,96.75923156738281,-3.222540855407715,-57.402095794677734,26974458.0,39898.0,-0.3851999629283,-0.20692592192340004,-0.16616117694862736,-0.013425303728930627,-0.00643339881741048,-0.003980526016011317,26.97445894702105
1621,A,166860936964752.0,-0.59855044,5.474941,1.9250026706219021,104,1970-01-02 22:21:00.936964752,-0.350472,9.256083,0.18216023,5.591233685666128,9.26450675832592,96.30575561523438,-3.0543906688690186,-56.920467376708984,27014364.0,39906.0,-0.17099811067841997,-0.1951678472058,-0.04237075136576238,-0.011097820162674884,-0.008022976975434928,-0.004160837565657018,27.014364575006766
1621,A,166860977148657.0,8.073847,7.373543,2.726461670621902,104,1970-01-02 22:21:00.977148657,-0.93423694,2.5182853,0.8926916,11.075730618064574,2.830451872928988,95.91902923583984,-4.105595588684082,-56.77873229980469,27054548.0,40184.0,0.15019365848352,-0.13565145947200002,0.0934572215442705,-0.0004180030534999299,-0.006646821509770358,0.0010264293588265851,27.054548480024096
1621,A,166861017068449.0,2.5809495,10.924144,-1.548385529378098,104,1970-01-02 22:21:01.017068449,-1.1377025,-1.4402375,-0.10652645,11.502040122150952,1.838477337217433,96.03843688964844,-4.314190864562988,-56.862464904785156,27094468.0,39920.0,0.21266973813999998,-0.02599416748000003,0.023514399779226328,0.007242753396605458,-0.003226446713961921,0.0023347535616169966,27.094468272000086
1621,A,166861056665740.0,1.1623849,11.661558,-0.6918597293780979,104,1970-01-02 22:21:01.056665740,0.05539375,0.18322548,-0.42077947,11.835376264352833,0.46227200481293884,96.09101104736328,-4.327347755432129,-56.85492706298828,27134065.0,39597.0,0.0741124061184,0.059112421046999965,-0.04435349575548454,0.005677856283099932,0.0006556917432462482,-0.00041258284168594825,27.134065563004697
1621,A,166861096566729.0,5.3259015,8.902241,-4.744644829378098,104,1970-01-02 22:21:01.096566729,1.6085494,2.6141589,-0.14061491,11.839482429808026,3.072625990842992,96.73513793945312,-4.890873432159424,-56.770263671875,27173966.0,39901.0,0.1294445578232,0.01922827194949996,-0.1084609841994655,0.004061063209116891,0.0015629359956266717,-0.0030487252823412306,27.173966552014463
1621,A,166861136482251.0,5.181651,7.687183,0.056328210621902075,104,1970-01-02 22:21:01.136482251,1.3827133,-2.57794,-0.2130529,9.314576185310754,2.933097722851269,96.81548309326172,-5.557530403137207,-56.89799118041992,27213882.0,39916.0,0.209709732795,-0.06008507580800002,-0.09356942307713616,0.006768841332158036,-0.0008154200914079442,-0.004032122868426416,27.213882074021967
1621,A,166861176385323.0,3.4302924,15.353417,-2.524022729378098,104,1970-01-02 22:21:01.176385323,-0.3153183,-1.3422332,0.11930962,16.113412061956694,1.383925712934648,96.9527587890625,-5.724088191986084,-56.98004150390625,27253785.0,39903.0,0.1718211887451,0.0686451309,-0.049234207190964246,0.007612114181107305,0.00017078593916803762,-0.002849146629294005,27.253785146021983
1621,A,166861216318761.0,4.4238863,12.158954,0.6207612706219021,104,1970-01-02 22:21:01.216318761,-1.603223,-2.6045716,0.83729786,12.943219222291598,3.170991156344675,96.76030731201172,-6.103549957275391,-57.10187911987305,27293718.0,39933.0,0.15682045901355002,0.15798235557149995,-0.03800146991625559,0.006561823459973086,0.004524957708633204,-0.0017417911469613048,27.29371858399827
