Subject-id_accel,Activity_accel,Timestamp_accel,accel_x,accel_y,accel_z,Segment_accel,DateTime,gyro_x,gyro_y,gyro_z,accel_magnitude,gyro_magnitude,Roll,Pitch,Yaw,Time_Difference,Difference_Microseconds,vx,vy,vz,dx,dy,dz,Time_diff
1634,A,77939115499136.0,-0.6195528764631386,4.122973606612103,6.564865,174,1970-01-01 21:38:59.115499136,-0.03201294,-0.19343567,0.28240967,16.984011996820172,0.34379849980083016,-93.79811096191406,9.333803176879883,-48.6722297668457,15005506.0,50354.0,0.00605413058307512,-0.13112938890865422,0.368613536468,0.0029430557323852865,0.0011414100952454546,0.014503710422962078,15.005506710003829
1634,A,77939165853140.0,0.5162198235368614,7.866961606612103,6.0275116,174,1970-01-01 21:38:59.165853140,0.20518494,-0.8109894,0.39794922,13.236507376637523,0.9263737087233057,-93.78140258789062,9.356340408325195,-48.63255310058594,15055860.0,50354.0,-0.0026016162735248826,-0.19159860113665422,0.31703826565820004,8.692395277154633e-05,-0.008125322605370732,0.01726265542213134,15.05586071399739
1634,A,77939216207144.0,9.589461823536862,7.426409606612104,-0.016281128,174,1970-01-01 21:38:59.216207144,-0.26927185,0.8961792,-0.548645,14.172702434116577,1.0847376750809674,-93.80193328857422,9.326007843017578,-48.676025390625,15106214.0,50354.0,0.25443074682837513,-0.10842799296465419,0.15134474959354402,0.006340302019979465,-0.007553769559688642,0.011792479174993162,15.106214718005504
1634,A,77939266561148.0,-4.579269676463138,12.796359306612104,-3.8342133,174,1970-01-01 21:38:59.266561148,-0.8465271,1.5554504,-1.0191345,10.303747315469359,2.04320072606311,-93.85640716552734,9.269970893859863,-48.75121307373047,15156568.0,50354.0,0.12614160768687516,0.01567945292824584,-0.09694389821375601,0.009581670169630458,-0.002335129992496653,0.0013696502351889226,15.156568721999065
1634,A,77939316915152.0,-1.1351472764631385,8.203158606612103,-2.7867584,174,1970-01-01 21:38:59.316915152,-1.6833038,1.6537018,0.84347534,12.134462187501578,2.505931358917438,-93.95453643798828,9.306416511535645,-48.83771514892578,15206922.0,50354.0,-0.14387187562382486,0.03523566250124581,-0.1666962044909,-0.00044639495584858276,0.0012818898611683114,-0.006637666865795124,15.206922725992627
1634,A,77939367269156.0,3.854522523536861,11.944125606612104,-0.5706787,174,1970-01-01 21:38:59.367269156,-1.6972656,1.1799927,-0.33865356,7.780873116524764,2.0947027289563844,-94.048828125,9.285406112670898,-48.896148681640625,15257276.0,50354.0,0.06846571059557512,0.013778974636345828,-0.0845301938667,-0.001898501016916244,0.0012340415192131449,-0.006325127031449296,15.25727673000074
1634,A,77939417623160.0,-1.6041261764631387,9.521197606612104,-2.6722565,174,1970-01-01 21:38:59.417623160,-1.2355652,1.7807007,-0.6344147,11.039185501915131,2.25831759458399,-94.12472534179688,9.247417449951172,-48.98384475708008,15307630.0,50354.0,0.05665822883027512,0.04696324253934585,-0.0816473795304,0.0031502454229246314,0.0015293068018323894,-0.004183852765418787,15.307630733994301
1634,A,77939467977164.0,1.6946714235368614,10.932803606612103,-0.9088898,174,1970-01-01 21:38:59.467977164,-1.3044891,1.5202179,-0.269989,8.659246501157131,2.0212986755104305,-94.25029754638672,9.08348560333252,-49.067230224609375,15357984.0,50354.0,0.0022796576855751162,0.021501188545345804,-0.0901625203951,0.0014838791688095614,0.0017237289814192817,-0.0043256578504243135,15.357984738002415
1634,A,77939518331168.0,0.6647031235368615,11.323764606612103,-1.5732422,174,1970-01-01 21:38:59.518331168,-1.3322296,0.7417755,-0.39631653,8.496648487828477,1.5754787816621494,-94.48664093017578,9.09782600402832,-49.12913513183594,15408338.0,50354.0,0.05940197297167513,0.06688441790434581,-0.062492637364,0.0015529584150575893,0.0022252844135838856,-0.003843398906900861,15.408338741995976
1634,A,77939568685172.0,0.8625791235368614,9.579333606612103,-0.27612305,174,1970-01-01 21:38:59.568685172,-1.1937408,0.8404083,-0.6329498,10.044342696503689,1.5912035248872376,-94.47996520996094,9.029085159301758,-49.15756607055664,15458692.0,50354.0,0.03845238513457512,0.03280810371434581,-0.04656146889925,0.0024636791740410627,0.002509958616793799,-0.0027456552333898457,15.45869274600409
1634,A,77939619039175.0,-0.5712740764631388,8.378237606612103,0.92767334,174,1970-01-01 21:38:59.619039175,-0.59169006,0.8985901,-0.6613922,11.530224962171223,1.2629334650493877,-94.51625061035156,8.992595672607422,-49.20029067993164,15509046.0,50354.0,0.007334187170175115,-0.0413514295646542,0.016404081651330005,0.0011527685309166969,-0.00021509531493321435,-0.0007592725387408818,15.509046748993569
1634,A,77939669393179.0,-1.6159059764631385,6.408282606612103,-0.43579102,174,1970-01-01 21:38:59.669393179,0.104904175,0.68940735,-0.25083923,13.674687679225698,0.7410854872910723,-94.45280456542969,9.158884048461914,-49.224063873291016,15559400.0,50354.0,-0.05506663219252489,-0.12118898059165421,0.012384121170640002,-0.0012017597683277002,-0.004092279906505377,0.0007248005824487388,15.559400753001682
1634,A,77939719747183.0,-0.7073061764631388,6.771746606612103,1.8547211,174,1970-01-01 21:38:59.719747183,1.1469269,-0.32637024,0.03929138,13.21772668078241,1.1931063071007428,-94.39286041259766,9.162102699279785,-49.20774459838867,15609754.0,50354.0,-0.05849151237422488,-0.16163560449865422,0.035724402624160004,-0.0028590534057570593,-0.0071206745788186965,0.0012112283035816797,15.609754756995244
1634,A,77939770101187.0,1.5202787235368613,6.265994606612104,0.19692993,174,1970-01-01 21:38:59.770101187,3.0729065,-1.6165619,0.25878906,13.282144029435294,3.4818096604854127,-94.0941390991211,9.027939796447754,-49.10640335083008,15660108.0,50354.0,0.020468209817675113,-0.1652179894746542,0.05165441798231,-0.0009573126884662537,-0.008229192935465986,0.0021999365664090954,15.660108761003357
1634,A,77939820455191.0,1.4535520235368613,4.658450606612103,-1.6952667,174,1970-01-01 21:38:59.820455191,3.1362457,-1.2267609,0.6876068,14.98572708942848,3.437118343604645,-93.98897552490234,8.914040565490723,-49.056617736816406,15710462.0,50354.0,0.07487213671907511,-0.2184244428666542,-0.03772362485829,0.0024003839047557606,-0.00965896551905712,0.00035073557848345154,15.710462764996919
1634,A,77939870809195.0,3.5836484235368613,5.112231606612104,-3.724289,174,1970-01-01 21:38:59.870809195,2.0623932,-1.5084534,1.1501465,14.952526287055052,2.8020946348829923,-93.8746337890625,8.97658634185791,-48.984439849853516,15760816.0,50354.0,0.12682159565597512,-0.2474727339176542,-0.13644815385890002,0.00507804310000664,-0.011729893219898533,-0.004385122872762694,15.760816769005032
1634,A,77939921163199.0,1.3383176235368612,11.900805606612103,-2.43013,174,1970-01-01 21:38:59.921163199,1.9953156,-1.100174,0.63993835,8.053225697736966,2.366682966871584,-93.76651763916016,9.012174606323242,-48.931026458740234,15811170.0,50354.0,0.12392033916717511,-0.06513196208265418,-0.15494980716300003,0.006312929693042453,-0.007870448431199764,-0.007336526464648378,15.811170772998594
1634,A,77939971517203.0,3.1016233235368613,14.873965606612103,-2.4402313,174,1970-01-01 21:38:59.971517203,1.1016693,-1.2719879,0.52804565,5.329971244191092,1.7636498158060807,-93.70161437988281,9.04266357421875,-48.868499755859375,15861524.0,50354.0,0.11178439322447511,0.1806392148353458,-0.12262108645010003,0.005934338047424578,0.0029081261025545174,-0.0069884023884970205,15.861524777006707
1634,A,77940021871207.0,2.977523583536861,16.398883206612105,-0.8102112,174,1970-01-01 21:39:00.021871207,-0.25079346,-1.11203,0.07165527,3.321883652889935,1.1422095071384868,-93.70536041259766,9.049832344055176,-48.812557220458984,15911878.0,50354.0,0.15305468167939512,0.29388731457054584,-0.08183639082250001,0.006667853388854742,0.011947154430852135,-0.005147625905292252,15.911878781000269
1634,A,77940072225211.0,2.1617429405368616,14.958819606612103,1.8409119,174,1970-01-01 21:39:00.072225211,-1.1401978,-0.01399231,0.29081726,4.926889985510708,1.176784384064423,-93.76239776611328,9.064386367797852,-48.81279754638672,15962232.0,50354.0,0.1293913132766041,0.29602368372854587,0.025949951523900006,0.007111142815007192,0.014852189204176235,-0.0014070528822208524,15.96223278499383
1634,A,77940122579214.0,0.2439115235368614,10.277484606612104,4.5835114,174,1970-01-01 21:39:00.122579214,-1.3509369,0.3257141,0.555603,10.510512643642395,1.4966011079540935,-93.83284759521484,9.091029167175293,-48.83113098144531,16012585.999999998,50353.99999999814,0.060567162441981875,0.14190523117634057,0.161747705424094,0.004782584543166662,0.011025736290559918,0.00472566390897947,16.01258678799786
1634,A,77940172933218.0,-0.4235078764631388,1.954257606612103,5.8042297,174,1970-01-01 21:39:00.172933218,0.1414032,-0.18016052,0.39698792,18.694916761391173,0.4583143970713083,-93.82455444335938,9.111438751220703,-48.823368072509766,16062940.000000002,50354.000000003725,-0.00452169737762522,-0.1855106262976679,0.2615321576747193,0.0014110566739254117,-0.0010978530329697393,0.01065691711323961,16.062940792005975
1634,A,77940223287222.0,3.4694059235368613,9.528491606612103,3.609497,174,1970-01-01 21:39:00.223287222,-0.12913513,-0.07493591,0.34916687,10.70546494987633,0.3797483054777755,-93.83059692382812,9.129108428955078,-48.820770263671875,16113294.0,50353.99999999814,0.07668657513117227,-0.20436802305864663,0.23700939712589122,0.0018168951272009872,-0.009815974754843568,0.012551780725214508,16.113294795999536
1634,A,77940273641226.0,6.1840513235368615,5.990695606612103,0.025268555,174,1970-01-01 21:39:00.273641226,-0.57740784,1.4528503,-0.5751343,14.108115368888505,1.665819099104115,-93.87077331542969,9.095534324645996,-48.89220428466797,16163647.999999998,50353.99999999814,0.24304509310956612,-0.10274262353265037,0.09151249237823161,0.008049884211296772,-0.007732124749228799,0.008271195612044995,16.163648799993098
1634,A,77940323995230.0,-3.0022737764631384,13.384005606612103,-4.7957153,174,1970-01-01 21:39:00.323995230,-1.1505585,1.2548218,-1.0295105,9.37870485474352,1.9895362477943799,-93.93773651123047,9.03990650177002,-48.952049255371094,16214002.0,50354.00000000186,0.08010761330267809,-0.005672347554654405,-0.12010553769886945,0.008136015689341374,-0.002729563727065173,-0.0007198871020377254,16.21400280400121
1634,A,77940374349234.0,-0.8694917764631387,9.169375606612103,-2.4125366,174,1970-01-01 21:39:00.374349234,-1.4420929,1.511734,0.4364624,11.074239810295635,2.134354948362659,-94.02208709716797,9.056427955627441,-49.029930114746094,16264356.0,50354.0,-0.09747944132602489,0.0743572788053458,-0.18148215808630003,-0.0004373705141438025,0.0017292805140986574,-0.007593073416783213,16.264356807994773
1634,A,77940424703238.0,4.271148423536861,11.685672106612103,0.26011658,174,1970-01-01 21:39:00.424703238,-1.266098,1.2739716,-0.44673157,8.112464610324443,1.8508314020583359,-94.09524536132812,9.029640197753906,-49.09266662597656,16314710.000000002,50354.00000000186,0.08564350940337827,0.03159833627584696,-0.05419147884354201,-0.00029799325801648495,0.002667644520899289,-0.005933555156982852,16.314710812002886
1634,A,77940475057242.0,-1.5562746764631386,9.478381606612103,-2.4217224,174,1970-01-01 21:39:00.475057242,-0.94944763,1.7310333,-0.62342834,11.003776859686132,2.070408168196953,-94.15605926513672,8.992325782775879,-49.17780685424805,16365064.0,50353.99999999814,0.06835237633007257,0.03937818033784434,-0.05442274973013799,0.0038771544151109485,0.00178697575878284,-0.0027345804327994403,16.365064815996448
1634,A,77940525411246.0,-0.19465657646313872,10.598452606612103,-1.0568695,174,1970-01-01 21:39:00.525411246,-1.0886078,0.8957825,-0.25256348,9.309335997895856,1.432229569921247,-94.2808837890625,9.126380920410156,-49.23217010498047,16415417.999999998,50353.99999999814,-0.04408319615492325,0.012005254986345358,-0.08758050826629676,0.0006110251492697118,0.0012936807511570762,-0.003575216026576106,16.41541882000456
1634,A,77940575765250.0,1.2033231235368613,11.544055306612105,-1.5875702,174,1970-01-01 21:39:00.575765250,-1.1743927,0.47114563,-0.4171753,8.20326284429552,1.3323706876884815,-94.51766204833984,9.054095268249512,-49.281925201416016,16465772.000000002,50354.000000003725,0.02539519765567699,0.06401272173125057,-0.06657905832690492,-0.00047050773821555796,0.0019139045998190541,-0.0038812754081173255,16.465772823998122
1634,A,77940626119254.0,1.1273649235368612,9.970874106612104,-0.008483887,174,1970-01-01 21:39:00.626119254,-1.0648346,0.47306824,-0.7644806,9.619227268424074,1.3935913579059742,-94.46194458007812,8.950578689575195,-49.28513717651367,16516126.0,50353.99999999814,0.05867973296117294,0.04821217783674409,-0.04018385374839751,0.0021167545281403524,0.0028254862964232972,-0.0026879698373197896,16.516126828006236
1634,A,77940676473257.0,-1.1929933764631389,8.096560606612103,0.5978241,174,1970-01-01 21:39:00.676473257,-0.5658722,0.47528076,-0.7036743,11.94375199159344,1.0204218088807724,-94.4935302734375,8.91364860534668,-49.30633544921875,16566479.999999998,50353.99999999814,-0.0016523275593248303,-0.038585396225152745,0.01483781854270045,0.0014357789858022766,0.0002423734806350264,-0.0006381371283738112,16.566480830995715
1634,A,77940726827261.0,-2.0857851764631383,6.579302606612103,-0.647171,174,1970-01-01 21:39:00.726827261,0.117507935,0.15545654,-0.31584167,13.659692657374471,0.3711210195140188,-94.44944763183594,9.132121086120605,-49.306766510009766,16616834.0,50354.00000000186,-0.08254980762702793,-0.12397499188065879,-0.001242406901300048,-0.002119957157586882,-0.004092782891340168,0.00034229167889555055,16.61683483500383
1634,A,77940777181265.0,-1.4906618764631387,6.1936376066121035,1.0057831,174,1970-01-01 21:39:00.777181265,1.1677246,-0.846405,-0.020141602,13.876371387643086,1.4423549665742084,-94.38427734375,9.134379386901855,-49.26396179199219,16667188.0,50354.0,-0.09004420745152489,-0.1718848842516542,0.009028776841699997,-0.004345399517632725,-0.007448864101383245,0.00019603743598944952,16.66718883899739
1634,A,77940827535269.0,1.3140256535368615,7.315631606612104,0.77168274,174,1970-01-01 21:39:00.827535269,2.669159,-1.7617798,0.33776855,12.270312753128255,3.2159548231183446,-94.03568267822266,9.036700248718262,-49.1446533203125,16717542.000000002,50354.00000000186,-0.004447170184615047,-0.15334632901865983,0.04475125745368166,-0.002379009414745183,-0.008188346256506999,0.001354019923454874,16.717542843005504
1634,A,77940877889273.0,1.4740903235368612,5.486697606612104,-1.6554718,174,1970-01-01 21:39:00.877889273,2.9204712,-1.6345062,0.70903015,14.158446535409578,3.421035852118025,-93.94509887695312,8.927223205566406,-49.07539367675781,16767896.0,50353.99999999814,0.07019639595478253,-0.1711449573986478,-0.022251157163619174,0.0016553682572154453,-0.008169717118128252,0.0005664850250028822,16.767896846999065
1634,A,77940928243277.0,3.0134885235368616,7.563784606612103,-3.3921661,174,1970-01-01 21:39:00.928243277,2.0330658,-0.6961975,1.1287842,12.462046710918505,2.4273856875876834,-93.83858489990234,8.985896110534668,-49.044124603271484,16818250.0,50354.0,0.11298377263277512,-0.1648972093176542,-0.1270843794083,0.004611927104528939,-0.008460533631416335,-0.003759820804271209,16.818250850992627
1634,A,77940978597281.0,0.5049588235368614,10.623126606612104,-0.5061035,174,1970-01-01 21:39:00.978597281,1.7683563,-1.5862122,1.2908325,9.081990575974478,2.7035905182247517,-93.7236557006836,9.101983070373535,-48.96596908569336,16868604.0,50354.0,0.08858394885727512,-0.03557733638465419,-0.0981467337192,0.005074870523954995,-0.005047347637147018,-0.005670643735211068,16.86860485500074
1634,A,77941028951285.0,1.6914518235368612,12.979113906612103,-1.9091339,174,1970-01-01 21:39:01.028951285,1.1563873,-1.8312073,1.0588531,6.841987910674345,2.410751262688499,-93.65170288085938,9.160704612731934,-48.87687301635742,16918958.0,50354.0,0.05529903086137512,0.10076440940144582,-0.060808432019800004,0.0036225417803764574,0.0016412149373437632,-0.004002014207810803,16.9189588589943
1634,A,77941079305289.0,3.6077878235368614,14.955691606612103,-1.0140381,174,1970-01-01 21:39:01.079305289,0.12373352,-1.4764099,0.72569275,4.88704043638403,1.6497654815737182,-93.63397979736328,9.201605796813965,-48.80458450317383,16969312.0,50354.0,0.1334189565943751,0.20984539840644578,-0.073596701444,0.0047513527701734245,0.007820223131179287,-0.003383918045218093,16.969312863002415
1634,A,77941129659293.0,2.9980924235368613,15.606036506612103,-0.0927124,174,1970-01-01 21:39:01.129659293,-0.8993988,-0.42199707,0.34725952,4.001279591943699,1.0524204971211153,-93.67572784423828,9.220279693603516,-48.78437423706055,17019666.0,50354.0,0.16631624698057512,0.27598342870664583,-0.0278646573385,0.007546433220406522,0.012231712380226308,-0.002554492630067003,17.019666866995976
1634,A,77941180013297.0,1.6429593735368613,12.128985606612105,4.8252716,174,1970-01-01 21:39:01.180013297,-1.6063538,0.17488098,0.25624084,8.852271830533473,1.6360364470341442,-93.7575912475586,9.232497215270996,-48.7940559387207,17070020.0,50354.0,0.11684776109492512,0.20481545174464585,0.1191516429784,0.00712922023131687,0.012105073413122173,0.0022983324374557627,17.07002087100409
1634,A,77941230367300.0,-0.8644105764631385,6.193011606612103,7.4633026,174,1970-01-01 21:39:01.230367300,-1.1520538,0.42660522,0.6271057,15.588849513027519,1.3793047273166934,-93.81900024414062,9.262375831604004,-48.81772232055664,17120374.0,50354.0,0.01960152306392512,-0.03217627616265416,0.3093894326334,0.0034353836272673728,0.004346536523627806,0.010789378660678289,17.12037487399357
1634,A,77941280721304.0,-1.6144563764631386,6.955950606612104,3.8266907,174,1970-01-01 21:39:01.280721304,-0.24360657,0.46473694,0.5462189,13.688259579056357,0.7574164449395976,-93.83526611328125,9.28807544708252,-48.84305953979492,17170728.0,50354.0,-0.06241043327382488,-0.16241777835765417,0.28424816131409997,-0.0010777999323546461,-0.004899294510657803,0.014946013702816209,17.170728878001682
1634,A,77941331075308.0,2.4591977735368613,6.077288606612104,4.1756134,174,1970-01-01 21:39:01.331075308,-0.5078888,0.6886749,-0.08880615,14.086623479676314,0.8602968576795295,-93.86622619628906,9.281332969665527,-48.87757110595703,17221082.0,50354.0,0.02126805415412512,-0.16533133632865415,0.2014740103257,-0.0010358416790966808,-0.008251739460457184,0.012229027115375244,17.221082881995244
1634,A,77941381429312.0,4.027831823536861,6.182635606612104,1.0601196,174,1970-01-01 21:39:01.381429312,-0.8161011,1.2999115,-0.8777008,13.510333408565797,1.7680920811920686,-93.91710662841797,9.233136177062988,-48.94025421142578,17271436.0,50354.0,0.1633239441655251,-0.18480108808365417,0.131820049741,0.004647472741693834,-0.008815284049428686,0.008391344550299308,17.271436886003357
1634,A,77941431783316.0,-2.3793947764631382,10.786044606612103,-3.0239258,174,1970-01-01 21:39:01.431783316,-1.2666321,1.1498413,-0.54499817,10.328196663665173,1.7954149651931304,-93.98944091796875,9.201986312866211,-48.996456146240234,17321790.0,50354.0,0.04150269953417512,-0.06624873827165417,-0.04944274869740001,0.0051569204084273524,-0.0063206814781475995,0.0020740133083747172,17.32179088999692
1634,A,77941482137320.0,-0.4477388764631387,8.080935606612103,-0.27319336,174,1970-01-01 21:39:01.482137320,-1.028305,1.5826263,0.032989502,11.756094552086548,1.8876454872986341,-93.98906707763672,9.295340538024902,-49.06621170043945,17372144.0,50354.0,-0.07117874397972487,-0.0184552391716542,-0.08301156909132001,-0.0007471537710056062,-0.002132592040090175,-0.0033348023589666043,17.372144894005032
1634,A,77941532491324.0,3.4356840235368615,10.498248606612103,-1.1672974,174,1970-01-01 21:39:01.532491324,-0.5840454,1.2822571,-0.39048767,9.187093013481098,1.4621124854755871,-94.02849578857422,9.271381378173828,-49.129634857177734,17422498.0,50354.0,0.07522749496787512,-0.0257010790636542,-0.036267235864520006,0.00010193540362865874,-0.0011117236242103596,-0.003003082472373184,17.422498897998594
1634,A,77941582845328.0,-0.03298967646313855,10.217944606612104,-2.3796234,174,1970-01-01 21:39:01.582845328,-0.31558228,1.319458,-0.45735168,9.86902102029947,1.4316885654404106,-94.05475616455078,9.24392318725586,-49.19468307495117,17472852.0,50354.0,0.08566963557627513,0.028102396529345822,-0.0893008249816,0.004050907055710071,6.045796983371794e-05,-0.003161427067922763,17.472852902006707
1634,A,77941633199332.0,0.6496885235368612,11.724902606612105,-2.382492,174,1970-01-01 21:39:01.633199332,-0.7948456,1.0259094,-0.36372375,8.307788277093097,1.3477999076872584,-94.10258483886719,9.22213077545166,-49.245201110839844,17523206.0,50354.0,0.015526626872775118,0.05898586428734587,-0.1198957794258,0.0025478182996797384,0.0021926211425818466,-0.0052669429091651105,17.52320690600027
1634,A,77941683553336.0,0.9938199235368614,11.764285606612104,-1.5345001,174,1970-01-01 21:39:01.683553336,-1.1726074,0.78616333,-0.6555023,8.007913876114829,1.556516675553699,-94.34386444091797,9.176708221435547,-49.31076431274414,17573560.0,50354.0,0.04137861217197512,0.09791809164434587,-0.0986181101017,0.0014327032034296768,0.003950370898492203,-0.005501524196633868,17.57356090999383
1634,A,77941733907339.0,0.17445352353686117,9.390429606612104,-0.30862427,174,1970-01-01 21:39:01.733907339,-1.004776,0.79730225,-0.82522583,10.345786701896552,1.5252092835182494,-94.33549499511719,9.187535285949707,-49.33757400512695,17623914.0,50354.0,0.029413620576975115,0.03914306492334584,-0.04640434226349,0.00178233604392032,0.0034507887389047744,-0.0036512302831983893,17.62391491299786
1634,A,77941784261343.0,-1.3202974764631388,7.680743606612104,0.1499176,174,1970-01-01 21:39:01.784261343,-0.30430603,0.8254547,-0.5413666,12.364546150527234,1.0329837449069617,-94.23439025878906,9.34327220916748,-49.35747146606445,17674268.0,50354.0,-0.028848913202824893,-0.06366827201065416,-0.0039957578305899995,1.4217637558980148e-05,-0.0006174711388371615,-0.0012689233200686523,17.674268917005975
1634,A,77941834615347.0,-1.6536714764631388,6.256106606612104,0.7814789,174,1970-01-01 21:39:01.834615347,0.3816223,0.29745483,-0.07841492,13.846475922431624,0.4901671708980777,-94.21769714355469,9.338266372680664,-49.37220764160156,17724622.0,50354.0,-0.0748756163278249,-0.14258112218165417,0.0234497696805,-0.00261147247999317,-0.005192740997579747,0.0004897936563451841,17.724622920999536
1634,A,77941884969351.0,0.39233372353686136,6.911029606612104,1.3854828,174,1970-01-01 21:39:01.884969351,1.6783295,-0.6901398,0.19606018,12.823374039476453,1.8252458596846406,-94.12823486328125,9.350553512573242,-49.33805465698242,17774976.0,50354.0,-0.03175670060542489,-0.16196021155965418,0.0545575947209,-0.00268468184342843,-0.00766743715960492,0.0019639914135340477,17.774976924993098
1634,A,77941935323355.0,1.3270261235368612,6.907885606612103,0.6681366,174,1970-01-01 21:39:01.935323355,2.769455,-1.2278595,0.42466736,12.669414918212857,3.059062326173597,-93.79959106445312,9.244457244873047,-49.248538970947266,17825330.0,50354.0,0.04328832286977512,-0.1455503716766542,0.05170397563379999,0.0002903316537495457,-0.007742193954140536,0.002675347556820282,17.82533092900121
1634,A,77941985677359.0,3.0265500735368613,5.937380606612104,-2.0960388,174,1970-01-01 21:39:01.985677359,2.4742126,-0.9029541,0.7789154,13.775869970127731,2.7465912140438244,-93.66896057128906,9.286264419555664,-49.205474853515625,17875684.0,50354.0,0.10960998791372513,-0.17006393254965418,-0.035950293689400004,0.0038495207705961858,-0.007946221337505766,0.0003966304503141585,17.875684932994773
1634,A,77942036031363.0,2.5766599235368615,8.177981606612104,-1.3867798,174,1970-01-01 21:39:02.036031363,2.059021,-0.93556213,0.91519165,11.440749830892223,2.439758130176198,-93.55883026123047,9.334879875183105,-49.16108703613281,17926038.0,50354.0,0.14107201809632514,-0.13808672555765417,-0.08768692389220001,0.006311420865315036,-0.007758309119167703,-0.003112814227051944,17.926038937002886
1634,A,77942086385367.0,1.0770566235368613,10.953082606612103,-0.5992584,174,1970-01-01 21:39:02.086385367,1.6926575,-1.3077545,0.845047,8.671207317448824,2.2998729697062616,-93.47491455078125,9.336000442504883,-49.099395751953125,17976392.0,50354.0,0.09198962150567512,-0.011806396303654187,-0.0500024837614,0.0058677929002595615,-0.0037738591291021605,-0.0034666062164946873,17.976392940996448
1634,A,77942136739371.0,2.7859952635368614,14.202426206612103,-1.091919,174,1970-01-01 21:39:02.136739371,0.8874512,-1.4349823,0.49325562,5.466962550212551,1.757852365915953,-93.41898345947266,9.36492919921875,-49.0283088684082,18026746.0,50354.0,0.09726005736085512,0.1398710453905458,-0.0425787733998,0.004764739164822633,0.0032242836700606702,-0.0023309183115475325,18.02674694500456
1634,A,77942187093375.0,2.7893827235368613,15.709857306612104,-0.68995667,174,1970-01-01 21:39:02.187093375,-0.07972717,-0.8186188,0.21009827,3.923020268141829,0.8489019050553732,-93.41633605957031,9.37785816192627,-48.98753356933594,18077100.0,50354.0,0.1403712915805551,0.2596323620124458,-0.04486228374359001,0.005982844472297886,0.01005829728818512,-0.0022015034956991302,18.077100948998122
1634,A,77942237447379.0,2.5164792735368615,15.315722606612104,0.9654846,174,1970-01-01 21:39:02.237447379,-0.98635864,-0.028823853,0.34725952,4.332660330116909,1.0460991135810438,-93.46559143066406,9.395275115966797,-48.98713684082031,18127454.0,50354.0,0.13358568750032515,0.2876618254752459,0.0069369666936099994,0.006897414862319322,0.013779225758377617,-0.0009548457073673468,18.127454953006236
1634,A,77942287801382.0,1.6905362735368614,11.023043606612104,7.173111,174,1970-01-01 21:39:02.287801382,-1.4468842,0.4220276,0.5014496,11.138719830918088,1.5884057682820092,-93.54167938232422,9.419011116027832,-49.010032653808594,18177808.0,50354.0,0.10592003042867514,0.16966191695034585,0.20490542142120002,0.00603003546029844,0.011514039863049124,0.005333555805566572,18.177808955995715
1634,A,77942338155386.0,-0.5998079764631385,5.465579606612103,7.333359,174,1970-01-01 21:39:02.338155386,-0.60350037,0.24458313,0.44599915,16.107798688132828,0.7892710851611481,-93.57410430908203,9.440510749816895,-49.023807525634766,18228162.0,50354.0,0.027461266335425123,-0.07833513336065419,0.36522939519000003,0.0033581409086297525,0.0022993344304376674,0.014354284277820184,18.22816296000383
1634,A,77942388509390.0,-0.5484468764631387,6.9548526066121035,4.204544,174,1970-01-01 21:39:02.388509390,-0.3287506,0.3453827,0.30278015,13.542729716597725,0.5648380172170359,-93.59358215332031,9.454543113708496,-49.04224395751953,18278516.0,50354.0,-0.028909612432124886,-0.1807599781676542,0.290489783831,-3.646500967660992e-05,-0.00652323762294822,0.016509041770211716,18.27851696399739
1634,A,77942438863394.0,4.220840223536861,8.682498606612103,4.4661865,174,1970-01-01 21:39:02.438863394,-0.2895813,1.4931641,-0.20227051,11.90012421348643,1.5343760028279119,-93.6203384399414,9.439752578735352,-49.117130279541016,18328870.0,50354.0,0.09245984729927512,-0.09976760850465419,0.21830298179850005,0.0016000042632502412,-0.007062843049648708,0.012809875460253924,18.328870968005504
1634,A,77942489217398.0,2.2720182095368613,11.104129606612103,-0.49673462,174,1970-01-01 21:39:02.489217398,-0.77589417,1.1691742,-1.0905457,8.439271942511192,1.7771522154205361,-93.66187286376953,9.136926651000977,-49.171634674072266,18379224.0,50354.0,0.16347069676949713,0.004698738524345814,0.09993888998276002,0.006443563308019479,-0.0023935489394942243,0.008012375605836786,18.379224971999065
1634,A,77942539571402.0,-3.8173981764631386,8.640399606612103,-1.4273834,174,1970-01-01 21:39:02.539571402,-1.0950012,1.470459,-0.4235077,12.528481155721174,1.8816577984962435,-93.72818756103516,9.111058235168457,-49.244564056396484,18429578.0,50354.0,-0.03890803142730288,0.0036388120013458062,-0.04844351938954,0.003136114225320425,0.00020991450958533797,0.0012964989454255004,18.429578975992627
1634,A,77942589925406.0,2.4061124435368613,10.479663606612103,-1.1004944,174,1970-01-01 21:39:02.589925406,-1.1120911,1.3531036,-0.12020874,9.117609543046637,1.7555871121093813,-93.79454040527344,9.100624084472656,-49.312530517578125,18479932.0,50354.0,-0.03553194089788489,-0.012083368480654194,-0.06364437937060001,-0.0018741751832312527,-0.00021260859847954726,-0.0028220370270840454,18.47993298000074
1634,A,77942640279410.0,1.0451047235368613,10.512713606612104,-0.86828613,174,1970-01-01 21:39:02.640279410,-0.6081848,1.1907349,-0.5006561,9.132632627172406,1.4277236719674644,-93.87700653076172,9.028029441833496,-49.37773895263672,18530286.0,50354.0,0.08689129461541512,0.03505588109734584,-0.04956798740381001,0.0012930744485462585,0.0005783789501504456,-0.0028503477582793213,18.5302869839943
1634,A,77942690633414.0,0.01107762353686148,10.463916106612103,-1.6990967,174,1970-01-01 21:39:02.690633414,-0.6613922,0.9786835,-0.37519836,9.481879653868539,1.239368728320906,-94.083251953125,9.117366790771484,-49.452030181884766,18580640.0,50354.0,0.026591502952275123,0.034659406289845845,-0.06463899751091,0.0028571563943617373,0.001755221790547325,-0.0028753892591979057,18.580640988002415
1634,A,77942740987418.0,1.1097257235368614,11.340335606612104,-1.5782776,174,1970-01-01 21:39:02.740987418,-1.1087036,0.62239075,-0.4604187,8.411699725731665,1.3522497171928758,-94.31431579589844,9.054265975952148,-49.50877380371094,18630994.0,50354.0,0.028218465869275122,0.05549644538384584,-0.0825144527511,0.0013799505850201706,0.0022698538775885358,-0.0037048824172466258,18.630994991995976
1634,A,77942791341422.0,0.48426792353686143,10.252291606612104,0.069366455,174,1970-01-01 21:39:02.791341422,-1.2208862,0.3601532,-0.8950653,9.436353983579107,1.5560897570785466,-94.2597885131836,9.04668140411377,-49.50499725341797,18681348.0,50354.0,0.040131978052375124,0.05016837534734586,-0.03798985589766501,0.0017208591266153882,0.002660323191549214,-0.003033936978849957,18.68134899600409
1634,A,77942841695425.0,-0.9319154764631388,8.501467606612103,0.29763794,174,1970-01-01 21:39:02.841695425,-0.5832672,0.333786,-0.880661,11.470829697545613,1.1077804463488423,-94.14994812011719,9.173941612243652,-49.4962158203125,18731702.0,50354.0,-0.011270422440024885,-0.02130580428865418,0.009240069652915,0.0007266473856521419,0.0007266729515446804,-0.000723833368284071,18.73170299899357
1634,A,77942892049429.0,-0.9984743764631387,7.683413606612103,0.43865967,174,1970-01-01 21:39:02.892049429,0.051757813,0.27275085,-0.4862213,12.280784340262976,0.5598955705807607,-93.99626159667969,9.299450874328613,-49.48365783691406,18782057.0,50355.0,-0.04860239052205135,-0.0859841532540476,0.018538133075775,-0.0015074477483526744,-0.0027012929060313737,0.0006993856992015924,18.782057003001682
1634,A,77942942403433.0,-0.8148805764631386,6.804293606612104,2.9812927,174,1970-01-01 21:39:02.942403433,1.2647095,-0.61772156,-0.05970764,13.415181244916553,1.4087707575590336,-93.92794036865234,9.298604965209961,-49.45221710205078,18832411.0,50354.0,-0.045654837649824885,-0.1287121954926542,0.08610414081949,-0.0023731142336833283,-0.005405409972395712,0.002634578529861087,18.832411006995244
1634,A,77942992757437.0,-1.9753571764631386,8.499575606612103,-2.1320496,174,1970-01-01 21:39:02.992757437,2.8380737,-2.214325,0.5194702,11.988822021922095,3.6369969509122124,-93.76820373535156,9.331952095031738,-49.3420524597168,18882765.0,50354.0,-0.07024981590542488,-0.10816368481865418,0.021381393528699996,-0.0029181314625605233,-0.005963824038597811,0.0027061632982843795,18.882765011003357
1634,A,77943043111441.0,2.2857968935368613,5.498568606612103,-1.3679504,174,1970-01-01 21:39:03.043111441,2.539734,-0.60346985,0.9787903,14.09671484187864,2.7879123196379605,-93.6824722290039,9.143365859985352,-49.32234191894531,18933119.0,50354.0,0.007815940756765118,-0.1410379231436542,-0.0881195,-0.001571897674617807,-0.006274148883667039,-0.0016802653066279203,18.93311901499692
1634,A,77943093465445.0,2.1122892035368612,8.265673606612104,-0.59065247,174,1970-01-01 21:39:03.093465445,1.7625122,-1.8217926,1.6454773,11.278826184408349,3.0220809184035575,-93.5634536743164,9.016343116760254,-49.2330322265625,18983473.0,50354.0,0.11073061366602512,-0.14692687379765418,-0.049311744457990005,0.0029846466007025898,-0.0072500896925913215,-0.003460106441718815,18.983473019005032
1634,A,77943143819449.0,0.7262876235368614,10.140963606612104,-2.4312134,174,1970-01-01 21:39:03.143819449,1.659317,-2.1719666,1.3842468,9.810712178752091,3.0638066227023537,-93.4638900756836,9.092083930969238,-49.12757110595703,19033827.0,50354.0,0.07146684877523511,-0.030045294882654155,-0.07608151700899,0.004587185511883609,-0.004455628290864123,-0.003157026143954156,19.033827022998594
1634,A,77943194173453.0,2.5326535835368613,12.847918606612104,-2.3088837,174,1970-01-01 21:39:03.194173453,1.048523,-2.3442688,1.0890198,7.075577405919101,2.789437364949154,-93.3931884765625,9.153444290161133,-49.01235580444336,19084181.0,50354.0,0.08205036277049513,0.08532188748234586,-0.1193414246867,0.00386510283508685,0.001391698771882438,-0.004920163403072388,19.084181027006707
1634,A,77943244527457.0,3.2849729235368614,15.343448006612103,-0.93533325,174,1970-01-01 21:39:03.244527457,0.14416504,-1.7662811,0.5961914,4.420165765175525,1.869753103596668,-93.37203216552734,9.188414573669434,-48.92483901977539,19134535.0,50354.0,0.14647038256859513,0.21630483722114585,-0.08167965015015001,0.005753466805402276,0.007594056047859812,-0.005061107601167372,19.13453503100027
1634,A,77943294881461.0,3.9747617235368615,16.719546606612102,-0.35328674,174,1970-01-01 21:39:03.294881461,-0.85583496,-1.0416412,0.27978516,3.3342196574602037,1.3768622313259475,-93.40655517578125,9.205459594726562,-48.873016357421875,19184889.0,50354.0,0.1827783392093751,0.3137808153771458,-0.03244358548823,0.008289495068203957,0.013345966475467189,-0.0028732807036674934,19.18488903499383
1634,A,77943345235464.0,0.25175452353686145,12.454821906612104,3.3504333,174,1970-01-01 21:39:03.345235464,-1.7074738,-0.21362305,0.02394104,8.069213639045769,1.720951701406528,-93.49019622802734,9.207295417785645,-48.86227798461914,19235243.0,50354.0,0.10641099955257514,0.2410538760574458,0.07545915894112,0.0072809199820096215,0.013969073026248714,0.0010830030928234116,19.23524303799786
1634,A,77943395589468.0,-3.635727176463139,3.6689336066121037,8.355804,174,1970-01-01 21:39:03.395589468,-0.725708,0.22146606,0.3374939,18.856360903495457,0.8304224524500369,-93.52845001220703,9.22346019744873,-48.87453079223633,19285597.0,50354.0,-0.08519827948272489,-0.08752140744355418,0.2947279365021,0.0005340726531986199,0.00386548696229195,0.00932020050197395,19.285597042005975
1634,A,77943445943472.0,1.2463834235368614,8.026217606612104,6.374954,174,1970-01-01 21:39:03.445943472,-0.14199829,-0.63998413,0.48336792,13.18634316562133,0.8144861859478695,-93.53059387207031,9.249554634094238,-48.84367370605469,19335951.0,50354.0,-0.06015650766742489,-0.19902037790465418,0.370876294166,-0.003659597476079321,-0.007214262529711842,0.016757917715530757,19.335951045999536
1634,A,77943496297476.0,5.024444323536861,3.3224366066121043,-0.20314026,174,1970-01-01 21:39:03.496297476,-1.4403229,2.3842773,-0.3173523,16.44933632275953,2.8035728600974488,-93.62181091308594,9.226282119750977,-48.963218688964844,19386305.0,50354.0,0.15788063018807513,-0.20774413287365417,0.15538775453198,0.0024604002327024113,-0.01024111008786547,0.013249749954069042,19.386305049993098
1634,A,77943546651480.0,1.0362546235368613,17.676364206612103,-6.919998,174,1970-01-01 21:39:03.546651480,-0.35447693,-0.5580597,-0.8314514,7.259698728827994,1.0622598331991446,-93.63459014892578,9.186558723449707,-48.93233871459961,19436659.0,50354.0,0.15259021739047512,0.03521760807454583,-0.17933925197202,0.00781672452948516,-0.004343700314867151,-0.0006030268510478869,19.43665905400121
1634,A,77943597005484.0,-3.965423776463139,7.155963606612103,-1.9312439,174,1970-01-01 21:39:03.597005484,-1.2662201,2.2339172,-0.13311768,13.963941049255213,2.5712681141468763,-93.71585083007812,9.172760963439941,-49.044830322265625,19487013.0,50354.0,-0.0737476917632249,0.1317343173535458,-0.22284771731630001,0.0019850182677172788,0.004203348626503063,-0.010125861325772033,19.487013057994773
1634,A,77943647359488.0,5.110503823536861,12.364840606612104,-3.789795,174,1970-01-01 21:39:03.647359488,-1.5271606,1.6469269,-0.016784668,8.606593414395443,2.24607868010358,-93.80545806884766,9.166521072387695,-49.12799835205078,19537367.0,50354.0,0.02882968034517511,-0.001993912323654193,-0.1440385963853,-0.0011309007734722398,0.003266474177437581,-0.009237096720065185,19.537367062002886
1634,A,77943697713492.0,-0.15011617646313846,10.043688606612104,-1.6552124,174,1970-01-01 21:39:03.697713492,-0.6674347,1.424469,-0.7416229,9.914127283522022,1.739133559140729,-93.99955749511719,9.241436958312988,-49.221458435058594,19587721.0,50354.0,0.12488767979037514,0.07071034000134585,-0.1370889513098,0.0038701419761327494,0.001730073499641243,-0.007077948268319533,19.587721065996448
1634,A,77943748067496.0,-0.3045656764631386,10.517947606612104,-2.624237,174,1970-01-01 21:39:03.748067496,-0.9156647,1.2469788,-0.346344,9.716952502616303,1.5853555237900203,-94.05524444580078,9.2197847366333,-49.283233642578125,19638075.0,50354.0,-0.011447525011124879,0.024211114940345852,-0.1077436975438,0.002856082776877184,0.002389837471066972,-0.006164151600187088,19.63807507000456
1634,A,77943798421500.0,0.7362821235368613,11.125384606612103,-0.9798584,174,1970-01-01 21:39:03.798421500,-1.1381073,0.64945984,-0.4156189,8.588139644848358,1.374709198384635,-94.18191528320312,9.21408462524414,-49.32493209838867,19688429.0,50354.0,0.010869324987975116,0.05144497513234583,-0.09074030988580001,-1.4557341982841573e-05,0.0019047933797601585,-0.00499723185505504,19.688429073998122
1634,A,77943848775504.0,1.1408078235368613,10.224719606612103,0.3765869,174,1970-01-01 21:39:03.848775504,-1.1426392,0.6755371,-0.848938,9.37306445750698,1.5756492130855302,-94.08082580566406,9.104735374450684,-49.32987976074219,19738783.0,50354.0,0.04725949359747512,0.04406237377634581,-0.0151885665555,0.0014635092655258806,0.0024045885234741295,-0.00266697132216261,19.738783078006236
1634,A,77943899129507.0,-1.1225435764631388,8.621493606612104,1.8689728,174,1970-01-01 21:39:03.899129507,-0.3399048,0.7985077,-0.7094116,11.557998477985052,1.1208990312409455,-94.1037826538086,9.066509246826172,-49.367645263671875,19789137.0,50354.0,0.0004598389485751096,-0.018978089930654182,0.05653645656690001,0.0012014296355119067,0.0006315470143829781,0.0010410158268170182,19.789137080995715
1634,A,77943949483511.0,-1.8266601764631383,7.190280606612104,-0.21461487,174,1970-01-01 21:39:03.949483511,0.35072327,0.41049194,-0.18811035,12.984732278983772,0.5717481514631937,-94.01466369628906,9.281590461730957,-49.37574768066406,19839491.0,50354.0,-0.07425210288742488,-0.09537616063365416,0.04165176960361001,-0.0018578678291884209,-0.0028790969664575913,0.0024720849702949306,19.83949108500383
1634,A,77943999837515.0,0.5037992235368614,6.215701606612104,1.0035095,174,1970-01-01 21:39:03.999837515,1.4927826,-0.6843872,0.052825928,13.459677900814091,1.6430387424086084,-93.72608184814453,9.239294052124023,-49.30784606933594,19889845.0,50354.0,-0.03330567021182487,-0.15594678581765417,0.019862000099510002,-0.002707982053319811,-0.00632755782280459,0.0015487321798154526,19.88984508899739
1634,A,77944050191519.0,-0.9940491764631387,7.661517606612103,-2.5868988,174,1970-01-01 21:39:04.050191519,3.5482483,-2.0445404,0.49082947,12.562168632983935,4.124454511120899,-93.53228759765625,9.270257949829102,-49.20604705810547,19940199.0,50354.0,-0.012343023064824887,-0.1440824518686542,-0.0398649924061,-0.0011492971506262112,-0.007553836117228187,-0.0005036153373030165,19.940199093005504
1634,A,77944100545523.0,2.7787931235368615,3.5296666066121034,-4.0117035,174,1970-01-01 21:39:04.100545523,2.5541687,0.3524933,1.1071777,16.503878806138736,2.8060420050280555,-93.40801239013672,9.324451446533203,-49.22727584838867,19990553.0,50354.0,0.04493449835547512,-0.21170875506365422,-0.16613301010710002,0.000820555573392701,-0.00895775521693473,-0.005186411709274837,19.990553096999065
1634,A,77944150899527.0,2.2566068335368614,10.728671606612103,0.5071411,174,1970-01-01 21:39:04.150899527,2.1460571,-2.2535553,1.4242859,8.814602051779813,3.4223767898285704,-93.28282928466797,9.402118682861328,-49.11747360229492,20040907.0,50354.0,0.12677626471924514,-0.1344870188056542,-0.0882343675448,0.004323161881932232,-0.008716170998707579,-0.006404207467141888,20.040907100992627
1634,A,77944201253531.0,1.3654782935368615,12.366046206612104,-1.4799194,174,1970-01-01 21:39:04.201253531,2.0526123,-1.7294159,0.66448975,7.362827132272171,2.7650756295514163,-93.376708984375,9.373114585876465,-49.066261291503906,20091261.0,50354.0,0.09119323724433513,0.08798651038354584,-0.0244916392591,0.005487818150937061,-0.001170743300543422,-0.0028381026733017905,20.09126110500074
1634,A,77944251607535.0,3.5848234235368617,14.716021606612102,-2.814331,174,1970-01-01 21:39:04.251607535,0.9264221,-2.0836487,0.6107788,5.74118881984536,2.360699166541459,-93.3134765625,9.409682273864746,-48.96265411376953,20141615.0,50354.0,0.12463374633076513,0.18837602133354583,-0.10811634232080002,0.0054338759654702995,0.006957979461041218,-0.0033386711522371427,20.1416151089943
1634,A,77944301961539.0,3.236480523536861,15.941562006612104,-0.9435272,174,1970-01-01 21:39:04.301961539,-0.2056427,-0.8792877,0.22718811,3.847478476355714,0.931155312909695,-93.31659698486328,9.423564910888672,-48.9188346862793,20191969.0,50354.0,0.17173996947547512,0.2783967826301459,-0.09461159590140002,0.007461801042853712,0.011751938885393866,-0.005104081300620331,20.191969113002415
1634,A,77944352315543.0,3.2473295235368616,16.486163406612103,1.5279541,174,1970-01-01 21:39:04.352315543,-1.3321991,0.10169983,0.3183136,3.5580073903112317,1.3734703656824194,-93.38418579101562,9.439154624938965,-48.92490768432617,20242323.0,50354.0,0.16324288555517513,0.3229636427287458,0.014714116061300003,0.008433863341106683,0.015140451429260817,-0.002011578849934198,20.242323116995976
1634,A,77944402669547.0,0.4153898235368614,8.592852606612103,5.7756195,174,1970-01-01 21:39:04.402669547,-2.006836,0.64042664,0.45056152,12.497251101434037,2.1541918891831338,-93.49008178710938,9.459723472595215,-48.95869064331055,20292677.0,50354.0,0.09221628500127513,0.13794518616494583,0.1838820725272,0.0064316955370997495,0.011604301585056475,0.005000056240092665,20.29267712100409
1634,A,77944453023550.0,-3.4134065764631383,2.4864076066121044,6.339203,174,1970-01-01 21:39:04.453023550,-0.106155396,0.32260132,0.5950165,19.033764000041437,0.6851169353022221,-93.49837493896484,9.488436698913574,-48.97684860229492,20343031.0,50354.0,-0.07548106778842487,-0.21452666561165418,0.30501488608250005,0.00042134256376793105,-0.0019280919080297762,0.01230895872691642,20.34303112399357
1634,A,77944503377554.0,1.4208524235368614,9.289309606612104,4.721817,174,1970-01-01 21:39:04.503377554,-0.29100037,-0.19526672,0.18664551,11.30338201951828,0.3970476718013284,-93.51139068603516,9.498348236083984,-48.96754455566406,20393385.0,50354.0,-0.050166535908224875,-0.19699196772265415,0.27848330054,-0.0031634297182705504,-0.010360804631457882,0.014690733844594683,20.393385128001682
1634,A,77944553731558.0,3.664809923536861,2.170642606612102,3.0349731,174,1970-01-01 21:39:04.553731558,-0.7614746,1.9942627,-0.70584106,17.680909649182507,2.248363601608595,-93.56571960449219,9.456966400146484,-49.06623458862305,20443739.0,50354.0,0.12804172091227511,-0.20494198312765421,0.19529270434770002,0.0019606635328469732,-0.010119491080558214,0.011928258475057624,20.443739131995244
1634,A,77944604085562.0,1.6153867235368613,16.569033906612102,-5.950989,174,1970-01-01 21:39:04.604085562,-1.4547577,1.0398102,-0.8127136,6.673154893369395,1.9641865016739857,-93.64665222167969,9.413138389587402,-49.11624526977539,20494093.0,50354.0,0.13293951098337511,-0.02166036442655426,-0.0734165323143,0.006570724475436787,-0.005705167304372307,0.0030684763832849126,20.494093136003357
1634,A,77944654439566.0,-5.751373476463138,5.437731606612104,0.6978302,174,1970-01-01 21:39:04.654439566,-1.2608948,2.0527496,-0.04586792,16.201228108570714,2.409510423935187,-93.72665405273438,9.404250144958496,-49.21992111206055,20544447.0,50354.0,-0.10413173847842488,0.0605951353264458,-0.1322587791076,0.000725293288357132,0.0009802607269465695,-0.005178287315669176,20.54444713999692
1634,A,77944704793570.0,5.263839523536861,13.043582206612104,-2.5834808,174,1970-01-01 21:39:04.704793570,-1.2005005,0.95925903,-0.13739014,7.617954489174944,1.542807631464795,-93.7945327758789,9.394248962402344,-49.26797866821289,20594801.0,50354.0,-0.012274642332824888,-0.028165162124454152,-0.0474750251562,-0.0029307634496848357,0.0008164894353065437,-0.004525157989949693,20.594801144005032
1634,A,77944755147574.0,-0.6107484764631388,9.610675606612103,-1.1261749,174,1970-01-01 21:39:04.755147574,-0.5632019,1.089325,-0.64538574,10.373520370121115,1.385766246227681,-93.89683532714844,9.518424987792969,-49.33169937133789,20645155.0,50354.0,0.11715087329217512,0.07689704896354584,-0.0933980015589,0.002640468866863561,0.0012269227149478115,-0.0035467601936060725,20.645155147998594
1634,A,77944805501578.0,-0.03739947646313846,11.150027606612104,-2.960968,174,1970-01-01 21:39:04.805501578,-1.1404114,0.96751404,-0.34358215,9.167025985766664,1.5344934905843375,-93.96173095703125,9.497969627380371,-49.37943649291992,20695509.0,50354.0,-0.016318421010824882,0.02922302479934584,-0.1029019967933,0.002538658651087555,0.002671785097128324,-0.0049422450585133405,20.695509152006707
1634,A,77944855855582.0,1.0002439235368614,10.872531606612103,-0.28527832,174,1970-01-01 21:39:04.855855582,-1.2576447,0.5597992,-0.5749512,8.745320537757506,1.4918492611990564,-93.97688293457031,9.429443359375,-49.39712905883789,20745863.0,50354.0,0.024241534643975125,0.06099277331134584,-0.08173074359864001,0.0001994802319418237,0.0022713631490328843,-0.004648498504847874,20.74586315600027
1634,A,77944906209586.0,-0.14921587646313883,9.544833606612103,-0.08248901,174,1970-01-01 21:39:04.906209586,-0.9488678,0.5322113,-0.8271942,10.259861389986927,1.3666928017071613,-93.94192504882812,9.483826637268066,-49.40697479248047,20796217.0,50354.0,0.021426333141175116,0.020578803973345813,-0.009259278067409999,0.0011497799072267276,0.0020537276012966817,-0.002290855775486141,20.79621715999383
1634,A,77944956563589.0,0.05017072353686114,8.163500606612104,1.4187775,174,1970-01-01 21:39:04.956563589,-0.08934021,0.68063354,-0.46290588,11.655822686451167,0.8279646989059075,-93.95178985595703,9.458395957946777,-49.43977737426758,20846571.0,50354.0,-0.0024936598152248937,-0.04762646951365418,0.03364373531273,0.00047666791632744877,-0.0006809790753083437,0.0006139274800654218,20.84657116299786
1634,A,77945006917593.0,-0.6264040764631384,7.637057606612103,1.6924591,174,1970-01-01 21:39:05.006917593,0.860199,0.113220215,-0.08534241,12.342535423404563,0.8718052899760671,-93.90967559814453,9.453747749328613,-49.44520568847656,20896925.0,50354.0,-0.014507827126624885,-0.09565854586565418,0.0783316038782,-0.0004280464367349519,-0.003607486832204847,0.002819203114810045,20.896925167005975
1634,A,77945057271597.0,0.0757444235368614,7.497164606612104,1.6846771,174,1970-01-01 21:39:05.057271597,2.5009613,-1.3020172,0.40386963,12.335449693175356,2.848362141868528,-93.77400970458984,9.478259086608887,-49.3807258605957,20947279.0,50354.0,-0.013863958081724878,-0.11243488733765417,0.0850261581074,-0.000714316436190622,-0.005239168367759695,0.0041128583735114506,20.947279170999536
1634,A,77945107625601.0,0.09851052353686152,5.509371606612103,-4.4490356,174,1970-01-01 21:39:05.107625601,3.2827606,-1.7632141,0.82936096,14.85952469960243,3.81749665636046,-93.5956039428711,9.52530574798584,-49.294227600097656,20997633.0,50354.0,0.004387216802475122,-0.16600363775965418,-0.0695982539545,-0.00023859591518767112,-0.007010246746374934,0.0003884283428575631,20.997633174993098
1634,A,77945157979605.0,1.7517850535368613,4.252688606612104,-3.1124268,174,1970-01-01 21:39:05.157979605,2.201706,0.22180176,1.1494293,15.59656930013129,2.4935703412724473,-93.48798370361328,9.581984519958496,-49.30905532836914,21047987.0,50354.0,0.04658489174398512,-0.24768981001165422,-0.1903749388448,0.0012833247768742296,-0.010415559934538233,-0.0065453450751079756,21.04798717900121
1634,A,77945208333609.0,0.9556577235368613,10.437762606612104,-0.5695343,174,1970-01-01 21:39:05.208333609,1.763031,-1.8250275,1.5014801,9.195084614059812,2.94846505378871,-93.38760375976562,9.619427680969238,-49.22167205810547,21098341.0,50354.0,0.06816528679838511,-0.12360770980465417,-0.0927007346147,0.0028890652451612556,-0.009348157656415196,-0.007126996230689833,21.098341182994773
1634,A,77945258687613.0,1.2168424235368613,13.181964206612104,-2.5198517,174,1970-01-01 21:39:05.258687613,1.3318176,-1.7413635,0.97465515,6.900912872418301,2.3991743621970314,-93.30674743652344,9.673160552978516,-49.13639831542969,21148695.0,50354.0,0.05469703620287511,0.10120466197654586,-0.077781471322,0.003093304706202729,-0.000564041535168283,-0.004292230498868296,21.148695187002886
1634,A,77945309041617.0,3.1599271235368613,15.612704606612104,-2.6734772,174,1970-01-01 21:39:05.309041617,0.40940857,-1.7665253,0.6088104,4.834972099390785,1.9128191539917452,-93.27149200439453,9.708619117736816,-49.048702239990234,21199049.0,50354.0,0.11019392688667512,0.2314941767105459,-0.1307524417153,0.004151459777705606,0.00837635866162491,-0.005250258328540103,21.199049190996448
1634,A,77945359395621.0,3.4712522235368612,16.183307006612104,-0.8865051,174,1970-01-01 21:39:05.359395621,-0.6889801,-0.7344971,0.25816345,3.682158535693803,1.0396287486503644,-93.2998046875,9.723614692687988,-49.01226043701172,21249403.0,50354.0,0.16695320242127512,0.3070589843861458,-0.08962967436710001,0.006977733274586264,0.013559152936931409,-0.005548560536606586,21.24940319500456
1634,A,77945409749625.0,2.1961667685368615,13.954394606612103,3.2022552,174,1970-01-01 21:39:05.409749625,-1.472992,-0.15359497,0.040252686,6.428541647505459,1.4815252699847936,-93.37214660644531,9.726069450378418,-49.004600524902344,21299757.0,50354.0,0.14268860796344013,0.2653077135161458,0.05830364026770001,0.007795851860055977,0.014410476353085998,-0.0007886955605205938,21.299757198998122
1634,A,77945460103629.0,-2.7198031764631385,6.749804606612104,7.8763733,174,1970-01-01 21:39:05.460103629,-1.4001465,0.20646667,0.2645111,15.801035797332966,1.4397933286782338,-93.4440689086914,9.738658905029297,-49.0158576965332,21350111.0,50354.0,-0.013183593842359877,0.02780042359134583,0.27892662974450005,0.003260547740526438,0.007379583567955317,0.008490446508097162,21.350111203006236
1634,A,77945510457632.0,-3.3780824764631388,5.114169606612103,6.077301,174,1970-01-01 21:39:05.510457632,-0.5678711,0.4222412,0.39834595,16.61251411764797,0.8120620130716942,-93.47628021240234,9.757266998291016,-49.038455963134766,21400465.0,50354.0,-0.1535264670837249,-0.1947699212336542,0.3513116578511,-0.0041972592039360365,-0.004203791042140398,0.015867509366794423,21.400465205995715
1634,A,77945560811636.0,1.9454496035368614,6.416537606612103,5.190735,174,1970-01-01 21:39:05.560811636,-0.8474426,0.58506775,-0.03274536,14.104643825246,1.0303084445865482,-93.5236587524414,9.753847122192383,-49.06798553466797,21450819.0,50354.0,-0.03606939784166489,-0.20316058449265423,0.283695342372,-0.004773455091226539,-0.010018696342671267,0.015987571244616992,21.45081921000383
1634,A,77945611165640.0,5.011688023536861,6.054049606612104,0.07421875,174,1970-01-01 21:39:05.611165640,-1.1343079,1.6630096,-0.9172363,13.76216961887284,2.2121432529861758,-93.59410858154297,9.702914237976074,-49.149295806884766,21501173.0,50354.0,0.17515985403683512,-0.1794972257326542,0.13255574056375,0.0035018804156258013,-0.00963417568804259,0.010479953515073378,21.50117321399739
1634,A,77945661519644.0,-2.0545656764631386,13.079089606612104,-4.1276245,174,1970-01-01 21:39:05.661519644,-0.83288574,0.7773285,-0.8158417,8.766440757628862,1.4012622639129648,-93.64192962646484,9.659747123718262,-49.18602752685547,21551527.0,50354.0,0.0744514693322751,-0.011754154028654153,-0.10205259656775,0.006284464288464089,-0.0048151359882504605,0.000767977656387292,21.551527218005504
1634,A,77945711873648.0,-2.487823676463139,7.596972606612104,-1.2291412,174,1970-01-01 21:39:05.711873648,-1.0849915,1.7978973,0.035003662,12.883219571439614,2.10020630243149,-93.71146392822266,9.655734062194824,-49.27714920043945,21601881.0,50354.0,-0.11436373673862489,0.027092018342345852,-0.1348672900289,-0.0010048711564896687,0.0003861614098258159,-0.005964931984843857,21.601881221999065
1634,A,77945762227652.0,5.1231992235368615,11.014743606612104,-1.7289429,174,1970-01-01 21:39:05.762227652,-0.70040894,1.0534515,-0.3938141,9.16188176532929,1.324923503996734,-93.75518798828125,9.632654190063477,-49.32915496826172,21652235.0,50354.0,0.06635085014867512,-0.024882020899654165,-0.0744756833857,-0.0012088204456751656,5.564110561464861e-05,-0.005270628041659385,21.652235225992627
1634,A,77945812580422.0,-0.5935976764631388,10.040240606612103,-2.9437103,174,1970-01-01 21:39:05.812580422,-0.4261322,1.1897125,-0.67640686,10.323481318086227,1.4333634308116519,-93.78618621826172,9.595000267028809,-49.38711166381836,21702587.0,50352.0,0.11403724854912804,0.03663068255213261,-0.11763871696320001,0.004541450772815892,0.0002957843057627973,-0.004836672143183907,21.70258799599833
1634,A,77945862934426.0,-0.08598347646313886,10.980654606612104,-2.51062,174,1970-01-01 21:39:05.862934426,-1.0190277,0.7296753,-0.44091797,9.200990086668318,1.3286279212278738,-93.8430404663086,9.570576667785645,-49.422542572021484,21752942.0,50355.0,-0.017110154477801353,0.03577458923095245,-0.13732640112824998,0.0024403819109808274,0.001822983730318624,-0.006419384260747482,21.752942000006442
1634,A,77945913288430.0,1.0671384235368613,11.258532606612103,-0.5187073,174,1970-01-01 21:39:05.913288430,-1.1705933,0.48265076,-0.65060425,8.365223406684464,1.4235611403278503,-93.89884948730469,9.49416732788086,-49.443641662597656,21803296.0,50354.0,0.02470253810247511,0.06644681646734583,-0.0762693734321,0.00019115344251841121,0.002573628331266056,-0.005377700816105932,21.803296004000003
1634,A,77945963642434.0,-0.43684417646313856,9.192187606612103,0.45031738,174,1970-01-01 21:39:05.963642434,-0.727005,0.586792,-0.8121338,10.680286164949845,1.2379105098477192,-93.78295135498047,9.574807167053223,-49.4445915222168,21853650.0,50354.0,0.01586891825857512,0.02141858280834582,-0.0017218530158399999,0.0010214675568021617,0.0022121871575640885,-0.0019635851082797856,21.853650007993565
1634,A,77946013996438.0,-1.4001924764631388,7.390856606612104,1.0566559,174,1970-01-01 21:39:06.013996438,0.020599365,0.4973755,-0.47769165,12.708273330120024,0.6899246584362497,-93.78584289550781,9.549331665039062,-49.468162536621094,21904004.0,50354.0,-0.04625107181072489,-0.07595789584365417,0.03794106627056,-0.0007649314799824748,-0.0013731362842899584,0.0009118911321140856,21.90400401200168
1634,A,77946064350441.0,-1.5620119764631388,6.954760606612103,1.825119,174,1970-01-01 21:39:06.064350441,1.0954132,-0.4113617,0.09098816,13.254701052093973,1.1736385185487548,-93.72767639160156,9.555218696594238,-49.447654724121094,21954358.0,50354.0,-0.07457942151132489,-0.13228959542265417,0.0725544466573,-0.0030421493303692477,-0.0052430470876118455,0.0027819455289847315,21.95435801500571
1634,A,77946114704445.0,-0.7289735764631384,7.315005606612104,-0.18489075,174,1970-01-01 21:39:06.114704445,2.7417297,-1.9127502,0.6044464,12.564400299678951,3.3972121696966604,-93.50421905517578,9.691327095031738,-49.340877532958984,22004712.0,50354.0,-0.057680143266024886,-0.1341992960496542,0.04129602665025,-0.003329899062399336,-0.006709390820598308,0.002866413366464186,22.00471201899927
1634,A,77946165058449.0,1.7260434735368613,5.491717606612104,-2.4060974,174,1970-01-01 21:39:06.165058449,3.0993042,-1.2393646,0.8768921,14.249919166203476,3.451181086369304,-93.4966049194336,9.547616958618164,-49.307369232177734,22055066.0,50354.0,0.025103228798625123,-0.17103432966065416,-0.06523330865255,-0.0008201889755457239,-0.007684866994508433,-0.0006026689489719072,22.055066022992833
1634,A,77946215412453.0,1.9349210435368613,7.088687606612103,0.45204163,174,1970-01-01 21:39:06.215412453,2.2662811,-0.5226593,1.304779,12.451210010751094,2.666767895212236,-93.23854064941406,9.409442901611328,-49.26186752319336,22105420.0,50354.0,0.09217210364636512,-0.1767323379466542,-0.049197262121290004,0.0029526410449675195,-0.008755721390349202,-0.00288101848037297,22.105420027000946
1634,A,77946265766457.0,0.4486387235368614,11.428607606612104,-0.15084839,174,1970-01-01 21:39:06.265766457,1.7980499,-1.728302,1.4024963,8.291397717611813,2.8612946575995455,-93.08108520507812,9.55637264251709,-49.16941452026367,22155774.0,50354.0,0.06001088425561512,-0.027259258416654178,0.007583142203480001,0.0038315110864081564,-0.005135896421639015,-0.0010477186971707025,22.155774030994507
1634,A,77946316120461.0,2.3592374435368613,14.057879606612104,-1.6222534,174,1970-01-01 21:39:06.316120461,1.2915802,-1.9985504,0.78941345,5.708006386183648,2.507101256314372,-93.0000228881836,9.60108757019043,-49.070343017578125,22206128.0,50354.0,0.07069389825841511,0.14820408856734588,-0.04464138376683,0.0032907543093557393,0.003045027988703965,-0.000933015347840463,22.20612803500262
1634,A,77946366474465.0,3.217681623536861,15.316226306612103,-0.61842346,174,1970-01-01 21:39:06.366474465,0.36242676,-1.7230835,0.39248657,4.374288613868718,1.803999892451968,-92.96749877929688,9.62516975402832,-48.984107971191406,22256482.0,50354.0,0.14041009135171512,0.2460826645772459,-0.05641352130422,0.005314965146414248,0.009926957583921387,-0.002544259344973826,22.256482038996182
1634,A,77946416828469.0,2.7041928935368613,15.751635806612104,0.6092682,174,1970-01-01 21:39:06.416828469,-0.70332336,-0.6743469,0.30628967,3.857081870399212,1.0213818346779076,-92.99708557128906,9.642221450805664,-48.95077133178711,22306836.0,50354.0,0.14909503471636512,0.2887263644246458,-0.00023050198101999997,0.007288870559016056,0.013464886923180626,-0.0014261265742524876,22.306836043004296
1634,A,77946467182473.0,2.1008908935368615,13.861041406612102,2.0102081,174,1970-01-01 21:39:06.467182473,-1.7502289,0.42193604,0.24845886,6.014523947997345,1.8174330880003784,-93.08828735351562,9.653504371643066,-48.97280502319336,22357190.0,50354.0,0.12097759450715515,0.25208917419734583,0.0659505548051,0.00679961858596057,0.013616112815885883,0.0016546337699518622,22.357190046997857
1634,A,77946517536477.0,-1.1284791764631388,5.487109606612103,6.1430206,174,1970-01-01 21:39:06.517536477,-1.6907654,1.1726837,0.33190918,15.686583140894399,2.0842356876925225,-93.18293762207031,9.666868209838867,-49.033103942871094,22407544.0,50354.0,0.02448240980076512,-0.006340801940054217,0.2052738389799,0.003662246528460509,0.006187206768321831,0.006828616562324946,22.40754405100597
1634,A,77946567890480.0,-0.9110414764631387,4.653750606612103,7.8212433,174,1970-01-01 21:39:06.567890480,-0.5536194,0.58432007,0.3493805,17.09372851454528,0.8774913777590153,-93.21576690673828,9.68267822265625,-49.06369400024414,22457898.0,50354.0,-0.05134901147872489,-0.2381527624116542,0.35157827221029997,-0.0006764204304459933,-0.006155614469682963,0.014019865603435665,22.45789805399545
1634,A,77946618244484.0,3.5893094235368617,3.697833606612104,5.407257,174,1970-01-01 21:39:06.618244484,-0.5777283,0.9698334,-0.36302185,16.785204224680275,1.1858042317152828,-93.25273895263672,9.661823272705078,-49.11177062988281,22508252.0,50354.0,0.06743075210347513,-0.28320136426365417,0.3330539520531,0.00040488998370933666,-0.01312613284730424,0.017236985510279624,22.508252058003563
1634,A,77946668598488.0,2.3811795835368614,8.495547606612103,-2.6994476,174,1970-01-01 21:39:06.668598488,-1.0600128,1.2293091,-1.0162811,11.359692906648817,1.9151123397137464,-93.3156509399414,9.607566833496094,-49.171051025390625,22558606.0,50354.0,0.15031900173109514,-0.1864764411946542,0.06817451726380001,0.005482285552292976,-0.01182507810802383,0.010101729171991593,22.558606061997125
1634,A,77946718952492.0,-2.7347871764631386,10.364703606612103,-3.3955078,174,1970-01-01 21:39:06.718952492,-1.0884094,1.5640106,-0.43281555,10.954115124393063,1.953994237259292,-93.38304138183594,9.581396102905273,-49.248939514160156,22608960.0,50354.0,-0.008902778367104881,-0.018624655204654197,-0.1534526921058,0.003560436255635183,-0.005163830304045388,-0.002147048607997034,22.60896006600524
1634,A,77946769306496.0,1.1676633235368614,9.939273606612103,-0.98568726,174,1970-01-01 21:39:06.769306496,-1.115036,1.5669098,-0.15180969,9.696399850903559,1.9291339467776558,-93.51448059082031,9.484644889831543,-49.33810806274414,22659314.0,50354.0,-0.03945547724512488,0.0177240342973458,-0.11030534802561999,-0.0012175158015491087,-2.2674932583303496e-05,-0.006640636176388762,22.6593140699988
1634,A,77946819660500.0,1.7825315235368613,10.748751606612103,-1.6938477,174,1970-01-01 21:39:06.819660500,-0.66386414,1.2536011,-0.5234833,8.952101917068806,1.5120403697249751,-93.74458312988281,9.28873348236084,-49.4302864074707,22709668.0,50354.0,0.07427705566477513,0.0273932107933458,-0.06746265168792,0.0008767028798715344,0.0011359168796483425,-0.0044756649287877965,22.709668074006913
1634,A,77946870014504.0,-0.1372835764631386,10.205630606612104,-2.5803528,174,1970-01-01 21:39:06.870014504,-0.6684723,1.2232056,-0.48260498,9.955005564036506,1.4751253243231404,-93.78772735595703,9.260639190673828,-49.49053192138672,22760022.0,50354.0,0.041422407563475115,0.034099280982345825,-0.10761154598850001,0.002912965385697657,0.001548196465436588,-0.004407843074899227,22.760022078000475
1634,A,77946920368508.0,0.7174070235368613,11.036639606612104,-2.335022,174,1970-01-01 21:39:06.920368508,-0.99279785,0.975296,-0.48962402,8.93329897730047,1.4753242150597214,-93.84501647949219,9.232964515686035,-49.538169860839844,22810376.0,50354.0,0.014605768026975116,0.041347437158345844,-0.12375439133960002,0.0014106213768407655,0.0018995220226281945,-0.0058251002041095745,22.810376081994036
1634,A,77946970722512.0,0.3791349235368613,10.423800606612103,-0.918808,174,1970-01-01 21:39:06.970722512,-1.0844269,0.85505676,-0.7800598,9.33307752675394,1.5860633832988351,-93.95336151123047,9.24382209777832,-49.586387634277344,22860730.0,50354.0,0.027607636601475114,0.046840303248345816,-0.08192167791,0.0010628068883304915,0.002220302740219276,-0.00517830639549718,22.86073008600215
1634,A,77947021076516.0,-0.8209231764631388,8.787066606612104,0.48332214,174,1970-01-01 21:39:07.021076516,-0.5857239,0.8336334,-0.80033875,11.172372776189093,1.2955922380820026,-93.83012390136719,9.365038871765137,-49.600074768066406,22911084.0,50354.0,-0.01112290284392489,-0.009797196172654185,-0.01096422749722,0.00041503614181384206,0.0009326343068446883,-0.002338588440437578,22.91108408999571
1634,A,77947071430520.0,-2.2472231764631387,6.754412606612103,0.1743927,174,1970-01-01 21:39:07.071430520,0.041625977,0.5046692,-0.44252014,13.531762479941566,0.6724937157293474,-93.83195495605469,9.341275215148926,-49.62409973144531,22961438.0,50354.0,-0.0772467207276249,-0.10218137784865418,0.01655928652668,-0.0022248820126609093,-0.002819284558134481,0.00014086680118471448,22.961438094003825
1634,A,77947121784523.0,-1.5689394764631386,6.3404266066121036,0.8540039,174,1970-01-01 21:39:07.121784523,1.10495,-0.44070435,0.0023956299,13.74642365309892,1.1895968080200705,-93.58988189697266,9.510089874267578,-49.571739196777344,23011792.0,50354.0,-0.09607952711272488,-0.1637804331286542,0.0258919411982,-0.004363834941876487,-0.006696120514975693,0.0010687945604293037,23.011792096993304
1634,A,77947172138527.0,0.22216772353686132,7.734622606612103,-1.5149994,174,1970-01-01 21:39:07.172138527,2.7593384,-1.5251923,0.37039185,12.05646114165933,3.1744842227108756,-93.53254699707031,9.533751487731934,-49.51113510131836,23062146.0,50354.0,-0.033907672423424885,-0.13910168595865421,-0.0166418837035,-0.0032726877227216428,-0.007625663112261165,0.00023288869754406187,23.062146101001417
1634,A,77947222492531.0,2.937087793536861,5.370211606612104,-2.007965,174,1970-01-01 21:39:07.222492531,2.9020233,-0.40875244,0.7884369,14.318322863617025,3.034872408558629,-93.38440704345703,9.57433795928955,-49.492855072021484,23112500.0,50354.0,0.07954057615336511,-0.1635287890136542,-0.08869767469880001,0.0011488996172087053,-0.00761932746837781,-0.0026521340618947077,23.11250010499498
1634,A,77947272846535.0,1.2871396735368612,7.735644606612103,-0.22038269,174,1970-01-01 21:39:07.272846535,2.3339539,-1.6277313,1.1348419,11.831313217103776,3.063448405036473,-93.19618225097656,9.50892448425293,-49.404258728027344,23162854.0,50354.0,0.10635337493851513,-0.16350305811965418,-0.05610310979113001,0.004680252006640268,-0.008233680815275304,-0.003645649351102968,23.162854109003092
1634,A,77947323200539.0,2.392349023536861,11.175891606612103,-1.6858368,174,1970-01-01 21:39:07.323200539,2.1172638,-1.776947,0.8843384,8.522979827019228,2.9021373236485553,-93.07582092285156,9.55793571472168,-49.316749572753906,23213208.0,50354.0,0.09263848692622512,-0.017333452759654196,-0.04799288809973,0.005010018106168565,-0.004552920834408347,-0.0026208249388981826,23.213208112996654
1634,A,77947373554543.0,3.354003723536861,14.384036306612103,-2.2078857,174,1970-01-01 21:39:07.373554543,1.3538208,-1.7429504,0.49319458,5.713267905326074,2.261403933204808,-92.9936752319336,9.587176322937012,-49.229820251464844,23263562.0,50354.0,0.14467592311307512,0.1500531050712458,-0.0980322513825,0.005974864901559462,0.003341482686248942,-0.003676474936744105,23.263562117004767
1634,A,77947423908547.0,3.0752408635368615,15.459704606612103,-1.1863556,174,1970-01-01 21:39:07.423908547,0.1940918,-1.3155518,0.08924866,4.324982239185937,1.3327841117834034,-92.972900390625,9.595054626464844,-49.16343307495117,23313916.0,50354.0,0.16186909096875512,0.2579066649722458,-0.0854568132101,0.007717883819538239,0.010271203130384989,-0.0046197041792478905,23.31391612099833
1634,A,77947474262551.0,3.0015409235368615,15.817645406612103,0.63775635,174,1970-01-01 21:39:07.474262551,-0.9508667,0.030395508,0.36068726,3.846880771316649,1.017431406828871,-93.02086639404297,9.612988471984863,-49.165931701660156,23364270.0,50354.0,0.15299513505315512,0.2940006412829458,-0.01381208331725,0.007927336618553634,0.01389537024958696,-0.002499293007869091,23.364270125006442
1634,A,77947524616555.0,1.6739347235368613,12.108599906612103,2.6261597,174,1970-01-01 21:39:07.524616555,-1.8507843,0.9034424,0.5233154,7.889480254378547,2.1249634592438076,-93.12128448486328,9.636693954467773,-49.21310043334961,23414624.0,50354.0,0.11771445036637514,0.20962987825104576,0.08217561439085001,0.006815655232107514,0.012679905590307305,0.0017211886218400278,23.414624129000003
1634,A,77947574970559.0,-3.162246976463139,2.577929606612102,8.060577,174,1970-01-01 21:39:07.574970559,-0.7744446,0.66000366,0.37982178,19.524267112660723,1.0861095038001114,-93.16578674316406,9.653849601745605,-49.24758529663086,23464978.0,50354.0,-0.037471237591924896,-0.12370644644555424,0.26905996989590003,0.002020283368022334,0.00216329424256686,0.008843058305587508,23.464978132993565
1634,A,77947625324563.0,1.3906400235368612,9.384722606612103,6.330826,174,1970-01-01 21:39:07.625324563,-0.029464722,0.04925537,0.25505066,11.985585088571892,0.261428958768553,-93.16780090332031,9.666444778442383,-49.25079345703125,23515332.0,50354.0,-0.0446037482538249,-0.19228550522765425,0.36233235333100006,-0.0020664019186384425,-0.00795572936727637,0.015896564521883663,23.51533213700168
1634,A,77947675678566.0,2.886047123536861,2.538897606612103,3.5126343,174,1970-01-01 21:39:07.675678566,-0.72076416,2.0479736,-0.75479126,17.36201718907302,2.29856622415145,-93.2208480834961,9.623056411743164,-49.35235595703125,23565686.0,50354.0,0.10767415230187513,-0.19326821389165422,0.24782879997310003,0.0015879235627177606,-0.00970708598626683,0.015362027356737327,23.56568614000571
1634,A,77947726032570.0,1.6980588635368612,15.476580906612103,-6.894272,174,1970-01-01 21:39:07.726032570,-1.2233887,1.8166656,-0.97943115,8.01345049425101,2.399216370213694,-93.29688262939453,9.568999290466309,-49.441505432128906,23616040.0,50354.0,0.11541403643655511,-0.0398934974725542,-0.0851394923729,0.005616691327867458,-0.0058703124070166755,0.004096028697450236,23.61604014399927
1634,A,77947776386574.0,-4.1496431764631385,7.742770606612103,-0.3232422,174,1970-01-01 21:39:07.776386574,-1.3791656,2.0118866,-0.011734009,13.397785288316344,2.4392464267576845,-93.38275909423828,9.562553405761719,-49.543312072753906,23666394.0,50354.0,-0.06172353824654489,0.0911244130484458,-0.18171535501340003,0.0013517656729298874,0.001289840761454223,-0.006718604492644877,23.666394147992833
1634,A,77947826740578.0,3.9203489235368614,11.175006606612104,-0.9660797,174,1970-01-01 21:39:07.826740578,-1.2378235,1.3397064,-0.0715332,8.58068792975798,1.8254142691606885,-93.45587158203125,9.554988861083984,-49.610897064208984,23716748.0,50354.0,-0.00577294140592488,-0.01717632310265417,-0.0324612574763,-0.0016993588682102316,0.001861791060565196,-0.005392324572653178,23.716748152000946
1634,A,77947877094582.0,0.06333902353686138,10.171389606612104,-0.2089386,174,1970-01-01 21:39:07.877094582,-0.3640442,1.2319183,-0.5809021,9.603340870905104,1.4098220196935995,-93.43037414550781,9.60700511932373,-49.662532806396484,23767102.0,50354.0,0.10029731144347512,0.043969017460345865,-0.029583435739100005,0.0023798400644354026,0.0006745596658436038,-0.001562099241084126,23.767102155994507
1634,A,77947927448586.0,0.39326452353686125,11.072894606612103,-2.3174744,174,1970-01-01 21:39:07.927448586,-0.7055664,1.0830841,-0.41079712,8.954484787968724,1.356336752536797,-93.4745864868164,9.583246231079102,-49.71610641479492,23817456.0,50354.0,0.011495907504675116,0.04139814363634582,-0.06360750010100001,0.0028146178734575786,0.0021492890149314063,-0.0023462681916461984,23.81745616000262
1634,A,77947977802590.0,1.1154478235368614,10.884783606612103,-0.9358978,174,1970-01-01 21:39:07.977802590,-1.0277863,0.5491791,-0.49645996,8.763383756365224,1.2666549862640977,-93.59832763671875,9.4974365234375,-49.75360870361328,23867810.0,50354.0,0.03798485076227512,0.0593592643743458,-0.08191015187940001,0.001245777050887006,0.0025367692614851832,-0.003663697923910531,23.867810163996182
1634,A,77948028156594.0,0.26469402353686133,10.156985606612103,-0.76828,174,1970-01-01 21:39:08.028156594,-1.0756836,0.5946655,-0.8403168,9.602870758715513,1.4889105374606797,-93.68363189697266,9.508946418762207,-49.78547668457031,23918164.0,50354.0,0.03474783128377512,0.036299423481345815,-0.04290608447060001,0.001831190735873407,0.002408398784142748,-0.0031424983825839507,23.918164168004296
1634,A,77948078510598.0,-0.8399812764631385,8.291873606612103,0.963089,174,1970-01-01 21:39:08.078510598,-0.5371399,0.5178833,-0.70835876,11.683977510723556,1.028831627361658,-93.71444702148438,9.471931457519531,-49.80937194824219,23968518.0,50354.0,-0.01448400716692488,-0.02898227158865418,0.0049047061930000005,0.0005101822997899385,0.00018422393320229727,-0.0009567607008951354,23.968518171997857
1634,A,77948128864602.0,-1.3317415764631386,6.693270606612103,-0.2935791,174,1970-01-01 21:39:08.128864602,0.2612152,0.45315552,-0.43649292,13.319183401956488,0.681255734087895,-93.64619445800781,9.597757339477539,-49.82111740112305,24018872.0,50354.0,-0.054677466268124884,-0.1161882241436542,0.0168562507523,-0.001741278416674248,-0.0036549575710523286,0.0005478756130118181,24.01887217600597
1634,A,77948179218605.0,-1.7153780764631388,6.311145106612104,1.1939545,174,1970-01-01 21:39:08.179218605,1.4910126,-0.7718353,-0.07316589,13.840622564168756,1.680536090402209,-93.5650863647461,9.596532821655273,-49.781822204589844,24069226.0,50354.0,-0.0767173315017249,-0.1660570255881542,0.022668751445800002,-0.003308126823451508,-0.007106088652497741,0.0009951209803415637,24.06922617899545
1634,A,77948229572609.0,-1.6329958764631387,8.207370106612103,-3.0139923,174,1970-01-01 21:39:08.229572609,3.4065857,-2.030243,0.33807373,12.330861196269108,3.980076207487691,-93.37779998779297,9.619550704956055,-49.68009948730469,24119580.0,50354.0,-0.08430201101282489,-0.12793654247665417,-0.045823091690600004,-0.004053983986488821,-0.00740187606316768,-0.0005829568243433296,24.119580183003563
1634,A,77948279926613.0,3.0022580735368614,5.1965666066121035,-1.7091827,174,1970-01-01 21:39:08.279926613,2.7819977,-0.3999939,0.9524994,14.455085739058168,2.967618814781113,-93.23577117919922,9.668251991271973,-49.662635803222656,24169934.0,50354.0,0.034473914335725116,-0.1559982853711542,-0.11891537697499999,-0.001254521990039341,-0.007148627160724272,-0.004147620425593811,24.169934186997125
1634,A,77948330280617.0,1.7920530035368614,8.419558606612103,0.076797485,174,1970-01-01 21:39:08.330280617,2.234146,-2.1105652,1.3187561,11.117270345229452,3.3444000155564897,-93.01493072509766,9.55345630645752,-49.54433059692383,24220288.0,50354.0,0.12070636998748513,-0.1506560155066542,-0.041098562558055,0.003906974018405464,-0.0077206353332005834,-0.004028670955623726,24.22028819100524
1634,A,77948380634621.0,2.7551114735368616,12.811648606612103,-1.9763641,174,1970-01-01 21:39:08.380634621,1.9476624,-1.3114014,1.0343018,7.022551236296438,2.5657245896196574,-92.90692901611328,9.60848617553711,-49.480621337890625,24270642.0,50354.0,0.11448396003928514,0.041068904007345794,-0.047825388665855006,0.005921386939083995,-0.0027590747062180877,-0.002238838319964382,24.2706421949988
1634,A,77948430988625.0,3.781997423536861,15.138675006612104,-1.4515991,174,1970-01-01 21:39:08.430988625,0.9713898,-1.5037842,0.86834717,4.882427252154478,1.9897215562386332,-92.84600067138672,9.655625343322754,-49.406673431396484,24320996.0,50354.0,0.16458479070162513,0.21023609761014583,-0.0863058294864,0.007026113937403898,0.006327106025723587,-0.0033770216794193246,24.320996199006913
1634,A,77948481342629.0,3.3509061235368613,15.581546106612103,-1.0768585,174,1970-01-01 21:39:08.481342629,-0.33067322,-0.9655304,0.22621155,4.246412162631342,1.0453541969604039,-92.85443115234375,9.669323921203613,-49.358333587646484,24371350.0,50354.0,0.1795851126046751,0.2799738069676459,-0.0636589769952,0.008665165655542722,0.012342014767555063,-0.003775663932787243,24.371350203000475
1634,A,77948531696633.0,2.6505124735368613,15.145205606612103,1.9921875,174,1970-01-01 21:39:08.531696633,-1.3888702,-0.2992401,0.26286316,4.834619532546213,1.4448536641408485,-92.92142486572266,9.683204650878906,-49.34383773803711,24421704.0,50354.0,0.15109771601852515,0.28013822788384585,0.023045238233000004,0.008325601576246313,0.014101940701456008,-0.0010225321008159093,24.421704206994036
1634,A,77948582050637.0,-1.2860719764631385,8.479418606612104,6.394516,174,1970-01-01 21:39:08.582050637,-2.0007782,-0.1262207,0.59898376,13.237121748764118,2.0923256475624123,-93.02064514160156,9.713443756103516,-49.339027404785156,24472058.0,50354.0,0.034352518394825116,0.10132796381634583,0.2111520340195,0.00466908055182492,0.009604174308435727,0.005896384723501193,24.47205821100215
1634,A,77948632404641.0,-3.2265474764631388,3.1938356066121045,5.7621,174,1970-01-01 21:39:08.632404641,-0.4148407,0.45072937,0.72602844,18.155459752229522,0.9499300327107889,-93.04559326171875,9.748501777648926,-49.36381530761719,24522412.0,50354.0,-0.11361421996632488,-0.19957167867365416,0.306067121032,-0.00199557186046565,-0.002473482008962452,0.013022026666731615,24.52241221499571
1634,A,77948682758645.0,1.8351133035368614,9.886111606612104,3.4633026,174,1970-01-01 21:39:08.682758645,-0.4036255,-0.70755005,0.37057495,10.252545638417484,0.8949113984483352,-93.05986785888672,9.768891334533691,-49.32897186279297,24572766.0,50354.0,-0.035032138171764884,-0.16415536901265415,0.23226796126020002,-0.0037424693588426865,-0.009157555879598185,0.013553662366870722,24.572766219003825
1634,A,77948733112648.0,6.984618823536861,5.401019606612103,4.268936,174,1970-01-01 21:39:08.733112648,-1.266861,1.5963593,-0.91874695,15.510442608011417,2.2354855772632023,-93.13646697998047,9.718708038330078,-49.40732192993164,24623120.0,50354.0,0.22205439576333513,-0.1085850974446542,0.19467457123220003,0.004708659379382965,-0.006866786723995652,0.010749132140561156,24.623120221993304
1634,A,77948783466652.0,-2.2664796764631387,11.219226606612104,-6.34079,174,1970-01-01 21:39:08.783466652,-0.53967285,-1.1726074,-1.3127136,11.371986813608572,1.8410518447851605,-93.15283203125,9.656388282775879,-49.34427261352539,24673474.0,50354.0,0.11878858930587513,-0.0750212610896542,-0.052163068158,0.008581403835087507,-0.004622657288818283,0.0035880121128991343,24.673474226001417
1634,A,77948833820656.0,-0.15301537646313879,8.863436606612103,1.494873,174,1970-01-01 21:39:08.833820656,-1.5611115,1.686966,0.18151855,11.026361181413805,2.305617571190494,-93.24531555175781,9.660743713378906,-49.43022155761719,24723828.0,50354.0,-0.06091562694752489,0.012152011719345811,-0.12200565230900001,0.001457067573296184,-0.0015828590913962545,-0.00438504587519766,24.72382822999498
1634,A,77948884174660.0,3.304046423536861,12.965716606612103,-1.6058502,174,1970-01-01 21:39:08.884174660,-1.0885773,1.0041199,0.35635376,6.8438871805778625,1.5232351472827292,-93.3084487915039,9.675662994384766,-49.48208999633789,24774182.0,50354.0,0.07933350867217512,0.056123390449345806,-0.0027940729644000003,0.0004637070081815188,0.0017189698004011489,-0.0031420826832083922,24.774182234003092
1634,A,77948934528664.0,1.0382535235368613,10.294207606612103,0.45457458,174,1970-01-01 21:39:08.934528664,-0.7976532,0.7046509,-0.39808655,9.319953629163864,1.1363346424499925,-93.20028686523438,9.594382286071777,-49.49082565307617,24824536.0,50354.0,0.10932608576747511,0.0921459119163458,-0.02898566628474,0.004749882609207075,0.003732976225661018,-0.0008001184950755979,24.824536237996654
1634,A,77948984882668.0,-0.5825501764631387,10.598651606612103,-0.59721375,174,1970-01-01 21:39:08.984882668,-0.88191223,0.88513184,-0.19090271,9.376494412954878,1.2639902690648779,-93.26699829101562,9.77566909790039,-49.53773880004883,24874890.0,50354.0,0.011473243169275116,0.0325503164113458,-0.0035912263830899997,0.0030413647046405607,0.0031394769406062916,-0.0008201884266979558,24.874890242004767
1634,A,77949035236672.0,0.37161232353686136,10.961886606612103,-1.4383087,174,1970-01-01 21:39:09.035236672,-1.1275635,0.57380676,-0.36180115,8.87973861970987,1.3158851456321217,-93.48331451416016,9.812198638916016,-49.59218215942383,24925244.0,50354.0,-0.0053107823231248845,0.04936047059434579,-0.05124834872365001,0.0001551522767235244,0.0020622678844422976,-0.0013806959824623933,24.92524424599833
1634,A,77949085590676.0,0.6499174235368614,9.032916606612103,0.5161896,174,1970-01-01 21:39:09.085590676,-1.0063171,0.71099854,-0.5532074,10.624044248540118,1.3506411281496287,-93.38172149658203,9.750188827514648,-49.59965133666992,24975598.0,50354.0,0.02571905444207512,0.009939960499345786,-0.023216192580700002,0.0005138190671388101,0.0014930069536458728,-0.0018747937564196203,24.975598250006442
1634,A,77949135944680.0,0.2633359235368613,8.670214606612104,-0.23597717,174,1970-01-01 21:39:09.135944680,-0.49360657,0.77864075,-0.4091797,11.034633391720895,1.0086411108019628,-93.35954284667969,9.738389015197754,-49.62883758544922,25025952.0,50354.0,0.02299297951927512,-0.047757465444654174,0.00705490835011,0.001226422879044915,-0.0009521313220080293,-0.0004068926530735645,25.025952254000003
1634,A,77949186298684.0,-0.6696016764631385,6.817446606612103,0.7735138,174,1970-01-01 21:39:09.186298684,0.36016846,0.46237183,-0.19406128,13.056948502342793,0.6173887018334228,-93.17649841308594,9.804449081420898,-49.62299346923828,25076306.0,50354.0,-0.010228552861424881,-0.10353635363465417,0.01353355973351,0.0003213699699646955,-0.003809124482959746,0.0005183558609413007,25.076306257993565
1634,A,77949236652688.0,-1.3911745764631385,6.606188606612104,1.7467499,174,1970-01-01 21:39:09.236652688,1.6034088,-0.5086975,0.10769653,13.528990299643125,1.6856130840135677,-93.09199523925781,9.811219215393066,-49.59752655029297,25126660.0,50354.0,-0.05188416371992488,-0.1555023362366542,0.06345267917490001,-0.0015638118653686429,-0.006521817094889931,0.001938282536997039,25.12666026200168
1634,A,77949287006691.0,-0.5792085764631385,7.267901606612103,-1.5319366,174,1970-01-01 21:39:09.287006691,3.0807037,-1.9951324,0.344635,12.66770175441471,3.686470108918347,-93.02045440673828,9.907445907592773,-49.514286041259766,25177014.0,50354.0,-0.04960833664122488,-0.14416123070165418,0.005408354454099997,-0.0025552766815926677,-0.00754462962480579,0.0017337142436773332,25.17701426500571
1634,A,77949337360695.0,3.191406023536861,5.324938606612104,0.25990295,174,1970-01-01 21:39:09.337360695,2.6598053,-0.84739685,0.6716461,14.239616789059385,2.871193852553885,-92.88037109375,9.943163871765137,-49.47309112548828,25227368.0,50354.0,0.06576729512497512,-0.1764192619516542,-0.03202599120605,0.0004068340977453797,-0.008071255063532345,-0.0006701522405038453,25.22736826899927
1634,A,77949387714699.0,3.0771634735368614,9.202471606612104,-0.036254883,174,1970-01-01 21:39:09.387714699,2.1773834,-1.9185791,0.68826294,10.36220418019061,2.9825576453992997,-92.75495910644531,9.982253074645996,-49.37751770019531,25277722.0,50354.0,0.15782377422782512,-0.12771259306165417,0.0056307873828590005,0.005629352353095452,-0.0076571277136700654,-0.0006645520466564799,25.277722272992833
1634,A,77949438068703.0,2.9910886235368612,11.730822806612103,-0.08166504,174,1970-01-01 21:39:09.438068703,1.9401398,-1.3168945,0.17741394,7.836832664722074,2.3515589028941237,-92.64644622802734,9.994217872619629,-49.311161041259766,25328076.0,50354.0,0.15278038304802513,0.03356835344174582,-0.0029688699013710003,0.00782008086773408,-0.0023702695209104323,6.701909643142338e-05,25.328076277000946
1634,A,77949488422707.0,2.4812162035368615,14.425006206612103,-0.81492615,174,1970-01-01 21:39:09.488422707,0.8877411,-0.76123047,0.28904724,5.175137661023483,1.2046179460879904,-92.595458984375,10.010393142700195,-49.273216247558594,25378430.0,50354.0,0.13777621863123513,0.1650561070659458,-0.02257347639063,0.007315343560478735,0.005000768042202152,-0.0006430796525937092,25.378430280994507
1634,A,77949538776711.0,2.6991269735368615,15.314807206612103,0.35273743,174,1970-01-01 21:39:09.538776711,-0.47843933,-0.116744995,0.24183655,4.256279441342919,0.5486515317251027,-92.61845397949219,10.022738456726074,-49.26785659790039,25428784.0,50354.0,0.13042550016918514,0.25529008230474587,-0.01163652540344,0.006752514674238181,0.010583056009785905,-0.0008613052151693005,25.42878428500262
1634,A,77949589130715.0,2.0228879635368613,13.593890606612103,3.5578766,174,1970-01-01 21:39:09.589130715,-1.6821747,0.55384827,0.50431824,6.922084713579846,1.841411554948752,-92.70767211914062,10.046640396118164,-49.297142028808594,25479138.0,50354.0,0.11888617007070514,0.23436508484354576,0.09845752943331,0.006276919921629718,0.012328048143292539,0.002185892418460037,25.479138288996182
1634,A,77949639484719.0,0.7953184235368613,8.513690606612103,7.720337,174,1970-01-01 21:39:09.639484719,-1.6046295,0.41627502,0.532547,13.52563144883659,1.7411855247948882,-92.79181671142578,10.072240829467773,-49.31955337524414,25529492.0,50354.0,0.07095398220735512,0.0631333722053458,0.28395158380720004,0.004779605513904724,0.007490118653119943,0.009627914244056322,25.529492293004296
1634,A,77949689838723.0,-0.7840121764631385,7.193881606612104,6.0746765,174,1970-01-01 21:39:09.689838723,-0.14219666,0.18386841,0.39413452,14.072383909326566,0.4575691228292334,-92.80072784423828,10.091476440429688,-49.32986068725586,25579846.0,50354.0,0.0002846573825751203,-0.09799965438765418,0.3473170548895,0.0017935752289556736,-0.000877828386503978,0.015893450516466817,25.579846296997857
1634,A,77949740192727.0,0.6225278235368614,10.139834606612103,2.7392883,174,1970-01-01 21:39:09.740192727,-0.6802521,0.4840088,0.10038757,9.908763345384271,0.8408835247775729,-92.83909606933594,10.095300674438477,-49.354671478271484,25630200.0,50354.0,-0.0040656915536248775,-0.057058226899654174,0.22190919176960003,-9.519509732451974e-05,-0.0039038922771705625,0.014331409212136163,25.63020030100597
1634,A,77949790546730.0,3.6706083235368614,4.770648606612104,1.6753998,174,1970-01-01 21:39:09.790546730,-1.4940796,1.9177856,-0.87364197,14.924005643513114,2.58329745682703,-92.93040466308594,10.046845436096191,-49.4496955871582,25680554.0,50354.0,0.10808828877487513,-0.11806796414065418,0.11114860229370001,0.0026189769302394175,-0.004409152111821844,0.008385396081131705,25.68055430399545
1634,A,77949840900734.0,0.6769864235368614,14.437701606612103,-4.172043,174,1970-01-01 21:39:09.840900734,-1.805069,1.5610809,-0.6747284,6.759002208137675,2.4800213879868798,-93.03413391113281,10.009093284606934,-49.52706527709961,25730908.0,50354.0,0.10945939294707513,-0.009860566681654167,-0.06285798584640001,0.005477197982713542,-0.0032208566205132573,0.0012158128502936722,25.730908308003563
1634,A,77949891254738.0,-2.603561576463139,6.082644606612103,2.0877838,174,1970-01-01 21:39:09.891254738,-1.2605743,1.9740295,0.034988403,14.434574883281975,2.3424483390323108,-93.11457061767578,10.005549430847168,-49.62724685668945,25781262.0,50354.0,-0.04850538262522489,0.023171556610345808,-0.052475393878400015,0.0015346391178732235,0.00033513079343466947,-0.0029037485013312905,25.781262311997125
1634,A,77949941608742.0,3.7268979235368613,11.090914606612104,-1.6444702,174,1970-01-01 21:39:09.941608742,-0.6060486,1.5830841,-0.13375854,8.728589342807751,1.700394519003664,-93.15874481201172,9.994543075561523,-49.70713424682617,25831616.0,50354.0,0.028282239210275107,-0.061090499688654175,0.0111613065072,-0.0005091580817581908,-0.0009546852298825699,-0.0010401647777447027,25.83161631600524
1634,A,77949991962746.0,-0.05314657646313847,10.345446606612104,-1.8631134,174,1970-01-01 21:39:09.991962746,-0.36883545,1.2094879,-0.40663147,9.640495130161982,1.32825062462529,-93.39203643798828,10.063315391540527,-49.802921295166016,25881970.0,50354.0,0.09249403766527513,0.04623406626534585,-0.08831043229720001,0.0030407843228957283,-0.0003740404242986338,-0.0019423835400148304,25.8819703199988
1634,A,77950042316750.0,-0.04443377646313884,11.530444606612104,-1.8299408,174,1970-01-01 21:39:10.042316750,-0.8317566,0.906662,-0.41516113,8.509845736759111,1.2985429479807116,-93.4414291381836,10.039895057678223,-49.84762954711914,25932324.0,50354.0,-0.0024567805456248842,0.057300113075345833,-0.0929800255934,0.0022668680225014343,0.0026066800332605945,-0.004564349858311637,25.932324324006913
1634,A,77950092670754.0,0.9261472235368613,10.374774606612103,-0.84321594,174,1970-01-01 21:39:10.092670754,-1.0196991,0.5751343,-0.6577301,9.28226981017652,1.3428233696295688,-93.54289245605469,9.953767776489258,-49.88267135620117,25982678.0,50354.0,0.02219889945697511,0.05803850413134583,-0.06730206724298,0.0004970473278310647,0.0029038803654128763,-0.00403542225134154,25.982678328000475
1634,A,77950143024758.0,0.4243925235368613,9.163073606612103,-0.38624573,174,1970-01-01 21:39:10.143024758,-0.75335693,0.49957275,-0.79597473,10.525872728397268,1.2044481588346425,-93.54926300048828,9.908402442932129,-49.899391174316406,26033032.0,50354.0,0.03400253921207511,-0.0015647955356541858,-0.030954156465590004,0.0014149836213706777,0.0014218385613137285,-0.0024737969443106673,26.033032331994036
1634,A,77950193378762.0,-0.8767549764631388,8.420748606612104,0.83755493,174,1970-01-01 21:39:10.193378762,-0.1512909,0.559021,-0.5031738,11.560085473051707,0.7671879091006648,-93.36974334716797,10.023492813110352,-49.89297103881836,26083386.0,50354.0,-0.01138912947732489,-0.050761308137654164,0.011362611728400002,0.0005693378168918064,-0.0013174143121828844,-0.0004932563218482327,26.08338633600215
1634,A,77950243732766.0,-1.7223360764631388,7.205432606612103,0.8689728,174,1970-01-01 21:39:10.243732766,0.5965729,-0.019302368,-0.14318848,12.965590708404076,0.6138198002911993,-93.33967590332031,10.016402244567871,-49.891571044921875,26133740.0,50354.0,-0.0654373154395249,-0.10004883559465418,0.04296524865821,-0.0019342594036715272,-0.003796946988748327,0.00136781254095368,26.13374033999571
1634,A,77950294086770.0,-0.6232149764631387,7.073641606612103,0.6308441,174,1970-01-01 21:39:10.294086770,2.0054932,-1.4890137,0.19999695,12.789479842725806,2.505825922533972,-93.07211303710938,10.101873397827148,-49.7896614074707,26184094.0,50354.0,-0.059053938859524896,-0.1339649485336542,0.0377608900913,-0.003134316309487177,-0.00589176504299842,0.0020324419952964133,26.184094344003825
1634,A,77950344440773.0,1.4807126635368615,6.507510606612103,-0.94107056,174,1970-01-01 21:39:10.344440773,3.1655731,-1.6169586,0.5150757,13.075576335243467,3.591755997042124,-92.9267349243164,9.960067749023438,-49.71397399902344,26234448.0,50354.0,0.02158921926745512,-0.15153653072765422,-0.00781057158342,-0.0009432492451695408,-0.007188070743361963,0.0007540591690728947,26.234448346993304
1634,A,77950394794777.0,1.9723813635368614,5.812136606612103,-0.36845398,174,1970-01-01 21:39:10.394794777,2.6412354,-1.1078033,1.084198,13.72349937716914,3.062488839638122,-92.75035095214844,9.794103622436523,-49.65480041503906,26284802.0,50354.0,0.08693854831963513,-0.1832974421126542,-0.03296989934358,0.0027324036045401714,-0.008430114934200445,-0.001026729916529079,26.284802351001417
1634,A,77950445148781.0,0.5926053235368614,9.298709606612103,-1.1147766,174,1970-01-01 21:39:10.445148781,1.9194183,-1.976181,1.4990387,10.417313439816324,3.13633145238726,-92.72481536865234,9.853086471557617,-49.573062896728516,26335156.0,50354.0,0.06457866982045511,-0.1130234248896542,-0.03734329631266,0.003814749001113052,-0.0074604704685171195,-0.0017702753270371547,26.33515635499498
1634,A,77950495502785.0,1.8810575235368614,12.417498906612103,-1.5363464,174,1970-01-01 21:39:10.495502785,1.5453491,-2.0297241,1.2970886,7.282736985205269,2.861873966344706,-92.63040161132812,9.922615051269531,-49.473236083984375,26385510.0,50354.0,0.062279409500775124,0.053279781737445804,-0.06674732377100001,0.0031939058630706136,-0.0015041657036431507,-0.0026206895418463085,26.385510359003092
1634,A,77950545856789.0,3.7783048235368613,14.167575206612103,-1.4967499,174,1970-01-01 21:39:10.545856789,0.70495605,-2.1866455,0.9988098,5.781758343024358,2.505195120480218,-92.57637786865234,9.977466583251953,-49.36464309692383,26435864.0,50354.0,0.14248576581227512,0.1758632109486458,-0.07636426554510001,0.005155372818856667,0.005769133126857728,-0.0036031204842114505,26.435864362996654
1634,A,77950596210793.0,4.178832823536862,15.625888206612103,-0.61499023,174,1970-01-01 21:39:10.596210793,-0.35835266,-1.3379974,0.58639526,4.4126148513415275,1.5041652410178554,-92.582763671875,10.009769439697266,-49.29813003540039,26486218.0,50354.0,0.20033685454037514,0.25664082835474583,-0.05316728125301,0.008631245112618676,0.010889154197541492,-0.0032612157537360163,26.486218367004767
1634,A,77950646564797.0,2.8563077635368614,14.793567006612104,1.1169281,174,1970-01-01 21:39:10.646564797,-1.5894318,-0.116607666,0.2464447,4.907219476920996,1.6126455856074817,-92.66130065917969,10.022346496582031,-49.292781829833984,26536572.0,50354.0,0.17712373456075514,0.2724014239033459,0.012637289752990001,0.009503325251799158,0.013319696785101977,-0.0010204235959960035,26.53657237099833
1634,A,77950696918801.0,0.09623692353686142,7.464389606612103,6.6784973,174,1970-01-01 21:39:10.696918801,-1.6253815,0.6921997,0.18641663,13.950987063692308,1.7764449344583966,-92.74874877929688,10.030022621154785,-49.328338623046875,26586926.0,50354.0,0.07433621758645513,0.06691937365114584,0.19626542529580002,0.006331007215210314,0.00854307972002944,0.0052595436567833866,26.586926375006442
1634,A,77950747272805.0,0.4077909235368613,5.570101606612104,8.152084,174,1970-01-01 21:39:10.747272805,-0.4399109,0.38702393,0.30517578,16.26518599547111,0.6606371008580001,-92.77430725097656,10.044331550598145,-49.348716735839844,26637280.0,50354.0,0.012689909105775117,-0.1652998147246542,0.37338954539010005,0.0021910567917302814,-0.00247692436490772,0.014342203196958907,26.637280379000003
1634,A,77950797626809.0,3.2684018235368613,8.005847606612104,1.6367493,174,1970-01-01 21:39:10.797626809,-0.63731384,1.0276184,-0.15641785,11.68608502486147,1.2192764454678553,-92.81519317626953,10.034016609191895,-49.400447845458984,26687634.0,50354.0,0.09255550479307512,-0.15166752665865416,0.2464534559941,0.0026497637857313522,-0.007980286754007554,0.015605787245850005,26.687634382993565
1634,A,77950847980813.0,2.0581967935368612,11.692401206612104,-4.0483093,174,1970-01-01 21:39:10.847980813,-0.8195038,1.3769531,-0.7181244,8.82147772698866,1.755929660233977,-92.86799621582031,9.994742393493652,-49.46847152709961,26737988.0,50354.0,0.13410777338206512,0.002473610370545837,-0.06071584611999999,0.005706701354615506,-0.0037562552303857036,0.004676315803800216,26.73798838700168
1634,A,77950898334816.0,-1.9072571764631383,12.458239806612102,-2.9637146,174,1970-01-01 21:39:10.898334816,-0.66192627,0.78045654,-0.57774353,8.703722847385825,1.1751792987462575,-92.90769958496094,9.96392822265625,-49.506568908691406,26788342.0,50354.0,0.003800206739065123,0.1145714887899458,-0.1765417257303,0.003472109215509696,0.002946844461563698,-0.005973433886475003,26.78834239000571
1634,A,77950948688820.0,0.2153776235368614,10.228671606612103,0.10897827,174,1970-01-01 21:39:10.948688820,-1.229248,1.2506866,-0.01739502,9.51277697381113,1.7537303679996992,-92.8913803100586,10.014399528503418,-49.554569244384766,26838696.0,50354.0,-0.04259645150402488,0.07771916865074578,-0.07187369658041,-0.000976773054447392,0.004841301882384292,-0.006254355087516746,26.83869639399927
1634,A,77950999042824.0,2.0402524635368615,11.729586906612102,-0.6625061,174,1970-01-01 21:39:10.999042824,-0.9590454,1.0964661,-0.22732544,7.828989179532453,1.474341494831358,-92.99857330322266,9.782583236694336,-49.61801528930664,26889050.0,50354.0,0.05678999870225512,0.05937387458744578,-0.01393617017591,0.0003573509378098429,0.003451591549607949,-0.0021604350153238685,26.889050397992833
1634,A,77951049396828.0,0.30786112353686135,10.189120606612104,-1.3455658,174,1970-01-01 21:39:11.049396828,-0.8093109,1.0040741,-0.42477417,9.626408740809083,1.3577857071897645,-93.17662048339844,9.800507545471191,-49.689727783203125,26939404.0,50354.0,0.05911845578175512,0.0583780990604458,-0.0505572262263,0.002918227158543926,0.0029646414405329665,-0.0016237502412184412,26.939404402000946
1634,A,77951099750832.0,1.1199491235368613,10.395663606612104,-1.3389282,174,1970-01-01 21:39:11.099750832,-0.9263916,0.7113495,-0.3418579,9.295094747233238,1.2169989036532531,-93.35877227783203,9.706313133239746,-49.74676513671875,26989758.0,50354.0,0.035947978590575115,0.02479391213634583,-0.067587505438,0.002393487618192158,0.002094021725901623,-0.0029745299091120813,26.989758405994507
1634,A,77951150104836.0,0.9986265235368614,9.786822606612104,-1.2471619,174,1970-01-01 21:39:11.150104836,-0.89889526,0.618927,-0.69281006,9.896121687754768,1.2926983789796718,-93.50759887695312,9.604103088378906,-49.792598724365234,27040112.0,50354.0,0.05333937906637511,0.014665255390345827,-0.0651099904477,0.002247987803729036,0.0009934634608195158,-0.0033409248539142695,27.04011241000262
1634,A,77951200458840.0,0.14105202353686153,9.346713606612104,-0.15750122,174,1970-01-01 21:39:11.200458840,-0.66482544,0.6856384,-0.7850342,10.391848114393806,1.2362732612150897,-93.48110961914062,9.610574722290039,-49.814002990722656,27090466.0,50354.0,0.028693686779675126,-0.011744158759654164,-0.03536520337224,0.0020653464988060074,7.354444987092401e-05,-0.0025296639548046296,27.090466413996182
1634,A,77951250812844.0,-0.8295747764631387,7.752215606612104,-0.35401917,174,1970-01-01 21:39:11.250812844,-0.18244934,0.541214,-0.4509735,12.168354351894806,0.727720724704667,-93.45140075683594,9.708196640014648,-49.83277130126953,27140820.0,50354.0,-0.017334937350424882,-0.06296945919865415,-0.012878548859030002,0.00028597923438023344,-0.0018810647593363286,-0.001214632949926685,27.140820418004296
1634,A,77951301166848.0,-1.4030153764631388,6.6854276066121034,1.6869202,174,1970-01-01 21:39:11.301166848,0.86361694,-0.00730896,-0.03413391,13.448866743724814,0.8643221411968649,-93.40814971923828,9.706511497497559,-49.83230209350586,27191174.0,50354.0,-0.056209922280224894,-0.12997265682065418,0.03355844923231001,-0.0018516389309208695,-0.004857703655018126,0.0005206578516980707,27.191174421997857
1634,A,77951351520852.0,-0.12500017646313877,7.233554606612103,0.7513733,174,1970-01-01 21:39:11.351520852,2.5502777,-1.2545624,0.1912384,12.537984847743711,2.848581276398062,-93.09832000732422,9.747345924377441,-49.740291595458984,27241528.0,50354.0,-0.03847084757602489,-0.14303098481765422,0.06138891544950001,-0.0023837777426708013,-0.00687341268552769,0.002390489800593931,27.24152842600597
1634,A,77951401874855.0,2.2734220175368614,5.487628606612104,-0.24032593,174,1970-01-01 21:39:11.401874855,3.1147308,-0.87535095,0.48809814,14.043122889797496,3.2720065764613007,-92.93528747558594,9.774018287658691,-49.69723892211914,27291882.0,50354.0,0.054090816692713116,-0.17318797024065422,0.012866639634490001,0.0003932639624508595,-0.007961444631503032,0.0018695321103496165,27.29188242899545
1634,A,77951452228859.0,0.9148099235368614,7.033389606612104,-0.4049225,174,1970-01-01 21:39:11.452228859,2.388382,-0.8372803,0.9368286,12.569023447821897,2.698713527677595,-92.7818832397461,9.726929664611816,-49.6526985168457,27342236.0,50354.0,0.08027011558041312,-0.17822752444565418,-0.01624541972211,0.0033828051918404992,-0.008847587909717188,-8.506754626600874e-05,27.342236433003563
1634,A,77951502582863.0,1.3470151535368613,11.182543606612104,-1.3046112,174,1970-01-01 21:39:11.502582863,1.789566,-1.4176025,1.075592,8.491709830501998,2.5236959933451275,-92.83441162109375,9.68880844116211,-49.60946273803711,27392590.0,50354.0,0.056945969965485115,-0.03484664949065416,-0.043040929964900006,0.00345468938578908,-0.005364568477194435,-0.001492652426069851,27.392590436997125
1634,A,77951552936867.0,3.0494230235368613,13.363772606612104,-1.1885834,174,1970-01-01 21:39:11.552936867,1.181961,-1.7398071,1.0225525,6.333718486410696,2.3387120741954663,-92.76087188720703,9.744121551513672,-49.52384948730469,27442944.0,50354.0,0.11068912398418512,0.12453340330034583,-0.0627711604442,0.004220548760370848,0.0022580434006666075,-0.002664031000229911,27.44294444100524
1634,A,77951603290871.0,3.3096769235368613,14.248355206612104,-0.2252655,174,1970-01-01 21:39:11.603290871,0.32484436,-1.4384766,0.75917053,5.39747367985531,1.6586375977264745,-92.73257446289062,9.785483360290527,-49.45280075073242,27493298.0,50354.0,0.16010305936747513,0.20172134195354588,-0.03559647375530001,0.00681773480024475,0.008214115721257232,-0.002476601926240812,27.4932984449988
1634,A,77951653644875.0,2.9432218235368612,15.051364206612103,0.5148468,174,1970-01-01 21:39:11.653644875,-0.6176605,-0.32966614,0.4925995,4.565384125486353,0.8560598837248475,-92.76081848144531,9.810873031616211,-49.437294006347656,27543652.0,50354.0,0.15742923175507512,0.2442098356667458,0.007290788390100001,0.007994510493592448,0.011227209258946083,-0.0007126522404396406,27.543652449006913
1634,A,77951703998879.0,1.0047758235368613,13.187762606612104,2.4805756,174,1970-01-01 21:39:11.703998879,-1.6309357,0.57821655,0.39811707,6.915227720382703,1.7756077375517876,-92.8475341796875,9.829339027404785,-49.46758270263672,27594006.0,50354.0,0.09939873676037513,0.21750729577654584,0.0754157497648,0.0064661577633134916,0.011624652218347754,0.0020823025111259175,27.594006453000475
1634,A,77951754352883.0,0.005340323536861202,6.155230606612104,8.61348,174,1970-01-01 21:39:11.754352883,-1.1788025,0.8227844,0.62145996,16.059722657187304,1.5661296194034553,-92.91387939453125,9.858305931091309,-49.51087188720703,27644360.0,50354.0,0.025431694234875114,-0.006470659870654152,0.2793150378412,0.0031428557611674155,0.005313269382202636,0.008931057039556262,27.644360456994036
1634,A,77951804706887.0,2.4109037035368615,6.8800386066121035,5.857147,174,1970-01-01 21:39:11.804706887,-0.16268921,0.09008789,0.45002747,13.940243060616396,0.4869377072374629,-92.9229965209961,9.880547523498535,-49.5166015625,27694714.0,50354.0,0.06083377586963512,-0.16528022701865416,0.36432697597900005,0.002171905740821254,-0.004324172079212115,0.016204974981951177,27.69471446100215
1634,A,77951855060891.0,4.025146223536861,8.038684606612103,-1.2552032,174,1970-01-01 21:39:11.855060891,-0.84198,1.3920135,-0.19998169,11.69934030002234,1.639092609011921,-92.97709655761719,9.866983413696289,-49.586631774902344,27745068.0,50354.0,0.16204042901393514,-0.1178605056606542,0.11586313905260003,0.005611303856353649,-0.007128634226666948,0.012089746526150595,27.74506846499571
1634,A,77951905414895.0,3.0836179235368615,15.825381606612103,-5.498413,174,1970-01-01 21:39:11.905414895,-0.34780884,1.6839142,-0.68603516,6.6860319729409765,1.851265043936176,-93.00877380371094,9.828330993652344,-49.67015075683594,27795422.0,50354.0,0.17897735493087513,0.10735639505034579,-0.1700357950674,0.00858580474637849,-0.0002644619928357349,-0.001363904960484619,27.795422469003825
1634,A,77951955768898.0,-4.185486176463138,9.799899606612103,-2.6453094,174,1970-01-01 21:39:11.955768898,-1.1697998,1.9403687,-0.4806671,11.941241094200945,2.316139703265358,-93.08380889892578,9.799176216125488,-49.767181396484375,27845776.0,50354.0,-0.027741737003924873,0.1516985051053458,-0.2050344988648,0.003807659152546827,0.0065222252212198475,-0.009443144790330999,27.845776471993304
1634,A,77952006122902.0,2.0969236035368612,11.360568606612103,-3.4274597,174,1970-01-01 21:39:12.006122902,-1.497406,1.5977783,-0.08114624,8.85874180496721,2.1912792923434083,-93.17240142822266,9.790764808654785,-49.847904205322266,27896130.0,50354.0,-0.05258373989856488,0.03928790820434581,-0.15289410763070002,-0.002022354531973985,0.004808464927898106,-0.009011568525737205,27.896130476001417
1634,A,77952056476906.0,2.5503537835368615,11.039935606612103,-1.4244232,174,1970-01-01 21:39:12.056476906,-0.7249298,1.874588,-0.26504517,8.613898212977952,2.0272770720383457,-93.22466278076172,9.772306442260742,-49.942115783691406,27946484.0,50354.0,0.11700450277435513,0.0705082945763458,-0.1221558557733,0.0016219215469237714,0.0027643389974094726,-0.006924932928622509,27.94648447999498
1634,A,77952106830910.0,-0.0312654764631386,9.772738606612103,-2.7666473,174,1970-01-01 21:39:12.106830910,-0.12574768,1.8013916,-0.41558838,10.3860512341946,1.8529808086342845,-93.24620819091797,9.746476173400879,-50.032169342041016,27996838.0,50354.0,0.06342308630719512,0.030531498666345795,-0.10551858197849999,0.004542625410306192,0.0025438788744712466,-0.005732159319277069,27.996838484003092
1634,A,77952157184914.0,0.2560575235368614,11.229785606612104,-2.8724365,174,1970-01-01 21:39:12.157184914,-0.5268707,1.4315186,-0.33818054,8.997373840950498,1.5624353792394556,-93.2846450805664,9.725518226623535,-50.10369110107422,28047192.0,50354.0,0.005659589369175119,0.03531135211634583,-0.1419752128326,0.0017392945255039734,0.0016577254541558272,-0.006231151271959065,28.047192487996654
1634,A,77952207538918.0,1.4457395235368613,10.751940606612104,-1.1380157,174,1970-01-01 21:39:12.207538918,-0.84606934,0.8656311,-0.6095123,8.883349930797186,1.3552327376604123,-93.43754577636719,9.574126243591309,-50.163055419921875,28097546.0,50354.0,0.04284614425417512,0.05996472087034586,-0.10097115503939999,0.001221228855435089,0.0023987656895859367,-0.006116660703913345,28.097546492004767
1634,A,77952257892922.0,0.29701212353686146,9.615817606612103,-1.3249512,174,1970-01-01 21:39:12.257892922,-0.9370117,0.64450073,-0.9190979,10.18290257344319,1.4622288010745217,-93.59322357177734,9.558746337890625,-50.21012878417969,28147900.0,50354.0,0.04387725821837512,0.019329848534345814,-0.0620101176413,0.0021834351040513973,0.0019963993739019227,-0.004103379502281984,28.14790049599833
1634,A,77952308246926.0,0.17196632353686114,8.567553606612103,0.7371521,174,1970-01-01 21:39:12.308246926,-0.44615173,0.816803,-0.6280823,11.173879469133478,1.1228115970919978,-93.43711853027344,9.551057815551758,-50.21876525878906,28198254.0,50354.0,0.011807470361975115,-0.035666462964654214,-0.014799017940700003,0.001401974411467478,-0.0004113069415118746,-0.0019338236065480142,28.198254500006442
1634,A,77952358600930.0,-2.508758776463139,5.949053606612104,-0.74360657,174,1970-01-01 21:39:12.358600930,0.11366272,0.6541443,-0.33790588,14.396424527748609,0.7449861494543794,-93.4295654296875,9.771061897277832,-50.249637603759766,28248608.0,50354.0,-0.0588334235873249,-0.12798458019265418,-0.00016250419118999976,-0.0011839724243546314,-0.004120242313571554,-0.00037668624271459467,28.248608504000003
1634,A,77952408954934.0,-0.3582765764631386,5.463961606612104,1.76857,174,1970-01-01 21:39:12.408954934,1.0412445,-0.7619934,0.16296387,14.406791742225483,1.300531150472447,-93.37104034423828,9.78145694732666,-50.21154022216797,28298962.0,50354.0,-0.07218334908062489,-0.20612371597665416,0.025805504277110005,-0.003298609285460972,-0.008411844572654677,0.0006456138131632081,28.298962507993565
1634,A,77952459308938.0,0.20431492353686131,7.637652606612104,-1.4121246,174,1970-01-01 21:39:12.459308938,3.0464172,-1.2472229,0.21827698,12.141880977021334,3.2990707113880067,-93.29312896728516,9.790010452270508,-50.163455963134766,28349316.0,50354.0,-0.0038762925357248832,-0.16360985895365418,0.008974225835799998,-0.0019149535969748383,-0.009308782216020373,0.0008756492650527352,28.34931651200168
1634,A,77952509662941.0,3.1443021235368613,4.946032606612103,-1.821991,174,1970-01-01 21:39:12.509662941,2.9832458,-0.42149353,0.8156738,14.725357115864949,3.1213356190989687,-93.1407241821289,9.83191204071045,-50.14441680908203,28399670.0,50354.0,0.08430813139417512,-0.17664975738665417,-0.0814253284612,0.0020250324069392015,-0.008566716360599943,-0.001824101410799696,28.39967051500571
1634,A,77952560016945.0,-0.37567157646313865,8.953463606612104,-0.027053833,174,1970-01-01 21:39:12.560016945,2.2673187,-1.5904388,1.315155,10.887515878774522,3.0659194930624207,-92.94027709960938,10.000170707702637,-50.054569244384766,28450024.0,50354.0,0.06970581128367512,-0.1435215838396542,-0.046553401760441,0.003877609034800236,-0.008060953858054765,-0.0032221204907902554,28.45002451899927
1634,A,77952610370949.0,1.3747098635368613,10.451739606612103,-2.0705109,174,1970-01-01 21:39:12.610370949,1.9094086,-2.0074768,1.4568329,9.34770543411905,3.1302022942318937,-92.82771301269531,10.077971458435059,-49.95648956298828,28500378.0,50354.0,0.025152786953655117,-0.004904398700654189,-0.052810387282741005,0.002388254927821263,-0.003736920962417344,-0.0025016821167401938,28.500378522992833
1634,A,77952660724953.0,3.0292661235368614,14.781848206612104,-0.54785156,174,1970-01-01 21:39:12.660724953,1.2527313,-2.1028595,1.3209534,4.8473457053284,2.78141540797334,-92.74691772460938,10.149056434631348,-49.85307693481445,28550732.0,50354.0,0.11087890342655514,0.14183684037354582,-0.06592251165542001,0.003424869868702554,0.0034475480839983932,-0.0029893381965660805,28.550732527000946
1634,A,77952711078957.0,4.392486323536861,15.056567606612102,-0.64219666,174,1970-01-01 21:39:12.711078957,0.5486603,-2.0809479,0.41452026,5.015839580942298,2.1916202529774558,-92.70103454589844,10.174708366394043,-49.748497009277344,28601086.0,50354.0,0.18685746135997514,0.2577725949295458,-0.02996184403494,0.007496108456230473,0.010060966752625938,-0.002414080423216194,28.601086530994507
1634,A,77952761432961.0,3.139129423536861,15.291735906612104,0.5000763,174,1970-01-01 21:39:12.761432961,-0.65812683,-0.5461731,0.26985168,4.365476105373861,0.8968031605253638,-92.72915649414062,10.189480781555176,-49.721431732177734,28651440.0,50354.0,0.1896234896640751,0.27061003755244584,-0.003578164303719999,0.009478660903932512,0.013303089537999102,-0.0008444367899424429,28.65144053500262
1634,A,77952811786965.0,-0.4220735764631387,13.218936306612104,3.4031525,174,1970-01-01 21:39:12.811786965,-1.7678528,0.23423767,0.23825073,7.638048807985512,1.7991481925790331,-92.81975555419922,10.200813293457031,-49.7338981628418,28701794.0,50354.0,0.06840731506177511,0.22434399431234586,0.09827159149760001,0.006496441570582732,0.012461457660259861,0.0023840964164603172,28.701794538996182
1634,A,77952862140969.0,0.2943723235368614,4.247103606612104,9.141449,174,1970-01-01 21:39:12.862140969,-0.97665405,0.5980072,0.3896942,17.910129934890122,1.209680666187107,-92.8741455078125,10.218788146972656,-49.76523208618164,28752148.0,50354.0,-0.0032151344449248844,-0.05372671310475416,0.3158354319655,0.0016413435313904381,0.0042956312889635365,0.01042597252973047,28.752148543004296
1634,A,77952912494973.0,4.2778165235368615,10.948046606612104,5.610504,174,1970-01-01 21:39:12.912494973,-0.08731079,-0.14523315,0.27243042,10.457724006521527,0.32083356378459377,-92.87732696533203,10.232755661010742,-49.7585563659668,28802502.0,50354.0,0.11511399860277513,-0.11090090308165415,0.37140992068100004,0.002817277702902196,-0.004144829492725202,0.017302776243580936,28.802502546997857
1634,A,77952962848977.0,3.8916013235368614,9.189486606612103,-6.4553986,174,1970-01-01 21:39:12.962848977,-1.4272308,2.4886322,-0.37875366,12.303835940709922,2.893740195371533,-92.97091674804688,10.207494735717773,-49.883846282958984,28852856.0,50354.0,0.2056814331357751,0.013533473709345838,-0.0212719113442,0.00807666658488148,-0.0024514197693066065,0.008815424661072616,28.85285655100597
1634,A,77953013202980.0,0.8883970235368615,16.116443006612105,-3.7042084,174,1970-01-01 21:39:13.013202980,0.4302826,0.333786,-0.7392273,5.207684473692829,0.9181575086683385,-92.9520492553711,10.169720649719238,-49.898834228515625,28903210.0,50354.0,0.12034601838427512,0.14365818987214587,-0.255788425439,0.008208393146920305,0.003957614513991218,-0.006975548099190626,28.90321055399545
1634,A,77953063556984.0,-2.5472566764631384,9.179110606612104,-0.5128784,174,1970-01-01 21:39:13.063556984,-1.3764191,1.5385437,-0.27211,11.40352042404256,2.0822320014240727,-93.03453063964844,10.152118682861328,-49.97616958618164,28953564.0,50354.0,-0.04176510948172488,0.14339695332014588,-0.10617359436360002,0.001978431543439508,0.007227187340152329,-0.00911311777257006,28.953564558003563
1634,A,77953113910988.0,1.8939359235368614,13.223559606612103,-2.201416,174,1970-01-01 21:39:13.113910988,-1.4026337,1.7755585,0.56277466,6.685922374598109,2.331674205637669,-93.12081909179688,10.175448417663574,-50.06776428222656,29003918.0,50354.0,-0.016448656596424877,0.07056282795834583,-0.0683377901088,-0.0014656479885495764,0.005386865413248586,-0.004393673126861616,29.003918561997125
1634,A,77953164264992.0,3.4749296235368616,11.590411606612104,0.2328949,174,1970-01-01 21:39:13.164264992,-0.720871,1.1352692,-0.43380737,8.041110343634656,1.4130392738264415,-93.16680145263672,10.150676727294922,-50.12413787841797,29054272.0,50354.0,0.13517192787867513,0.13127215323534583,-0.049561455734700006,0.002989095801073215,0.0050815993215135745,-0.0029683493126018,29.05427256600524
1634,A,77953214618996.0,-0.04718037646313844,10.286349606612104,-2.247635,174,1970-01-01 21:39:13.214618996,-0.622879,1.8744965,-0.37905884,9.776588758962873,2.0113182198089383,-93.21449279785156,10.12653923034668,-50.21813201904297,29104626.0,50354.0,0.08630044279357513,0.05732201706534586,-0.0507251114977,0.005576009876415245,0.0047482354256605155,-0.0025249149032101352,29.1046265699988
1634,A,77953264973000.0,-0.03961207646313847,10.672351606612104,-1.388443,174,1970-01-01 21:39:13.264973000,-1.0491943,1.0063629,-0.40464783,9.243235543762964,1.5090774771272046,-93.41584014892578,10.204081535339355,-50.29278564453125,29154980.0,50354.0,-0.002185173587324874,0.03420802044534584,-0.091545535806,0.002117770132805763,0.002304451754406685,-0.003581948087165255,29.154980574006913
1634,A,77953315327004.0,0.9651334235368614,9.671405606612103,-0.73257446,174,1970-01-01 21:39:13.315327004,-1.272583,1.0924835,-0.72232056,9.962882806477284,1.8261255929042677,-93.50984954833984,10.08966064453125,-50.349613189697266,29205334.0,50354.0,0.023301850955275122,0.01872557535734581,-0.05340085659042,0.0005316545860928834,0.0013327091415243678,-0.0036493153213646664,29.205334578000475
1634,A,77953365681008.0,-0.7026674764631387,8.110018606612103,0.8082428,174,1970-01-01 21:39:13.365681008,-0.44883728,1.0593872,-0.7281647,11.812758644915544,1.3616093322857803,-93.35585021972656,10.157198905944824,-50.36847686767578,29255688.0,50354.0,0.006608105149475118,-0.04578628258365421,0.0019051017961800002,0.0007530429648492968,-0.0006813074258367667,-0.0012965086184545806,29.255688581994036
1634,A,77953416035012.0,-2.2699434764631383,7.093371606612104,-0.5409088,174,1970-01-01 21:39:13.416035012,0.2186737,0.76908875,-0.38468933,13.229854445715914,0.8873001595086644,-93.33097839355469,10.375953674316406,-50.40264892578125,29306042.0,50354.0,-0.07484142596182487,-0.11069344460165419,0.0067306681180000025,-0.00171791031809253,-0.003939690091344509,0.00021742277912930992,29.30604258600215
1634,A,77953466389016.0,-0.9501649764631388,5.636981606612103,2.83107,174,1970-01-01 21:39:13.466389016,1.2597046,-0.43807983,0.09828186,14.525862183833524,1.3373215547201236,-93.26404571533203,10.382122993469238,-50.38071823120117,29356396.0,50354.0,-0.08107267051932489,-0.1729570971506542,0.057659388532400005,-0.003925449207105908,-0.007141469689697868,0.0016211484562871211,29.35639658999571
1634,A,77953516743020.0,1.6714933235368612,8.399752606612104,-1.4644165,174,1970-01-01 21:39:13.516743020,3.1837006,-1.2906952,0.3699646,11.237835351368497,3.4552449138948975,-93.20066833496094,10.215080261230469,-50.33572769165039,29406750.0,50354.0,0.01816088379427511,-0.14006634271365417,0.0344082351695,-0.0015839300543765784,-0.007880991145463692,0.0023179865619427364,29.406750594003825
1634,A,77953567097023.0,3.6507871235368614,5.082766606612104,0.538147,174,1970-01-01 21:39:13.567097023,2.9812622,-0.673172,0.77153015,14.527085390759032,3.152196633950976,-93.04593658447266,10.255433082580566,-50.3037223815918,29457104.0,50354.0,0.13399905481597513,-0.15401981376865417,-0.0233206872015,0.0038309307743902704,-0.0074042071617550775,0.000279151195190336,29.457104596993304
1634,A,77953617451027.0,1.6422727235368613,7.971286106612103,-1.6321106,174,1970-01-01 21:39:13.617451027,2.089096,-1.2110596,1.1842346,11.685930926445039,2.689497915932511,-93.0576400756836,10.132948875427246,-50.26797866821289,29507458.0,50354.0,0.13326336776977513,-0.16480731483915417,-0.0275427215572,0.0067288660134414355,-0.008027110616958792,-0.0012805880423177902,29.507458601001417
1634,A,77953667805031.0,1.4900357835368614,11.789431906612103,-1.6158295,174,1970-01-01 21:39:13.667805031,2.0006561,-1.3480682,0.79670715,7.939061944621714,2.540601303860874,-93.16605377197266,10.056819915771484,-50.24042510986328,29557812.0,50354.0,0.07886213128259512,0.004046397418945809,-0.0817733878977,0.005340683689641526,-0.0040474776178885865,-0.0027522516877460175,29.55781260499498
1634,A,77953718159035.0,3.3040922235368613,14.239367606612102,-1.6492004,174,1970-01-01 21:39:13.718159035,1.0810547,-1.7363739,0.5659485,5.646646979553133,2.122256179080544,-93.09687042236328,10.08981704711914,-50.1539421081543,29608166.0,50354.0,0.12070176083409512,0.16185788534444576,-0.0822036577923,0.00502442011182191,0.0041769721271339095,-0.00412845007933713,29.608166609003092
1634,A,77953768513039.0,2.2215573935368615,15.144275006612103,-0.10935974,174,1970-01-01 21:39:13.768513039,-0.25134277,-0.8465576,0.24150085,4.385663474612333,0.9155083935714382,-93.10202026367188,10.104162216186523,-50.11167907714844,29658520.0,50354.0,0.13911928040906513,0.24632277007314585,-0.04427526864478,0.006541514355379046,0.010276764361448705,-0.0031843599309063636,29.658520612996654
1634,A,77953818867043.0,2.4840848635368613,15.343112306612102,2.1859283,174,1970-01-01 21:39:13.818867043,-1.5729218,0.07759094,0.45291138,4.729637228807294,1.6386677701776,-93.18157958984375,10.12656307220459,-50.11687088012695,29708874.0,50354.0,0.11847395510634513,0.27411175038504587,0.052281766635120006,0.006485424890571484,0.013102979921575894,0.00020157959990279033,29.708874617004767
1634,A,77953869221047.0,0.16458112353686127,8.563845606612103,5.4625854,174,1970-01-01 21:39:13.869221047,-2.0517426,0.5798645,0.30566406,12.420287423321414,2.1539083203773304,-93.28948974609375,10.140183448791504,-50.14715576171875,29759228.0,50354.0,0.06668546355655512,0.1084362793812458,0.19256662942490002,0.00466175868367584,0.009631411745425925,0.006164548067603124,29.75922862099833
1634,A,77953919575051.0,-1.8581697764631389,3.241900606612102,6.811676,174,1970-01-01 21:39:13.919575051,-0.15408325,0.42907715,0.38134766,18.117227902614676,0.5943693181601492,-93.30123138427734,10.157988548278809,-50.17002868652344,29809582.0,50354.0,-0.042639481514724895,-0.19623592758965422,0.30902907926780004,0.0006054056898671596,-0.002210531742943099,0.012628675157756111,29.809582625006442
1634,A,77953969929055.0,3.5324399235368613,10.515795606612103,2.2587433,174,1970-01-01 21:39:13.969929055,-0.049743652,0.4960785,0.12573242,9.384628866531234,0.5141759917728593,-93.3082275390625,10.162837028503418,-50.195560455322266,29859936.0,50354.0,0.042153099492875115,-0.14709168243965423,0.22836594671610003,-1.2245640164111896e-05,-0.0086439592377079,0.013529994569196653,29.859936629000003
1634,A,77954020283059.0,4.083099123536861,2.654193606612104,2.2242737,174,1970-01-01 21:39:14.020283059,-0.7879181,1.9736328,-0.8756561,17.122699349712633,2.2984375055699604,-93.36477661132812,10.113384246826172,-50.29304122924805,29910290.0,50354.0,0.19173642658817514,-0.16188838157865418,0.11286891900900001,0.005888636598142602,-0.007779191071788951,0.008591270214360845,29.910290632993565
1634,A,77954070637063.0,-2.921387176463139,13.958148306612102,-4.6467133,174,1970-01-01 21:39:14.070637063,-1.5900574,1.1456757,-0.5696411,8.887623043891397,2.0409180110123137,-93.45415496826172,10.081543922424316,-50.349395751953125,29960644.0,50354.0,0.029248421691475113,-0.0752202676507542,-0.06098976180920001,0.005563735525136755,-0.005969684461648815,0.0013061615408193647,29.96064463700168
1634,A,77954120991066.0,-1.7449953764631387,9.224032606612104,0.5446472,174,1970-01-01 21:39:14.120991066,-1.4151154,2.1632843,0.2611084,11.052182598566858,2.598177852744921,-93.54426574707031,10.08797550201416,-50.459869384765625,30010998.0,50354.0,-0.1174855135350249,0.09018856885224581,-0.10327771819970001,-0.0022215452613450534,0.0003768569193499545,-0.004135762344184076,30.01099864000571
1634,A,77954171345070.0,4.626708823536861,10.805133606612104,-0.12591553,174,1970-01-01 21:39:14.171345070,-1.0263824,0.9733124,-0.34158325,9.051913583129656,1.4551553098223167,-93.60401153564453,10.067895889282227,-50.508113861083984,30061352.0,50354.0,0.0725528994569751,0.010805117750345853,0.01054240725559,-0.0011312684246430598,0.0025427180475934507,-0.002334796923639858,30.06135264399927
1634,A,77954221699074.0,-0.7737886764631385,10.125476606612104,-1.704483,174,1970-01-01 21:39:14.221699074,-0.48025513,1.3031311,-0.52630615,10.012392826987076,1.4851915085962315,-93.80075073242188,10.220804214477539,-50.600975036621094,30111706.0,50354.0,0.09700497054287512,0.03350077333834585,-0.046083943789810004,0.00426895849298623,0.001115489419939991,-0.000894829265322057,30.111706647992833
1634,A,77954272053078.0,0.2320707235368613,11.229510606612104,-1.9322052,174,1970-01-01 21:39:14.272053078,-1.0809631,0.9407654,-0.3565979,8.748389151676465,1.4767135211960307,-94.09235382080078,10.274667739868164,-50.68828582763672,30162060.0,50354.0,-0.013638832900824882,0.04418531306734584,-0.0915608988114,0.002098909247413899,0.0019559025974361,-0.0034654842021706648,30.162060652000946
