Subject-id_accel,Activity_accel,Timestamp_accel,accel_x,accel_y,accel_z,Segment_accel,DateTime,gyro_x,gyro_y,gyro_z,accel_magnitude,gyro_magnitude,Roll,Pitch,Yaw,Time_Difference,Difference_Microseconds,vx,vy,vz,dx,dy,dz,Time_diff
1631,C,1553647639161677.0,2.225418,12.579529,-0.27320862,161,1970-01-18 23:34:07.639161677,-2.7174225,-0.27726746,0.9210663,12.77778064010364,2.882642089624862,82.64376068115234,-13.405226707458496,-17.361003875732422,15005493.0,50354.0,0.1242034835594,0.145102528569,0.001753738679259999,0.00598176169259914,0.0066026226553845485,0.00021207401874826163,15.005493490025401
1631,C,1553647689515681.0,-1.8812408,11.913345,-0.4211731,161,1970-01-18 23:34:07.689515681,-2.605606,0.5752716,0.96476746,12.06831565781958,2.8374101382911516,82.74210357666016,-12.908533096313477,-17.37983512878418,15055847.0,50354.0,0.008665349364399997,0.12318788869799999,-0.01748244856444,0.0033452386065225127,0.006754747835531259,-0.00039600172877917686,15.055847493931651
1631,C,1553647739869684.0,1.6990051,8.756256,0.91690063,161,1970-01-18 23:34:07.739869684,-2.64357,1.4352417,1.6273346,8.966568141304476,3.420029090910785,82.62347412109375,-12.930546760559082,-17.30343246459961,15106201.0,50354.0,-0.004588148218900003,0.02692934437699997,0.01248093202281,0.00010265169324025335,0.0037795015771292743,-0.00012592318196861848,15.106201496906579
1631,C,1553647790223688.0,3.0226135,6.529648,0.8855896,161,1970-01-18 23:34:07.790223688,-2.1501465,1.141922,1.6886597,7.249604424650658,2.9628849805468893,82.49205017089844,-13.297607421875,-17.231918334960938,15156555.0,50354.0,0.1188761914922,-0.10861599499200003,0.045381296520710004,0.002877430065491874,-0.0020566248025338566,0.0014567973280402034,15.15655550104566
1631,C,1553647840577692.0,-0.32939148,4.9424896,0.89749146,161,1970-01-18 23:34:07.840577692,-1.9837036,1.2320251,1.0571594,5.034103009869552,2.5633087634327882,82.30589294433594,-12.922249794006348,-17.14634895324707,15206909.0,50354.0,0.06780725079754,-0.20463519164480004,0.044892631847620004,0.004700129026528784,-0.007886725125954716,0.0022728266945294447,15.20690950495191
1631,C,1553647890931696.0,0.27679443,3.7366333,2.6260529,161,1970-01-18 23:34:07.890931696,-1.5464783,0.98773193,0.7291565,4.575499689514396,1.97455784909044,81.54161834716797,-12.751035690307617,-16.941377639770508,15257263.0,50354.0,-0.001324235927850001,-0.2749549227467001,0.08871227635172,0.0016738428653741853,-0.0120746403100348,0.0033637707737347836,15.25726350909099
1631,C,1553647941285700.0,2.2355042,3.1629791,3.7233734,161,1970-01-18 23:34:07.941285700,-0.3474579,0.25509644,0.25767517,5.372655329637479,0.5021928705264667,80.64006042480469,-13.12525463104248,-16.72919464111328,15307617.0,50354.0,0.06325214260751,-0.3197576586052001,0.15985950595509998,0.0015591589064737998,-0.014973078660696791,0.0062582917631388065,15.30761751299724
1631,C,1553647991639704.0,4.2499084,4.0302887,3.9243622,161,1970-01-18 23:34:07.991639704,1.1646881,-0.18135071,-0.26087952,7.0502175207951625,1.2072466915483946,80.02824401855469,-13.74108600616455,-16.58461570739746,15357971.0,50354.0,0.1632832330302,-0.31236429659940007,0.1925470392012,0.005703481152430625,-0.01591493446618622,0.008872539587400165,15.35797151713632
1631,C,1553648041993708.0,3.0892181,7.01828,5.9781494,161,1970-01-18 23:34:08.041993708,2.0762177,-0.97720337,-0.945282,9.723054709117292,2.481766391838008,79.43692779541016,-13.86640739440918,-16.47356414794922,15408325.0,50354.0,0.18477718789050002,-0.21529938584010003,0.24931553455320002,0.008763117217520464,-0.013284988532779296,0.01112477401941453,15.40832552104257
1631,C,1553648092347712.0,7.0193024,14.629288,4.337158,161,1970-01-18 23:34:08.092347712,2.2621765,-0.8625183,-0.5367279,16.79576175963906,2.4798099067520374,79.42279052734375,-14.118927001953125,-16.48897361755371,15458679.0,50354.0,0.25450222062850003,0.05155161953599996,0.25970849440980004,0.011059737668282865,-0.004122677512238327,0.012815697977201453,15.45867952494882
1631,C,1553648142701716.0,4.7172394,10.966446,2.7497864,161,1970-01-18 23:34:08.142701716,1.8526764,0.038101196,-0.01966858,12.250575932316544,1.853172522268989,79.43175506591797,-14.330642700195312,-16.46693992614746,15509033.0,50354.0,0.2954909128986,0.15095459491799998,0.1784279991588,0.013847177122811798,0.005098498961308357,0.011030962498576645,15.509033529087901
1631,C,1553648193055720.0,-2.7197418,5.671417,2.2373962,161,1970-01-18 23:34:08.193055720,1.4633942,-0.94880676,-1.1001587,6.675920011678591,2.062063533842017,79.26307678222656,-13.402013778686523,-16.463361740112305,15559387.0,50354.0,0.05029099707520002,-0.07457772324900006,0.12556229632020002,0.008705751147410365,0.0019229404980104113,0.007653563669274784,15.559387532994151
1631,C,1553648243409724.0,3.2675934,11.9539795,-2.0202026,161,1970-01-18 23:34:08.243409724,1.546463,-1.2884216,-0.9703522,12.556114488932895,2.2345383016991227,79.85163879394531,-13.42741870880127,-16.6523494720459,15609741.0,50354.0,0.013793259733200001,-0.04971459231950002,0.005468283267199997,0.0016134493336650874,-0.003129307629068126,0.0032989569022719707,15.609741537133232
1631,C,1553648293763727.0,3.660263,11.648651,-0.96144104,161,1970-01-18 23:34:08.293763727,1.3146667,-0.5337372,-0.39204407,12.247977964642418,1.4720470385062072,80.28523254394531,-13.521971702575684,-16.76702880859375,15660095.0,50354.0,0.1744226405828,0.10077422809849997,-0.07506884192428001,0.004738711722255932,0.0012855284500078818,-0.0017523332653093034,15.66009554010816
1631,C,1553648344117731.0,1.3551788,9.227341,0.42771912,161,1970-01-18 23:34:08.344117731,1.0493011,-0.091552734,-0.5719147,9.336127417503684,1.1985412490357497,80.51897430419922,-13.367753028869629,-16.818185806274414,15710449.0,50354.0,0.1262737781986,0.03212565058399992,-0.01343751677984,0.007570633735659307,0.0033460202455893,-0.0022283245930936296,15.71044954401441
1631,C,1553648394471735.0,1.616272,8.458878,-0.19451904,161,1970-01-18 23:34:08.394471735,0.76945496,0.4205475,-0.40171814,8.614104123691014,0.9645198801631365,80.82415771484375,-13.2863130569458,-16.862680435180664,15760803.0,50354.0,0.07481221679160001,-0.048183264237000055,0.00587127841416,0.005062742095868266,-0.00040428253894158434,-0.00019049518333272536,15.76080354792066
1631,C,1553648444825739.0,0.86868286,7.009094,-0.29283142,161,1970-01-18 23:34:08.444825739,0.48838806,0.3909912,-0.120651245,7.0687876508375185,0.6371449902087072,81.13697052001953,-13.128369331359863,-16.910694122314453,15811157.0,50354.0,0.06256370851022,-0.10403206895600003,-0.012270022531420002,0.003458713671323923,-0.003832325443800164,-0.00016110118064025506,15.81115755205974
1631,C,1553648495179743.0,1.2448578,7.1533966,-0.35429382,161,1970-01-18 23:34:08.495179743,0.3237152,0.037399292,-0.027709961,7.269544550382959,0.3270444613378474,81.44651794433594,-13.051542282104492,-16.97553253173828,15861511.0,50354.0,0.053212613196820004,-0.13690017416380004,-0.016292672167480003,0.0029149004516181463,-0.006065951085027207,-0.0007191229644342056,15.86151155596599
1631,C,1553648545533747.0,2.8865051,8.963486,-0.29841614,161,1970-01-18 23:34:08.545533747,0.2786255,-0.18339539,-0.06687927,9.421520320900152,0.34020416675760307,81.7169189453125,-13.174153327941895,-17.04305076599121,15911865.0,50354.0,0.10401532373330001,-0.08769444677980005,-0.01643327866292,0.003958527768089632,-0.00565461877149702,-0.0008239412640569809,15.91186556010507
1631,C,1553648595887751.0,2.5926208,10.712051,-0.45576477,161,1970-01-18 23:34:08.595887751,0.47639465,-0.23860168,-0.334198,11.030749782529147,0.6289442959845052,82.01001739501953,-13.175176620483398,-17.118267059326172,15962219.0,50354.0,0.1379479527843,0.0019017950489999714,-0.01898801277107,0.006091909412883617,-0.0021600015926263537,-0.0008918018544335663,15.96221956401132
1631,C,1553648646241755.0,3.0180206,12.513809,0.7349243,161,1970-01-18 23:34:08.646241755,0.68382263,-0.3796234,-0.61520386,12.89356342355502,0.9950894957171322,82.1650161743164,-13.157366752624512,-17.16824722290039,16012573.0,50354.0,0.14125911852780001,0.09128827721999999,0.00702839948681,0.007029596434424742,0.002346246449516612,-0.00030110718365781406,16.01257356791757
1631,C,1553648696595759.0,4.7687683,13.844147,0.8195648,161,1970-01-18 23:34:08.696595759,0.58413696,-0.17506409,-0.43943787,14.665375675995925,0.7516442411378582,82.30489349365234,-13.282893180847168,-17.204946517944336,16062926.999999998,50353.99999999814,0.19604798413529273,0.1701450582119936,0.039137372070698555,0.00849238092374837,0.006582107086171059,0.0011623156305033498,16.06292757205665
1631,C,1553648746949763.0,1.7801666,13.424576,-0.021835327,161,1970-01-18 23:34:08.746949763,-0.18222046,0.250885,-0.15214539,13.542108797563133,0.34539223929593976,82.49070739746094,-13.13364315032959,-17.23838996887207,16113281.0,50354.00000000186,0.1648825339773061,0.19307543897100704,0.02008443494172174,0.009087147654521236,0.009144802457576746,0.001491027435151761,16.1132815759629
1631,C,1553648797303767.0,1.961441,12.064636,0.45358276,161,1970-01-18 23:34:08.797303767,-1.5994415,0.2690735,0.36486816,12.231452486485251,1.6624507314522994,82.54254913330078,-13.053791999816895,-17.252994537353516,16163635.0,50354.0,0.0942024545452,0.14827269052399997,0.010870105120641,0.006522982756031137,0.008594121856295793,0.0007793424551501068,16.16363558010198
1631,C,1553648847657770.0,2.0449371,13.3142395,-0.24269104,161,1970-01-18 23:34:08.847657770,-2.54982,-0.33251953,0.8490143,13.472551359976807,2.7079469255943533,82.6324234008789,-12.993528366088867,-17.31273651123047,16213989.000000002,50354.00000000186,0.10086858142370374,0.14549474846350532,0.005309620834440196,0.004911303472589271,0.007396182811388694,0.0004073569603710944,16.21398958307691
1631,C,1553648898011774.0,-1.9894104,12.703262,-1.0706024,161,1970-01-18 23:34:08.898011774,-2.8532104,-0.39852905,0.941452,12.902589223840225,3.0308359999620667,82.79900360107422,-12.516412734985352,-17.39496421813965,16264343.0,50353.99999999814,0.0013979957258999465,0.16157343526549395,-0.03306478893887878,0.0025747656128954767,0.007731055661744728,-0.0006987918673654243,16.26434358698316
1631,C,1553648948365778.0,0.058044434,10.1970825,0.52742004,161,1970-01-18 23:34:08.948365778,-2.580841,0.4829712,1.4957733,10.210878148656866,3.02181058511339,82.77107238769531,-12.285956382751465,-17.384389877319336,16314696.999999998,50353.99999999814,-0.0486260009259802,0.08309277347649692,-0.013675702277719496,-0.0011890594869223765,0.006159961137496876,-0.0011767853473602513,16.31469759112224
1631,C,1553648998719782.0,4.0172577,7.0168457,0.8636322,161,1970-01-18 23:34:08.998719782,-2.2075653,0.9170227,1.5931702,8.13144166693057,2.8727106488902465,82.65296173095703,-12.785600662231445,-17.328001022338867,16365051.000000002,50354.000000003725,0.10260388182772559,-0.06007412970860446,0.03502252224648259,0.0013590011074633443,0.0005795403941442714,0.0005374488863535881,16.36505159502849
1631,C,1553649049073786.0,1.136383,4.8218994,1.61763,161,1970-01-18 23:34:09.049073786,-2.0767212,1.168808,1.0188599,5.211411225695912,2.59170958620395,82.25602722167969,-12.829343795776367,-17.20011329650879,16415405.0,50353.99999999814,0.12975321190389522,-0.1954051146172928,0.06247073840939768,0.0058500545488808006,-0.006432200934392877,0.0024545878235330064,16.41540559893474
1631,C,1553649099427790.0,-0.340271,3.67984,1.0437927,161,1970-01-18 23:34:09.099427790,-1.7020111,1.2162018,0.62168884,3.840118485100986,2.182311988838213,81.95093536376953,-12.41425609588623,-17.08950424194336,16465758.999999998,50353.99999999814,0.020043711823999256,-0.2794209071261897,0.06700663931789752,0.0037714371486970593,-0.011954694749435217,0.0032598519390399905,16.46575960307382
1631,C,1553649149781794.0,0.6140137,3.1956024,2.806839,161,1970-01-18 23:34:09.149781794,-0.9459076,0.59687805,0.053527832,4.2973518234599375,1.1197632888732254,81.10144805908203,-12.356255531311035,-16.888242721557617,16516113.0,50354.00000000186,0.006892019957900255,-0.3203661866952119,0.0969473543109036,0.0006781609190729091,-0.015100839661141986,0.004127869697592479,16.51611360698007
1631,C,1553649200135798.0,2.2475739,4.031616,4.3123016,161,1970-01-18 23:34:09.200135798,0.40274048,0.054138184,-0.45986938,6.316760332383979,0.6136861444248458,80.27676391601562,-12.60405158996582,-16.70657730102539,16566467.0,50354.0,0.0720461910052,-0.31150952234320006,0.1792386028862,0.0019874273374179754,-0.015908734726460098,0.006953533844351477,16.56646761111915
1631,C,1553649250489802.0,4.451462,5.026184,3.1879578,161,1970-01-18 23:34:09.250489802,1.9796295,-1.1798248,-0.88464355,7.4324366444579155,2.468504350112005,79.93699645996094,-13.176560401916504,-16.6732120513916,16616821.000000002,50354.00000000186,0.16866162685430625,-0.26542096940000987,0.18883403091380696,0.0060603007302490125,-0.014525378990619332,0.00926696470118312,16.6168216150254
1631,C,1553649300843806.0,3.813446,13.674591,6.0143433,161,1970-01-18 23:34:09.300843806,2.6167908,-1.3489075,-1.2507935,15.417818741393086,3.198691906727364,79.7488784790039,-13.164331436157227,-16.675823211669922,16667175.0,50353.99999999814,0.2080855887159923,-0.022639787824999195,0.23168633479469142,0.009485364646413056,-0.007252505684653785,0.010587441247442472,16.66717561893165
1631,C,1553649351197809.0,3.300705,10.898224,5.3720245,161,1970-01-18 23:34:09.351197809,1.5323639,0.037139893,-0.71917725,12.59065475183087,1.6931433520505061,79.43550872802734,-13.191398620605469,-16.591384887695312,16717528.999999998,50353.99999999814,0.17911297972699336,0.12520056325499535,0.2866745821005894,0.009748498357688689,0.0025821726430009175,0.013050772804672,16.71752962190658
1631,C,1553649401551813.0,-0.7036438,5.2382507,1.8951263,161,1970-01-18 23:34:09.401551813,1.4346313,-0.30293274,-0.6628723,5.614791953962374,1.6091410435418294,79.27596282958984,-12.666769027709961,-16.559730529785156,16767883.000000002,50354.000000003725,0.06538620983240483,-0.08720117647810646,0.18296505569161353,0.0061557560955374235,0.0009567105608818021,0.011824117160695168,16.76788362604566
1631,C,1553649451905817.0,0.21121216,12.140427,-0.5110321,161,1970-01-18 23:34:09.451905817,1.6146088,-1.5960388,-0.9100952,12.15301329408025,2.445930232285034,79.70906829833984,-12.354768753051758,-16.720609664916992,16818237.0,50353.99999999814,-0.012397951400279543,-0.05592623154709794,0.03484733967339871,0.0013340853825455688,-0.003603518751850438,0.00548386267810471,16.81823762995191
1631,C,1553649502259821.0,5.543274,9.78392,-0.28102112,161,1970-01-18 23:34:09.502259821,1.3007965,-0.37519836,-0.27581787,11.248642143626139,1.3816370149826893,80.04313659667969,-12.77293586730957,-16.799802780151367,16868591.0,50354.0,0.14488069805032,0.05852008441899999,-0.019941523919940002,0.0033355181124080685,6.530543375587777e-05,0.0003752837232248299,16.86859163409099
1631,C,1553649552613825.0,3.4736328,9.74379,0.25610352,161,1970-01-18 23:34:09.552613825,1.3437805,-0.012145996,-0.34690857,10.347616025263608,1.387890166165366,80.31463623046875,-12.92972183227539,-16.848840713500977,16918945.0,50354.0,0.22701866250360003,-0.001820045330000016,-0.000627350415200001,0.009363310200666046,0.0014275368841437524,-0.0005178625491358199,16.91894563799724
1631,C,1553649602967829.0,1.1192627,9.308319,-0.71022034,161,1970-01-18 23:34:09.602967829,1.3045197,0.3688507,-0.3998413,9.40223189081837,1.4133985820582495,80.73043060302734,-12.764171600341797,-16.91225814819336,16969299.0,50354.0,0.1156353300035,-0.013794251707000044,-0.011433299177140002,0.008626999569351259,-0.00039312115650055055,-0.0003036509747863443,16.96929964213632
1631,C,1553649653321833.0,0.42955017,7.7595673,-0.40246582,161,1970-01-18 23:34:09.653321833,0.87864685,0.534729,-0.278656,7.781862037330435,1.065647482421801,81.07950592041016,-12.51429271697998,-16.955385208129883,17019653.0,50354.0,0.03899446162799,-0.06375102662490006,-0.02801409945032,0.003893114263906024,-0.0019523574725622494,-0.0009931671552435605,17.01965364604257
1631,C,1553649703675837.0,0.8865814,7.762512,-0.6996918,161,1970-01-18 23:34:09.703675837,0.5688324,0.06161499,-0.12210083,7.844245517827524,0.5850430060851501,81.46171569824219,-12.36645221710205,-17.029512405395508,17070007.0,50354.0,0.033136244537890006,-0.10266980946390004,-0.027749022398739998,0.001816034789138361,-0.00418997739020772,-0.0014039481187937838,17.07000764994882
1631,C,1553649754029841.0,2.2115173,8.879318,-0.97306824,161,1970-01-18 23:34:09.754029841,0.3478546,-0.14237976,-0.14256287,9.202171412934014,0.4019937694808895,81.8443603515625,-12.408524513244629,-17.11578369140625,17120361.0,50354.0,0.0780008309699,-0.07447784609000005,-0.042115079527080004,0.002798098150059629,-0.004460046523880544,-0.0017589684941863703,17.1203616540879
1631,C,1553649804383845.0,2.7697906,9.258835,-0.6216278,161,1970-01-18 23:34:09.804383845,0.3862152,-0.19483948,-0.29370117,9.684223595457004,0.522862296343004,82.15850067138672,-12.50678539276123,-17.190853118896484,17170715.0,50354.0,0.1254143889983,-0.03680492191900006,-0.040149662199080005,0.005121384993139372,-0.0028017662501625957,-0.0020711794024395307,17.17071565799415
1631,C,1553649854737849.0,2.9847717,12.412399,-0.21606445,161,1970-01-18 23:34:09.854737849,0.7772522,-0.19303894,-0.6487732,12.76805368421028,1.0306753513106848,82.41966247558594,-12.504716873168945,-17.25264549255371,17221069.0,50354.0,0.1448826150271,0.05214745841799997,-0.02109057777825,0.0068052676703474965,0.0003862790414353207,-0.0015418455219092376,17.22106966213323
1631,C,1553649905091852.0,3.280777,14.319855,-0.4323578,161,1970-01-18 23:34:09.905091852,0.779129,-0.16566467,-0.8323364,14.6972336925006,1.1520723346614,82.69300079345703,-12.478233337402344,-17.31670570373535,17271423.0,50354.0,0.1577477196199,0.179568758958,-0.01632532698825,0.0076193239354075196,0.005833919204875552,-0.0009420202343061706,17.27142366510816
1631,C,1553649955445856.0,0.7912445,12.651367,-0.41947937,161,1970-01-18 23:34:09.955445856,0.036132813,0.37098694,-0.3122406,12.683024787854231,0.48624179387853583,82.92523193359375,-12.242658615112305,-17.35000228881836,17321777.0,50354.0,0.1025212853055,0.185585256294,-0.021446704429090004,0.006552792737006797,0.009193482641999604,-0.0009509864349943694,17.32177766901441
1631,C,1553650005799860.0,0.75460815,13.226837,-0.84983826,161,1970-01-18 23:34:10.005799860,-1.4554901,0.5209198,-0.13180542,13.275574396340643,1.5515094385698807,83.11984252929688,-12.014497756958008,-17.381858825683594,17372131.0,50354.0,0.03891993216905,0.15806634210799997,-0.031957609970510004,0.003561065532356746,0.008652116292967154,-0.0013445604236387294,17.37213167292066
1631,C,1553650056153864.0,1.7615356,12.307541,1.645874,161,1970-01-18 23:34:10.056153864,-2.9092712,-0.07963562,0.64227295,12.541430315583003,2.980388446062682,82.9557876586914,-11.948448181152344,-17.378183364868164,17422485.0,50354.0,0.06334895119375,0.149409834906,0.020041791825980003,0.0025748236764252157,0.007741327708681478,-0.0003000045534248318,17.42248567705974
1631,C,1553650106507868.0,-0.013809204,12.875168,-1.543747,161,1970-01-18 23:34:10.106507868,-2.5219269,-1.4339447,0.94940186,12.967393590168694,3.052486950565581,83.19438934326172,-11.714689254760742,-17.51712989807129,17472839.0,50354.0,0.044002507472092,0.140555864493,0.002571251479000002,0.002702787674829904,0.007300466413768623,0.0005693285912894816,17.47283968096599
1631,C,1553650156861872.0,-1.8579865,10.598816,1.0759735,161,1970-01-18 23:34:10.156861872,-2.784912,0.6861725,1.2311401,10.814098825549012,3.121261522738564,83.07219696044922,-11.24427318572998,-17.480587005615234,17523193.0,50354.0,-0.047126200439608,0.09753529516799997,-0.011777133409500002,-7.86452178431504e-05,0.005994421126784996,-0.0002317764893641985,17.52319368510507
1631,C,1553650207215876.0,4.4684143,8.686081,-0.617157,161,1970-01-18 23:34:10.207215876,-2.175766,1.9456635,2.0690002,9.787523295382467,3.5777543193445087,83.1893081665039,-11.732748985290527,-17.41816520690918,17573547.0,50354.0,0.06572274072060001,-0.00793334823100006,0.0115516230205,0.00046820509465453586,0.002255908218032847,-5.6776750638530585e-06,17.57354768901132
1631,C,1553650257569880.0,1.2704163,4.6378174,1.6965637,161,1970-01-18 23:34:10.257569880,-2.1802826,0.9126892,1.2184906,5.099179953600985,2.659201597086569,82.7436294555664,-11.86224365234375,-17.297773361206055,17623901.0,50354.0,0.1444865380162,-0.15801340998320004,0.027176222485900004,0.005292439010756414,-0.004178041531558916,0.0009750509663146329,17.62390169291757
1631,C,1553650307923884.0,-0.8247223,4.749771,0.5704193,161,1970-01-18 23:34:10.307923884,-1.7951965,1.1451111,1.0143433,4.8544690340315055,2.358580555166677,82.65121459960938,-11.376969337463379,-17.235754013061523,17674255.0,50354.0,0.011221237838,-0.25711788685320003,0.057075830991,0.0039202546726811935,-0.010451760660450045,0.0021212139503879114,17.67425569705665
1631,C,1553650358277888.0,0.13926697,3.1283264,2.003006,161,1970-01-18 23:34:10.358277888,-1.29599,0.52619934,0.45925903,3.7172374675161586,1.4722074181829734,81.95748901367188,-11.192771911621094,-17.084321975708008,17724609.0,50354.0,-0.01725770884341,-0.2951223417602001,0.0647911287781,-0.00015198023050320763,-0.013903752235799574,0.003068244446106631,17.7246097009629
1631,C,1553650408631892.0,3.0180817,2.9620056,4.2397766,161,1970-01-18 23:34:10.408631892,0.03010559,0.3461609,-0.024261475,5.98815496962243,0.3483135575989452,81.03121185302734,-11.732040405273438,-16.883304595947266,17774963.0,50354.0,0.07949256746459,-0.34013291123600004,0.1571745375202,0.001566887035505449,-0.01599382150468533,0.005588429580392299,17.77496370510198
1631,C,1553650458985895.0,1.7970276,5.0455627,3.7341766,161,1970-01-18 23:34:10.458985895,1.3302612,-0.5923462,-0.677063,6.5292485045968816,1.6058901540419506,80.4544906616211,-11.84045124053955,-16.78578758239746,17825317.0,50354.0,0.12123000684610002,-0.2918626529109001,0.2007602197164,0.005053592253420243,-0.015911752318526505,0.009011723382945879,17.82531770807691
1631,C,1553650509339899.0,1.315979,7.384033,5.711014,161,1970-01-18 23:34:10.509339899,2.0367584,-2.3343658,-1.403183,9.427164206787001,3.4009661861990335,79.89877319335938,-11.729721069335938,-16.775434494018555,17875671.0,50354.0,0.0783761671682,-0.18052926906110006,0.2378015637362,0.005025484643158032,-0.011893411419489049,0.01104167002198611,17.87567171198316
1631,C,1553650559693903.0,9.940353,19.236511,-1.219986,161,1970-01-18 23:34:10.559693903,2.6654663,-1.2219391,0.11967468,21.68737741309276,2.934649517332113,80.35370635986328,-12.137250900268555,-16.90027618408203,17926025.0,50354.0,0.28340067076400005,0.17675623628799994,0.113070611956,0.009108455448619001,-9.499364612834175e-05,0.008833908767402521,17.92602571612224
1631,C,1553650610047907.0,-0.2785797,3.5050201,5.472046,161,1970-01-18 23:34:10.610047907,1.1483612,0.6106262,-0.071258545,6.5043108763936015,1.3025650010757226,79.32307434082031,-11.863945960998535,-16.645063400268555,17976379.0,50354.0,0.2432544663741,0.07909432850469995,0.10705411462000002,0.013259596387725947,0.006441549669785806,0.0055420802410039525,17.97637972002849
1631,C,1553650660401911.0,-0.19729614,6.227005,-0.360672,161,1970-01-18 23:34:10.660401911,1.8984528,-0.41235352,-1.2486877,6.240560978667535,2.309411057264497,79.77770233154297,-11.476088523864746,-16.748659133911133,18026733.0,50354.0,-0.01198112602368,-0.24844600405730005,0.128689063198,0.005822768890002525,-0.004263767135387813,0.005935305987923787,18.02673372393474
1631,C,1553650710755915.0,-0.60054016,18.962143,-0.037460327,161,1970-01-18 23:34:10.710755915,1.4273682,-1.4717102,-0.79486084,18.971687297452505,2.1988894119806903,80.12667846679688,-11.124983787536621,-16.880725860595703,18077087.0,50354.0,-0.0200871245251,0.14071797919600001,-0.010023777596879,-0.0008073823440666341,-0.0027122684819329513,0.0029876358955794233,18.07708772807382
1631,C,1553650761109919.0,4.936035,7.399185,0.22702026,161,1970-01-18 23:34:10.761109919,1.4212646,-0.1053772,-0.2944336,8.897410768527015,1.4552623688881534,80.37115478515625,-11.663366317749023,-16.922882080078125,18127441.0,50354.0,0.10915475358668003,0.17022995505599997,0.004772550433141001,0.0022424556968834003,0.007828736140662604,-0.00013221014630143162,18.12744173198007
1631,C,1553650811463923.0,1.2015991,10.425278,-0.25183105,161,1970-01-18 23:34:10.811463923,1.460968,0.6573181,-0.44410706,10.497317783707842,1.6624456870386635,80.71570587158203,-11.514103889465332,-16.949234008789062,18177795.0,50354.0,0.15452721373570003,-0.044702695049,-0.0006246612598300001,0.006638720891275563,0.003160399825196239,0.00010443140571645108,18.17779573611915
1631,C,1553650861817927.0,-0.052520752,8.360489,-1.1729126,161,1970-01-18 23:34:10.861817927,1.0676422,0.7141113,-0.2662964,8.442526796863033,1.311765447273822,81.19593048095703,-11.213238716125488,-17.000776290893555,18228149.0,50354.0,0.028930345567596,-0.02049994424100004,-0.03587077087605001,0.0046189109705790845,-0.0016416068494043308,-0.0009188454948850511,18.2281497400254
1631,C,1553650912171931.0,0.8269806,8.311447,-0.67726135,161,1970-01-18 23:34:10.912171931,0.766449,0.4271698,-0.1696167,8.379900422009152,0.893693422014468,81.5684814453125,-11.070535659790039,-17.045888900756836,18278503.0,50354.0,0.019498575593096,-0.07371986732800007,-0.04658182953915001,0.0012192949480627426,-0.002372172195872716,-0.002075909120653491,18.27850374393165
1631,C,1553650962525934.0,0.05656433,7.678894,-0.5753784,161,1970-01-18 23:34:10.962525934,0.41012573,-0.14086914,-0.21411133,7.700628084114367,0.4836226738344072,81.91161346435547,-10.80280876159668,-17.115427017211914,18328857.0,50354.0,0.02224501070261,-0.09088038464300006,-0.03153771098575,0.00105097827216699,-0.004144140543873871,-0.0019668156717954073,18.32885774690658
1631,C,1553651012879938.0,3.0466766,8.750412,-0.7959442,161,1970-01-18 23:34:11.012879938,0.21284485,-0.3316803,-0.27565002,9.299756751885782,0.48093417959801205,82.24262237548828,-11.005352973937988,-17.194082260131836,18379211.0,50354.0,0.07813029689461001,-0.07982856283800004,-0.0345257891002,0.0025271491193752087,-0.00429793917072914,-0.0016632807416639632,18.37921175104566
1631,C,1553651063233942.0,3.9262543,9.783112,0.21096802,161,1970-01-18 23:34:11.063233942,0.65940857,-0.20031738,-0.45573425,10.543683452108906,0.8262205647056794,82.43212127685547,-11.255505561828613,-17.237131118774414,18429565.0,50354.0,0.17555748126930001,-0.02685066625200004,-0.014727945283859999,0.006387097190832763,-0.002685862950798932,-0.0012400612705874786,18.42956575495191
1631,C,1553651113587946.0,3.5424347,13.5686035,0.10884094,161,1970-01-18 23:34:11.113587946,0.8862152,0.08357239,-0.614563,14.023825829430299,1.0816882203529592,82.65132141113281,-11.310859680175781,-17.271276473999023,18479919.0,50354.0,0.18803918295299998,0.09445694114349995,0.008051830185920001,0.009154273215124848,0.0017021231829432934,-0.00016808454982083533,18.47991975909099
1631,C,1553651163941950.0,-0.56170654,15.1705475,-1.0652771,161,1970-01-18 23:34:11.163941950,0.06929016,0.4776001,-0.22862244,15.218273259033674,0.5340142337657202,82.937744140625,-10.969305992126465,-17.304147720336914,18530273.0,50354.0,0.07504579288432,0.23009640472699996,-0.024080193200320003,0.006623690436656206,0.008171279588981575,-0.0004035460956135489,18.53027376299724
1631,C,1553651214295954.0,-0.9532471,13.370972,-1.7174835,161,1970-01-18 23:34:11.214295954,-1.3712921,-0.104034424,0.15019226,13.514485629546344,1.3834098813668092,83.2311019897461,-10.614666938781738,-17.376285552978516,18580627.0,50354.0,-0.03814198779428,0.22512063645149996,-0.0700615636262,0.0009291271007519374,0.011460999445751094,-0.0023702070116212947,18.58062776713632
1631,C,1553651264649958.0,1.2338104,12.381027,0.22229004,161,1970-01-18 23:34:11.264649958,-2.7263184,-1.3516693,0.641098,12.44433728809053,3.109795581761774,83.25162506103516,-10.53279972076416,-17.4674129486084,18630981.0,50354.0,0.007063742204100002,0.15488887882299995,-0.03764448574242,-0.0007824569892239618,0.009567499566066085,-0.0027117152049537458,18.63098177104257
1631,C,1553651315003962.0,2.1251984,12.18811,1.7358551,161,1970-01-18 23:34:11.315003962,-3.1214142,-1.5748138,1.3572235,12.49318560414671,3.7503760800197528,83.07461547851562,-10.591146469116211,-17.532533645629883,18681335.0,50354.0,0.0845697645576,0.12510796224899995,0.04930022018978,0.002307056799739321,0.007049480467669742,0.00029345642618118284,18.68133577494882
1631,C,1553651365357966.0,-0.21949768,11.049866,0.45637512,161,1970-01-18 23:34:11.365357966,-2.6500397,0.11911011,1.2368164,11.061464464510854,2.926877591767251,83.05545043945312,-10.361494064331055,-17.540260314941406,18731689.0,50354.0,0.047979827027440004,0.09159332175199997,0.05519378024894,0.0033372010673365527,0.0054558882272931755,0.0026308454490456537,18.7316897790879
1631,C,1553651415711970.0,1.6764832,7.6634827,0.5410614,161,1970-01-18 23:34:11.415711970,-2.3357544,1.5037231,1.3213654,7.863352367257333,3.0761889244502085,82.99559020996094,-10.4669771194458,-17.46916961669922,18782043.0,50354.0,0.03668252443704,-0.022323219780100014,0.025112459264040002,0.002131544022821213,0.0017440133573465252,0.0020218701922182975,18.78204378299415
1631,C,1553651466065974.0,1.0577698,5.928879,2.2774963,161,1970-01-18 23:34:11.466065974,-2.2271576,1.029129,1.0858765,6.438747746491295,2.6829955734460333,82.52570343017578,-10.496448516845703,-17.34718132019043,18832397.0,50354.0,0.068840287781,-0.15125430947910004,0.07096282721290001,0.0026567478432135932,-0.00437016145415888,0.002418887487629919,18.83239778713323
1631,C,1553651516419977.0,-0.38064575,4.6199036,1.1402588,161,1970-01-18 23:34:11.516419977,-1.8903503,0.91174316,0.96139526,4.77373968616466,2.3084585100164445,82.26042175292969,-10.167195320129395,-17.266231536865234,18882751.0,50354.0,0.01704795220685,-0.22788250047980008,0.0860488201527,0.0021624082181740997,-0.009545527464335228,0.003953082245723712,18.88275179010816
1631,C,1553651566773981.0,0.9945679,4.215515,2.15831,161,1970-01-18 23:34:11.566773981,-1.5396271,0.6131592,0.7588196,4.839218333474468,1.822696627786207,81.70448303222656,-10.256414413452148,-17.146326065063477,18933105.0,50354.0,0.01545671797055,-0.27101986590780003,0.08304806667760001,0.0008183700810563998,-0.012560864878540608,0.004257352319726463,18.93310579401441
1631,C,1553651617127985.0,0.7774658,3.2008514,4.050354,161,1970-01-18 23:34:11.617127985,-0.51919556,0.32348633,0.54374695,5.220658031356545,0.8184547518677406,80.68602752685547,-10.305886268615723,-16.949562072753906,18983459.0,50354.0,0.0446144924649,-0.3067473431472001,0.156315533528,0.0015124128651333247,-0.014546445022377738,0.006026457362376392,18.98345979792066
1631,C,1553651667481989.0,3.1329803,3.572174,4.6560516,161,1970-01-18 23:34:11.667481989,0.8097534,-0.37042236,0.3093109,6.65242881572788,0.9426486760497463,79.8490219116211,-10.82198715209961,-16.804386138916016,19033813.0,50354.0,0.0984533014597,-0.32294473950420005,0.21920117379120002,0.0036020178476396545,-0.015853757564914302,0.009454384140175501,19.03381380205974
1631,C,1553651717835993.0,3.222229,5.2103424,7.2877502,161,1970-01-18 23:34:11.717835993,1.7495117,-0.7090759,-0.64245605,9.52059507758201,1.994073618645837,78.9853744506836,-11.090580940246582,-16.663650512695312,19084167.0,50354.0,0.1600051045461,-0.27235178459720005,0.3007090979186,0.006507207288008027,-0.014987780587300952,0.013089780910837637,19.08416780596599
1631,C,1553651768189997.0,3.8334808,10.758957,9.657593,161,1970-01-18 23:34:11.768189997,2.0988464,-1.0053253,-1.0365143,14.957266906940808,2.547586517415559,78.37727355957031,-11.180624008178711,-16.58415412902832,19134521.0,50354.0,0.1776416056346,-0.09141014900620002,0.4266329057464,0.008500931222219486,-0.009158434202332805,0.018312289626273705,19.13452181010507
1631,C,1553651818544001.0,8.746109,14.730347,4.295456,161,1970-01-18 23:34:11.818544001,1.8701782,-0.4505005,-0.110839844,17.66149732124165,1.9268634282879094,78.37288665771484,-11.635091781616211,-16.5878963470459,19184875.0,50354.0,0.31671633239460006,0.148275006808,0.35129591467300003,0.01244644980576117,0.0014316865248759178,0.019585913911699237,19.18487581401132
1631,C,1553651868898005.0,-1.7247772,3.9036407,3.500534,161,1970-01-18 23:34:11.868898005,1.3090668,0.31173706,-0.674942,5.5196925085997615,1.5054509572894375,77.73834991455078,-10.922685623168945,-16.442293167114258,19235229.0,50354.0,0.17677607072860002,-0.024321291677100024,0.19627964023,0.01242465823343281,0.0031207826858506687,0.013786309745792832,19.23522981791757
1631,C,1553651919252009.0,-1.0005646,8.967804,-0.20703125,161,1970-01-18 23:34:11.919252009,1.7050934,-1.3217163,-1.0962982,9.025824064298268,2.419947772934881,78.17793273925781,-10.464521408081055,-16.582550048828125,19285583.0,50354.0,-0.0686159304986,-0.16940483678810006,0.08292051873675,0.0027231478505707106,-0.004877442736368343,0.007029422402305865,19.28558382205665
1631,C,1553651969606013.0,2.1718292,15.209869,0.7040558,161,1970-01-18 23:34:11.969606013,1.2758789,-1.2715454,-0.74324036,15.380268256459223,1.948615124764072,78.48435974121094,-10.385519027709961,-16.695091247558594,19335937.0,50354.0,0.029488928834200002,0.11525207312099994,0.012513587095350002,-0.000985100520904599,-0.0013634041308465798,0.002402744482534782,19.3359378259629
1631,C,1553652019960017.0,3.5466003,8.538269,1.4183197,161,1970-01-18 23:34:12.019960017,0.956192,-0.121795654,-0.57691956,9.35371808297263,1.1233759392598195,78.58341979980469,-10.653886795043945,-16.71609115600586,19386291.0,50354.0,0.1439728995215,0.10443767042599995,0.0534350479635,0.0043672484525114595,0.005531128673282816,0.0016603887848766665,19.38629183010198
1631,C,1553652070314020.0,1.75737,9.039749,-0.62835693,161,1970-01-18 23:34:12.070314020,1.1144714,0.19477844,-0.41488647,9.23039781002856,1.2050377276649284,79.01789855957031,-10.648748397827148,-16.780750274658203,19436645.0,50354.0,0.13353806024310003,-0.05090744081400003,0.01988889266029,0.006986893433993336,0.001347730590941322,0.0018460768530851608,19.43664583307691
1631,C,1553652120668024.0,0.7078552,7.8276978,-0.60998535,161,1970-01-18 23:34:12.120668024,0.7484741,0.25927734,-0.16583252,7.88327304864588,0.8092827948855925,79.43946075439453,-10.510220527648926,-16.84027862548828,19486999.0,50354.0,0.0620669748604,-0.06879749191640003,-0.03117774358356,0.00492474796880082,-0.0030138110913532825,-0.0002842193996951688,19.48699983698316
1631,C,1553652171022028.0,0.81359863,6.3973694,-0.016204834,161,1970-01-18 23:34:12.171022028,0.37963867,-0.086242676,-0.11203003,6.448917782654637,0.40510991908963523,79.7278060913086,-10.428363800048828,-16.894390106201172,19537353.0,50354.0,0.038305643077910005,-0.13532468310560006,-0.015765590262567998,0.0025270814018328314,-0.005139184000528896,-0.0011818923162439648,19.53735384112224
1631,C,1553652221376032.0,1.7743073,7.2760315,-0.20994568,161,1970-01-18 23:34:12.221376032,0.19508362,-0.32504272,-0.110458374,7.492187796123119,0.3948562282705272,80.03316497802734,-10.512800216674805,-16.964813232421875,19587707.0,50354.0,0.06515570759961,-0.14921398554070006,-0.005693791490978001,0.002604846426007921,-0.0071638300605078985,-0.0005402828544090277,19.58770784502849
1631,C,1553652271730036.0,3.586258,10.092819,-0.41175842,161,1970-01-18 23:34:12.271730036,0.42596436,0.14537048,-0.15544128,10.718945228228657,0.47617245192648255,80.34613800048828,-10.734322547912598,-17.012908935546875,19638061.0,50354.0,0.1349629525581,-0.056173650961500024,-0.0156526441257,0.005038387506790665,-0.0051710445242158926,-0.0005374392095211021,19.63806184893474
1631,C,1553652322084040.0,3.8172607,11.921112,-1.0115204,161,1970-01-18 23:34:12.322084040,0.8737488,0.116607666,-0.49641418,12.55816722646759,1.0116626667899138,80.73755645751953,-10.890374183654785,-17.07663917541504,19688415.0,50354.0,0.1863983903099,0.060775540786999996,-0.03583389085114,0.008090914529387637,0.0001158617801366128,-0.0012962764911119008,19.68841585307382
1631,C,1553652372438044.0,2.3561707,13.716629,-0.81030273,161,1970-01-18 23:34:12.372438044,1.1721497,-0.12338257,-0.8433533,13.941091851265629,1.4492767045705195,81.11325073242188,-10.826982498168945,-17.148988723754883,19738769.0,50354.0,0.15542848235780002,0.15201220515699998,-0.04586804094401,0.008606175173154684,0.0053573570796320875,-0.002057009536806492,19.73876985698007
1631,C,1553652422792048.0,1.7625427,13.959198,-0.16574097,161,1970-01-18 23:34:12.422792048,0.57170105,0.059631348,-0.757782,14.071006916410205,0.9511212056091483,81.38275909423828,-10.701972007751465,-17.196809768676758,19789123.0,50354.0,0.10369684727180001,0.203325096379,-0.0245738522349,0.00652399842408444,0.008946327240771872,-0.0017735155445654173,19.78912386111915
1631,C,1553652473146052.0,0.7613983,12.339722,-0.67277527,161,1970-01-18 23:34:12.473146052,-0.60891724,0.60269165,-0.14233398,12.38148185688815,0.8684908704250037,81.64274597167969,-10.516974449157715,-17.222105026245117,19839477.0,50354.0,0.06354526255699999,0.16865870883999995,-0.02111132337448,0.004210654599159698,0.009365436263998763,-0.0011502156663173602,19.8394778650254
1631,C,1553652523500056.0,0.93078613,12.66687,-0.37184143,161,1970-01-18 23:34:12.523500056,-1.993103,0.37783813,0.43788147,12.706463885195,2.0753219998015386,81.79225158691406,-10.382269859313965,-17.24590492248535,19889831.0,50354.0,0.04260412739411,0.13612176678399995,-0.0263003146559,0.0026725231907990966,0.007673458034785446,-0.0011936828106908772,19.88983186893165
1631,C,1553652573854059.0,1.8416138,12.676132,-1.1687012,161,1970-01-18 23:34:12.573854059,-2.5587158,-0.62739563,0.8953705,12.86241526170944,2.782506092353256,82.00467681884766,-10.384184837341309,-17.331499099731445,19940185.0,50354.0,0.06980071303761,0.14459156135399998,-0.038786241795510004,0.0028300166675494145,0.007067519462530425,-0.0016386842317771498,19.94018587190658
1631,C,1553652624208063.0,0.47607422,11.5394745,-0.32943726,161,1970-01-18 23:34:12.624208063,-2.7586212,-0.34526062,1.1508026,11.553988372305694,3.0089105079711134,82.11175537109375,-10.24724292755127,-17.384479522705078,19990539.0,50354.0,0.05835243127954,0.11620712485050001,-0.037718632007420004,0.003226511714472886,0.006566128522570696,-0.0019261632077363687,19.99053987604566
1631,C,1553652674562067.0,0.9348755,8.935135,0.65914917,161,1970-01-18 23:34:12.674562067,-2.832077,1.1692963,1.3551788,9.008057909285272,3.3502870848767765,82.0506591796875,-10.199671745300293,-17.33268928527832,20040893.0,50354.0,0.035523481100440006,0.0220200433815,0.00830115675807,0.0023635138459907564,0.0034801454145770645,-0.0007406437743528851,20.04089387995191
1631,C,1553652724916071.0,2.720169,6.36261,0.40525818,161,1970-01-18 23:34:12.724916071,-2.3798828,1.2830353,1.3888245,6.931548138267375,3.039548521504827,82.01879119873047,-10.580151557922363,-17.27602767944336,20091247.0,50354.0,0.0920230553765,-0.10831787413500002,0.026798583850950002,0.0032112391488799187,-0.00217272048488087,0.0008837061693132967,20.09124788409099
1631,C,1553652775270075.0,0.9346771,5.4789886,0.90592957,161,1970-01-18 23:34:12.775270075,-2.2991638,1.381073,1.114212,5.631486992437677,2.9043045968877714,81.85430908203125,-10.600035667419434,-17.192079544067383,20141601.0,50354.0,0.0920180602597,-0.19533327204780004,0.03301177398175,0.004633603168372608,-0.007645024907444359,0.001505845379153888,20.14160188799724
1631,C,1553652825624079.0,-0.12387085,5.3308105,1.6775208,161,1970-01-18 23:34:12.825624079,-2.0837402,1.3133392,0.8745117,5.589898085727737,2.613733687426776,81.5011978149414,-10.342520713806152,-17.077085494995117,20191955.0,50354.0,0.020413668956250002,-0.22131088805930008,0.06504352996549001,0.0028306936464699735,-0.01048985001901646,0.002468738387479662,20.19195589213632
1631,C,1553652875978083.0,0.12161255,3.6777802,3.7312164,161,1970-01-18 23:34:12.875978083,-1.3278656,0.49046326,0.61790466,5.240499273490886,1.5445346968983582,80.55574035644531,-10.195097923278809,-16.892107009887695,20242309.0,50354.0,-5.685721910000012e-05,-0.26665991194610006,0.13617577648440002,0.0005125234491062257,-0.01228564083173596,0.005066098478488881,20.24230989604257
1631,C,1553652926332087.0,1.3845673,2.731491,4.9542847,161,1970-01-18 23:34:12.926332087,0.005783081,-0.13153076,0.38752747,5.8243460216546525,0.40928147387419217,79.44676208496094,-10.395886421203613,-16.697101593017578,20292663.0,50354.0,0.03792109008345,-0.33210297899760005,0.2186748611947,0.00095330779082574,-0.01507505330528954,0.008934074504846701,20.29266389994882
1631,C,1553652976695371.0,3.4977112,2.9442902,4.739105,161,1970-01-18 23:34:12.976695371,1.5594025,-0.38430786,-0.091278076,6.584978710781568,1.6086517259563338,78.61569213867188,-10.994519233703613,-16.54819679260254,20343027.0,50364.0,0.12294553718699999,-0.35063967782160005,0.2440989394254,0.0040509434079244715,-0.017192825584021097,0.011653569847215358,20.343027184018865
1631,C,1553653027049375.0,2.7858276,7.2312775,7.4509583,161,1970-01-18 23:34:13.027049375,2.2870178,-0.99302673,-0.84490967,10.750301823077661,2.6325700094149145,77.94319915771484,-11.109222412109375,-16.45343780517578,20393381.0,50354.0,0.15820065636760003,-0.23727893201710004,0.3069092237041,0.007078417715124165,-0.014802026839908954,0.013872732523111424,20.393381187925115
1631,C,1553653077403379.0,8.197174,14.6401825,3.8675995,161,1970-01-18 23:34:13.077403379,2.488449,-1.1293945,-0.24906921,17.218795867074515,2.7440746771181854,78.01781463623047,-11.535502433776855,-16.500858306884766,20443735.0,50354.0,0.27651903128320005,0.05718854841999994,0.2849673297306,0.010944937575984193,-0.004534135587824189,0.014901675985825443,20.443735192064196
1631,C,1553653127757382.0,6.3834534,9.384979,2.4182892,161,1970-01-18 23:34:13.127757382,2.1564484,-0.1121521,0.01727295,11.6049313136808,2.159431904506061,78.0741958618164,-12.070508003234863,-16.49602508544922,20494089.0,50354.0,0.36709645604980007,0.11141229108549995,0.1582598197999,0.016204307124582946,0.004244863336229971,0.0111591299437294,20.494089195039123
1631,C,1553653178111386.0,-0.6750183,3.3306885,1.4822083,161,1970-01-18 23:34:13.178111386,2.0947113,-0.007461548,-0.8148041,3.707570233179141,2.2476158093462186,77.88026428222656,-11.487591743469238,-16.443124771118164,20544443.0,50354.0,0.1437212705127,-0.17332683935250007,0.0982028255575,0.012860857901664064,-0.001558822581718262,0.00645696002216326,20.544443198945373
1631,C,1553653228465390.0,0.43455505,13.20108,0.07380676,161,1970-01-18 23:34:13.228465390,1.9594574,-0.6117401,-0.7651825,13.208436648434294,2.1907084494904887,78.28425598144531,-11.223366737365723,-16.54033660888672,20594797.0,50354.0,-0.00605414324525,-0.07724886447550006,0.039175791165620005,0.003466045263212589,-0.006308744495277558,0.003458781433237993,20.594797203084454
1631,C,1553653278819394.0,2.773056,11.7883,2.374649,161,1970-01-18 23:34:13.278819394,1.4707184,-0.071899414,-0.49513245,12.340697482003883,1.5534922854250375,78.36760711669922,-11.243906021118164,-16.55064582824707,20645151.0,50354.0,0.08075802340585,0.13568842025999994,0.06164477066952,0.0018808195908034265,0.0014713326959863537,0.00253835928532332,20.645151206990704
1631,C,1553653329173398.0,0.95762634,8.914642,0.5276489,161,1970-01-18 23:34:13.329173398,1.2277222,0.5132446,-0.6762848,8.981442175780959,1.4926764386540843,78.63347625732422,-11.080521583557129,-16.572179794311523,20695505.0,50354.0,0.09392738927418,0.02776877073399997,0.0730711542283,0.004398054635045116,0.004115361697655936,0.0033917428411524143,20.695505211129785
1631,C,1553653379527402.0,1.0938721,9.165848,-0.77111816,161,1970-01-18 23:34:13.379527402,1.000061,0.50323486,-0.46307373,9.263042100030864,1.211529862387359,79.0831527709961,-10.956101417541504,-16.628786087036133,20745859.0,50354.0,0.05165057622388,-0.03825670327000001,-0.006129825559020001,0.0036652164373446572,-0.0002640546774588731,0.0016853818319064627,20.745859215036035
1631,C,1553653429881406.0,1.4010468,7.733032,-0.63923645,161,1970-01-18 23:34:13.429881406,0.8114929,0.87786865,-0.17086792,7.884880423178454,1.2076298851421154,79.50279235839844,-10.931184768676758,-16.660011291503906,20796213.0,50354.0,0.0628145731453,-0.06800609824000003,-0.03550849801597,0.002881889065667845,-0.0026753785536172713,-0.0010483280726475235,20.796213218942285
1631,C,1553653480235410.0,0.56269836,7.1621094,-0.97639465,161,1970-01-18 23:34:13.480235410,0.6780853,0.6355591,-0.050354004,7.250226687108733,0.9307365735737111,79.98628234863281,-10.774680137634277,-16.714391708374023,20846567.0,50354.0,0.04944121189332,-0.11845422497220004,-0.0406767442047,0.0028262638999173363,-0.0046945115575135615,-0.0019181158433898087,20.846567223081365
1631,C,1553653530589414.0,0.9747009,8.0091095,-1.0162354,161,1970-01-18 23:34:13.530589414,0.48147583,0.36875916,0.04588318,8.131950025403759,0.6082002623848554,80.43587493896484,-10.688261032104492,-16.77538299560547,20896921.0,50354.0,0.03870710116902,-0.11150342175470006,-0.05016844676885,0.0022193100779705345,-0.005789643671643164,-0.002287209373141069,20.896921226987615
1631,C,1553653580943418.0,1.6126556,9.644867,-1.0830688,161,1970-01-18 23:34:13.580943418,0.175354,0.54273987,-0.20999146,9.838554546143138,0.6077927320037222,80.83554077148438,-10.651993751525879,-16.823171615600586,20947275.0,50354.0,0.06514187460050001,-0.048995033659500066,-0.052854181843399996,0.0026146056629492054,-0.004040869611963317,-0.0025938007205706186,20.947275231126696
1631,C,1553653631297422.0,2.332199,9.630875,-1.2758331,161,1970-01-18 23:34:13.631297422,0.16944885,0.3243866,-0.44044495,9.991028752850308,0.5726528905073168,81.2492446899414,-10.709465026855469,-16.885988235473633,20997629.0,50354.0,0.09931960426420001,-0.008163843666000054,-0.05939007313630001,0.004140646653376553,-0.0014390890544241166,-0.002825973607623907,20.997629235032946
1631,C,1553653681651425.0,2.0409546,11.297073,-1.6289978,161,1970-01-18 23:34:13.681651425,0.5415497,0.0064086914,-0.5615692,11.594955277145099,0.7801776177795607,81.69554138183594,-10.678459167480469,-16.967662811279297,21047983.0,50354.0,0.11010288818720002,0.03343374679599994,-0.07313492756930001,0.0052726300924489,0.0006362203511040071,-0.003336581942764892,21.047983238007873
1631,C,1553653732005429.0,2.1114197,13.677231,-0.6967926,161,1970-01-18 23:34:13.732005429,0.88653564,0.21131897,-0.6752167,13.856776714096387,1.1342480945679214,82.01905822753906,-10.600573539733887,-17.013696670532227,21098337.0,50354.0,0.10454432775110001,0.13530885180799998,-0.0585564249008,0.00540417295567858,0.004248432405052906,-0.0033155931811397078,21.098337241914123
1631,C,1553653782359433.0,3.8972168,13.426331,-2.0713959,161,1970-01-18 23:34:13.782359433,0.7225647,0.6470032,-0.38804626,14.133129302539476,1.0446495998162817,82.45356750488281,-10.722403526306152,-17.058595657348633,21148691.0,50354.0,0.1512794411605,0.18891718047399997,-0.06969468186450001,0.0064408750298873526,0.008163038814763914,-0.003228978115029958,21.148691246053204
1631,C,1553653832713437.0,1.342514,13.726654,-0.4000702,161,1970-01-18 23:34:13.832713437,-0.11355591,0.91160583,-0.11546326,13.797950211565485,0.9258789869068984,82.67179870605469,-10.58582592010498,-17.05634880065918,21199045.0,50354.0,0.13192070235160003,0.1901615033449999,-0.06222410199970001,0.007130130013204142,0.009544064022510962,-0.0033213192213489644,21.199045249959454
1631,C,1553653883067441.0,2.0728455,10.67424,0.9837036,161,1970-01-18 23:34:13.883067441,-1.4176483,1.2064972,0.3201599,10.918047481904592,1.888879180272984,82.6408462524414,-10.603126525878906,-17.00286102294922,21249399.0,50354.0,0.08598850613150001,0.12087210823799995,0.014694138111800002,0.00548630014197901,0.007830893238825187,-0.0011966619008056585,21.249399254098535
1631,C,1553653933421445.0,3.7626953,8.937836,-0.48487854,161,1970-01-18 23:34:13.933421445,-2.2019653,0.7512207,0.8072357,9.709680503605185,2.4626435385307124,82.7668685913086,-10.945013046264648,-17.004980087280273,21299753.0,50354.0,0.14692141072160003,0.0003040374519999659,0.01255891853562,0.0058639729766105,0.0030508518200371283,0.0006861502072120935,21.299753258004785
1631,C,1553653983775449.0,1.2576904,9.920898,-4.4574127,161,1970-01-18 23:34:13.983775449,-0.82003784,1.1391296,1.0704346,10.948722767829015,1.7651936260663263,83.4692611694336,-10.921478271484375,-17.083892822265625,21350107.0,50354.0,0.12639825076890002,-0.018662854082000035,-0.12443206654948001,0.006881369117346319,-0.00046221992629351177,-0.002816630247544954,21.350107261911035
1631,C,1553654034129453.0,1.2416992,9.666901,-1.271225,161,1970-01-18 23:34:14.034129453,-1.5484924,4.2843475,1.0336151,9.828876072456435,4.671383348491324,83.70033264160156,-10.865255355834961,-16.92748260498047,21400461.0,50354.0,0.0629271319592,-0.00030718457700007034,-0.1442299113729,0.004766645160945374,-0.0004776086633176457,-0.006764102618151762,21.400461266050115
1631,C,1553654084483457.0,7.645401,8.101883,2.2042236,161,1970-01-18 23:34:14.084483457,-1.3587494,3.4579926,1.7489777,11.355671106336558,4.106438328862667,83.42839813232422,-11.6825532913208,-16.70893096923828,21450815.0,50354.0,0.2237505217354,-0.04610452523200004,0.023490105752200004,0.007217683287068944,-0.0011685076178611956,-0.003039866086112364,21.450815269956365
1631,C,1553654134837461.0,2.2685852,7.0802765,-1.5214233,161,1970-01-18 23:34:14.134837461,-0.7174988,2.9606628,1.3994293,7.588907891382934,3.3524216782803102,83.80796813964844,-11.89249038696289,-16.641878128051758,21501169.0,50354.0,0.2496044305574,-0.11122797026850002,0.017190863153100006,0.011917657633875827,-0.00396116023921609,0.0010242247541287384,21.501169274095446
1631,C,1553654185191464.0,1.0240936,7.6104126,-0.27796936,161,1970-01-18 23:34:14.185191464,-0.14428711,1.9112091,1.6520386,7.684036348749173,2.5303696429424933,83.98788452148438,-11.861706733703613,-16.57871437072754,21551523.0,50354.0,0.08289977414760001,-0.12360172052930003,-0.04530330900082,0.008371458361857787,-0.005912307125216213,-0.0007077870491080463,21.551523277070373
1631,C,1553654235545468.0,3.0667267,7.174301,-0.22973633,161,1970-01-18 23:34:14.235545468,0.7033539,1.7004547,1.4375763,7.805650919200509,2.33513993450478,84.18740844726562,-12.206911087036133,-16.522966384887695,21601877.0,50354.0,0.10299458269310001,-0.12123446569280004,-0.01278250615713,0.0046802622221783045,-0.006164240660513813,-0.0014624265682317073,21.601877280976623
1631,C,1553654285899472.0,1.4426727,6.068924,-0.15315247,161,1970-01-18 23:34:14.285899472,1.6483002,1.3397217,0.5805969,6.2399197684079555,2.2020082976820365,84.4349136352539,-12.260455131530762,-16.489978790283203,21652231.0,50354.0,0.11353314869379999,-0.16004452417500006,-0.0096399913176,0.005451518693127982,-0.007081761127901603,-0.0005645312189212773,21.652231285115704
1631,C,1553654336253476.0,0.11520386,5.287842,1.2303772,161,1970-01-18 23:34:14.336253476,2.534027,1.0844269,-0.44258118,5.430319788060621,2.7916218653432994,84.35851287841797,-11.961323738098145,-16.396406173706055,21702585.0,50354.0,0.03922265815112,-0.20753990241800005,0.02712128702721,0.003845932948934551,-0.009254673108331965,0.0004401265820808509,21.702585289021954
1631,C,1553654386607480.0,2.2881012,16.028732,1.3077698,161,1970-01-18 23:34:14.386607480,1.8605194,2.896469,-2.0367737,16.24395021166519,3.999939025878901,84.44806671142578,-11.749364852905273,-16.264324188232422,21752939.0,50354.0,0.06050801149562,0.04321818359800004,0.06390292701900001,0.002510919069695973,-0.004137127914731141,0.0022917166370414292,21.752939292928204
1631,C,1553654436961484.0,3.9051971,10.414368,1.2026825,161,1970-01-18 23:34:14.436961484,0.6205597,3.523407,-0.22161865,11.187317391809291,3.584495230146208,84.4177474975586,-11.937492370605469,-16.081161499023438,21803293.0,50354.0,0.1559286712991,0.1722887287,0.0632056575571,0.005449226362722666,0.005425817530926747,0.0032002128338724707,21.803293297067285
1631,C,1553654487315488.0,-0.89263916,5.6304016,-4.0969086,161,1970-01-18 23:34:14.487315488,1.8103333,-1.6773987,0.14971924,7.020177129104509,2.4725268262805074,85.48859405517578,-11.552661895751953,-16.36138343811035,21853647.0,50354.0,0.07584717125538001,-0.08951003578080005,-0.0728679305197,0.005835420387994144,0.0020841191516266975,-0.00024326704637938018,21.853647300973535
1631,C,1553654537669492.0,-2.3815918,17.28508,6.219269,161,1970-01-18 23:34:14.537669492,-1.7554016,3.2644958,-1.8465881,18.52364102984584,4.141045184076336,84.98867797851562,-10.991927146911621,-16.128931045532227,21904001.0,50354.0,-0.08243531287992,0.08347388024319996,0.0534346677908,-0.00016586964168104312,-0.0001519722879701575,-0.0004892712557255154,21.904001305112615
1631,C,1553654588023496.0,7.746933,6.8762665,-4.7699127,161,1970-01-18 23:34:14.588023496,0.5596161,2.6753693,-0.6447449,11.403950151203421,2.808285430086783,85.67704010009766,-11.74923324584961,-16.131267547607422,21954355.0,50354.0,0.13508319539240002,0.11484102083049999,0.0364904435651,0.0013255157380167096,0.0049929742643325436,0.002264044528607495,21.954355309018865
1631,C,1553654638377500.0,2.1612244,8.240097,-6.203583,161,1970-01-18 23:34:14.638377500,1.1623688,2.7197723,-0.049087524,10.538241386230123,2.9581535078614802,86.65214538574219,-11.809208869934082,-16.185916900634766,22004709.0,50354.0,0.24945767885980002,-0.11288451616050003,-0.27627970123890006,0.009681585591047643,4.9258918076588895e-05,-0.006037174140453264,22.004709312925115
1631,C,1553654688731504.0,1.4937286,10.134933,1.759201,161,1970-01-18 23:34:14.688731504,0.69281006,1.9726563,0.0026550293,10.394367715419152,2.0907811234912845,86.50242614746094,-11.716662406921387,-16.051918029785156,22055063.0,50354.0,0.092020751681,-0.03084106969000002,-0.111896205614,0.008597402445725722,-0.00361857907495804,-0.009773104806835464,22.055063317064196
1631,C,1553654739085507.0,2.7154388,9.730469,-1.0732727,161,1970-01-18 23:34:14.739085507,0.5004883,2.5086365,-0.13961792,10.159111630702348,2.5618818847000475,86.74128723144531,-11.80087947845459,-15.973342895507812,22105417.0,50354.0,0.1059742076298,0.006682026153999953,0.017269616809100004,0.004984919090568012,-0.0006082522391058738,-0.0023824136263409673,22.105417320039123
1631,C,1553654789439511.0,1.4836884,9.192627,-4.674423,161,1970-01-18 23:34:14.789439511,0.690094,2.018402,0.11807251,10.419018802764134,2.136379526221336,87.48340606689453,-11.749838829040527,-16.01877784729004,22155771.0,50354.0,0.10572142551439999,-0.017042412008000055,-0.1447097346389,0.005329860955671523,-0.0002608434346461606,-0.0032085598466008746,22.155771323945373
1631,C,1553654839793515.0,0.34301758,9.143265,-2.3401947,161,1970-01-18 23:34:14.839793515,0.7325592,1.681778,-0.073654175,9.44422930441241,1.8358772181939538,87.9267807006836,-11.514455795288086,-16.018627166748047,22206125.0,50354.0,0.04599097645846,-0.03182644711600005,-0.17660702983290003,0.003819663144470696,-0.0012303712661649506,-0.00808979217910651,22.206125328084454
1631,C,1553654890147519.0,0.46124268,9.99617,-2.6904755,161,1970-01-18 23:34:14.890147519,0.6794281,1.3076324,-0.39291382,10.362182101027457,1.525092228865639,88.37767028808594,-11.281899452209473,-16.037628173828125,22256479.0,50354.0,0.02024886056602,-0.011595645005000065,-0.1266571836254,0.001667720376765333,-0.00109323801333042,-0.00763528310223962,22.256479331990704
1631,C,1553654940501523.0,1.3953552,8.939804,-3.182312,161,1970-01-18 23:34:14.940501523,0.5505829,1.1115265,-0.34744263,9.591361809353614,1.2881572385062225,88.91706848144531,-11.208650588989258,-16.083433151245117,22306833.0,50354.0,0.046743564824760005,-0.01671818260200004,-0.1478591708875,0.001686668294063668,-0.0007128572376614418,-0.006911498257571284,22.306833336129785
1631,C,1553654990855527.0,1.443161,10.783676,-1.2902374,161,1970-01-18 23:34:14.990855527,0.14863586,0.79844666,-0.3403473,10.956052861010471,0.8805941019336804,89.11572265625,-11.102582931518555,-16.08158302307129,22357187.0,50354.0,0.0714653223674,0.003108855959999973,-0.11260537624380001,0.0029761451528370125,-0.0003426420168656358,-0.006557715903124741,22.357187340036035
1631,C,1553655041209531.0,1.1877594,10.573639,-0.9091797,161,1970-01-18 23:34:15.041209531,-0.36906433,1.1068878,-0.2406311,10.67891482415238,1.1913489865502882,89.2330322265625,-10.973349571228027,-16.05348014831543,22407541.0,50354.0,0.0662386829108,0.044243919754999965,-0.05537472432670001,0.003466973740889241,0.0011922008341765536,-0.004229234992063479,22.407541343942285
1631,C,1553655091563535.0,3.3542023,10.458054,-1.7582245,161,1970-01-18 23:34:15.091563535,-1.0119476,2.2533875,0.38407898,11.12263098051183,2.499861962825118,89.40946960449219,-11.159436225891113,-15.986123085021973,22457895.0,50354.0,0.1143529697209,0.03604573466099998,-0.0671572355434,0.004546756038308311,0.0020214526292316307,-0.0030849871536495085,22.457895348081365
1631,C,1553655141917539.0,0.3965149,13.582764,-0.5361328,161,1970-01-18 23:34:15.141917539,-1.8192749,2.3093567,0.7700043,13.599122777769669,3.039045269755518,89.36843872070312,-10.960918426513672,-15.882189750671387,22508249.0,50354.0,0.09443180694440001,0.11180647478599996,-0.05776503374210001,0.005256574322102259,0.003722475077247118,-0.003145167973801034,22.508249351987615
1631,C,1553655192271543.0,-2.8703613,10.545029,0.59246826,161,1970-01-18 23:34:15.192271543,-3.5126495,1.9666443,0.39463806,10.944753503048211,4.04501366017141,89.11111450195312,-10.347968101501465,-15.771263122558594,22558603.0,50354.0,-0.0622840308128,0.11399624436099993,0.0014183578764200002,0.0008093845596652935,0.005685035059964017,-0.0014186402582702256,22.558603356126696
1631,C,1553655242625547.0,0.039871216,9.007919,0.3098297,161,1970-01-18 23:34:15.242625547,-2.0647125,0.1056366,1.3969879,9.013333948513635,2.495149693237306,88.97929382324219,-10.16669750213623,-15.760069847106934,22608957.0,50354.0,-0.07126324884486801,-0.0011846282040000639,0.02271715573892,-0.0033623198599411074,0.002840258059984786,0.0006076598262934153,22.608957360032946
1631,C,1553655292979550.0,3.4354706,10.044266,-1.8782959,161,1970-01-18 23:34:15.292979550,-0.36419678,0.04386902,1.612915,10.780432886029075,1.6541035586392798,89.23833465576172,-10.46174430847168,-15.80609130859375,22659311.0,50354.0,0.087498680901432,-0.013792338255000045,-0.0394892735174,0.00040875947288811145,-0.00037707508453824575,-0.000422271609308791,22.659311363007873
1631,C,1553655343333554.0,3.5275574,7.8201904,2.6347046,161,1970-01-18 23:34:15.343333554,-0.34783936,0.38520813,1.14711,8.97444747222959,1.2590626973599475,88.80593872070312,-10.844513893127441,-15.709627151489258,22709665.0,50354.0,0.175308155956,-0.0436957812172,0.019044101839900004,0.006616687731559566,-0.0014473783839515804,-0.0005147480873244175,22.709665366914123
1631,C,1553655393687558.0,0.119400024,7.366577,0.8584137,161,1970-01-18 23:34:15.393687558,0.44540405,1.2003784,0.51686096,7.417384117261819,1.3807383252865417,88.67825317382812,-10.623405456542969,-15.6221923828125,22760019.0,50354.0,0.091819447064048,-0.11111195717020002,0.0879462394391,0.0067254716612357495,-0.003897594429379571,0.0026936958223813833,22.760019371053204
1631,C,1553655444041562.0,-1.1598663,5.071991,-0.0066070557,161,1970-01-18 23:34:15.444041562,1.2757416,0.6226959,0.09674072,5.202924772773647,1.4228933834808173,88.77083587646484,-10.05635929107666,-15.596346855163574,22810373.0,50354.0,-0.026195819430852002,-0.18030337346400005,0.0214459358835411,0.0016522060729209757,-0.007336963779377256,0.002754166798098135,22.810373374959454
1631,C,1553655494395566.0,-3.59227,7.286377,-1.5616302,161,1970-01-18 23:34:15.494395566,1.365509,-1.219635,-0.9713898,8.272507625900445,2.072612483280471,89.15076446533203,-9.177066802978516,-15.708954811096191,22860727.0,50354.0,-0.11964453562510001,-0.18232256886400006,-0.0394835093867589,-0.0036718226192437036,-0.00912983334999206,-0.0004541319880905146,22.860727379098535
1631,C,1553655544749570.0,0.59588623,8.580124,1.1918793,161,1970-01-18 23:34:15.544749570,0.72366333,-2.4639435,-1.1357117,8.682982466885909,2.8079435984178582,89.02896118164062,-8.99307918548584,-15.806388854980469,22911081.0,50354.0,-0.07543995417729,-0.09399830432300005,-0.009309218409299998,-0.004911642199754773,-0.006956930624229102,-0.001228454507721375,22.911081383004785
1631,C,1553655595103574.0,8.484695,9.657562,5.280411,161,1970-01-18 23:34:15.595103574,0.60842896,-0.22901917,-0.4768219,13.897528318222275,0.8062224903299217,88.52649688720703,-9.675843238830566,-15.731839179992676,22961435.0,50354.0,0.22862179362771,-0.03429897957800004,0.16295285288310002,0.003856659171843225,-0.0032301407167754795,0.0038682857851468637,22.961435386911035
1631,C,1553655645457578.0,2.331543,6.553879,-0.59017944,161,1970-01-18 23:34:15.645457578,0.22395325,0.3471222,0.18151855,6.981241614418507,0.45121819989059064,88.69263458251953,-9.930617332458496,-15.740909576416016,23011789.0,50354.0,0.27232042412600005,-0.08531374994300002,0.11808595998612001,0.012612222216385159,-0.0030114896911502182,0.007075714191608354,23.011789391050115
1631,C,1553655695811582.0,-3.5508423,10.990112,3.7950592,161,1970-01-18 23:34:15.695811582,-0.06477356,0.37565613,-0.41255188,12.157035705447193,0.5617047229400736,88.26332092285156,-9.272123336791992,-15.65182876586914,23062143.0,50354.0,-0.0306982984761,-0.05176413859300004,0.08068925771752,0.006083320257487534,-0.0034512099996708736,0.0050045636561245445,23.062143394956365
1631,C,1553655746165586.0,1.4856567,8.50502,0.29418945,161,1970-01-18 23:34:15.746165586,0.07929993,-0.6647339,0.017730713,8.638812908215236,0.6696820252109976,88.26660919189453,-9.28978157043457,-15.684479713439941,23112497.0,50354.0,-0.05199517785119999,-0.0026402616360000383,0.10295501326105001,-0.0020819736534924316,-0.001369739584565535,0.0046236118104274575,23.112497399095446
1631,C,1553655796519589.0,1.002945,9.993851,2.124878,161,1970-01-18 23:34:15.796519589,-0.28796387,-0.51020813,-0.25057983,10.266355877238524,0.6372015203578085,87.99896240234375,-9.189658164978027,-15.669366836547852,23162851.0,50354.0,0.0626555250009,-0.027723124833000053,0.06090486118865,0.00026839556018799733,-0.0007644589811300153,0.004125500059020098,23.162851402070373
1631,C,1553655846873593.0,3.7353973,4.680893,-1.0758362,161,1970-01-18 23:34:15.846873593,-0.24778748,0.45481873,0.3368225,6.084519356163372,0.6178253061422891,88.27861022949219,-9.899242401123047,-15.694698333740234,23213205.0,50354.0,0.11929724408709999,-0.12400317031200006,0.0264117253986,0.0045810248673285765,-0.0038200129328656678,0.0021983697005071934,23.213205405976623
1631,C,1553655897227597.0,2.47966,10.434143,-10.208054,161,1970-01-18 23:34:15.897227597,0.16815186,1.2978973,0.09364319,14.806229105581373,1.31209050617788,89.30863952636719,-9.968941688537598,-15.806918144226074,23263559.0,50354.0,0.1564764976421,-0.11291793862800002,-0.2840945035654,0.006943155495516069,-0.005964962759782382,-0.0064876793059055245,23.263559410115704
1631,C,1553655947581601.0,-0.5126953,17.993835,-3.4136505,161,1970-01-18 23:34:15.947581601,-0.26669312,-1.088028,0.07348633,18.321953067673146,1.1226443736714684,89.59265899658203,-9.690587997436523,-15.911245346069336,23313913.0,50354.0,0.04952227025190001,0.22226200210599997,-0.34295365419650004,0.005186430979267239,0.002752955486185605,-0.01578719146797136,23.313913414021954
1631,C,1553655997935605.0,1.1591034,12.90358,-2.8838959,161,1970-01-18 23:34:15.997935605,-0.23918152,-0.9304657,0.18074036,13.272631731134876,0.9775690748581042,89.91426849365234,-9.588953971862793,-16.012908935546875,23364267.0,50354.0,0.016274616733700002,0.28443501745499994,-0.1585533257128,0.0016565682236364518,0.012757110861487295,-0.012626441233176447,23.364267417928204
1631,C,1553656048289609.0,0.45411682,9.044968,-2.1878204,161,1970-01-18 23:34:16.048289609,0.66539,-1.335495,-0.17207336,9.316878571167871,1.5019653752156505,90.30176544189453,-9.417318344116211,-16.1372013092041,23414621.0,50354.0,0.04061604547894,0.05912939299599998,-0.1276906012851,0.0014323362025276374,0.008649921161924826,-0.007206763350026129,23.414621422067285
1631,C,1553656098643613.0,7.341614,8.932877,-1.1096954,161,1970-01-18 23:34:16.098643613,0.9761658,-0.86224365,-0.41900635,11.61580868914886,1.3681849664410455,90.49111938476562,-10.108792304992676,-16.20374298095703,23464975.0,50354.0,0.19627311485514,-0.04084099643500003,-0.0830215552966,0.0059641583897311334,0.0004604469602162957,-0.005305099966257461,23.464975425973535
1631,C,1553656148997617.0,3.805832,8.552734,0.1595459,161,1970-01-18 23:34:16.148997617,0.7335968,-0.6224365,-0.2779541,9.362642307660098,1.001423957776775,90.49723052978516,-10.438227653503418,-16.228918075561523,23515329.0,50354.0,0.28065924794200003,-0.05323397185300007,-0.023921913961500004,0.012007726098143595,-0.002368525476586979,-0.002692515725511184,23.515329430112615
1631,C,1553656199351621.0,2.5611267,9.017059,-0.3493042,161,1970-01-18 23:34:16.199351621,0.79919434,-0.104400635,-0.4998474,9.380231148914802,0.9483978642759582,90.5802230834961,-10.548261642456055,-16.241710662841797,23565683.0,50354.0,0.1603009191899,-0.051114521639000064,-0.004777544719100001,0.011102054127879847,-0.0026271820206480874,-0.0007225662712014663,23.565683434018865
1631,C,1553656249705625.0,3.9434052,8.929077,-0.6888733,161,1970-01-18 23:34:16.249705625,0.6894989,0.20358276,-0.65223694,9.785366986821133,0.9707047435605696,90.70191192626953,-10.84378433227539,-16.24765396118164,23616037.0,50354.0,0.1637645996463,-0.04163933392800006,-0.0261381949175,0.008158997567739008,-0.0023352638216103624,-0.0007783655768306782,23.616037437925115
1631,C,1553656300059629.0,2.8734283,10.309494,-1.6684418,161,1970-01-18 23:34:16.300059629,0.55023193,0.50439453,-0.5731964,10.83171061149919,0.9411286477726656,90.93219757080078,-10.931633949279785,-16.2608642578125,23666391.0,50354.0,0.1716274170295,-0.009099697933000028,-0.05935012227270001,0.008444164803846617,-0.0012774566051643992,-0.0021523393618976656,23.666391442064196
1631,C,1553656350413632.0,1.8983002,10.670883,-1.6092072,161,1970-01-18 23:34:16.350413632,-0.01890564,0.3879547,-0.1412201,10.957227544481354,0.41329092552330443,91.11858367919922,-10.903365135192871,-16.27718734741211,23716745.0,50354.0,0.1201378084445,0.034753751728999985,-0.08252136887300002,0.007345773081758897,0.0006458921124218909,-0.00357189853257529,23.716745445039123
1631,C,1553656400767636.0,1.3448486,9.171524,-0.96606445,161,1970-01-18 23:34:16.400767636,-0.7350006,0.03630066,0.16343689,9.319804223322063,0.753827060359117,91.20465087890625,-10.847390174865723,-16.29875373840332,23767099.0,50354.0,0.08165275733760001,0.006103081038999957,-0.06483761433205,0.005080481074695933,0.0010286524785999345,-0.0037100571201535448,23.767099448945373
1631,C,1553656451121640.0,2.8704834,6.638855,-0.10105896,161,1970-01-18 23:34:16.451121640,-1.1878967,0.20858765,0.24331665,7.233552624685663,1.2303700133580284,91.13545989990234,-11.170594215393066,-16.28672981262207,23817453.0,50354.0,0.10612941376400001,-0.09541128791700004,-0.02686696609357,0.004727791721824984,-0.0022485127245674085,-0.002308846221375835,23.817453453084454
1631,C,1553656501475644.0,2.6798859,6.3046417,-0.53004456,161,1970-01-18 23:34:16.501475644,-1.1544952,0.66378784,0.093933105,6.871043780822772,1.3350269254100633,91.1572265625,-11.469038963317871,-16.26972198486328,23867807.0,50354.0,0.1397416478661,-0.16759078358410004,-0.015889293323040003,0.006190295718661028,-0.006621603154183198,-0.00107647434333199,23.867807456990704
1631,C,1553656551829648.0,1.6708221,7.211273,-0.9151306,161,1970-01-18 23:34:16.551829648,-0.90335083,1.1381378,-0.2202301,7.458657304463973,1.4696603930148417,91.25121307373047,-11.497647285461426,-16.241437911987305,23918161.0,50354.0,0.10953777531600001,-0.15317901559810002,-0.03638517500332,0.006276108037455732,-0.008076021234010251,-0.001316114289052766,23.918161461129785
1631,C,1553656602183652.0,2.865387,8.168488,0.6026459,161,1970-01-18 23:34:16.602183652,-1.0334625,1.038208,-0.055664063,8.67743170222041,1.4659533001019909,91.05723571777344,-11.691097259521484,-16.161836624145508,23968515.0,50354.0,0.11420813651070003,-0.10625295730300004,-0.007867427291900002,0.005633250822060827,-0.006531718781730996,-0.001114147767986754,23.968515465036035
1631,C,1553656652537656.0,2.3627625,8.1657715,1.2667847,161,1970-01-18 23:34:16.652537656,-1.5984497,0.72795105,0.2051239,8.594603789458393,1.7683410273409943,90.72846221923828,-11.812461853027344,-16.07561683654785,24018869.0,50354.0,0.13162911996150004,-0.08222154856850004,0.0470666542162,0.006189444606200582,-0.004745222634326758,0.0009869189362731012,24.018869468942285
1631,C,1553656702891660.0,0.7539978,10.6605835,3.0610504,161,1970-01-18 23:34:16.702891660,-2.346817,0.2614746,0.45458984,11.116950246997476,2.4046976775814017,90.18800354003906,-11.649856567382812,-15.977238655090332,24069223.0,50354.0,0.0784706740731,-0.01947806016500005,0.1089619043127,0.005289682514409126,-0.002560491049083332,0.003928331018082116,24.069223473081365
1631,C,1553656753245664.0,0.78204346,14.285446,7.9594116,161,1970-01-18 23:34:16.753245664,-2.290451,0.24151611,1.6486816,16.371859772501697,2.8324277277574255,89.35614013671875,-11.54631233215332,-15.821555137634277,24119577.0,50354.0,0.03867291080302001,0.13459698472149997,0.277462171774,0.0029493240364260737,0.002898349163558999,0.009728998963634848,24.119577476987615
1631,C,1553656803599668.0,3.044159,13.68869,7.5456085,161,1970-01-18 23:34:16.803599668,-0.9467621,0.632782,2.2305145,15.924300473447909,2.5043894402090623,88.62313079833984,-11.67672348022461,-15.651268005371094,24169931.0,50354.0,0.09633229933542001,0.21083562207199993,0.3903698910577,0.0033990261756555048,0.008696956741239948,0.016814007845913713,24.169931481126696
1631,C,1553656853953672.0,5.4780884,13.447876,5.129196,161,1970-01-18 23:34:16.853953672,0.28848267,0.8855591,1.4625854,15.400112760496482,1.7339530624490096,88.17108154296875,-11.991809844970703,-15.510571479797363,24220285.0,50354.0,0.21456462278979999,0.18974812218199993,0.3191135528965,0.007827451808346665,0.010085496929082956,0.01786266466843489,24.220285485032946
1631,C,1553656904307675.0,-1.5674133,6.0056915,2.9581604,161,1970-01-18 23:34:16.904307675,0.73620605,0.784256,0.5101166,6.875741981656765,1.190493917325142,87.61190032958984,-11.431975364685059,-15.350278854370117,24270639.0,50354.0,0.0984590669927,-0.0036867310524999882,0.20361537208280003,0.007880997437654002,0.004684467644467421,0.013160746144203837,24.270639488007873
1631,C,1553656954661679.0,-1.5218353,3.60141,0.32455444,161,1970-01-18 23:34:16.954661679,1.3365936,-0.35688782,0.066711426,3.923196688027482,1.3850277188505167,87.61737823486328,-10.630080223083496,-15.355419158935547,24320993.0,50354.0,-0.0777780120022,-0.25159120553450004,0.08264891152668001,0.0005206869214958187,-0.006427132609450901,0.007207275868435879,24.320993491914123
1631,C,1553657005015683.0,-2.4940948,1.5622864,-0.9006958,161,1970-01-18 23:34:17.005015683,1.6812744,-2.3632202,-0.75805664,3.0777427753387125,2.9976896422464234,88.17728424072266,-9.32458209991455,-15.554508209228516,24371347.0,50354.0,-0.10110907212770001,-0.3634628157372001,-0.014505511020720003,-0.004503840117138493,-0.015485215093557596,0.0017156463945385552,24.371347496053204
1631,C,1553657055369687.0,-0.01234436,4.52861,0.6281891,161,1970-01-18 23:34:17.055369687,1.6832428,-2.1351013,-0.95040894,4.571988895511735,2.880146009883085,88.12541198730469,-9.045917510986328,-15.639375686645508,24421701.0,50354.0,-0.06310461873132,-0.3401187013372001,-0.006860901185900003,-0.004134408094757547,-0.017714071855382176,-0.0005379421601260719,24.421701499959454
1631,C,1553657105723691.0,4.0569,9.840012,1.0583191,161,1970-01-18 23:34:17.105723691,1.746872,0.4189148,-0.57398987,10.695995189208379,1.8858726799298136,88.10968780517578,-9.345274925231934,-15.60338020324707,24472055.0,50354.0,0.10182977734828,-0.13171040390600006,0.0424612169514,0.0009749833184992017,-0.011879241382708053,0.0008963091500279937,24.472055504098535
1631,C,1553657156077695.0,3.4277954,10.304504,-0.93110657,161,1970-01-18 23:34:17.156077695,1.4148865,0.11517334,-0.2194519,10.899520330499609,1.4364288504978642,88.34886932373047,-9.559442520141602,-15.625849723815918,24522409.0,50354.0,0.1884421760858,0.01370927933199995,0.0032028298678100026,0.007308176971609832,-0.002970914313399601,0.0011496837067672503,24.522409508004785
1631,C,1553657206431699.0,0.42347717,9.269775,3.1066895,161,1970-01-18 23:34:17.206431699,0.29359436,-0.619751,-0.19210815,9.78568245517636,0.7121758852427061,87.94766998291016,-9.384310722351074,-15.588205337524414,24572763.0,50354.0,0.09696348949489,-0.0006475776170000642,0.05477465142861,0.0071856584423250335,0.0003288544640785521,0.0014596990465999666,24.572763511911035
1631,C,1553657256785703.0,1.6533356,12.131195,0.7931366,161,1970-01-18 23:34:17.256785703,-0.22833252,0.17884827,-0.41539,12.269004702929733,0.5066273733934471,87.89252471923828,-9.32234001159668,-15.57302188873291,24623117.0,50354.0,0.052287915110290004,0.04534302168999994,0.0981859217197,0.003757702613744617,0.001125297195425918,0.0038510883501550017,24.623117516050115
1631,C,1553657307139707.0,3.4247894,15.092575,-3.5855865,161,1970-01-18 23:34:17.307139707,-0.3592987,-0.46894836,-0.27644348,15.886202602068238,0.6522492758163018,88.25669860839844,-9.395477294921875,-15.658780097961426,24673471.0,50354.0,0.127851953125,0.19194365728999993,-0.0703055111323,0.004535381462559896,0.0059741667166794575,0.0007019450973589698,24.673471519956365
1631,C,1553657357493711.0,2.1961517,12.371841,-1.3298187,161,1970-01-18 23:34:17.357493711,0.101867676,-1.0691681,0.016662598,12.635424401007018,1.0741392328945818,88.46664428710938,-9.415301322937012,-15.74494743347168,24723825.0,50354.0,0.1415184340747,0.19800240163199997,-0.1237551567204,0.006781938238526846,0.009817671925479192,-0.004885865434527428,24.723825524095446
1631,C,1553657407847714.0,3.5895233,9.5486145,-0.57540894,161,1970-01-18 23:34:17.407847714,0.3781891,-1.0254822,0.024353027,10.217231123894821,1.0932674914217986,88.6123275756836,-9.69569206237793,-15.816572189331055,24774179.0,50354.0,0.145665939475,0.05842210812349995,-0.04796791629228,0.0072304409728607974,0.0064559998821142215,-0.004323471809240245,24.774179527070373
1631,C,1553657458201718.0,2.911438,8.477219,-1.1261749,161,1970-01-18 23:34:17.458201718,0.43315125,-0.9582367,-0.22834778,9.03371369411246,1.0760949248251201,88.8565902709961,-9.914724349975586,-15.902009963989258,24824533.0,50354.0,0.1636747026501,-0.03963278997050006,-0.04284077633968,0.007788269346783644,0.00047305866313807825,-0.002286290454394857,24.824533530976623
1631,C,1553657508555722.0,2.131668,7.2817535,-1.3826752,161,1970-01-18 23:34:17.508555722,0.5900116,-0.5366974,-0.24536133,7.71231049722982,0.8344818569391961,89.17902374267578,-10.060840606689453,-15.979520797729492,24874887.0,50354.0,0.126970279762,-0.09670554936750005,-0.0631653189677,0.007317568722189443,-0.003432590369512829,-0.0026689154615539066,24.874887535115704
1631,C,1553657558909726.0,2.6669312,8.575485,0.45751953,161,1970-01-18 23:34:17.558909726,0.12123108,-0.38110352,-0.15213013,8.992262736991723,0.42787900645880456,89.13434600830078,-10.233009338378906,-15.989459991455078,24925241.0,50354.0,0.1208143320584,-0.09423150628550003,-0.02329264430359,0.006238473171802212,-0.004807222250175583,-0.0021767521412812685,24.925241539021954
1631,C,1553657609263730.0,3.3522491,8.680298,0.9581604,161,1970-01-18 23:34:17.609263730,-0.66519165,-0.08795166,-0.176651,9.354315514744142,0.6938450846748705,88.97313690185547,-10.492875099182129,-15.970830917358398,24975595.0,50354.0,0.1515449024131,-0.05902035140900001,0.03564257359761,0.0068571884462889565,-0.0038584220211744283,0.00031093416983554153,24.975595542928204
1631,C,1553657659617734.0,3.675583,5.1688232,-0.3945923,161,1970-01-18 23:34:17.659617734,-0.77526855,0.9772644,-0.07524109,6.354710594981217,1.2496992653238022,89.03691864013672,-11.091041564941406,-15.94186019897461,25025949.0,50354.0,0.1769397287817,-0.14478987554760003,0.014188954053700001,0.00827025755959148,-0.00513133008408632,0.001254608371677032,25.025949547067285
1631,C,1553657709971738.0,3.1943817,7.321411,-1.9875488,161,1970-01-18 23:34:17.709971738,-0.4984131,1.6116638,0.29284668,8.231493406946113,1.7122017989913083,89.37051391601562,-11.405908584594727,-15.932417869567871,25076303.0,50354.0,0.17296510125190004,-0.17900257354660004,-0.059975166474700005,0.008809553905755949,-0.008152122490844675,-0.001152759470123517,25.076303550973535
1631,C,1553657760325742.0,0.5671234,10.98111,-0.02255249,161,1970-01-18 23:34:17.760325742,-1.0014648,0.93515015,0.33685303,10.995768022186207,1.4109952205816443,89.33009338378906,-11.211772918701172,-15.888381958007812,25126657.0,50354.0,0.0947034139027,-0.03266662878300007,-0.050608320178329995,0.0067390902060473655,-0.005329195507052343,-0.0027841604434633363,25.126657555112615
1631,C,1553657810679746.0,1.3983917,8.672836,1.64711,161,1970-01-18 23:34:17.810679746,-1.7303772,-0.14186096,0.31488037,8.937927890827096,1.7645054359970949,88.9924545288086,-11.17647647857666,-15.84643268585205,25177011.0,50354.0,0.049485773672700004,0.001358198441999951,0.04090148442927,0.003630251175585846,-0.0007882523506953601,-0.0002443890036540834,25.177011559018865
1631,C,1553657861033750.0,3.270462,8.999039,3.0933228,161,1970-01-18 23:34:17.861033750,-3.3404388,-0.056152344,0.40544128,10.062170270968627,3.3654222757048142,88.39970397949219,-11.403347969055176,-15.765167236328125,25227365.0,50354.0,0.1175477296049,-0.04854440312500004,0.11934987660560002,0.004205402512020135,-0.0011880070753038934,0.004034648516774923,25.227365562925115
1631,C,1553657911387754.0,2.1753693,11.830292,2.1338348,161,1970-01-18 23:34:17.911387754,-3.0387726,0.5204315,1.1805878,12.216435296367658,3.301329340464512,88.02653503417969,-11.43590259552002,-15.694208145141602,25277719.0,50354.0,0.1371096946401,0.030950866586999963,0.1316041468952,0.006411509970216365,-0.0004429524694172279,0.006318269449679643,25.277719567064196
1631,C,1553657961741757.0,3.7621307,10.385895,2.8916626,161,1970-01-18 23:34:17.961741757,-1.25531,0.34552002,1.4690094,11.418500555990102,1.9629508138537655,87.6352767944336,-11.710355758666992,-15.608755111694336,25328073.0,50354.0,0.14948843750000002,0.06586774009899996,0.1265269480398,0.007215681172891298,0.0024376020605334204,0.006498966577178494,25.328073570039123
1631,C,1553658012095761.0,4.8672333,10.188599,4.74205,161,1970-01-18 23:34:18.012095761,0.16963196,0.04046631,0.6518707,12.246817863507642,0.6747947344318476,87.12667846679688,-12.053482055664062,-15.499018669128418,25378427.0,50354.0,0.217261497428,0.024534835437999957,0.1921939821302,0.009233663111682257,0.002276065644295047,0.00802443685889009,25.378427573945373
1631,C,1553658062449765.0,2.8089447,7.1638336,3.4497833,161,1970-01-18 23:34:18.062449765,1.6223145,0.08308411,-0.19010925,8.432774572648432,1.6355270811516098,86.67057800292969,-12.25001335144043,-15.382479667663574,25428781.0,50354.0,0.19326313350600002,-0.05658700442980003,0.20624578699409998,0.01033577863302532,-0.0008069774587065507,0.010031518067242501,25.428781578084454
1631,C,1553658112803769.0,-0.17729187,4.612808,0.30229187,161,1970-01-18 23:34:18.112803769,2.1771545,-0.35794067,-1.2914124,4.626100996162989,2.5565346129055357,86.77323913574219,-11.829238891601562,-15.401920318603516,25479135.0,50354.0,0.06625712330091,-0.19696869443680004,0.09446599655509,0.006533941505627574,-0.00638377183036439,0.007571020574417956,25.479135581990704
1631,C,1553658163157773.0,-1.8960876,5.6720276,-0.16401672,161,1970-01-18 23:34:18.163157773,2.1218414,-0.98147583,-1.5639038,5.9828042560721535,2.8127034730455662,87.00778198242188,-11.031982421875,-15.478917121887207,25529489.0,50354.0,-0.052201474916190004,-0.23452789409880004,0.0034813534515500005,0.0003538790593820955,-0.010863789609560803,0.002466020431117175,25.529489586129785
1631,C,1553658213511777.0,-1.3394623,9.9823,1.2976074,161,1970-01-18 23:34:18.213511777,2.058792,-1.4175262,-1.1969299,10.155011447933285,2.771397880576596,87.01354217529297,-10.519576072692871,-15.532833099365234,25579843.0,50354.0,-0.0814614398323,-0.09934019401480003,0.028540412550360002,-0.0033652312046227335,-0.00840579685443611,0.0008062120026300881,25.579843590036035
1631,C,1553658263865781.0,9.340424,10.888626,2.2200012,161,1970-01-18 23:34:18.263865781,0.97540283,-0.2982483,-0.5194855,14.516683574275959,1.1446518745606233,86.89955139160156,-11.202569961547852,-15.518421173095703,25630197.0,50354.0,0.20144021272090004,0.03199810390199999,0.0885628317222,0.003020705565016283,-0.0016954718027699666,0.002948308381050243,25.630197593942285
1631,C,1553658314219785.0,5.7315826,9.253647,0.9093323,161,1970-01-18 23:34:18.314219785,0.19522095,-0.46702576,0.32743835,10.922815897608778,0.6028599778333296,86.85929107666016,-11.720820426940918,-15.530529022216797,25680551.0,50354.0,0.3794679101682001,0.013652807320999995,0.0787872295295,0.014625523809978874,0.0011493529918614705,0.0042133724921340505,25.680551598081365
1631,C,1553658364573789.0,-0.22523499,5.850998,0.46795654,161,1970-01-18 23:34:18.364573789,-0.24057007,-0.43200684,0.24894714,5.874001338104467,0.55360504594952,86.81504821777344,-11.389983177185059,-15.544560432434082,25730905.0,50354.0,0.13863331377697002,-0.11317955283500003,0.03467600112468,0.01304423451526755,-0.002505784871805979,0.00285666375818029,25.730905601987615
1631,C,1553658414927793.0,1.8888092,8.22847,0.32322693,161,1970-01-18 23:34:18.414927793,0.74282837,-0.36775208,0.014892578,8.448656365551972,0.8290098723782905,86.87914276123047,-11.429976463317871,-15.567859649658203,25781259.0,50354.0,0.04188380788517001,-0.13899043416400006,0.019919626224190003,0.0045448795720877,-0.006348883762673825,0.0013745541097625001,25.781259606126696
1631,C,1553658465281797.0,4.4934998,9.630646,-3.8396912,161,1970-01-18 23:34:18.465281797,0.51612854,1.0211792,0.11764526,11.299739436875237,1.1502330353087755,87.458740234375,-11.754764556884766,-15.628931999206543,25831613.0,50354.0,0.160687393693,-0.043830236468000036,-0.08853402092579,0.005100135142133587,-0.004602876024501866,-0.0017275046154021831,25.831613610032946
1631,C,1553658515635800.0,4.9223022,16.876099,2.0040436,161,1970-01-18 23:34:18.515635800,-0.09275818,-0.971344,0.09864807,17.69316159301742,0.9807368087349619,87.36048126220703,-11.872481346130371,-15.6570463180542,25881967.0,50354.0,0.237061646954,0.17389111886499994,-0.04621609962519999,0.01001412759636952,0.0032745428361092674,-0.0033926037851122757,25.881967613007873
1631,C,1553658565989804.0,-0.0063934326,13.761032,-0.24316406,161,1970-01-18 23:34:18.565989804,-0.080581665,-0.0262146,0.17558289,13.76318173029333,0.19496143528422313,87.44976043701172,-11.58655071258545,-15.67691421508789,25932321.0,50354.0,0.1237678350368298,0.277881847187,0.04433366417858001,0.009084603868083123,0.011374287966291202,-4.7394077239551385e-05,25.932321616914123
1631,C,1553658616343808.0,1.1828766,10.012726,-3.1624756,161,1970-01-18 23:34:18.616343808,0.39537048,-0.79270935,-0.16983032,10.566699149805435,0.9019691056927367,87.97630310058594,-11.467769622802734,-15.817320823669434,25982675.0,50354.0,0.029620316705629802,0.10508270516599999,-0.08574378971982,0.0038618534964199053,0.009641898534591482,-0.0010425827307517994,25.982675621053204
1631,C,1553658666697812.0,3.6580658,8.493118,-2.294632,161,1970-01-18 23:34:18.666697812,0.7285309,-0.69711304,-0.30755615,9.527845232500246,1.0541890950847832,88.41818237304688,-11.740884780883789,-15.933633804321289,26033029.0,50354.0,0.12188040680480001,-0.027547565612,-0.13739359804520002,0.0038143337158220918,0.0019521022085510578,-0.005617930011759909,26.033029624959454
1631,C,1553658717051816.0,1.8444824,7.1579742,-0.56951904,161,1970-01-18 23:34:18.717051816,0.3930664,-0.26985168,-0.17758179,7.413707703214223,0.5087793393479991,88.59207153320312,-11.800536155700684,-15.978553771972656,26083383.0,50354.0,0.1385376560314,-0.09942165168060002,-0.07211073073408,0.006556545568027008,-0.003196703983775791,-0.005274690485675934,26.083383629098535
1631,C,1553658767405820.0,1.4541473,6.464737,0.19285583,161,1970-01-18 23:34:18.767405820,-0.29844666,-0.14123535,-0.21366882,6.6290694837534545,0.3932838638883758,88.57118225097656,-11.81180477142334,-15.98449993133545,26133737.0,50354.0,0.0830495999569,-0.15049020011760003,-0.00948324963817,0.005578902344017429,-0.006292030692723283,-0.0020542916438321384,26.133737633004785
1631,C,1553658817759824.0,0.57702637,6.0227966,-0.35183716,161,1970-01-18 23:34:18.817759824,-0.5163727,0.13752747,-0.3468933,6.06059631585901,0.637094601997836,88.6651382446289,-11.636902809143066,-16.00257110595703,26184091.0,50354.0,0.05113885948959001,-0.17907056655280001,-0.00400267294541,0.0033784628434842794,-0.008297351422460662,-0.00033953507288679374,26.184091636911035
1631,C,1553658868113828.0,4.120926,8.301132,1.1329346,161,1970-01-18 23:34:18.868113828,-0.9239502,1.1065826,0.05531311,9.33672128676749,1.4426602381852327,88.46000671386719,-11.99981689453125,-15.91563606262207,26234445.0,50354.0,0.11828034681949,-0.1328356496378,0.019665690246880002,0.004265467357243707,-0.007852862805030737,0.0003943477865991103,26.234445641050115
1631,C,1553658918467832.0,1.5821991,9.19014,-0.14016724,161,1970-01-18 23:34:18.918467832,-1.1807251,1.2860107,0.28193665,9.326396628216603,1.768452305519638,88.44804382324219,-11.956639289855957,-15.8621826171875,26284799.0,50354.0,0.1435875806427,-0.05309144485600003,0.024994903822720002,0.006593048809715558,-0.004681086458070404,0.0011244197768903194,26.284799644956365
1631,C,1553658968821836.0,1.5831604,8.581985,2.5968475,161,1970-01-18 23:34:18.968821836,-2.0825958,-0.31936646,0.26750183,9.104970089495595,2.1238543808378014,87.9671859741211,-11.931946754455566,-15.7994966506958,26335153.0,50354.0,0.07969425613150001,-0.046020408875000064,0.06185183890602001,0.005621566804464033,-0.0024953391413853896,0.0021865404416814877,26.335153649095446
1631,C,1553659019175839.0,1.4245605,8.288986,3.3507385,161,1970-01-18 23:34:19.019175839,-3.6234894,-0.2792511,0.614624,9.053403228716729,3.6858403750216273,87.29483032226562,-11.908304214477539,-15.71066665649414,26385507.0,50354.0,0.0757253890993,-0.06870876313300006,0.149742372722,0.0039130004079758526,-0.002888536363645419,0.00532730746615866,26.385507652070373
1631,C,1553659069529843.0,8.871201,18.283585,3.5963898,161,1970-01-18 23:34:19.069529843,-2.075531,0.1502533,2.0783844,20.6378707048031,2.9411029734242984,86.99436950683594,-12.35008716583252,-15.656805992126465,26435861.0,50354.0,0.2592163872855,0.17554842006699997,0.1749078492091,0.00843282910404011,0.002689902042627316,0.008173718637559306,26.435861655976623
1631,C,1553659119883847.0,4.651703,12.036438,3.6755524,161,1970-01-18 23:34:19.119883847,0.043121338,0.38320923,1.5727539,13.417297267825543,1.6193404810951009,86.65884399414062,-12.633590698242188,-15.561051368713379,26486215.0,50354.0,0.340466154008,0.269898019071,0.1830856887694,0.015098207342146452,0.011215004998177427,0.009013203305684694,26.486215660115704
1631,C,1553659170237851.0,5.7321625,11.748566,3.0892944,161,1970-01-18 23:34:19.170237851,0.45031738,1.6197205,0.41755676,13.43243201630418,1.7322337858014465,86.4001693725586,-12.968111038208008,-15.418734550476074,26536569.0,50354.0,0.26143458169350003,0.10536584570799999,0.1703185478836,0.015154054822756667,0.009448018323540882,0.008897658466212582,26.536569664021954
1631,C,1553659220591855.0,-3.1585846,5.3556976,2.1998901,161,1970-01-18 23:34:19.220591855,1.3458099,1.3201599,-0.14085388,6.5954279550368025,1.8904672078661067,86.0400390625,-12.02075481414795,-15.261951446533203,26586923.0,50354.0,0.0647949707883,-0.06283515534280003,0.1331657981565,0.00821348144283428,0.0010707951913246395,0.007640825380251598,26.586923667928204
1631,C,1553659270945859.0,-1.6198578,4.7628174,0.5943146,161,1970-01-18 23:34:19.270945859,1.1862183,-0.086242676,-0.8063202,5.065725883004011,1.4369077629919642,86.02462005615234,-11.250625610351562,-15.253421783447266,26637277.0,50354.0,-0.12030684430480001,-0.23871534784500004,0.07034969173190002,-0.0013976224395249209,-0.007592137018759243,0.0051239094889202474,26.637277672067285
1631,C,1553659321299863.0,-2.4749298,4.605484,-0.5572815,161,1970-01-18 23:34:19.321299863,1.5028687,-1.273056,-0.936203,5.257977088142006,2.180770956745502,86.35465240478516,-10.304630279541016,-15.365937232971191,26687631.0,50354.0,-0.10309446740520001,-0.25760347565220004,0.0009323823587000011,-0.005624574824922671,-0.012495819019189006,0.0017946687793790367,26.687631675973535
1631,C,1553659371653867.0,-1.219986,7.9062653,-1.7178345,161,1970-01-18 23:34:19.371653867,1.4064178,-2.51062,-1.4003601,8.182197272345023,3.2003487657173944,86.84172821044922,-9.788105964660645,-15.56596565246582,26737985.0,50354.0,-0.0930268950966,-0.17846088787390005,-0.057280595531999996,-0.004937747543707819,-0.010978792480496623,-0.001418678963064174,26.737985680112615
1631,C,1553659422007871.0,8.648407,9.6384735,2.2941132,161,1970-01-18 23:34:19.422007871,0.91963196,-0.5110779,-0.99684143,13.151352417993577,1.4493503366288967,86.69791412353516,-10.487432479858398,-15.560683250427246,26788339.0,50354.0,0.187025355517,-0.05174531123240003,0.014508968829900002,0.002366599238004411,-0.005795901474899318,-0.0010768612454787716,26.788339684018865
1631,C,1553659472361875.0,3.04747,11.148529,6.1014557,161,1970-01-18 23:34:19.472361875,0.5920868,-0.62550354,-0.2708435,13.069220861390455,0.9028718949989647,86.12593078613281,-10.574703216552734,-15.482219696044922,26838693.0,50354.0,0.29446709522900005,0.02988516194249996,0.21137523819530002,0.012122535432432044,-0.0005503729786718141,0.005687086680273461,26.838693687925115
1631,C,1553659522715879.0,4.1469574,7.352661,-0.7898102,161,1970-01-18 23:34:19.522715879,0.4914093,-1.4219055,0.5873413,8.478365385518591,1.615013360236512,86.3848876953125,-11.071481704711914,-15.594117164611816,26889047.0,50354.0,0.1811340986498,-0.02766473937000001,0.1337312987535,0.01197421125828655,5.5903579107831245e-05,0.008688747280759938,26.889047692064196
1631,C,1553659573069882.0,0.9779358,8.29776,2.951767,161,1970-01-18 23:34:19.573069882,0.07928467,0.0572052,0.26071167,8.861270104720353,0.2784404221341395,85.98921203613281,-10.976338386535645,-15.514087677001953,26939401.0,50354.0,0.1290294360964,-0.09943855048300003,0.054431586353599994,0.007808987314305078,-0.0032000795286289824,0.004737376958341457,26.939401695039123
1631,C,1553659623423886.0,1.2220917,19.344727,3.2978363,161,1970-01-18 23:34:19.623423886,0.51252747,0.62164307,-0.68081665,19.661833462048637,1.0548155406993434,85.86572265625,-10.756673812866211,-15.457825660705566,26989755.0,50354.0,0.055390092367500005,0.20248569519899995,0.1573462622841,0.004643130468135611,0.00259441796251473,0.005331930895151373,26.989755698945373
1631,C,1553659673777890.0,5.2651825,6.2384033,-2.6265259,161,1970-01-18 23:34:19.673777890,0.18180847,0.7793274,0.6619568,8.575456885503415,1.0385529939395202,86.38982391357422,-11.462545394897461,-15.516595840454102,27040109.0,50354.0,0.1633301025334,0.15063727156309994,0.01690158194080001,0.0055067183470199595,0.008890576934169388,0.004387037974050308,27.040109703084454
1631,C,1553659724131894.0,4.51828,15.785019,1.9006805,161,1970-01-18 23:34:19.724131894,0.021453857,-0.36470032,0.48434448,16.528589333389622,0.6066763277850465,86.31440734863281,-11.59824275970459,-15.517647743225098,27090463.0,50354.0,0.2463182353625,0.06101450324709997,-0.018274609635799997,0.010313716203205075,0.0053287567343964035,-3.4568718277014674e-05,27.090463706990704
1631,C,1553659774485898.0,0.13444519,14.188217,-1.2058411,161,1970-01-18 23:34:19.774485898,0.69200134,-0.21696472,-0.10421753,14.240001050093092,0.732666935138863,86.5682601928711,-11.322098731994629,-15.572062492370605,27140817.0,50354.0,0.11714166210863,0.26116696277199997,0.0174939715738,0.00915082983863064,0.00811156276996288,-1.965412448697389e-05,27.140817711129785
1631,C,1553659824839902.0,4.909973,9.30748,-0.9522705,161,1970-01-18 23:34:19.824839902,0.753952,-0.32850647,-0.5799713,10.566164768557192,1.0063432952822564,86.81839752197266,-11.70091724395752,-15.632360458374023,27191171.0,50354.0,0.12700331676963,0.09808196336899996,-0.0543347757532,0.006146838133217952,0.009044810213451954,-0.0009275409268247538,27.191171715036035
1631,C,1553659875193906.0,1.7521515,6.4406433,-0.9972992,161,1970-01-18 23:34:19.875193906,0.80340576,-0.6131134,-0.7971344,6.748816688213407,1.2871643671746424,87.15876007080078,-11.752288818359375,-15.725529670715332,27241525.0,50354.0,0.1677323085365,-0.09697869967590005,-0.049084316336900004,0.007420558838332435,2.7776870001176633e-05,-0.002603782481552448,27.241525718942285
1631,C,1553659925547910.0,5.0838623,8.542664,-1.1702881,161,1970-01-18 23:34:19.925547910,0.36375427,0.48883057,-0.48365784,10.00961229715012,0.7779443433197669,87.40514373779297,-12.192133903503418,-15.75020694732666,27291879.0,50354.0,0.1721103194426,-0.11623447210790004,-0.054573345452100006,0.008556217844629802,-0.005368068026000735,-0.0026097889508616538,27.291879723081365
1631,C,1553659975901914.0,1.4033661,7.832306,0.56355286,161,1970-01-18 23:34:19.975901914,-0.6797638,0.669693,-0.04699707,7.976969694958066,0.9553932502524941,87.32569885253906,-12.136869430541992,-15.708052635192871,27342233.0,50354.0,0.16332894942679999,-0.08119658031000003,-0.01527577313748,0.008445354472324884,-0.00497072160672547,-0.001758591258729856,27.342233726987615
1631,C,1553660026255918.0,1.1181793,5.1020966,0.20640564,161,1970-01-18 23:34:20.026255918,-0.89564514,1.0037537,-0.12136841,5.227266776328128,1.350715365284351,87.27912902832031,-12.133827209472656,-15.658944129943848,27392587.0,50354.0,0.0634849485358,-0.16781974573980005,0.019385245154500002,0.00571049350900438,-0.0062694840409558165,0.00010346417697251257,27.392587731126696
1631,C,1553660076609922.0,1.8788605,8.506638,-0.7637787,161,1970-01-18 23:34:20.076609922,-1.0075073,1.2867584,0.31297302,8.74507660024073,1.6639622143461585,87.41024017333984,-12.156005859375,-15.633561134338379,27442941.0,50354.0,0.0754564710446,-0.1508420889758,-0.01403298153162,0.0034981281207757315,-0.008022949012634664,0.00013475394123324983,27.442941735032946
1631,C,1553660126963925.0,1.3817291,10.827835,-0.1370697,161,1970-01-18 23:34:20.126963925,-1.6668243,0.2575531,0.60562134,10.916500089116013,1.7920418672155782,87.40788269042969,-12.06421184539795,-15.636701583862305,27493295.0,50354.0,0.08209186435920002,-0.006685173279000013,-0.022680660166800003,0.003966594440461474,-0.003966063881789101,-0.0009243393570411205,27.493295738007873
1631,C,1553660177317929.0,3.4234924,7.4960938,2.819687,161,1970-01-18 23:34:20.177317929,-2.604538,0.050720215,0.68247986,8.709899956327007,2.692948104394005,86.85950469970703,-12.386551856994629,-15.543810844421387,27543649.0,50354.0,0.1209810617055,-0.032127644602400016,0.0675402557621,0.005112767059530952,-0.0009771903158000085,0.001129430038302868,27.543649741914123
1631,C,1553660227671933.0,3.052597,12.373688,2.6949463,161,1970-01-18 23:34:20.227671933,-3.1491547,0.68022156,1.0707703,13.0264822083952,3.3950590172459467,86.46719360351562,-12.470803260803223,-15.457113265991211,27594003.0,50354.0,0.1630485028238,0.006792296378599924,0.1388419225941,0.007151012346154187,-0.000637868062230615,0.005196084104474048,27.594003746053204
1631,C,1553660278025937.0,2.8766937,14.164291,5.291168,161,1970-01-18 23:34:20.278025937,-1.7582855,0.38523865,1.3857574,15.391522503655208,2.2716294347051487,85.9538345336914,-12.509007453918457,-15.342135429382324,27644357.0,50354.0,0.1492817519539,0.17467749728299997,0.2010663997311,0.007863538824538155,0.004568864995018101,0.00855787183118156,27.644357749959454
1631,C,1553660328379941.0,6.398407,11.472534,4.997055,161,1970-01-18 23:34:20.328379941,0.34153748,-0.08682251,0.5677948,14.05450842939126,0.668264119487565,85.53490447998047,-12.913519859313965,-15.24852466583252,27694711.0,50354.0,0.2335192103239,0.15198914302499997,0.25902659047099996,0.009637779827268171,0.008224486003034515,0.011583761214318271,27.694711754098535
1631,C,1553660378733945.0,2.2708435,7.0428314,3.917862,161,1970-01-18 23:34:20.378733945,1.0706482,0.77523804,-0.18338013,8.373042874687924,1.3345073468906412,84.9902114868164,-12.999120712280273,-15.077466011047363,27745065.0,50354.0,0.21826571983850002,-0.02730784532420003,0.224450865309,0.011374589186698746,0.0031391010322130404,0.01217251190417306,27.745065758004785
1631,C,1553660429087949.0,-1.1871338,5.8776855,0.12797546,161,1970-01-18 23:34:20.429087949,1.7728882,0.34068298,-0.74386597,5.997737174499639,1.9525711367028247,85.16999053955078,-12.369186401367188,-15.083630561828613,27795419.0,50354.0,0.027284559116899997,-0.16816934600870004,0.10186204973042,0.006182219373260107,-0.0049215292461884256,0.008215580261947478,27.795419761911035
1631,C,1553660479441953.0,-1.8952026,5.194229,-0.035339355,161,1970-01-18 23:34:20.479441953,1.70224,-0.93847656,-0.75157166,5.529290792633317,2.0840391626321684,85.3905029296875,-11.568944931030273,-15.159893035888672,27845773.0,50354.0,-0.0776039835428,-0.21471160863350006,0.0023322992155850003,-0.0012668921487708844,-0.009639793795026672,0.002623301123413568,27.845773766050115
1631,C,1553660529795957.0,-0.88612366,6.3504333,0.57902527,161,1970-01-18 23:34:20.529795957,1.6890259,-1.7317505,-0.80908203,6.438050054314525,2.550761066111442,85.47762298583984,-11.057857513427734,-15.247786521911621,27896127.0,50354.0,-0.07002545124802001,-0.20280923727290007,0.013688380281955003,-0.003716866279728476,-0.010511922337385437,0.00040335264770956464,27.896127769956365
1631,C,1553660580149961.0,2.2872925,6.7733765,2.1441498,161,1970-01-18 23:34:20.580149961,1.1916504,-0.3902893,-0.94070435,7.46376008163101,1.5675717168996042,85.22810363769531,-11.188474655151367,-15.210954666137695,27946481.0,50354.0,0.035277227884680004,-0.16305104066540005,0.06856137873739,-0.0008748560196188114,-0.009211264217652582,0.0020708021828300493,27.946481774095446
1631,C,1553660630503964.0,6.5996246,10.262054,1.0440369,161,1970-01-18 23:34:20.630503964,1.1648102,0.4144287,-0.3469391,12.245603709429878,1.2840952801550747,85.26020050048828,-11.6926851272583,-15.187179565429688,27996835.0,50354.0,0.2237459118267,-0.06456816630150006,0.08026897654590001,0.006521425588513415,-0.005730768773805644,0.0037471018549673934,27.996835777070373
1631,C,1553660680857968.0,3.167633,8.455597,-0.24960327,161,1970-01-18 23:34:20.680857968,0.7784729,-1.3544159,0.7083435,9.032902149447468,1.7152880225196787,85.46622467041016,-11.955141067504883,-15.284728050231934,28047189.0,50354.0,0.24591024459520003,-0.02221490077300008,0.020001455502510004,0.011824533050234178,-0.00218493727973469,0.002524508667682819,28.047189780976623
1631,C,1553660731211972.0,0.23957825,9.396591,3.3905182,161,1970-01-18 23:34:20.731211972,0.43099976,-0.272583,0.29849243,9.99244383640385,0.5908976356158167,85.10429382324219,-11.718382835388184,-15.218159675598145,28097543.0,50354.0,0.08578335764125,-0.04400466272400004,0.07907881519261,0.008351049823507104,-0.001667209950163972,0.0024945439752910364,28.097543785115704
1631,C,1553660781565976.0,3.2962341,8.315796,-1.1056824,161,1970-01-18 23:34:20.781565976,0.2654419,0.64346313,-0.043624878,9.013332121101973,0.6974290873813063,85.40512084960938,-11.96192741394043,-15.24598503112793,28147897.0,50354.0,0.08902114753595,-0.047524432501000004,0.057525310936599995,0.004401053026846365,-0.0023044280304798264,0.0034392820835551204,28.147897789021954
1631,C,1553660831919980.0,3.751358,11.571457,-1.6766357,161,1970-01-18 23:34:20.831919980,0.12915039,0.5111389,0.12666321,12.279348973684538,0.5422050968940316,85.71603393554688,-12.118568420410156,-15.28408432006836,28198251.0,50354.0,0.1774372263017,0.0072321687809999945,-0.07005042280370001,0.006708622478110516,-0.0010144383236784403,-0.0003153447414779771,28.198251792928204
1631,C,1553660882273984.0,0.70669556,14.064087,-1.0423431,161,1970-01-18 23:34:20.882273984,0.57466125,-1.4775238,0.025894165,14.1203555513383,1.5855543634953202,85.97708129882812,-11.898186683654785,-15.404296875,28248605.0,50354.0,0.11224041448012,0.151956891288,-0.06845572924760002,0.0072932139619638825,0.004007902965357213,-0.0034871693901955807,28.248605797067285
1631,C,1553660932627988.0,0.9077759,11.379578,-1.5926666,161,1970-01-18 23:34:20.932627988,0.46124268,-0.6365051,-0.13035583,11.526293395600357,0.796791186318336,86.309814453125,-11.716052055358887,-15.499137878417969,28298959.0,50354.0,0.04064754794842,0.147125953705,-0.0663416392169,0.003849260230063352,0.007530008788388761,-0.0033937933458307173,28.298959800973535
1631,C,1553660982981992.0,2.8059845,8.593826,-1.0888367,161,1970-01-18 23:34:20.982981992,0.09100342,-0.72810364,-0.46351624,9.105655368603797,0.8679077357511475,86.5858154296875,-11.855548858642578,-15.591622352600098,28349313.0,50354.0,0.0935013455908,0.009401192507999975,-0.06751220858410001,0.003377466692636942,0.0039408839602047005,-0.0033700383260857774,28.349313805112615
1631,C,1553661033335996.0,2.6115723,7.280777,-2.9246063,161,1970-01-18 23:34:21.033335996,0.42741394,-0.21253967,-0.34700012,8.269422326369357,0.5901397044006164,87.20348358154297,-12.02843189239502,-15.726436614990234,28399667.0,50354.0,0.1363978275536,-0.09379432026900006,-0.10104645441100002,0.005788171482256559,-0.0021247657776386993,-0.004243801458227634,28.399667809018865
1631,C,1553661083690000.0,1.7006836,8.737427,-0.6421356,161,1970-01-18 23:34:21.083690000,0.10812378,-0.13160706,-0.2026825,8.924533232411951,0.2647477400273362,87.38557434082031,-11.99467658996582,-15.770113945007324,28450021.0,50354.0,0.10856966679430001,-0.09017887789200005,-0.08979986081630001,0.0061675466051970785,-0.0046318932100995,-0.004804937678477733,28.450021812925115
1631,C,1553661134044004.0,2.8113098,7.8215485,0.34823608,161,1970-01-18 23:34:21.134044004,-0.5834656,-0.10144043,-0.20999146,8.318735005807195,0.6283459878879443,87.3591537475586,-12.177765846252441,-15.776071548461914,28500375.0,50354.0,0.1135984578318,-0.07656387383650004,-0.007399508215040001,0.005593526873711321,-0.004198082260268447,-0.0024471885141020477,28.500375817064196
1631,C,1553661184398007.0,3.5483856,5.9627533,0.52456665,161,1970-01-18 23:34:21.184398007,-1.066452,0.51786804,0.07267761,6.958493906962948,1.1877664796384655,87.24746704101562,-12.634461402893066,-15.737874984741211,28550729.0,50354.0,0.1601180510858,-0.14642183358140004,0.021974554333210005,0.006891360545018416,-0.00561411115566047,0.0003669559361171662,28.550729820039123
1631,C,1553661234752011.0,1.9210052,7.03154,-0.35917664,161,1970-01-18 23:34:21.234752011,-1.0409241,1.2962952,0.32348633,7.2980698550198,1.693678727858598,87.32080078125,-12.714658737182617,-15.701422691345215,28601083.0,50354.0,0.13770285217160003,-0.16631187758590005,0.004164024281770001,0.00749823688131156,-0.007873696646059115,0.0006580909937893517,28.601083823945373
1631,C,1553661285106015.0,1.7228241,10.7933655,0.49365234,161,1970-01-18 23:34:21.285106015,-1.4204712,0.68006897,0.46679688,10.941140449190776,1.6425990262885324,87.24343872070312,-12.645048141479492,-15.665872573852539,28651437.0,50354.0,0.0917406902861,-0.04469155422650004,0.003385694698900001,0.005776700068457514,-0.005312433402740797,0.00019007927477632865,28.651437828084454
1631,C,1553661335460019.0,1.5313873,8.031799,2.287506,161,1970-01-18 23:34:21.335460019,-2.405014,-0.3487854,0.51771545,8.49044321216733,2.4847078062858543,86.7985610961914,-12.623271942138672,-15.610672950744629,28701791.0,50354.0,0.0819312804178,-0.019508033383500045,0.07002122352618001,0.0043725392064120905,-0.0016163530172569722,0.0018481659801528395,28.701791831990704
1631,C,1553661385814023.0,5.644058,12.396088,1.0623016,161,1970-01-18 23:34:21.385814023,-2.5947723,-0.15519714,1.2514496,13.661876631724889,2.884970631124627,86.63007354736328,-12.978679656982422,-15.60584545135498,28752145.0,50354.0,0.18065618631810001,0.020843710998999967,0.08433810594520001,0.0066111646500097545,3.3628355325441546e-05,0.0038863048381009356,28.752145836129785
1631,C,1553661436168027.0,6.0337067,15.417892,2.8587646,161,1970-01-18 23:34:21.436168027,-1.8241425,0.20960999,1.9025574,16.80147449789756,2.6440795881570605,86.36446380615234,-13.276243209838867,-15.55036449432373,28802499.0,50354.0,0.29401108185190006,0.20680337446,0.09872068371740002,0.011950697810716091,0.005731470670601243,0.004608871147335282,28.802499840036035
1631,C,1553661486522031.0,4.6102753,10.063721,4.2209473,161,1970-01-18 23:34:21.486522031,-0.5566864,0.32479858,1.2020264,11.846920056158408,1.3639139752242209,85.8872299194336,-13.59091567993164,-15.426401138305664,28852853.0,50354.0,0.267983534814,0.14808137050099995,0.1782459065063,0.014149338463797366,0.008934933223883097,0.006973187842062096,28.852853843942285
1631,C,1553661536876035.0,3.3225708,8.205994,3.4187164,161,1970-01-18 23:34:21.536876035,0.6829529,0.72306824,0.08929443,9.49028113770491,0.9986119559389085,85.47406768798828,-13.780731201171875,-15.285259246826172,28903207.0,50354.0,0.1997252662597,-0.03349258544500004,0.1923438129749,0.011775504484632545,0.00288500184135491,0.009330337367378172,28.903207848081365
1631,C,1553661587230039.0,-0.46505737,5.9718475,2.3043823,161,1970-01-18 23:34:21.587230039,1.5562439,0.66496277,-0.4778595,6.4178983090417425,1.7585278682789,85.12547302246094,-13.326929092407227,-15.154668807983398,28953561.0,50354.0,0.07194361562711,-0.13651368455450003,0.1440904559699,0.006839807439264215,-0.004280247859777413,0.00847040558922323,28.953561851987615
1631,C,1553661637584043.0,-0.7750702,4.6493683,-1.3448181,161,1970-01-18 23:34:21.637584043,2.0332794,-0.41329956,-1.0539551,4.901621683286108,2.327200678406691,85.75264739990234,-12.750670433044434,-15.297127723693848,29003915.0,50354.0,-0.031222691829890004,-0.22605884980340005,0.0241589478634,0.001025230698442608,-0.00912848869752885,0.004236015240310994,29.003915856126696
1631,C,1553661687938047.0,-2.0734863,6.289871,0.01725769,161,1970-01-18 23:34:21.687938047,1.9640198,-1.4377747,-1.473053,6.622848364623247,2.845075570799681,85.96672821044922,-11.945496559143066,-15.39648151397705,29054269.0,50354.0,-0.0717181070005,-0.21805197214390004,-0.033423988442569996,-0.0025917404921527295,-0.011181378164167175,-0.000233265926661763,29.054269860032946
1631,C,1553661738292050.0,2.0987244,10.346008,2.2665863,161,1970-01-18 23:34:21.738292050,1.621994,-0.6806946,-1.1979523,10.797311660712912,2.128215070800047,85.84801483154297,-11.872766494750977,-15.392534255981445,29104623.0,50354.0,0.0006354196437000039,-0.07462767441700006,0.05750034013623001,-0.0017896488195821537,-0.007368795461463783,0.0006061703065912782,29.104623863007873
1631,C,1553661788646054.0,6.89357,9.411285,2.300583,161,1970-01-18 23:34:21.788646054,0.77479553,-0.21633911,-0.3804779,11.890596067313615,0.8898731124222055,85.6904296875,-12.430428504943848,-15.363297462463379,29154977.0,50354.0,0.22639899610880002,0.003960165860999936,0.1149876214661,0.005716045485400693,-0.0017791958629144152,0.004342729409261863,29.154977866914123
1631,C,1553661839000058.0,3.5236053,7.890457,1.4367676,161,1970-01-18 23:34:21.839000058,0.09188843,-0.520874,0.3337555,8.760103145251593,0.6254166141254283,85.55977630615234,-12.730937004089355,-15.357986450195312,29205331.0,50354.0,0.26227322252810004,-0.05786324166600006,0.09409527605620001,0.012303300448621232,-0.0013571177395424884,0.0052640801109189485,29.205331871053204
1631,C,1553661889354062.0,1.1335754,8.126846,1.6417236,161,1970-01-18 23:34:21.889354062,-0.0070648193,-0.37045288,0.35073853,8.368146477804874,0.5101987498990926,85.38651275634766,-12.628657341003418,-15.336722373962402,29255685.0,50354.0,0.1172538384839,-0.09020156236900004,0.0775071729424,0.009555352815099127,-0.003727827571189198,0.004320434858437752,29.255685874959454
1631,C,1553661939708066.0,2.4273376,12.96019,-0.074539185,161,1970-01-18 23:34:21.939708066,-0.08161926,0.1828003,-0.0022277832,13.185751732479048,0.20020643421484685,85.50469207763672,-12.578432083129883,-15.354516983032227,29306039.0,50354.0,0.08965310660100001,0.037439105372,0.039457002016455,0.005209296156402528,-0.00132840037981347,0.0029448070329390927,29.306039879098535
1631,C,1553661990062070.0,5.773773,15.877106,-5.421051,161,1970-01-18 23:34:21.990062070,0.32029724,0.80856323,0.30551147,17.74279412988174,0.9217928602246881,86.061767578125,-12.774247169494629,-15.432772636413574,29356393.0,50354.0,0.2064793615762,0.23256740139199994,-0.13836247408774502,0.007455727151297365,0.006797953820797227,-0.002490143070338869,29.356393883004785
1631,C,1553662040416074.0,0.9944916,16.26001,-5.5245056,161,1970-01-18 23:34:22.040416074,0.20133972,1.4998016,0.24354553,17.20165982883634,1.5327285954777576,86.62030792236328,-12.570098876953125,-15.479301452636719,29406747.0,50354.0,0.1704045978342,0.31564696953200005,-0.2755762785182,0.00948880744607564,0.013802393216753547,-0.010421735974359879,29.406747886911035
1631,C,1553662090770078.0,-0.7657623,12.955811,-3.2224426,161,1970-01-18 23:34:22.090770078,0.1331482,0.4945984,-0.1937561,13.372492919351915,0.547628931606987,87.05787658691406,-12.181584358215332,-15.548094749450684,29457101.0,50354.0,0.005758717586100001,0.24209752531700002,-0.22022191483140002,0.004435263792336893,0.014042333146813274,-0.01248271111396288,29.457101891050115
1631,C,1553662141124082.0,5.5183716,9.416473,-1.5950928,161,1970-01-18 23:34:22.141124082,0.772171,-1.1538849,-0.33537292,11.030263365669352,1.42834639046638,87.38565826416016,-12.612500190734863,-15.667481422424316,29507455.0,50354.0,0.1196564443461,0.06979779426799998,-0.1212910887658,0.003157577531967,0.007852588461191546,-0.008598272891566706,29.507455894956365
1631,C,1553662191478086.0,4.6514435,9.18985,-1.1236877,161,1970-01-18 23:34:22.191478086,0.9004059,-0.34713745,-0.50201416,10.361078307942833,1.087774522034699,87.6535873413086,-12.940014839172363,-15.734938621520996,29557809.0,50354.0,0.25604543477270003,-0.025017805829000043,-0.06845073664850002,0.00945904621057403,0.0011274257689287016,-0.004777129938455832,29.557809899095446
1631,C,1553662241832089.0,0.46948242,8.9605255,-1.5991058,161,1970-01-18 23:34:22.241832089,0.6105957,0.0025939941,-0.5601959,9.1141960884344,0.8286454513485793,88.00079345703125,-12.670942306518555,-15.806049346923828,29608163.0,50354.0,0.12892955188784003,-0.03649719603650006,-0.0685517719495,0.009692515239152419,-0.0015487632019676961,-0.0034493121589718465,29.608163902070373
1631,C,1553662292186093.0,2.1864014,8.540405,-0.43511963,161,1970-01-18 23:34:22.292186093,-0.13249207,-0.5939331,-0.43424988,8.826562056563036,0.7475852019459115,88.1229248046875,-12.693107604980469,-15.864009857177734,29658517.0,50354.0,0.06686718693614,-0.05284827280150006,-0.051215693651110006,0.0049295744933713454,-0.002249450868934329,-0.0030153854814265585,29.658517905976623
1631,C,1553662342540097.0,4.1877594,5.961975,-0.0524292,161,1970-01-18 23:34:22.342540097,-0.81752014,0.061401367,-0.046295166,7.285960713174755,0.8211288264152318,88.13133239746094,-13.236533164978027,-15.871956825256348,29708871.0,50354.0,0.1604822464616,-0.12834277874000005,-0.01227501689291,0.0057239766846549,-0.004561847104660349,-0.0015985056193667916,29.708871910115704
1631,C,1553662392894101.0,2.7772064,6.4221344,-0.5175476,161,1970-01-18 23:34:22.392894101,-0.8512268,1.5093384,0.28720093,7.016020321958174,1.756466294850449,88.22328186035156,-13.50112533569336,-15.829083442687988,29759225.0,50354.0,0.1753569439466,-0.18167447763620004,-0.0143503058936,0.00845542329690725,-0.00780530446378359,-0.0006703457517959624,29.759225914021954
1631,C,1553662443248105.0,-0.11979675,9.912598,-1.3879242,161,1970-01-18 23:34:22.443248105,-0.83447266,0.9831238,0.1818695,10.010009188600188,1.302287810525832,88.41891479492188,-13.162446975708008,-15.83588695526123,29809579.0,50354.0,0.06690560275805,-0.08220964236520006,-0.0479740635086,0.006099444138382974,-0.0066438104892752505,-0.0015691406484391894,29.809579917928204
1631,C,1553662493602109.0,2.4541016,9.566696,1.0943756,161,1970-01-18 23:34:22.493602109,-1.575058,-0.07392883,0.5095978,9.936898156538282,1.6570947749099956,88.21794891357422,-13.21754264831543,-15.81087589263916,29859933.0,50354.0,0.05877079320845001,-0.00303901496200005,-0.0073906731022000014,0.003164154621248571,-0.0021463054455269177,-0.0013939179736501116,29.859933922067285
1631,C,1553662543956113.0,3.7098083,7.851654,2.1608276,161,1970-01-18 23:34:22.543956113,-2.7102966,0.15177917,0.5693054,8.948761035773984,2.773599324864103,87.76496124267578,-13.533845901489258,-15.7288236618042,29910287.0,50354.0,0.15518875955230002,-0.05492740205000003,0.08195625096640001,0.005386859659857404,-0.001459420481111126,0.0018773375538869638,29.910287925973535
1631,C,1553662594310117.0,3.9407654,12.23085,0.9635315,161,1970-01-18 23:34:22.594310117,-2.5310059,0.86276245,1.1656189,12.886105564204781,2.917021997003454,87.57177734375,-13.697283744812012,-15.668842315673828,29960641.0,50354.0,0.19261849404490003,0.012148003207999969,0.07866198906070002,0.008756743223816706,-0.0010770569246450357,0.004043885429162297,29.960641930112615
1631,C,1553662644664121.0,2.114029,11.990295,5.287628,161,1970-01-18 23:34:22.644664121,-1.6629333,0.456604,1.790451,13.27385786673377,2.48586989934427,86.95182037353516,-13.694762229919434,-15.51589584350586,30010995.0,50354.0,0.15244155860880002,0.11634656766499997,0.1573854427315,0.008687576945662207,0.003235107810869519,0.005942966190232221,30.010995934018865
1631,C,1553662695018125.0,5.0118713,10.656036,5.258606,161,1970-01-18 23:34:22.695018125,-0.13031006,0.36323547,1.1813507,12.896623365218343,1.2427832452981553,86.40382385253906,-14.005758285522461,-15.365582466125488,30061349.0,50354.0,0.1794087918531,0.07669747558699996,0.26552253341800003,0.008354996273579258,0.004860269876955602,0.010647554115515963,30.061349937925115
1631,C,1553662745372129.0,1.2839661,8.552826,5.3052216,161,1970-01-18 23:34:22.745372129,0.99534607,0.3957672,0.078826904,10.146170595714018,1.0740387127354907,85.75664520263672,-13.880273818969727,-15.178192138671875,30111703.0,50354.0,0.1585102982198,-0.00984768142600004,0.2659654874852,0.008507788930765404,0.0016830772675914952,0.013381273902279868,30.111703942064196
1631,C,1553662795726132.0,-0.8287964,5.9961395,1.535614,161,1970-01-18 23:34:22.795726132,1.8250732,0.13084412,-0.62646484,6.244894133058558,1.9340296184011867,85.59039306640625,-13.328636169433594,-15.113110542297363,30162057.0,50354.0,0.0114598075369,-0.12716989560650005,0.1722317179012,0.004279337352636437,-0.003449691536947255,0.011032491040013394,30.162057945039123
1631,C,1553662846080136.0,-1.5731659,4.8153076,-1.3202057,161,1970-01-18 23:34:22.846080136,1.9682465,-0.85653687,-1.2353973,5.234976726008727,2.4766623070735614,86.17227935791016,-12.554290771484375,-15.266914367675781,30212411.0,50354.0,-0.0604742048271,-0.2212693963633001,0.0054233347691,-0.0012340354805753656,-0.00877265605392366,0.004472821261080144,30.212411948945373
1631,C,1553662896434140.0,-2.0611725,7.612854,-0.475235,161,1970-01-18 23:34:22.896434140,1.7792816,-2.112854,-1.2428436,7.901254736135094,3.0289693381537424,86.46672058105469,-11.836174964904785,-15.416712760925293,30262765.0,50354.0,-0.0915017378968,-0.18056537539680007,-0.0452038105039,-0.0038262983099596306,-0.010116994048604043,-0.0010015530375750597,30.262765953084454
1631,C,1553662946788144.0,3.724884,9.145981,3.3560638,161,1970-01-18 23:34:22.946788144,1.3808441,-1.0255585,-0.78489685,10.430095565021801,1.8906516682263241,86.15591430664062,-12.037798881530762,-15.390726089477539,30313119.0,50354.0,0.0418872644355,-0.07153201120500004,0.07253062669759999,-0.0012491435983351502,-0.006347055902473521,0.0006880072513087847,30.313119956990704
1631,C,1553662997142148.0,6.348587,9.839767,4.4981384,161,1970-01-18 23:34:22.997142148,1.0000458,-0.27583313,-0.0881958,12.544274414106724,1.0411311237499707,85.76126098632812,-12.502053260803223,-15.310173988342285,30363473.0,50354.0,0.25361977936700003,-0.015465022604000013,0.1977452487894,0.007439980841815544,-0.0021903243202091942,0.0068047357171361995,30.363473961129785
1631,C,1553663047496152.0,2.085266,9.551636,-0.81365967,161,1970-01-18 23:34:23.047496152,0.20951843,-0.6070404,0.55288696,9.810409095742976,0.8473960173849453,86.00495910644531,-12.529776573181152,-15.388273239135742,30413827.0,50354.0,0.212339116981,-0.0052518466690000265,0.09276412098521002,0.011731447133353598,-0.000521588617686322,0.007314154402815356,30.413827965036035
1631,C,1553663097832612.0,-0.040283203,6.398651,3.416916,161,1970-01-18 23:34:23.097832612,-0.12754822,-0.17082214,0.3494568,7.253941846148268,0.4093516910989718,85.40149688720703,-12.255768775939941,-15.26727294921875,30464164.0,50337.0,0.05146914952629449,-0.09185780164050003,0.06552005694160501,0.006639658355588842,-0.0024441041834776522,0.003983775332151045,30.464164424920455
1631,C,1553663148186616.0,5.2709656,13.806747,0.008026123,161,1970-01-18 23:34:23.148186616,0.04058838,0.5064392,-0.062942505,14.778680776613411,0.5119471054936627,85.50712585449219,-12.466673851013184,-15.265036582946777,30514518.0,50354.0,0.131692890709269,0.015242105445999937,0.086229767830771,0.004611470687010783,-0.001928953383088929,0.0038206053382941114,30.514518429059535
1631,C,1553663198540620.0,3.6336517,10.278473,-1.9560394,161,1970-01-18 23:34:23.198540620,-0.102249146,0.6845703,0.40711975,11.07594339200929,0.8030179788397529,85.85924530029297,-12.661210060119629,-15.307862281799316,30564872.0,50354.0,0.2241915497621,0.11292438393999996,-0.049045130275029006,0.008960102557747658,0.0032268477032713194,0.0009361976197409164,30.564872432965785
1631,C,1553663248894624.0,-0.17689514,10.828751,-1.1429291,161,1970-01-18 23:34:23.248894624,0.6100311,-0.3818817,0.45539856,10.89033640610718,0.8516803533087831,86.15235900878906,-12.353422164916992,-15.381630897521973,30615226.0,50354.0,0.08703075991112001,0.03794737864799998,-0.0780227299245,0.007835644090642661,0.003798498366678075,-0.003199187516243542,30.615226437104866
1631,C,1553663299248628.0,4.5788574,18.11995,0.2857666,161,1970-01-18 23:34:23.299248628,0.21437073,-1.0540466,-0.033050537,18.691714358017304,1.0761326046767106,86.24767303466797,-12.401300430297852,-15.451244354248047,30665580.0,50354.0,0.11082820382002001,0.23537224507699997,-0.021580780262499998,0.004981495129858913,0.006881368166524324,-0.0025077175759780994,30.665580441011116
1631,C,1553663349602631.0,1.32164,10.1484375,-0.9063568,161,1970-01-18 23:34:23.349602631,-0.18374634,-0.06617737,-0.60806274,10.274190899039812,0.6386567603492663,86.46343231201172,-12.249617576599121,-15.504443168640137,30715934.0,50354.0,0.14855682303980003,0.21824399208749995,-0.015624599465400001,0.006530536821249689,0.011420696003090616,-0.0009367198454093384,30.715934443986043
1631,C,1553663399956635.0,1.0480804,6.4439545,-4.26709,161,1970-01-18 23:34:23.399956635,0.72154236,-0.9740448,-0.38067627,7.7994281323078045,1.2705514834993987,87.3851318359375,-12.1795072555542,-15.740447044372559,30766288.0,50354.0,0.0596624505108,-0.07572254661600003,-0.1302518700836,0.005242336650183457,0.0035882624326359536,-0.0036727318738351738,30.766288448125124
1631,C,1553663450310639.0,3.062683,7.749771,-0.11672974,161,1970-01-18 23:34:23.450310639,0.5412903,-0.09121704,-0.32278442,8.333822864876026,0.6367931524876724,87.49610137939453,-12.397591590881348,-15.763529777526855,30816642.0,50354.0,0.1034966901218,-0.13611377308650005,-0.11037142959398,0.004107857683706971,-0.0053334030211498445,-0.006058172815982432,30.816642452031374
1631,C,1553663500664643.0,2.088089,7.8250732,-0.87138367,161,1970-01-18 23:34:23.500664643,-0.16838074,0.38998413,-0.40722656,8.145624331972467,0.588449799408784,87.70193481445312,-12.441269874572754,-15.791447639465332,30866996.0,50354.0,0.12968098664400002,-0.10134134757660003,-0.024877731323570004,0.005870714367932548,-0.005978407572934871,-0.003405168124421157,30.866996455937624
