Subject-id_accel,Activity_accel,Timestamp_accel,accel_x,accel_y,accel_z,Segment_accel,DateTime,gyro_x,gyro_y,gyro_z,accel_magnitude,gyro_magnitude,Roll,Pitch,Yaw,Time_Difference,Difference_Microseconds,vx,vy,vz,dx,dy,dz,Time_diff
1615,C,168546930035442.0,0.6137059952631552,12.514192215647434,1.8366083361592596,77,1970-01-02 22:49:06.930035442,0.3543396,-0.36764526,0.9953613,7.4035555060636415,1.1186883868469886,-91.27778625488281,6.831401348114014,-23.201995849609375,15005501.0,50354.0,0.0011562257917809172,-0.1254060873534892,0.04972700640126337,2.5634719427566256e-05,-0.009181595108821742,0.006074178829584078,15.005501615989488
1615,C,168546980389446.0,6.566937795263155,-0.3540323843525677,1.8213800361592596,77,1970-01-02 22:49:06.980389446,2.7437744,0.30574036,-0.65156555,19.937598850419647,2.836602332329136,-91.34184265136719,6.347192287445068,-23.240116119384766,15055855.0,50354.0,0.18078706871408093,-0.1873128559274892,0.09209717324986336,0.004580786325774085,-0.007873324834985193,0.003570707371076418,15.055855620012153
1615,C,168547030743450.0,1.5338261952631551,0.013703615647433054,2.9730677361592597,77,1970-01-02 22:49:07.030743450,4.054489,0.046920776,0.51434326,19.03720036113225,4.087252328820533,-91.26024627685547,6.2917914390563965,-23.256479263305664,15106209.0,50354.0,0.20395293498948094,-0.5020376574096892,0.12070981156366337,0.009686599073244578,-0.017355777874290143,0.0053578414566501625,15.106209624005714
1615,C,168547081097454.0,4.779828395263156,2.8349316156474345,-2.92552216384074,77,1970-01-02 22:49:07.081097454,3.3640137,-0.34068298,1.0516815,18.068567523318272,3.5410008534440687,-91.69478607177734,6.028209209442139,-23.305767059326172,15156563.0,50354.0,0.15895888162568095,-0.4217491107816892,0.0011970548742633689,0.009137030806919933,-0.023258179462754335,0.0030692491763076816,15.156563627999276
1615,C,168547131451458.0,8.760419195263156,12.532472215647434,-5.67379816384074,77,1970-01-02 22:49:07.131451458,0.2765808,-0.12904358,0.81573486,13.906476133764512,0.870960703067065,-92.7658462524414,5.360355854034424,-23.408275604248047,15206917.0,50354.0,0.34090281358668095,-0.10656407373948913,-0.2165050878900366,0.012585017900361636,-0.013301341046689709,-0.0054208103472381235,15.206917631992837
1615,C,168547181805461.0,8.064221695263155,9.654634115647434,-4.55841116384074,77,1970-01-02 22:49:07.181805461,-3.5155792,0.4997406,-0.3884735,14.410205902000133,3.572107142704884,-93.85243225097656,4.7035675048828125,-23.51108169555664,15257271.0,50354.0,0.42359398370078094,0.06513557610301088,-0.25761633424303665,0.01924773586530643,-0.001043045284993613,-0.011936955045044387,15.257271634996869
1615,C,168547232159465.0,-3.0869778047368444,12.914949015647434,5.34127753615926,77,1970-01-02 22:49:07.232159465,-4.363388,1.4484863,-1.6528778,8.242965024522343,4.88561893945532,-93.94898223876953,5.508642673492432,-23.56826400756836,15307625.0,50354.0,0.12531206943178094,0.07476519449661086,0.019710226655863385,0.013819807699718512,0.003522281701386677,-0.005989762070722261,15.30762563899043
1615,C,168547282513469.0,-9.798982804736845,-0.47260938435256605,-0.8530431638407405,77,1970-01-02 22:49:07.282513469,-5.344055,-2.1243744,-0.6733093,23.72539792875243,5.7900980862043125,-94.47950744628906,6.110826015472412,-23.488536834716797,15357979.0,50354.0,-0.32442983026471905,-0.18020841510288918,0.11300027679186336,-0.005013187864490883,-0.0026547439652042696,0.003341252345303417,15.357979643013095
1615,C,168547332867473.0,10.175351495263154,-0.23786738435256538,-0.12471066384074003,77,1970-01-02 22:49:07.332867473,-5.927826,2.0005646,0.98291016,21.241734957393316,6.333047622407428,-95.03182983398438,5.500645160675049,-23.615829467773438,15408333.0,50354.0,0.009475834521380889,-0.5113568736056892,-0.024616908119536637,-0.007929596750830025,-0.01741153927381588,0.00222522807306317,15.408333647006657
1615,C,168547383221477.0,10.044965195263156,4.291459615647433,-0.22306876384074048,77,1970-01-02 22:49:07.383221477,-7.34581,-2.4845123,0.04664612,17.242062557112835,7.754734153113332,-95.71561431884766,4.775583267211914,-23.518890380859375,15458687.0,50354.0,0.509086913317381,-0.3914119083926892,-0.008756042650736635,0.013055854302336509,-0.022729009624373173,-0.0008402307815431703,15.458687651000218
1615,C,168547433575481.0,3.855817195263155,16.476716615647433,8.90553233615926,77,1970-01-02 22:49:07.433575481,-4.686859,-3.2406464,-0.017807007,4.773532869934515,5.698135964086173,-94.69812774658203,4.349194049835205,-23.257686614990234,15509041.0,50354.0,0.34997999824628095,0.029411172975310814,0.21859838536026335,0.02162872763243832,-0.009114092515603335,0.005283200662397755,15.50904165499378
1615,C,168547483929485.0,2.9076665352631554,23.726167315647434,11.15348783615926,77,1970-01-02 22:49:07.483929485,-0.035827637,-1.2793274,-0.75112915,7.810328061103285,1.483966716588848,-91.82251739501953,4.335909843444824,-22.973125457763672,15559395.0,50354.0,0.17028422988346092,0.5187188087382109,0.5050259508784634,0.01309869247162251,0.013800268549601336,0.01821868991348242,15.559395659016445
1615,C,168547534283489.0,0.8280461952631553,23.399339315647435,12.10365243615926,77,1970-01-02 22:49:07.534283489,2.470337,0.7543335,-1.4126892,8.567481126500827,2.9440235560518007,-88.9473648071289,5.0811285972595215,-22.781749725341797,15609749.0,50354.0,0.09405403941646094,0.693009680456111,0.5855450206361634,0.006655244606164134,0.03050768817244544,0.02745730534982376,15.609749663010007
1615,C,168547584637493.0,2.9470494652631554,19.987214715647433,9.28779543615926,77,1970-01-02 22:49:07.584637493,4.4263306,3.2185364,-1.8314056,4.425791209608443,5.7710853061042755,-85.8730697631836,4.790294170379639,-22.69872283935547,15660103.0,50354.0,0.09504558344507093,0.5988740708459108,0.5385724830813635,0.004760961204784788,0.032525757206531,0.028301906391096174,15.660103667003568
1615,C,168547634991497.0,3.247372955263155,10.657273615647433,3.6744837361592597,77,1970-01-02 22:49:07.634991497,5.669113,3.7012787,-0.8501282,8.392551817792532,6.823563891272503,-85.9350814819336,4.52765417098999,-22.91442108154297,15710457.0,50354.0,0.15595697328159092,0.2780670827170108,0.3263513027214634,0.0063194913707071655,0.02207874742325368,0.021776186155157775,15.71045767099713
1615,C,168547685345501.0,2.085095735263155,1.9652576156474346,-6.6333011638407395,77,1970-01-02 22:49:07.685345501,4.6359406,2.626709,0.8032532,20.56903386710463,5.388576910532093,-86.60877227783203,4.520205497741699,-23.11361312866211,15760811.0,50354.0,0.13425556422138094,-0.17567173118968915,-0.07449414637673663,0.007306681056712322,0.0025780077654033776,0.006341007625291186,15.760811674990691
1615,C,168547735699504.0,3.4898808952631555,3.401399615647433,-1.1739811638407405,77,1970-01-02 22:49:07.735699504,1.5554199,-0.09234619,1.2664185,16.72629476069548,2.0079030607242414,-87.1395492553711,4.401265621185303,-23.152694702148438,15811165.0,50354.0,0.14036118662676092,-0.3583528708876892,-0.19656394716403663,0.0069140259361036675,-0.013445137406502156,-0.006824429621076049,15.811165677994723
1615,C,168547786053508.0,5.5863926952631555,2.1835496156474328,3.76538033615926,77,1970-01-02 22:49:07.786053508,0.42539978,-1.5557861,0.21141052,17.047920265926884,1.6266928934940144,-87.28768920898438,4.046889305114746,-23.087247848510742,15861519.0,50354.0,0.22851334018868094,-0.3528569332036892,0.06524365696146336,0.00928715396163238,-0.017906129237608634,-0.0033062509464301874,15.861519681988284
1615,C,168547836407512.0,-4.827883404736845,-0.3156113843525681,-0.5126501638407399,77,1970-01-02 22:49:07.836407512,2.7827759,-0.38061523,-1.1226807,21.32657876969511,3.0247514967483284,-87.58036041259766,4.394826889038086,-23.10230255126953,15911873.0,50354.0,0.019096988407580926,-0.44644011915068926,0.08189398754846339,0.006234085243068085,-0.020123901887126188,0.003704484475826426,15.91187368601095
1615,C,168547886761516.0,-7.600221804736845,-0.15019038435256604,-2.81242416384074,77,1970-01-02 22:49:07.886761516,4.017227,0.81933594,-0.07054138,22.97432586334017,4.100536579326783,-87.92233276367188,4.934762954711914,-23.186460494995117,15962227.0,50354.0,-0.31290240485891907,-0.5051966911306892,-0.08371539634803662,-0.00739713896999534,-0.023959359972454266,-4.58576093468554e-05,15.96222769000451
1615,C,168547937115520.0,5.569836895263155,6.656510615647434,-2.30148366384074,77,1970-01-02 22:49:07.937115520,2.7943726,0.20352173,1.2308655,14.587805547798329,3.06022371752511,-88.54703521728516,4.6002655029296875,-23.258310317993164,16012581.0,50354.0,-0.051119000865819095,-0.3296595755366892,-0.12875285737753664,-0.009164966931931733,-0.02101917622588459,-0.005349313224048758,16.012581693998072
1615,C,168547987469524.0,8.327069595263154,11.438951115647434,-9.42323316384074,77,1970-01-02 22:49:07.987469524,1.0720673,0.44262695,1.0889282,17.249413847808967,1.590915314324063,-89.71218872070312,4.1291584968566895,-23.371967315673828,16062935.0,50354.0,0.3498824147119809,-0.03787975999118914,-0.29519319557053664,0.0075219664704048155,-0.009253537850585393,-0.010673689775073643,16.062935697991634
1615,C,168548037823528.0,7.611783195263155,12.459291115647433,-4.6193851638407395,77,1970-01-02 22:49:08.037823528,-1.4787598,1.6753693,-0.042663574,12.648117055541874,2.23504206180219,-90.88805389404297,3.502624750137329,-23.528461456298828,16113289.000000002,50354.00000000186,0.4012924967070957,0.10821684465731485,-0.3535510016360497,0.018912330744798794,0.0017708767806391124,-0.01633343265307083,16.1132897020143
1615,C,168548088177532.0,2.410657255263155,13.035035615647434,0.3020472361592601,77,1970-01-02 22:49:08.088177532,-3.5009003,2.002243,-1.3434296,7.5341611737430645,4.250892027768437,-91.94857788085938,3.391118288040161,-23.680400848388672,16163643.0,50353.99999999814,0.2523349832228916,0.14840146411380534,-0.10869761700523259,0.016456379062196682,0.006460879159930254,-0.011638033471531134,16.16364370600786
1615,C,168548138531536.0,-5.093874804736845,4.609406615647433,2.08741703615926,77,1970-01-02 22:49:08.138531536,-4.2442017,-1.5991516,-1.108139,16.483324698294457,4.6688870144164385,-92.36783599853516,3.9283864498138428,-23.612958908081055,16213997.0,50354.0,-0.06755536824309909,-0.04923507794268916,0.06015954198416338,0.004652196366346236,0.002496712104630192,-0.0012220431148054595,16.213997710001422
1615,C,168548188885540.0,2.6334355752631553,-0.47260938435256605,0.17265283615925942,77,1970-01-02 22:49:08.188885540,-3.9980927,0.960495,-0.44888306,19.98137066478856,4.136277539572659,-92.8607406616211,3.80210280418396,-23.6794376373291,16264351.000000002,50354.00000000186,-0.06194647848046137,-0.38931705610770356,0.056901779175365465,-0.0032604679949592022,-0.011041427078987146,0.0029472528828335667,16.264351713994984
1615,C,168548239250170.0,7.442181895263155,-0.20013238435256753,-3.9501351638407396,77,1970-01-02 22:49:08.239250170,-5.5985565,1.2717285,-0.82218933,21.66854055595276,5.799752025368873,-93.6739501953125,3.349334955215454,-23.772916793823242,16314716.0,50364.99999999814,0.25372923695151944,-0.5105183195903982,-0.09512644871683536,0.004829569315197242,-0.02266010434851661,-0.00096259274072803,16.31471634400077
1615,C,168548289604174.0,3.9906285952631553,3.725831615647433,0.028823336159259583,77,1970-01-02 22:49:08.289604174,-6.9067535,-3.058075,-1.2585449,16.048671125760258,7.657610716189695,-94.36792755126953,3.0887138843536377,-23.635353088378906,16365070.0,50354.0,0.28784386971998094,-0.40470267045368924,-0.09872686788553663,0.013635186106668366,-0.02304251886633999,-0.0048806449520979196,16.365070347994333
1615,C,168548339958178.0,0.9055760952631553,16.823213215647435,5.51904243615926,77,1970-01-02 22:49:08.339958178,-4.152252,-3.3650665,-0.78175354,2.71184234317383,5.401482002027664,-94.21327209472656,3.8749778270721436,-23.44428062438965,16415424.000000002,50354.00000000186,0.12327174549338549,0.02389410171751174,0.1396786165496685,0.010350657844227309,-0.009587617335071096,0.0010310421761168865,16.415424352017
1615,C,168548390312182.0,-1.7048518047368448,25.713349915647434,9.48637333615926,77,1970-01-02 22:49:08.390312182,-0.3190918,-2.3714905,-0.53630066,9.187879479556257,2.4522245342410893,-92.37010955810547,6.048624038696289,-23.163795471191406,16465778.0,50353.99999999814,-0.020123364537418337,0.5774738499565896,0.37779135289964944,0.002596966787328289,0.015140640919298287,0.013028341420824993,16.46577835601056
1615,C,168548440666186.0,-0.4207636047368446,25.198548915647436,12.93284553615926,77,1970-01-02 22:49:08.440666186,2.369278,0.4681244,-0.5083313,10.54066709193241,2.4679990692297777,-89.64915466308594,7.250670433044434,-22.883331298828125,16516131.999999998,50353.99999999814,-0.053516619164317096,0.7883396768754817,0.5644486735483425,-0.0018540338696585246,0.03438708716504978,0.023722777145880215,16.51613236000412
1615,C,168548491020190.0,2.607388822263155,20.125337215647434,7.20684763615926,77,1970-01-02 22:49:08.491020190,4.552109,2.5380402,-1.3678284,2.507622680059943,5.388348442384141,-86.55331420898438,7.308009147644043,-22.645998001098633,16566486.000000002,50354.000000003725,0.05505266310166399,0.6476502811276589,0.5070570549995008,3.8672978210585645e-05,0.03615391917264774,0.026977299727651047,16.566486363997683
1615,C,168548541374194.0,2.5211003702631554,8.150178615647434,5.79843083615926,77,1970-01-02 22:49:08.541374194,5.894882,3.9512634,-0.54522705,10.7923207959903,7.117540922689188,-86.26534271240234,7.115684509277344,-22.844568252563477,16616840.0,50353.99999999814,0.12911997240023015,0.21842346208450278,0.32743389609755125,0.0046369144440310175,0.021805138632851787,0.021009978675769703,16.616840367991244
1615,C,168548591728198.0,0.8797123952631551,5.059815615647434,-3.6790471638407407,77,1970-01-02 22:49:08.591728198,4.4818726,2.9136658,0.123413086,16.44010738817306,5.347135792788176,-86.90009307861328,7.131855010986328,-23.094900131225586,16667193.999999998,50353.99999999814,0.08562226299765276,-0.1608811752386832,0.05335972271796138,0.005406565260612298,0.001448742155917146,0.009587240940917808,16.66719437201391
1615,C,168548642082202.0,-0.1306330047368447,10.052583615647434,-1.62359676384074,77,1970-01-02 22:49:08.642082202,1.66156,-0.33450317,0.8883667,11.391786796816186,1.9136011595964657,-87.71539306640625,7.377418518066406,-23.18922233581543,16717548.0,50354.00000000186,0.018859571815281615,-0.11298432455369334,-0.13350466616724158,0.002630539155085346,-0.0068951116882729185,-0.002017809241222602,16.71754837600747
1615,C,168548692436206.0,6.896390195263155,3.3191546156474345,0.7394708361592599,77,1970-01-02 22:49:08.692436206,1.2062225,-2.033615,1.2629242,16.74147508976443,2.68058579841737,-88.06356811523438,6.899081707000732,-23.136974334716797,16767902.0,50354.0,0.1703414687858809,-0.15680894655068914,-0.022259638481236625,0.004763514599215469,-0.0067925851865950375,-0.003921677898134736,16.767902380001033
1615,C,168548742790210.0,-0.8071772047368446,-0.47260938435256605,-1.2569585638407403,77,1970-01-02 22:49:08.742790210,2.570404,0.99645996,-0.8617554,20.650572745641313,2.8883440834721132,-88.42481231689453,6.929336071014404,-23.24677848815918,16818256.0,50354.0,0.15330811546248094,-0.42180173071168914,-0.013028788519836633,0.008148525582621007,-0.014567681021434898,-0.0008884567266060215,16.818256383994594
1615,C,168548793144213.0,2.8032811552631554,1.5209676156474323,3.19291633615926,77,1970-01-02 22:49:08.793144213,3.3311005,0.6329498,0.22964478,17.48937439954041,3.3984691723482703,-88.4514389038086,6.750337600708008,-23.30113410949707,16868610.0,50354.0,0.05025590916240093,-0.4670746848106892,0.048741608833663366,0.0051251314479806515,-0.02237924151360692,0.0008991416770412157,16.868610386998625
1615,C,168548843498217.0,5.909360195263155,4.173280615647434,-2.1991581638407407,77,1970-01-02 22:49:08.843498217,2.7859192,-0.13772583,1.2880707,16.74874879473061,3.0723672178592714,-88.9657974243164,6.383340358734131,-23.367769241333008,16918964.0,50354.0,0.21935817128220095,-0.3501051122806892,0.025019849504463357,0.006788073703353742,-0.020574135751369634,0.0018570922365790167,16.918964390992187
1615,C,168548893852221.0,10.645154195263157,13.825425615647433,-4.33920316384074,77,1970-01-02 22:49:08.893852221,1.0939636,1.5912476,1.2293396,13.3699602309146,2.2891267188076068,-89.93546295166016,5.524930953979492,-23.552392959594727,16969318.0,50354.0,0.416793008810281,-0.04031577321468919,-0.16461632314703664,0.01601637826118842,-0.009829626634117142,-0.0035146204168990673,16.969318395014852
1615,C,168548944206225.0,9.117825795263155,12.416200315647433,0.57669013615926,77,1970-01-02 22:49:08.944206225,-2.4395142,0.45794678,-0.2935028,10.243838110494275,2.4994176679622493,-90.68243408203125,4.509241580963135,-23.628787994384766,17019672.0,50354.0,0.497572547221481,0.16721621607221082,-0.09472879049793662,0.023020981604211673,0.0031949724498238226,-0.006529531926239492,17.019672399008414
1615,C,168548994560229.0,-0.8116633047368449,10.825456615647434,-2.2533271638407406,77,1970-01-02 22:49:08.994560229,-4.057556,0.31628418,-1.3445129,11.382050024410816,4.286200101945858,-91.79181671142578,4.782698154449463,-23.717666625976562,17070026.0,50354.0,0.2091242530239809,0.09168599655921085,-0.04221269044593664,0.017792505339779996,0.006518381007421303,-0.003447775665723897,17.070026403001975
1615,C,168549044914233.0,-12.058885804736846,1.7979296156474334,4.307555636159259,77,1970-01-02 22:49:09.044914233,-4.4132233,-2.3204346,-0.9320526,22.518128825983112,5.072443067961119,-92.01276397705078,5.5755839347839355,-23.602201461791992,17120380.0,50354.0,-0.32404181492921913,-0.17565020485468916,0.05171931024756335,-0.0028932794560881827,-0.0021139668722552573,0.0002393481667455557,17.120380406995537
1615,C,168549095268237.0,-0.032305404736844956,-0.47260938435256605,-6.369217163840741,77,1970-01-02 22:49:09.095268237,-4.2341003,2.3026886,-0.8254242,22.62884910355888,4.889918736438847,-92.91561889648438,5.570383071899414,-23.78238868713379,17170734.0,50354.0,-0.30441992108091914,-0.4601016125366892,-0.05190645228243666,-0.015822781127527254,-0.016006323506462732,-4.711675012005422e-06,17.1707344109891
1615,C,168549145622241.0,11.167722195263156,-0.47260938435256605,-1.1692661638407404,77,1970-01-02 22:49:09.145622241,-7.2214966,-2.4010315,-0.8348541,22.094920397856473,7.655843962365653,-93.60281372070312,4.855955600738525,-23.68833351135254,17221088.0,50354.0,0.28035638853508094,-0.5172669729396892,-0.18979639474103666,-0.0006058475589065686,-0.024607208876538778,-0.006085352579509988,17.221088415011764
1615,C,168549195976245.0,7.389844195263155,8.859529115647433,7.83938543615926,77,1970-01-02 22:49:09.195976245,-6.0647125,-3.9784393,-0.71435547,11.508250709412453,7.288279681033079,-93.45918273925781,4.129276275634766,-23.451364517211914,17271442.0,50354.0,0.467223849014281,-0.28231172192518916,0.16793359291916338,0.018821827640780286,-0.02013099280061304,-0.0005504397614693035,17.271442419005325
1615,C,168549246330249.0,3.885175095263155,23.588380615647434,11.48718203615926,77,1970-01-02 22:49:09.246330249,-1.6587067,-2.4864044,-0.42344666,8.096024970194586,3.0187450754956777,-90.6974868774414,3.6679837703704834,-23.132530212402344,17321796.0,50354.0,0.2838711606775809,0.32347182330481083,0.48658498925056337,0.018910319059012005,0.0010362878724347348,0.016478814343287213,17.321796422998887
1615,C,168549296684253.0,-0.5327478047368448,24.865235915647432,15.38261383615926,77,1970-01-02 22:49:09.296684253,1.7323761,-0.032913208,-0.8184204,12.34976689447393,1.9162521186545944,-87.88822174072266,4.537540912628174,-22.934900283813477,17372150.0,50354.0,0.08440406189358092,0.7264475034084108,0.6765008506773634,0.00927206527867414,0.026433818888658783,0.029283012191865417,17.372150426992448
1615,C,168549347038256.0,1.571317045263155,22.274110415647435,9.06947283615926,77,1970-01-02 22:49:09.347038256,4.0485687,2.8475037,-1.259903,5.359750220569095,5.107498547189453,-84.94005584716797,5.290189743041992,-22.842470169067383,17422504.0,50354.0,0.026148057768730915,0.6933581225830108,0.6156301861489635,0.002783370716738025,0.035746446245586025,0.03253198311417643,17.42250442999648
1615,C,168549397392260.0,4.505704195263155,12.422120615647433,10.99906883615926,77,1970-01-02 22:49:09.397392260,5.8303223,3.6908112,-0.42645264,9.043512789761897,6.913509043176678,-83.80816650390625,4.876814365386963,-22.953956604003906,17472858.0,50354.0,0.15300116377273093,0.38007780867491087,0.5052656736839635,0.004510439950749385,0.027025896441280693,0.028220795063013605,17.47285843399004
1615,C,168549447746264.0,7.998959895263155,0.5256056156474322,-8.22865316384074,77,1970-01-02 22:49:09.447746264,5.674408,2.6560059,0.8020477,23.303510119278315,6.31637190199992,-84.46888732910156,4.508462905883789,-23.15936851501465,17523212.0,50354.0,0.31482992780718094,-0.16748429667468923,0.0697507553819634,0.011778583392707442,0.00535246685162958,0.014477188634592842,17.523212438012706
1615,C,168549498100268.0,1.1355565952631552,5.383653615647434,-3.6582341638407403,77,1970-01-02 22:49:09.498100268,1.3628998,2.1908112,0.92904663,16.132424087497487,2.742312385487809,-85.29395294189453,4.601644515991211,-23.334482192993164,17573566.0,50354.0,0.22997972168198094,-0.3446917803336892,-0.29927616224903664,0.01371667254518863,-0.012895057090839945,-0.0057787611686923035,17.573566442006268
1615,C,168549548454272.0,-1.4309565047368449,6.880860615647434,2.4537958361592596,77,1970-01-02 22:49:09.548454272,1.029953,0.7985382,1.2063751,12.932003095839494,1.7758962021943314,-85.63860321044922,5.000405788421631,-23.402193069458008,17623920.0,50354.0,-0.007437283520819085,-0.18468552519868917,-0.030324143776036643,0.005602950965583573,-0.01332813242138869,-0.008298346904793271,17.62392044599983
1615,C,168549598808276.0,12.354566195263157,-0.17619138435256687,0.7989801361592601,77,1970-01-02 22:49:09.598808276,0.5575104,-2.1301575,1.1454315,21.867107431386138,2.482015741712099,-85.97303009033203,4.3034491539001465,-23.321611404418945,17674274.0,50354.0,0.275023721178381,-0.3246657427636892,0.08189514065506337,0.006737023740904437,-0.012823936873488801,0.001298402988423256,17.67427444999339
1615,C,168549649162280.0,-3.276293404736845,-0.47260938435256605,4.07398933615926,77,1970-01-02 22:49:09.649162280,3.0252228,2.6457367,-1.9385986,20.266614041586926,4.462069050035947,-85.9953384399414,4.524914264678955,-23.47305679321289,17724628.0,50354.0,0.228563674047081,-0.5098040569536892,0.12268675240456338,0.012678819849591455,-0.02100944614748444,0.005150758321562223,17.724628454016056
1615,C,168549699516284.0,2.8665593552631554,-0.47260938435256605,5.05122321615926,77,1970-01-02 22:49:09.699516284,3.2724457,-0.49565125,1.2835388,19.38886701643269,3.5499356152162105,-85.92684173583984,4.451648712158203,-23.451488494873047,17774982.0,50354.0,-0.01031587416359908,-0.5172669729396892,0.22974547642972337,0.005494824857666425,-0.025858567319625585,0.008873186225360838,17.774982458009617
1615,C,168549749870288.0,8.052899695263156,10.793946615647434,-5.303223163840741,77,1970-01-02 22:49:09.749870288,2.1638794,0.93540955,1.3364563,14.231669082486295,2.709885703454161,-86.91788482666016,3.9115192890167236,-23.573932647705078,17825336.0,50354.0,0.2749192205151009,-0.23360889252768918,-0.006344602682776657,0.006661918451091762,-0.018904801664872187,0.005624563798326878,17.82533646200318
1615,C,168549800224292.0,14.878598195263155,11.490296915647434,-8.82309016384074,77,1970-01-02 22:49:09.800224292,0.7114105,1.2315979,1.2713776,19.9584965136644,1.9077052415340323,-87.90738677978516,3.0623762607574463,-23.69448471069336,17875690.0,50354.0,0.5773463223897809,0.06758119938741085,-0.3556581906510367,0.02145748957371621,-0.004180079230192787,-0.00911414432776542,17.87569046599674
1615,C,168549850578295.0,8.051831595263156,15.810517915647434,4.831923906159259,77,1970-01-02 22:49:09.850578295,-1.7271271,1.637619,-0.018615723,6.31328376489696,2.380149271339557,-88.06370544433594,1.7819061279296875,-23.778223037719727,17926044.0,50354.0,0.577319430836081,0.19388341500751088,-0.10048559286964666,0.029071019668967524,0.006582894596620945,-0.011484332037700246,17.92604446900077
1615,C,168549900932299.0,2.270978295263155,17.462739615647433,3.16741893615926,77,1970-01-02 22:49:09.900932299,-2.1639557,0.17163086,-1.7151337,2.3641799021569447,2.7665583370936746,-89.31941986083984,1.8429192304611206,-23.82604217529297,17976398.0,50354.0,0.259897384613781,0.34425160486541084,0.20139945474105336,0.021078607762581174,0.013548625395340552,0.002540708300336407,17.976398472994333
1615,C,168549951286303.0,-3.8543268047368446,1.0489826156474322,-2.45996146384074,77,1970-01-02 22:49:09.951286303,-3.2056732,-3.2151337,-1.5237427,20.398080638913306,4.789072685800167,-90.0140380859375,2.175509214401245,-23.685482025146484,18026752.0,50354.0,-0.03986396542301908,-0.027399569382689226,0.01781165678056338,0.005539781394965813,0.007977383697348482,0.005519078154779745,18.026752477017
1615,C,168550001640307.0,-10.780626804736844,0.859651615647433,0.3344568361592595,77,1970-01-02 22:49:10.001640307,-3.0069275,-2.7739716,-0.8176727,22.928509098342897,4.171944399460292,-90.4505615234375,2.924924850463867,-23.56059455871582,18077106.0,50354.0,-0.36846422702571907,-0.4454155159586892,-0.05351383001113664,-0.01028047890128188,-0.011904065403639886,-0.000898873615426143,18.07710648101056
1615,C,168550051994311.0,4.997845995263155,4.653611615647433,-5.0011141638407395,77,1970-01-02 22:49:10.051994311,-3.5967102,5.561096,-0.9451752,17.59463148036227,6.689952850558447,-91.45062255859375,2.614692449569702,-23.877056121826172,18127460.0,50354.0,-0.14559307244011907,-0.35466177162568924,-0.11749243153903663,-0.012942420628651407,-0.0201435458695119,-0.004305424647048713,18.12746048500412
1615,C,168550102348315.0,2.523389188263155,-0.37885938435256605,-9.89752216384074,77,1970-01-02 22:49:10.102348315,-6.481079,-0.3529358,-1.6007538,24.38231873290186,6.685159789517157,-92.62145233154297,2.4842100143432617,-23.894710540771484,18177814.0,50354.0,0.18936213821564193,-0.3858437630726892,-0.37510296682203664,0.0011019737690303392,-0.018643707847101076,-0.012402074344536742,18.177814488997683
1615,C,168550152702319.0,10.014768195263155,3.2434556156474343,5.636763986159259,77,1970-01-02 22:49:10.152702319,-6.3877563,-4.949875,-1.6423798,17.36575119807452,8.246338852561344,-92.82085418701172,1.743508219718933,-23.637466430664062,18228168.0,50354.0,0.31567318844504194,-0.42134726068468914,-0.10727310863948665,0.012715274419336038,-0.020322648405139514,-0.012144782451894773,18.228168492991244
1615,C,168550203056323.0,-3.2791010047368445,23.695954915647434,10.16693083615926,77,1970-01-02 22:49:10.203056323,-2.3743744,-3.0614166,-0.8731384,9.137918118056296,3.971435012144285,-91.11099243164062,3.9179580211639404,-23.39443016052246,18278522.0,50354.0,0.16958389285588094,0.18478433894641086,0.3978896245415134,0.012217317535913336,-0.005955944680604633,0.007316852020865328,18.27852249701391
1615,C,168550253410327.0,-3.4605586047368444,23.891770915647434,11.18168583615926,77,1970-01-02 22:49:10.253410327,1.277298,-0.8622894,-0.10586548,9.952661949323373,1.5447461571442702,-89.05365753173828,5.9801764488220215,-23.178150177001953,18328876.0,50354.0,-0.16968440998771908,0.7046469732545109,0.5374941219589634,-2.530719828289e-06,0.02239321214728261,0.023550156585642506,18.32887650100747
1615,C,168550303764331.0,0.17587019526315517,22.292512615647432,11.28799383615926,77,1970-01-02 22:49:10.303764331,3.3881836,1.1360474,0.23092651,7.5149159574546145,3.5810220406158493,-86.23717498779297,7.113636016845703,-22.930892944335938,18379230.0,50354.0,-0.08269860008531908,0.6693125064674109,0.5657191251099634,-0.006354247044608882,0.03459217782095883,0.027775599921454373,18.379230505001033
1615,C,168550354118335.0,2.247601835263155,16.977708415647434,4.69135993615926,77,1970-01-02 22:49:10.354118335,4.657852,2.6884308,-0.07980347,1.9866089829927427,5.378625662203746,-86.34590148925781,7.16893196105957,-23.106609344482422,18429584.0,50354.0,0.06101575531256091,0.4952371549049108,0.40231218992566337,-0.0005459089828437325,0.02931986682437095,0.024372124418651976,18.429584508994594
1615,C,168550404472338.0,1.3383305952631552,2.8629016156474343,-11.072312163840742,77,1970-01-02 22:49:10.404472338,4.018631,3.2795258,-0.08049011,22.755596087617402,5.187597058835087,-87.24868774414062,7.13134241104126,-23.406675338745117,18479938.0,50354.0,0.09028302080336092,0.006057838757910876,-0.16065323423633668,0.0038092492862705648,0.012621104055448864,0.0060842475273901785,18.479938511998625
1615,C,168550454826342.0,-1.558382804736845,5.786851615647434,3.17208803615926,77,1970-01-02 22:49:10.454826342,1.9562988,4.214569,0.2258606,13.879309159669239,4.65195763751937,-87.43445587158203,7.4069061279296875,-23.6506404876709,18530292.0,50354.0,-0.00554025447791909,-0.27569436289568916,-0.19890394286263668,0.0021335686277756494,-0.006788638768216844,-0.009052571047820854,18.530292515992187
1615,C,168550505180346.0,-2.323107404736845,11.443757615647435,4.59831183615926,77,1970-01-02 22:49:10.505180346,1.2823029,2.2747345,0.43792725,8.932271574783984,2.647734512584527,-87.50666809082031,8.055914878845215,-23.78032112121582,18580646.0,50354.0,-0.09772427900391911,-0.059654151383689125,0.19563535758536338,-0.0025998911594722405,-0.008443069544011908,-8.229317152591003e-05,18.580646520014852
1615,C,168550555534350.0,-4.533663404736845,2.6000236156474337,5.91580143615926,77,1970-01-02 22:49:10.555534350,1.691925,1.252655,2.4264832,17.810935190355426,3.2124096056593157,-87.4146728515625,8.560364723205566,-23.835617065429688,18631000.0,50354.0,-0.1726329186701191,-0.13988891993968913,0.2647138298571634,-0.00680678316583926,-0.005023895906708695,0.011590211492240498,18.631000524008414
1615,C,168550605888354.0,-1.123369804736845,3.828752615647433,4.74076789615926,77,1970-01-02 22:49:10.605888354,1.5107727,2.5844421,2.0044708,15.52978715723169,3.6027320615569427,-87.44691467285156,8.795208930969238,-23.974905014038086,18681354.0,50354.0,-0.14242712511491912,-0.33161190082468917,0.2683004460797834,-0.007932266722375908,-0.011870976164384752,0.013419700425264509,18.681354528001975
1615,C,168550656242358.0,1.8536198952631553,6.924790615647433,4.77183478615926,77,1970-01-02 22:49:10.656242358,0.1884613,4.211319,1.9407654,12.011957904436287,4.640829205992809,-87.56268310546875,8.7659912109375,-24.197629928588867,18731708.0,50354.0,0.018385506529180914,-0.2227272420656892,0.23949879773273336,-0.003122995831133131,-0.013956596600551057,0.012784861561467735,18.731708531995537
1615,C,168550706596362.0,4.848538695263155,9.395570615647433,6.34796083615926,77,1970-01-02 22:49:10.706596362,1.0081024,2.679657,1.8486786,9.880918977836842,3.407997161476623,-87.39556121826172,8.324518203735352,-24.308889389038086,18782062.0,50354.0,0.1687402468336809,-0.0825714652796892,0.2799630943831134,0.004711265092416772,-0.007686505554834592,0.013078492057800673,18.7820625359891
1615,C,168550756950366.0,5.289181995263155,11.670640615647434,5.390151436159259,77,1970-01-02 22:49:10.756950366,1.9522095,0.9024048,0.97924805,7.750573312717569,2.3631299368384493,-87.29496765136719,7.6818084716796875,-24.35141372680664,18832416.0,50354.0,0.2552373938253809,0.036914800170310826,0.29553045268016337,0.0106744850588732,-0.0011494978574588194,0.01448920103441212,18.832416540011764
1615,C,168550807304370.0,4.459027595263155,12.941636615647433,1.20164433615926,77,1970-01-02 22:49:10.807304370,1.5258484,3.1792755,0.5973053,7.335035244653308,3.576699549317904,-88.04387664794922,7.1982831954956055,-24.61455535888672,18882770.0,50354.0,0.2454306728606809,0.12619410385231083,0.1659616421596634,0.012605319914954978,0.004106592876577546,0.01161898647178232,18.882770544005325
1615,C,168550857658374.0,1.7081273452631551,10.447480615647434,2.59382583615926,77,1970-01-02 22:49:10.857658374,1.0490723,2.3076172,-0.13671875,8.845627567529215,2.538570828037834,-88.44755554199219,7.1611247062683105,-24.78621482849121,18933124.0,50354.0,0.15527045993763092,0.09539860453231082,0.09555855252846338,0.010088452420463098,0.005579039618999619,0.006584293941662968,18.933124547998887
1615,C,168550908012378.0,0.7793705952631551,9.500291615647434,2.95832773615926,77,1970-01-02 22:49:10.908012378,0.40652466,3.1765594,-0.21562195,9.7974332858806,3.2097172377389067,-88.78746032714844,7.241403579711914,-24.989181518554688,18983478.0,50354.0,0.06262773564863092,0.008755861467310862,0.13978657049026338,0.005486022870275315,0.002622296990472475,0.005925284162242484,18.983478551992448
1615,C,168550958366381.0,0.7196629952631552,8.598710615647434,4.3483576361592595,77,1970-01-02 22:49:10.958366381,-0.45033264,3.216385,-0.09202576,10.49835162117472,3.2490615099406703,-88.95181274414062,7.311496734619141,-25.16675567626953,19033832.0,50354.0,0.03774116870868092,-0.03779062082268914,0.18396041761886336,0.00252698790500404,-0.0007310081362903591,0.008150977919623483,19.03383255499648
1615,C,168551008720385.0,-0.08734380473684489,6.162553615647434,3.5793756361592597,77,1970-01-02 22:49:11.008720385,-1.0191498,0.53474426,-0.038513184,13.101017984472941,1.1515645894976128,-89.18986511230469,7.419675827026367,-25.21734046936035,19084186.0,50354.0,0.015919900259880916,-0.12182485044868914,0.1995965405971634,0.0013510247334214815,-0.004018638720199492,0.009656813537004906,19.08418655899004
1615,C,168551059074389.0,-1.7368342047368444,8.611848615647434,2.40711923615926,77,1970-01-02 22:49:11.059074389,-0.7947693,-0.61320496,0.07002258,11.460783828608447,1.0062711984852533,-89.57244873046875,7.789172172546387,-25.23238754272461,19134540.0,50354.0,-0.045927329744519074,-0.12149407502268915,0.1507219814003634,-0.0007554970521347349,-0.006126040586592892,0.008819969428331732,19.134540563012706
1615,C,168551109428393.0,-5.900499804736845,11.564775115647434,3.41879223615926,77,1970-01-02 22:49:11.109428393,-0.381958,1.1948853,0.12098694,11.316877232528478,1.2602700637445345,-89.81126403808594,8.730181694030762,-25.323257446289062,19184894.0,50354.0,-0.1922851583565191,0.014517655682810845,0.14667897313856337,-0.005997475812919839,-0.0026933453097201165,0.00748766383242656,19.184894567006268
1615,C,168551159782397.0,-5.889162804736844,11.201280215647433,5.57311957615926,77,1970-01-02 22:49:11.159782397,-0.06340027,2.1021576,1.2371368,11.451273689163221,2.4399986949562233,-89.76348114013672,9.690173149108887,-25.418811798095703,19235248.0,50354.0,-0.29682833551871907,0.07971177507601084,0.22638936369874338,-0.012314410435296873,0.0023724143782148533,0.009392741516552873,19.23524857099983
1615,C,168551210136401.0,0.9002507952631551,9.413209615647434,4.8485864961592595,77,1970-01-02 22:49:11.210136401,0.9151001,2.7723541,1.7908173,9.645260674311082,3.4249645327778375,-89.77197265625,9.78531265258789,-25.564226150512695,19285602.0,50354.0,-0.12560583766251907,0.02554181048251082,0.2623872937827634,-0.010635625178184033,0.0026499695236069,0.012305929905411897,19.28560257499339
1615,C,168551260490405.0,7.061856595263155,7.499024615647434,2.0986018361592595,77,1970-01-02 22:49:11.260490405,1.5110779,3.8312378,1.0644226,12.61263832404284,4.253790659095486,-90.06861114501953,9.11438274383545,-25.814334869384766,19335956.0,50354.0,0.2004619777712809,-0.06766987875868916,0.17490936064278337,0.001884653039518297,-0.001060658374989342,0.011009817868471992,19.335956579016056
1615,C,168551310844409.0,5.106534295263155,10.911836615647434,-0.7890631638407406,77,1970-01-02 22:49:11.310844409,0.8102722,3.5365448,0.3881836,10.207012075969422,3.648887045087699,-90.87760925292969,8.600117683410645,-26.119932174682617,19386310.0,50354.0,0.30636357745078097,-0.029938946779689137,0.032970255152963354,0.012760347003825853,-0.0024574974005797507,0.005233785086889515,19.386310583009617
1615,C,168551361198413.0,-2.2115351047368446,12.495622315647434,0.44645633615925995,77,1970-01-02 22:49:11.361198413,0.27130127,1.1275482,0.3522644,9.20722919049828,1.2120476599268746,-91.57682800292969,9.1984281539917,-26.28614044189453,19436664.0,50354.0,0.07288739461988093,0.09586039351321088,-0.008625812100536638,0.009548401723823055,0.001659704264409877,0.0006129200427309474,19.43666458700318
1615,C,168551411552417.0,-0.8936793047368448,9.395143615647434,1.74171383615926,77,1970-01-02 22:49:11.411552417,1.0393372,0.76309204,0.14241028,10.639738033806294,1.2972324250745817,-91.94154357910156,9.456014633178711,-26.391401290893555,19487018.0,50354.0,-0.07817998318731909,0.05767461385221088,0.05509156042846338,-0.00013325150236239038,0.0038655508804392234,0.0011698681456522118,19.48701859099674
1615,C,168551461906420.0,0.3881199952631551,9.172486615647435,0.5639643361592599,77,1970-01-02 22:49:11.461906420,1.4606934,2.0531769,-0.21842957,10.926104873924041,2.5292038408454856,-92.43260955810547,9.508315086364746,-26.585134506225586,19537372.0,50354.0,-0.012728466734619085,-0.025991973666689122,0.058050059344463376,-0.0022888020436846374,0.0007976738319508813,0.002848566561022977,19.53737259400077
1615,C,168551512260424.0,1.0841191952631553,9.613435615647434,3.11556953615926,77,1970-01-02 22:49:11.512260424,0.81040955,0.8360748,-0.062820435,9.605247006117505,1.1660750906265993,-92.6258316040039,9.488991737365723,-26.664779663085938,19587726.0,50354.0,0.03706656609988092,-0.020496035982689124,0.09263962430336338,0.0006127603277191972,-0.001170428618942396,0.0037939141652013346,19.587726597994333
1615,C,168551562614428.0,2.018658965263155,8.331285115647434,3.4694208361592596,77,1970-01-02 22:49:11.562614428,0.20159912,0.6073303,-0.040237427,10.707818950427852,0.6411796542424321,-92.76392364501953,9.3218412399292,-26.71883773803711,19638080.0,50354.0,0.07811864574757092,-0.041674966148189135,0.16579030260386338,0.002900018078683295,-0.001565279320649122,0.006506490269743249,19.638080602017
1615,C,168551612968432.0,1.7279332552631552,8.571931615647435,3.6636194361592596,77,1970-01-02 22:49:11.612968432,0.09338379,1.7424164,-0.35124207,10.462221417481814,1.7799175360003645,-92.89089965820312,9.18144416809082,-26.825040817260742,19688434.0,50354.0,0.09432795233619092,-0.06789691235618914,0.17958855493616335,0.004341687999954872,-0.002758691185104732,0.008695603496285254,19.68843460601056
1615,C,168551663322436.0,1.5801518952631552,9.011247615647434,2.9515680361592596,77,1970-01-02 22:49:11.663322436,0.42662048,1.4919891,-0.08480835,10.161614484909812,1.5541006932319292,-93.10397338867188,9.084371566772461,-26.93560218811035,19738788.0,50354.0,0.08328765983480092,-0.05077749649368912,0.16655057499056336,0.004471828267629062,-0.002987865591613385,0.008714744874165199,19.73878861000412
1615,C,168551713676440.0,2.362698885263155,9.940278615647435,1.9479518361592598,77,1970-01-02 22:49:11.713676440,0.601593,0.4025421,0.30758667,9.484130482962827,0.7864882958335102,-93.47064971923828,8.90970230102539,-27.018362045288086,19789142.0,50354.0,0.09926915410131092,-0.01632662407468912,0.12335521182536337,0.0045962329044694885,-0.0016894804435500592,0.007298957994664588,19.789142613997683
1615,C,168551764030444.0,2.446851105263155,10.119355615647434,1.82925363615926,77,1970-01-02 22:49:11.764030444,0.58125305,-0.26353455,0.14686584,9.353223735161789,0.6548855946933867,-93.84933471679688,8.721528053283691,-27.06834602355957,19839496.0,50354.0,0.12109004011148092,0.01157221104131087,0.09509870217656338,0.00554798343269546,-0.00011970185694136422,0.00550001419282651,19.839496617991244
1615,C,168551814384448.0,-0.6794154047368446,11.267228615647433,0.11933843615925976,77,1970-01-02 22:49:11.814384448,0.7094574,-0.3218994,-0.3842163,9.637421291721562,0.8686605731359114,-94.46847534179688,8.9990873336792,-27.151939392089844,19889850.0,50354.0,0.04449872863215092,0.04498083119131083,0.049059702604763375,0.0041690284306584195,0.0014238359442907166,0.0036294761571794634,19.88985062201391
1615,C,168551864738452.0,1.0857975952631551,11.786073315647434,1.3634028361592598,77,1970-01-02 22:49:11.864738452,0.14439392,1.3921509,-0.21406555,8.14121355825408,1.4158946967202677,-95.02122497558594,9.034494400024414,-27.30742073059082,19940204.0,50354.0,0.01023148441088092,0.08694378272421081,0.03733097701316337,0.0013779425737844128,0.003321466004551088,0.0021750581407405417,19.94020462600747
1615,C,168551915092456.0,2.1821721452631553,11.623643615647435,1.5446008361592596,77,1970-01-02 22:49:11.915092456,-0.24928284,1.464447,-0.13679504,8.081355343271753,1.4917975174587426,-95.55023956298828,8.875590324401855,-27.45925521850586,19990558.0,50354.0,0.08227767415723092,0.09591724317921087,0.07321480845796337,0.002329103085269352,0.004603892049170448,0.0027832112408065577,19.990558630001033
1615,C,168551965446460.0,1.5144169952631552,10.755738615647434,1.7124933361592598,77,1970-01-02 22:49:11.965446460,-0.26864624,1.3228912,-0.11653137,8.861486698713986,1.3549138310230855,-95.98194885253906,8.818931579589844,-27.588069915771484,20040912.0,50354.0,0.09306902479103092,0.06997650643731089,0.08200385997646337,0.004414703839420388,0.004176706934095169,0.003907940415173562,20.040912633994594
1615,C,168552015800463.0,1.6128819952631552,10.632051115647434,-0.32339516384074063,77,1970-01-02 22:49:12.015800463,-1.0302887,1.1284027,0.1730957,9.896623973597354,1.5377742292266021,-96.69293975830078,8.76059627532959,-27.74515724182129,20091266.0,50354.0,0.07873600668448093,0.045011182064810855,0.03497332468446336,0.004325535277458962,0.002895045033417919,0.0029451345782081522,20.091266636998625
1615,C,168552066154467.0,-3.700350404736845,9.353135615647433,-2.3351751638407405,77,1970-01-02 22:49:12.066154467,-3.1642456,0.6708832,0.3366394,13.584454462029735,3.2520548228456976,-97.5173568725586,9.258241653442383,-27.88503074645996,20141620.0,50354.0,-0.05255619214531909,0.009697846333810831,-0.06693482514003665,0.0006591291906524776,0.0013774092079920982,-0.0008046946969699688,20.141620640992187
1615,C,168552116508471.0,2.5718968792631554,4.228883615647433,2.99124083615926,77,1970-01-02 22:49:12.116508471,-3.7955627,-1.4065399,1.0266876,14.823242985707584,4.1759715190500355,-97.70497131347656,9.086553573608398,-27.82221794128418,20191974.0,50354.0,-0.02841107441085109,-0.15151470181368917,0.016517765431963365,-0.0020385128700846967,-0.0035705229704168975,-0.0012693503122701612,20.191974645014852
1615,C,168552166862475.0,-3.510836304736845,7.516862615647433,8.95790043615926,77,1970-01-02 22:49:12.166862475,-2.4126434,-0.3456421,0.24333191,13.500964123263689,2.4493932014440265,-97.238037109375,9.555784225463867,-27.712234497070312,20242328.0,50354.0,-0.023639677915151085,-0.1977465471346892,0.3008435298131634,-0.0013104817913117568,-0.008793350464773324,0.007990205330386559,20.242328649008414
1615,C,168552217216479.0,-2.960741804736845,14.176591615647434,4.89575141615926,77,1970-01-02 22:49:12.217216479,0.62950134,1.0124817,-0.058166504,7.273074206968081,1.1936391716445416,-97.11888885498047,10.463993072509766,-27.74591636657715,20292682.0,50354.0,-0.1629349220622191,0.05270689718131083,0.34879339268582343,-0.00469738870363025,-0.003651663266876207,0.016355908797756995,20.292682653001975
1615,C,168552267570483.0,1.5020115952631552,15.176881415647433,2.4959864361592596,77,1970-01-02 22:49:12.267570483,3.1592712,0.5990906,0.20173645,4.626742228590454,3.2218941102116316,-97.60704803466797,10.564774513244629,-27.894142150878906,20343036.0,50354.0,-0.036726450483919086,0.2455631905089108,0.18610178390782336,-0.005026874376594122,0.0075095459977767105,0.013467055861098247,20.343036656995537
1615,C,168552317924487.0,5.415326395263156,6.290620615647434,2.8858332361592596,77,1970-01-02 22:49:12.317924487,3.9250946,0.44137573,0.25549316,13.116195389993166,3.958087531723999,-97.46361541748047,10.011517524719238,-27.92767906188965,20393390.0,50354.0,0.17415781858748094,0.04701809864191083,0.13549807388996338,0.003460109554743377,0.007366319116950236,0.008096919619774878,20.3933906609891
1615,C,168552368278491.0,6.146924295263155,8.414887615647434,-6.212143163840739,77,1970-01-02 22:49:12.368278491,3.5024567,-0.077041626,-0.4480133,15.782733514286763,3.5318344050207826,-98.18598937988281,9.480788230895996,-28.07378578186035,20443744.0,50354.0,0.29110278563538095,-0.12322861926068916,-0.08374650504923663,0.011713866232518994,-0.0019187522776189824,0.0013029492487029776,20.443744665011764
1615,C,168552418632495.0,-0.47539010473684495,12.774171615647433,3.59976143615926,77,1970-01-02 22:49:12.418632495,1.3208008,-1.4444275,-0.52033997,6.991628919620081,2.025250414249184,-98.21597290039062,9.866203308105469,-28.015539169311523,20494098.0,50354.0,0.1427922163148809,0.04000774426631081,-0.06577193475783662,0.010924174464101743,-0.002095251969733464,-0.0037644257590226833,20.494098669005325
1615,C,168552468986499.0,-4.979799804736845,2.3670366156474323,14.752699836159259,77,1970-01-02 22:49:12.468986499,1.0469818,-7.024597,-0.6744995,20.627087285201323,7.134149106756915,-97.25405883789062,10.216156959533691,-27.509557723999023,20544452.0,50354.0,-0.1373453163508191,-0.11225900036068923,0.4620599174531633,0.00013713660039518414,-0.0018190698746881652,0.009977342540320242,20.544452672998887
1615,C,168552519340503.0,-0.31752270473684474,7.175904615647434,8.03066963615926,77,1970-01-02 22:49:12.519340503,-1.6330261,-0.49432373,0.18753052,12.455982303718041,1.7164783392905931,-96.80821228027344,10.323714256286621,-27.392621994018555,20594806.0,50354.0,-0.13337068882101907,-0.2532065686196892,0.5736168932045634,-0.006815816862211369,-0.009201326630218987,0.02607523506192959,20.594806676992448
1615,C,168552569694506.0,-0.03287000473684465,6.817353615647434,5.56768743615926,77,1970-01-02 22:49:12.569694506,-1.2629242,-0.2842102,1.0110016,12.382972818769684,1.6425216004461676,-96.63632202148438,10.422605514526367,-27.342370986938477,20645160.0,50354.0,-0.008821837246419079,-0.14116093751068914,0.34236583600976345,-0.0035799812287998904,-0.009928990701844536,0.02306169717342911,20.64516067999648
1615,C,168552620048510.0,7.688062195263155,8.579209615647434,-11.605027163840742,77,1970-01-02 22:49:12.620048510,0.30647278,1.337143,0.4611969,20.230065585778956,1.447266232556933,-97.73394012451172,9.92187786102295,-27.60693359375,20695514.0,50354.0,0.19273477378088094,-0.10582992752568915,-0.15200210232383668,0.0046303760031281465,-0.006218489009020897,0.004792787723010578,20.69551468399004
1615,C,168552670402514.0,-5.416872804736845,11.416124015647434,-6.86306816384074,77,1970-01-02 22:49:12.670402514,-2.2476044,2.578476,0.37174988,16.14960435032203,3.440706612711316,-98.84017181396484,10.47873592376709,-27.91178321838379,20745868.0,50354.0,0.05718173528528092,0.009953314835110845,-0.4649712360650367,0.006292147948758758,-0.00241388547771069,-0.015533537740616665,20.745868688012706
1615,C,168552720756518.0,3.2537663952631553,13.537355115647433,7.38685553615926,77,1970-01-02 22:49:12.720756518,-3.1855774,-2.1366577,0.92326355,5.9187455170464105,3.945329527570372,-98.20137023925781,10.155834197998047,-27.671579360961914,20796222.0,50354.0,-0.05446053007131908,0.13478454408861082,0.013187394672863367,6.851178367191722e-05,0.0036440650741225403,-0.011374561774730748,20.796222692006268
1615,C,168552771110522.0,2.714825955263155,10.072145115647434,11.161620536159258,77,1970-01-02 22:49:12.771110522,-3.1788483,-1.5629425,0.06022644,10.771142030736229,3.542808631127881,-97.35448455810547,9.962812423706055,-27.419910430908203,20846576.0,50354.0,0.15027124960920094,0.10094718732331083,0.46699498207276335,0.0024122264858052514,0.0059350178017579525,0.012089551699324644,20.84657669599983
1615,C,168552821464526.0,1.3334935952631553,8.285752615647434,4.27436773615926,77,1970-01-02 22:49:12.821464526,0.25375366,-0.4766388,0.5778656,10.723559293192329,0.7908881825468096,-97.2530288696289,9.909661293029785,-27.38496208190918,20896930.0,50354.0,0.10192454132360092,-0.031272408819189156,0.3886318767321634,0.0063495334283151525,0.0017542018983982717,0.021542117424131643,20.89693069999339
1615,C,168552871818530.0,-0.331927004736845,12.674897615647435,0.023574336159259524,77,1970-01-02 22:49:12.871818530,2.5666046,-0.9485016,-1.3095245,8.494220159763078,3.033474719532696,-97.82763671875,10.13234806060791,-27.452550888061523,20947284.0,50354.0,0.025216442049680914,0.03425709087331088,0.10820928755476336,0.003201028538389117,7.514534007662264e-05,0.012508969993251955,20.947284704016056
1615,C,168552922172534.0,-0.13798780473684458,16.088563615647434,4.65405219615926,77,1970-01-02 22:49:12.922172534,2.942627,-1.8007355,-1.2252197,3.920677928063912,3.6609923948783805,-97.65097045898438,10.869908332824707,-27.350215911865234,20997638.0,50354.0,-0.011831045158119084,0.2307084634203109,0.11776860320418336,0.00033700413753885223,0.006671037760450516,0.005689445355638002,20.997638708009617
1615,C,168552972526538.0,3.986142495263155,17.976838715647432,-2.3303685638407403,77,1970-01-02 22:49:12.972526538,1.4214935,-1.8892822,-0.5156708,7.538575816035669,2.41990648078634,-98.94377136230469,10.520173072814941,-27.50823974609375,21047992.0,50354.0,0.09688499064338092,0.36419543449501085,0.05850338281088336,0.002141403185482437,0.014977895437814056,0.004437999791901335,21.04799271200318
1615,C,168553022880542.0,-13.706484804736846,0.21173261564743484,-14.29773016384074,77,1970-01-02 22:49:13.022880542,1.0632172,2.0314026,-1.8874054,31.41851976220396,2.969735086099728,-99.6575927734375,10.959988594055176,-27.735193252563477,21098346.0,50354.0,-0.24472905832561911,-0.03553553959198918,-0.4186456416668366,-0.003722270092035711,0.008274670173973377,-0.009067301651216336,21.09834671599674
1615,C,168553073234545.0,1.5949528952631553,1.8256856156474335,2.15830943615926,77,1970-01-02 22:49:13.073234545,0.07777405,-0.88082886,-0.93518066,17.351371059362734,1.2870396848195234,-99.6393814086914,10.727314949035645,-27.68217658996582,21148700.0,50354.0,-0.3049320388848191,-0.4421731211906892,-0.3056341956608366,-0.013838817444467204,-0.012027270952525494,-0.01823519346439883,21.14870071900077
1615,C,168553123588549.0,-0.8758875047368448,6.528672615647434,3.0381769361592594,77,1970-01-02 22:49:13.123588549,-0.7237091,0.9455719,0.8407898,13.002660539265444,1.4576654510814409,-99.67144775390625,10.87523078918457,-27.73416519165039,21199054.0,50354.0,0.01810390933728092,-0.2831315228106892,0.13083193739586338,-0.007221471817618371,-0.018260995022022705,-0.004400996456337231,21.199054722994333
1615,C,168553173942553.0,-4.485231804736845,5.5675216156474345,-2.6799931638407406,77,1970-01-02 22:49:13.173942553,-2.3254852,1.3688049,0.6770477,16.937469183255153,2.7820679103426538,-100.26260375976562,11.250582695007324,-27.897506713867188,21249408.0,50354.0,-0.1349769008546191,-0.18892331783868915,0.00901799283566335,-0.0029425113074320235,-0.0118849247230294,0.0035210016934391487,21.249408727017
1615,C,168553224296557.0,-4.9663568047368445,13.797944615647435,6.670974236159259,77,1970-01-02 22:49:13.224296557,-3.0092926,2.5682526,1.2081909,9.247812082491878,4.136603512625344,-100.03873443603516,12.286916732788086,-27.956972122192383,21299762.0,50354.0,-0.23796264642071907,-0.005904856694689117,0.10048093045776335,-0.00938949898175119,-0.0049051889502268655,0.0027568543917586043,21.29976273101056
1615,C,168553274650561.0,11.313825195263156,16.258546515647435,6.9903711361592595,77,1970-01-02 22:49:13.274650561,-3.0416412,-1.2695923,2.4938812,9.362126508419383,4.133145199175825,-99.80628967285156,11.037557601928711,-27.837783813476562,21350116.0,50354.0,0.15981021166828097,0.2632630772126109,0.34395169243886337,-0.001967643849762134,0.006479507917979717,0.011189480146668372,21.35011673500412
1615,C,168553325004565.0,-8.750872304736845,6.734162615647433,5.17343085615926,77,1970-01-02 22:49:13.325004565,-2.5213776,-1.0258636,-0.52297974,16.620234882785628,2.7718674095340834,-99.72480010986328,11.779390335083008,-27.743547439575195,21400470.0,50354.0,0.06452746492478095,0.08541823779861087,0.30624804276060336,0.00564814968358352,0.00877874946803753,0.016370078733116973,21.400470738997683
1615,C,168553375358569.0,-4.003038804736844,14.368226615647433,1.67262213615926,77,1970-01-02 22:49:13.375358569,0.50450134,-0.54145813,-0.5228119,8.65127027027841,0.9061074943882224,-100.1209716796875,12.650733947753906,-27.80207633972168,21450824.0,50354.0,-0.3211052200032191,0.03782565367631082,0.17236307618760335,-0.006459858139609838,0.003102911455664103,0.012049992141759001,21.450824742991244
1615,C,168553425712573.0,-1.0250118047368448,15.216844215647434,1.8114923361592599,77,1970-01-02 22:49:13.425712573,3.1808624,1.0900116,-1.3086395,6.061303969177723,3.608122536282349,-100.57845306396484,13.184483528137207,-27.98031234741211,21501178.0,50354.0,-0.1265912301947191,0.25139412831951086,0.08771955006956338,-0.011271653526633492,0.007281686451308802,0.006548100281276687,21.50117874701391
1615,C,168553476066577.0,-0.5123164047368447,10.600801115647434,0.1963038361592595,77,1970-01-02 22:49:13.476066577,5.168762,-0.15196228,-0.6266327,10.085380094494408,5.208825365463512,-100.78495025634766,13.285969734191895,-28.073667526245117,21551532.0,50354.0,-0.038705312329919084,0.15654165650601082,0.050550284230463365,-0.004161671051142816,0.01027059925455216,0.003481219618171773,21.55153275100747
1615,C,168553526420581.0,3.8133061952631553,3.342393615647433,1.4985651361592596,77,1970-01-02 22:49:13.526420581,2.8981018,0.72332764,-0.7690277,16.01216540466635,3.084412508293678,-100.69606018066406,12.804094314575195,-28.114482879638672,21601886.0,50354.0,0.08310901995608093,-0.14242138625018919,0.04267171611606336,0.0011179521469038768,0.00035550604423082127,0.0023470503027245033,21.601886755001033
1615,C,168553576774585.0,4.3419621952631555,16.340028415647435,0.9327388361592597,77,1970-01-02 22:49:13.576774585,1.3188019,-1.4975281,-0.5120697,5.143010193635731,2.06010782227322,-101.61856842041016,12.104110717773438,-28.251663208007812,21652240.0,50354.0,0.20532519226828094,0.0020751394819108534,0.06121294011106336,0.007261908161172759,-0.003533497454884944,0.00261550398983037,21.652240758994594
1615,C,168553627128588.0,0.9529851952631552,12.988938915647434,7.39567513615926,77,1970-01-02 22:49:13.627128588,0.11613464,3.5384216,-1.1804352,6.5846664887701785,3.7319354141455245,-100.8624267578125,12.108981132507324,-28.252117156982422,21702594.0,50354.0,0.13331089045128092,0.2449462105000109,0.20968447858106334,0.008525840654630409,0.006219256528494844,0.006820384310411674,21.702594761998625
1615,C,168553677482592.0,6.850919195263155,7.399293615647434,6.6787104361592595,77,1970-01-02 22:49:13.677482592,-1.1151428,4.1509247,-0.50120544,12.401612287824594,4.3272307799038785,-100.51093292236328,11.294301986694336,-28.363805770874023,21752948.0,50354.0,0.1964789008402809,0.01984533044041086,0.3543508055542634,0.008303117575347652,0.0066666566262569985,0.014200716348675124,21.752948765992187
1615,C,168553727836596.0,1.6148503952631552,6.901124615647433,4.95637458615926,77,1970-01-02 22:49:13.727836596,-1.1764374,-0.84698486,1.1032715,12.049622850331923,1.8217014881423985,-100.3045425415039,11.190711975097656,-28.281084060668945,21803302.0,50354.0,0.21314268098068093,-0.13342757019068918,0.2929365356069134,0.010313042565506357,-0.0028596600501927575,0.01629675338841495,21.803302770014852
1615,C,168553778190600.0,4.649960795263155,6.415696615647434,0.6416162361592601,77,1970-01-02 22:49:13.778190600,-0.43255615,0.19973755,1.0730438,13.404554100860667,1.174062565837641,-100.5544204711914,10.750938415527344,-28.343496322631836,21853656.0,50354.0,0.1577291513438809,-0.15819159185968917,0.1409406149335134,0.009337440122435495,-0.007342095642942376,0.010923725019156326,21.853656774008414
1615,C,168553828544604.0,1.1321232952631552,11.545076015647433,-5.08737216384074,77,1970-01-02 22:49:13.828544604,-1.3066559,4.4393616,-0.39064026,12.582645492501573,4.644123261638545,-101.65399169921875,10.653505325317383,-28.74637222290039,21904010.0,50354.0,0.14557553114718091,-0.04127082746188916,-0.11193079699123663,0.007636301991077463,-0.005021865331259378,0.0007303801863327021,21.904010778001975
1615,C,168553878898608.0,-2.812365204736845,12.507707215647434,2.9808344361592596,77,1970-01-02 22:49:13.878898608,-3.4625244,-0.3043518,0.4038391,8.6017917670888,3.499255814805115,-101.94329071044922,11.349224090576172,-28.758939743041992,21954364.0,50354.0,-0.04230345055481909,0.11210772341431086,-0.05303630036983664,0.0026000811730738935,0.0017834605293941212,-0.004153376610259742,21.954364781995537
1615,C,168553929252612.0,7.460629795263155,8.279511615647433,8.90624943615926,77,1970-01-02 22:49:13.929252612,-3.1645813,-3.6449127,0.8015442,12.340986126923882,4.893100908369315,-101.35848236083984,10.647327423095703,-28.449546813964844,22004718.0,50354.0,0.11702935759568091,0.02989060851551083,0.2992811106533634,0.0018813741615677781,0.003575092002997121,0.006199705588508353,22.0047187859891
1615,C,168553979606616.0,-2.605364504736845,3.5955366156474344,8.80712833615926,77,1970-01-02 22:49:13.979606616,-2.1104736,-1.1999054,0.19995117,16.604190536420187,2.435949969853751,-100.86135864257812,10.878426551818848,-28.28133773803711,22055072.0,50354.0,0.1222410142195809,-0.19449111068068917,0.4459697121736634,0.006024110151192847,-0.004144146843012695,0.018763179966316053,22.055072790011764
1615,C,168554029960620.0,-1.543139104736845,13.535478215647434,2.88789313615926,77,1970-01-02 22:49:14.029960620,1.1893005,0.016326904,-0.8896942,7.088508557765233,1.4853477763164138,-101.0214614868164,11.431441307067871,-28.31609344482422,22105426.0,50354.0,-0.1044468753757191,-0.062161639592489146,0.2944455556085634,0.00044800303367190856,-0.00646174629362781,0.018641435196953125,22.105426794005325
1615,C,168554080314624.0,-0.5244318047368446,15.428666615647433,1.4553370361592597,77,1970-01-02 22:49:14.080314624,3.4121552,-0.3105774,-1.3001862,5.855702205314495,3.6646617285839955,-101.55113220214844,11.910039901733398,-28.429931640625,22155780.0,50354.0,-0.05205523278781909,0.23576107441751085,0.10934950604846337,-0.003940253577233401,0.004370712970589572,0.010166348267338964,22.155780797998887
1615,C,168554130668628.0,2.2029088452631553,13.562287915647435,3.0631708361592596,77,1970-01-02 22:49:14.130668628,3.3524323,-0.872345,-0.5713959,5.706224802412363,3.510880430838552,-101.58820343017578,11.685882568359375,-28.42469596862793,22206134.0,50354.0,0.04225901644933093,0.23643606223441088,0.11376247270136336,-0.00024663933875411633,0.011888507309485435,0.005617290288984388,22.206134801992448
1615,C,168554181022631.0,3.1456883952631554,6.512635615647433,6.746688336159259,77,1970-01-02 22:49:14.181022631,1.5443878,-1.2154999,-0.4222107,12.535694010352682,2.010182966519053,-101.00969696044922,11.337617874145508,-28.26242446899414,22256488.0,50354.0,0.13466163272473095,0.01195714974741085,0.24698282438146335,0.0044543311842553555,0.0062537958980663265,0.00908248434465433,22.25648880499648
1615,C,168554231376635.0,1.3593113952631553,8.274949615647433,12.56274383615926,77,1970-01-02 22:49:14.231376635,0.55651855,-2.6381989,-0.8247528,13.100867503905079,2.819578605671981,-99.90171813964844,11.25395393371582,-27.916189193725586,22306842.0,50354.0,0.11342237972608094,-0.1211621666316892,0.4861535738024634,0.006246011181474091,-0.002749454710095476,0.018458175097076725,22.30684280899004
1615,C,168554281730639.0,3.668317195263155,3.6339276156474334,7.43536323615926,77,1970-01-02 22:49:14.281730639,-0.3774109,-2.8733368,-0.330307,15.510680839420878,2.916780085629023,-99.42071533203125,10.896968841552734,-27.678510665893555,22357196.0,50354.0,0.12658060502368093,-0.1936393979476892,0.5034923417597633,0.006042555147044755,-0.00792575899141501,0.024916315216110183,22.357196813012706
1615,C,168554332084643.0,-0.4130885047368449,6.801270615647434,5.027968823159259,77,1970-01-02 22:49:14.332084643,-1.5601196,0.4387207,0.42559814,12.471271907341093,1.6755843147046074,-99.26978302001953,10.989914894104004,-27.65978240966797,22407550.0,50354.0,0.08195689274138092,-0.23074221413068918,0.3137893112574624,0.005250348581230963,-0.010684655847297332,0.020576700178014693,22.407550817006268
1615,C,168554382438647.0,2.5877202432631554,7.659089615647433,4.11148017615926,77,1970-01-02 22:49:14.382438647,-0.054885864,-1.4883423,0.8936157,11.290660060549165,1.7368719812705848,-99.14043426513672,10.769906044006348,-27.569812774658203,22457904.0,50354.0,0.054750703280876924,-0.12940071045668916,0.23010390745584236,0.003441887145052386,-0.009067318412336425,0.013693599567544875,22.45790482099983
1615,C,168554432792651.0,-0.49980420473684495,8.973496615647434,-1.4609381638407406,77,1970-01-02 22:49:14.432792651,1.3972473,0.18162537,0.17506409,12.249470000527948,1.4198363384532933,-99.6454849243164,10.89080810546875,-27.68794059753418,22508258.0,50354.0,0.05256746210197692,-0.07471057645468916,0.06673269624414337,0.0027019494498441115,-0.005138909870567772,0.00747345517135454,22.50825882499339
1615,C,168554483146655.0,-4.8407465047368445,13.414918615647434,-3.54249616384074,77,1970-01-02 22:49:14.483146655,-2.2004547,1.8281097,0.26219177,12.57534582681098,2.8727566005914795,-100.6473617553711,11.566070556640625,-27.952898025512695,22558612.0,50354.0,-0.13445904521241908,0.07020393027831086,-0.12597146606803664,-0.0020617843879716024,-0.00011346383078267656,-0.001491454507856161,22.558612829016056
1615,C,168554533500659.0,5.422574395263155,11.643922615647433,3.6272272361592597,77,1970-01-02 22:49:14.533500659,-3.679657,-1.477005,0.53697205,7.936009425688228,4.001219612837466,-100.82097625732422,10.831656455993652,-27.88348388671875,22608966.0,50354.0,0.01464868079978091,0.13743724568031085,0.0021332742077633713,-0.0030164655448169917,0.0052277818871102185,-0.0031178741564661,22.608966833009617
1615,C,168554583854663.0,1.4665959952631553,5.918366615647434,3.29235783615926,77,1970-01-02 22:49:14.583854663,-2.5953827,-0.5865631,0.2568817,13.15391003087371,2.6732107731220505,-100.86251068115234,10.698582649230957,-27.840927124023438,22659320.0,50354.0,0.1734486429222809,-0.05130344402368916,0.1742143933657634,0.004735726319350351,0.002168590724308764,0.004439905226498684,22.65932083700318
1615,C,168554634208667.0,-4.588381404736845,10.461305615647433,1.8110498361592597,77,1970-01-02 22:49:14.634208667,-0.31658936,0.35456848,0.057891846,11.521426730957186,0.47885185152404675,-101.0784912109375,11.365347862243652,-27.896963119506836,22709674.0,50354.0,-0.07859719125431909,-0.08107819223268917,0.12848849496596337,0.002388074998644275,-0.0033329724560268374,0.007621150619527885,22.70967484099674
1615,C,168554684562670.0,0.5146001952631551,17.183641115647433,1.2223200361592599,77,1970-01-02 22:49:14.684562670,2.8756409,-0.08102417,-0.9144592,4.639512783476999,3.018627358641944,-102.00003814697266,11.790217399597168,-28.097745895385742,22760028.0,50354.0,-0.10256558951091911,0.2025476238538108,0.07637115327536337,-0.004561135331326402,0.00305823587992498,0.005157751363771884,22.76002884400077
1615,C,168554734916674.0,0.7388737952631552,12.962327615647434,4.54156440615926,77,1970-01-02 22:49:14.734916674,3.9569855,0.22834778,-0.36521912,6.240635438272898,3.9803595266577054,-101.6213607788086,11.900744438171387,-28.06765365600586,22810382.0,50354.0,0.031558714659480916,0.26551585474781086,0.1451173186042534,-0.0017877400881346596,0.01178443420075303,0.0055764152565131115,22.810382847994333
1615,C,168554785270678.0,2.333981835263155,8.555100615647433,0.8262478361592596,77,1970-01-02 22:49:14.785270678,3.335205,0.32667542,-0.44784546,11.174573492069852,3.3809576717403296,-101.72054290771484,11.61292839050293,-28.13349723815918,22860736.0,50354.0,0.07736528620976092,0.04827509057931082,0.13514540882485337,0.002742379569884902,0.007900314630500943,0.007056174688482621,22.860736852017
1615,C,168554835624682.0,2.963818875263155,13.246980315647434,5.350081856159259,77,1970-01-02 22:49:14.835624682,2.1033478,1.0108185,-0.9638214,5.6914144855016735,2.5248322120103444,-101.24320220947266,11.177376747131348,-28.0992374420166,22911090.0,50354.0,0.1333827284889209,0.055441791607210834,0.15550145266350335,0.005306002766068713,0.002611279942810056,0.007317616031692358,22.91109085601056
1615,C,168554885978686.0,6.999097195263155,9.604692115647433,10.68545483615926,77,1970-01-02 22:49:14.885978686,0.8777466,1.1503296,-0.34291077,11.772048212667041,1.4870390306342711,-100.29652404785156,10.42886734008789,-27.982358932495117,22961444.0,50354.0,0.2508363379076409,0.08186735680271084,0.4037267073025034,0.009673483434666237,0.003457032429516598,0.014079687383464152,22.96144486000412
1615,C,168554936332690.0,5.765042595263155,4.234605615647434,7.23124643615926,77,1970-01-02 22:49:14.936332690,-0.6394043,1.5053711,0.2368927,15.188651496042533,1.652603448770149,-99.88190460205078,9.889718055725098,-27.978351593017578,23011798.0,50354.0,0.32136274750608096,-0.14503720101918918,0.45108878793316337,0.014406256373461277,-0.0015904271678382751,0.021521689723548384,23.011798863997683
1615,C,168554986686694.0,1.0928929952631552,8.001161615647433,4.72582953615926,77,1970-01-02 22:49:14.986686694,-1.7044678,0.7320709,0.67796326,11.014054031442942,1.9750373327543653,-99.76441192626953,9.863162994384766,-27.984817504882812,23062152.0,50354.0,0.17266224436268093,-0.1854092884176892,0.3010433017550634,0.01243806722027982,-0.008319651264552287,0.018936429622080485,23.062152867991244
1615,C,168555037040698.0,4.007077495263156,8.449723615647434,-4.73953316384074,77,1970-01-02 22:49:15.037040698,-0.037384033,0.15974426,0.57951355,14.376718246606723,0.6022887589519625,-100.56007385253906,9.542780876159668,-28.13119888305664,23112506.0,50354.0,0.12840195703998095,-0.07928526253168917,-0.00034501623413661447,0.007579893398714819,-0.0066642147092524995,0.007570680734560373,23.11250687201391
1615,C,168555087394702.0,-1.3225123047368448,9.851472615647433,-10.090592163840741,77,1970-01-02 22:49:15.087394702,-0.89416504,2.0414734,0.20739746,18.034972005862368,2.238338327438507,-101.68448638916016,9.681650161743164,-28.412378311157227,23162860.0,50354.0,0.06758929780188093,-0.03269998248468917,-0.37337806537503665,0.004934471823153557,-0.002819452513777358,-0.009409226025674157,23.16286087600747
1615,C,168555137748706.0,3.609616595263155,11.155213915647433,1.7718653361592596,77,1970-01-02 22:49:15.137748706,-3.3606873,-0.87338257,0.9073334,8.473558413350645,3.5889093246718637,-102.12118530273438,9.324799537658691,-28.42312240600586,23213214.0,50354.0,0.05758242472258092,0.03541614679841081,-0.20944058534053664,0.003151448457998376,6.838486892656971e-05,-0.01467362516906599,23.213214880001033
1615,C,168555188102710.0,6.039349895263156,8.005631615647435,10.22363223615926,77,1970-01-02 22:49:15.188102710,-3.8626862,-2.969864,0.3707428,12.580808185892822,4.886500494415024,-101.44070434570312,8.804648399353027,-28.14518928527832,23263568.0,50354.0,0.24293202933198094,-0.01105659205858915,0.3020106423782634,0.007566052409731704,0.00061330050968449,0.002330636326038847,23.263568883994594
1615,C,168555238456713.0,2.694638575263155,7.174348615647434,7.60317943615926,77,1970-01-02 22:49:15.238456713,-1.7493744,-1.2849121,0.41342163,12.022768097271143,2.2095762807048835,-100.93251037597656,8.620320320129395,-27.99664878845215,23313922.0,50354.0,0.21989562772244095,-0.11128283771668915,0.4488256374739634,0.01165261192165918,-0.003080139823452182,0.018903805017839514,23.313922886998625
1615,C,168555288810717.0,1.7274602352631552,14.555116315647433,1.6632074361592597,77,1970-01-02 22:49:15.288810717,1.3722534,-0.25271606,-0.59336853,5.558725271987524,1.5162555896641714,-101.50263977050781,8.61468505859375,-28.07453155517578,23364276.0,50354.0,0.11133518175262092,0.05361353857521084,0.2332998222843634,0.008339398090153634,-0.0014519399444849995,0.017173872700335397,23.364276890992187
1615,C,168555339164721.0,1.1050846952631552,17.082429515647434,1.3976130361592598,77,1970-01-02 22:49:15.339164721,3.7140198,-1.0460968,-1.2545013,4.304015635000005,4.0573433551357185,-102.37709045410156,8.915214538574219,-28.172555923461914,23414630.0,50354.0,0.07131498371586092,0.3030692913945109,0.07706227703156338,0.004598583215999968,0.008980203610147685,0.00781398657447709,23.414630895014852
1615,C,168555389518725.0,0.9334843952631553,5.3677231156474345,4.824523386159259,77,1970-01-02 22:49:15.389518725,3.5480194,-0.37597656,-0.9630432,13.644230124114218,3.6955719775850713,-101.9062271118164,8.824360847473145,-28.099111557006836,23464984.0,50354.0,0.05132505399218093,0.07175829279811086,0.15665472870471336,0.00308770822937537,0.009437034087217638,0.00588429305342224,23.464984899008414
1615,C,168555439872729.0,4.280896495263155,10.417314615647435,-7.837464163840741,77,1970-01-02 22:49:15.439872729,3.1505432,-1.3940582,-0.9018097,15.500603825558768,3.561261216910039,-102.74788665771484,8.48121452331543,-28.17331886291504,23515338.0,50354.0,0.13128246768078095,-0.09604930503918913,-0.07585680995968666,0.004597509573160161,-0.0006115748151936276,0.0020342492002435376,23.515338903001975
1615,C,168555490226733.0,-3.1335168047368445,9.341569615647433,-14.74107416384074,77,1970-01-02 22:49:15.490226733,0.9776306,2.7169952,-1.0787659,22.67570743497446,3.0824601171600277,-103.81307220458984,8.623941421508789,-28.458221435546875,23565692.0,50354.0,0.02888757846838093,0.004000228291310851,-0.5684598594760366,0.0040326012518974485,-0.0023175196052813317,-0.016221960786383206,23.565692906995537
1615,C,168555540580737.0,1.1291020952631552,1.5831926156474339,-13.716919163840739,77,1970-01-02 22:49:15.540580737,-0.5489197,-0.94906616,-0.8896942,25.556921558988805,1.4119473016436823,-104.62812805175781,8.491743087768555,-28.519332885742188,23616046.0,50354.0,-0.05046514914041908,-0.21841646130268919,-0.7164868980110366,-0.0005432584968099045,-0.005398357498527472,-0.032351104513252044,23.6160469109891
1615,C,168555590934741.0,3.2242558952631555,9.306214615647434,0.4854883361592597,77,1970-01-02 22:49:15.590934741,-1.2703247,1.4354553,0.17903137,10.641370838538489,1.9251776523667257,-104.9677734375,8.185599327087402,-28.6301326751709,23666400.0,50354.0,0.10960449412748093,-0.21930659413768916,-0.3331277339485366,0.001488951288739256,-0.011020553366822406,-0.026426147588846174,23.666400915011764
1615,C,168555641288745.0,2.6279881852631553,4.831544615647434,3.8346399361592596,77,1970-01-02 22:49:15.641288745,-1.8910675,0.25787354,1.4653778,14.13150415326947,2.406235056872296,-104.81087493896484,8.04517936706543,-28.625579833984375,23716754.0,50354.0,0.14734194921541094,-0.13752283583368913,0.10876786951216337,0.006469140604043988,-0.008983894558389391,-0.005648708306914569,23.716754919005325
1615,C,168555691642749.0,4.877072695263156,9.838151615647433,-9.778244163840741,77,1970-01-02 22:49:15.691642749,2.081482,-0.056243896,0.35830688,17.507119788380162,2.1128451226761964,-105.69615173339844,7.730432510375977,-28.76348304748535,23767108.0,50354.0,0.18895491778901094,-0.12413025798468916,-0.14964212364033666,0.008466946220570329,-0.006587639943065311,-0.001029091096185019,23.767108922998887
1615,C,168555741996753.0,-1.105105104736845,12.872605915647434,-8.38726816384074,77,1970-01-02 22:49:15.741996753,0.019195557,1.3015137,-0.09284973,15.147396131909701,1.3049626251572508,-106.77916717529297,7.929457187652588,-28.971994400024414,23817462.0,50354.0,0.09496682802668092,0.07831954236541083,-0.4573531038740367,0.007148297794401674,-0.0011533763871465705,-0.01528231884312938,23.817462926992448
1615,C,168555792350756.0,-3.9132105047368446,11.068544015647433,1.2505335361592596,77,1970-01-02 22:49:15.792350756,-3.9141846,-1.1631775,0.5181427,10.842351411667487,4.116101898270584,-107.14661407470703,8.661018371582031,-28.950271606445312,23867816.0,50354.0,-0.1263461320997191,0.10929713182021082,-0.17968156772113664,-0.0007900367386468821,0.004723625005971397,-0.016038621926751682,23.86781692999648
1615,C,168555842704760.0,9.142682195263156,1.8858656156474325,6.59220833615926,77,1970-01-02 22:49:15.842704760,-4.440384,-1.376831,-0.14498901,18.32537770717584,4.651203659595845,-106.8431167602539,7.979068279266357,-28.805770874023438,23918170.0,50354.0,0.13166240875238094,-0.16731602871288923,0.1974567121193634,0.0001338478972840674,-0.0014607417670669642,0.0004475248105141549,23.91817093399004
1615,C,168555893058764.0,-6.875902804736845,8.731904615647434,12.83485363615926,77,1970-01-02 22:49:15.893058764,-2.3355408,0.5057068,-0.27726746,15.932489854728049,2.4056947936938573,-106.01371002197266,8.704131126403809,-28.689218521118164,23968524.0,50354.0,0.057070704715280925,-0.2261455988866892,0.4891151392770634,0.004751733597775323,-0.009906183398074586,0.017285819502607838,23.968524938012706
1615,C,168555943412768.0,-0.43628180473684486,15.258027615647434,5.23931830615926,77,1970-01-02 22:49:15.943412768,0.3161316,-0.083999634,0.0680542,4.730182834521734,0.33410552400152554,-105.6207275390625,9.446117401123047,-28.62656021118164,24018878.0,50354.0,-0.1840988719127191,0.11052532378731085,0.45505342699175333,-0.0031981881655299012,-0.002910971666177049,0.02377133199295,24.018878942006268
1615,C,168555993766772.0,3.093304955263155,18.437272665647434,2.7319483361592596,77,1970-01-02 22:49:15.993766772,2.6968079,-0.04499817,-0.22720337,2.3902226154084247,2.706735867450889,-106.73953247070312,9.011238098144531,-28.82297706604004,24069232.0,50354.0,0.06689587186080091,0.35487737518216084,0.20069258025365336,-0.002950819932307144,0.011717443751954389,0.016509717224417603,24.06923294599983
1615,C,168556044120776.0,3.463406895263155,10.182694615647433,1.09547373615926,77,1970-01-02 22:49:16.044120776,4.440262,-1.2036896,-0.8211975,9.612063166714059,4.673238771537188,-106.69313049316406,8.634323120117188,-28.78203010559082,24119586.0,50354.0,0.16507833426070093,0.22709571624116082,0.09636300551476337,0.005840414587521052,0.01465233652276497,0.007478968482891428,24.11958694999339
1615,C,168556094474780.0,6.764127195263155,9.140275615647434,-5.239869163840741,77,1970-01-02 22:49:16.094474780,3.2418365,1.4727478,-1.7163086,14.775707234114412,3.952746536975404,-107.2242202758789,7.9479594230651855,-28.928308486938477,24169940.0,50354.0,0.2574986257971809,-0.006974778486689158,-0.10434344368273665,0.01063922012337729,0.005541984849844334,-0.0002009234917550633,24.169940954016056
1615,C,168556144828784.0,-8.480211804736843,2.2117636156474347,-11.02803116384074,77,1970-01-02 22:49:16.144828784,-0.48854065,1.478714,-1.4285583,25.652536841506688,2.113302126293662,-107.84117126464844,8.307657241821289,-29.0611515045166,24220294.0,50354.0,-0.04320586221271904,-0.20765890827368913,-0.4095769265500367,0.0053952489087659965,-0.0054038323315660445,-0.012938973161350537,24.220294958009617
1615,C,168556195182788.0,7.432996195263155,-0.28610038435256513,-6.52946516384074,77,1970-01-02 22:49:16.195182788,0.32740784,-4.607071,-0.20965576,22.92629357237166,4.623446185523916,-108.1151351928711,7.8703131675720215,-28.881921768188477,24270648.0,50354.0,-0.026365747399719044,-0.44498677682568916,-0.44204508504203666,-0.0017516044152123536,-0.016431660413747048,-0.021441287385853634,24.27064896200318
1615,C,168556245536792.0,3.350980135263155,8.819825615647433,2.3001703361592596,77,1970-01-02 22:49:16.245536792,-1.428772,3.4125519,0.9450073,10.4819616220242,3.8183685908030016,-108.13314056396484,7.559347152709961,-29.04974937438965,24321002.0,50354.0,0.27150817207366096,-0.27861559985168916,-0.10648095587653664,0.006171950826015836,-0.018218137037606354,-0.01381024013220692,24.32100296599674
1615,C,168556295890795.0,6.661694895263155,4.925324615647433,4.55183356615926,77,1970-01-02 22:49:16.295890795,-0.88401794,-3.025528,1.6024323,14.585525175000376,3.5359718145241392,-107.77444458007812,7.108829021453857,-28.88035011291504,24371356.0,50354.0,0.2520891192435609,-0.1474075526266892,0.17251290224867338,0.013182609003493696,-0.010725984909948132,0.001662486313811287,24.37135696900077
1615,C,168556346244799.0,-0.02565260473684461,13.935563615647434,-3.87823516384074,77,1970-01-02 22:49:16.346244799,0.3585968,3.1299438,-0.44851685,10.511256648373468,3.1821859186512977,-108.72864532470703,7.2610321044921875,-29.14300537109375,24421710.0,50354.0,0.16707563674858092,-0.018608617000689172,0.016959186975173377,0.010553311061614156,-0.0041797891027085055,0.00477033879038879,24.421710972994333
1615,C,168556396598803.0,-0.6699091047368446,12.816606115647435,1.39733833615926,77,1970-01-02 22:49:16.396598803,-1.4952087,3.3325653,-0.06915283,7.787949684807073,3.653275605428201,-109.09586334228516,7.6311445236206055,-29.336585998535156,24472064.0,50354.0,-0.017512157159419076,0.18007017732481084,-0.06246153943053663,0.003765559725616328,0.004065117704280412,-0.0011456127277686809,24.472064977017
1615,C,168556446952807.0,5.962689695263155,9.817887615647434,-1.6581883638407406,77,1970-01-02 22:49:16.446952807,-4.0884094,-2.1727753,0.60157776,11.782403833449111,4.668826375827769,-109.69579315185547,7.110954284667969,-29.29440689086914,24522418.0,50354.0,0.1332563369276809,0.07639944867281089,-0.0065674211469366394,0.0029140912140255284,0.006457135773742123,-0.0017379421404590445,24.52241898101056
1615,C,168556497306811.0,2.529309598263155,-0.21026438435256622,6.81094303615926,77,1970-01-02 22:49:16.497306811,-3.8826141,-2.9913635,0.27153015,19.2084585578791,4.908836568985576,-109.26151275634766,7.014769077301025,-29.081783294677734,24572772.0,50354.0,0.2138030662131119,-0.25157806990568915,0.12973090438496335,0.008737914592875741,-0.004410472146780176,0.003100887017483799,24.57277298500412
1615,C,168556547660815.0,-11.155168804736846,13.559632915647434,-0.9183661638407399,77,1970-01-02 22:49:16.547660815,-0.4299469,0.10827637,-0.52734375,15.869896203717229,0.6889626548544191,-109.63191986083984,8.139002799987793,-29.12443733215332,24623126.0,50354.0,-0.21717325724138814,-0.15737214848758915,0.1483574079143634,-8.485129951891083e-05,-0.010296139648487568,0.00700142943876015,24.623126988997683
1615,C,168556598014819.0,-0.9991938047368447,17.050264015647432,3.2689661361592597,77,1970-01-02 22:49:16.598014819,2.1071472,1.7122803,0.14476013,4.37672575462727,2.718994049915069,-109.8757095336914,9.160362243652344,-29.258255004882812,24673480.0,50354.0,-0.3060103874187191,0.27719617503921085,0.05918105550306338,-0.01317219462160752,0.0030168095164901797,0.005225195893460554,24.673480992991244
1615,C,168556648368823.0,2.8517583252631553,14.777146915647434,2.9119104361592596,77,1970-01-02 22:49:16.648368823,3.8763428,0.45236206,0.91851807,4.648495460851983,4.009281778742398,-109.86515045166016,8.88028621673584,-29.32386589050293,24723834.0,50354.0,0.046642016933290925,0.30784952501721086,0.15561592946126337,-0.006530117463711625,0.014729695590320531,0.005407943690446855,24.72383499701391
1615,C,168556698722827.0,6.286694895263155,-0.05024638435256534,-0.31088316384074055,77,1970-01-02 22:49:16.698722827,3.7505035,-0.02116394,-0.184021,20.04687591776526,3.7550749851780023,-109.5732650756836,8.391956329345703,-29.30491065979004,24774189.0,50355.0,0.23008340595980117,-0.12269246187332349,0.0654873641487995,0.006967254334890826,0.004661791957305224,0.005566828174867358,24.77418900100747
1615,C,168556749076831.0,6.723233595263155,12.111177115647433,-5.69407716384074,77,1970-01-02 22:49:16.749076831,2.2259827,-2.3623047,-0.6128235,13.351124745948448,3.3031856015812417,-110.29029846191406,7.803947448730469,-29.301910400390625,24824543.0,50354.0,0.3275509696059809,-0.18981114697818918,-0.15118688617003664,0.014039560673619696,-0.007867903360054536,-0.0021576568659286877,24.824543005001033
1615,C,168556799430835.0,-5.046892804736845,17.111055015647434,-14.74107416384074,77,1970-01-02 22:49:16.799430835,0.15556335,4.764038,-1.4897156,21.242584560697928,4.993947395617076,-111.5292739868164,8.077312469482422,-29.669889450073242,24874897.0,50354.0,0.042205232083080906,0.24225893836961082,-0.5144958049770367,0.00930935188992551,0.0013204780438618227,-0.016759893115009868,24.874897008994594
1615,C,168556849784838.0,10.159131195263155,0.46362461564743285,-13.02931316384074,77,1970-01-02 22:49:16.849784838,0.48121643,6.7057037,-0.45741272,26.901459618397773,6.73849076285732,-112.08380126953125,7.352476119995117,-30.048206329345703,24925251.0,50354.0,0.12871082595828093,-0.050991490922889175,-0.6991750417490367,0.004303153593307367,0.004815540524366111,-0.03055659090802235,24.925251011998625
1615,C,168556900138842.0,2.0420659452631553,10.637116615647434,6.58026073615926,77,1970-01-02 22:49:16.900138842,-2.557953,2.1361847,0.74858093,8.439619837593797,3.4156671429579837,-111.44513702392578,7.279956817626953,-30.0626220703125,24975605.0,50354.0,0.30718954040703095,-0.21398583801968918,-0.16236779297173665,0.010974663523979458,-0.006671334210787296,-0.021691063949764913,24.975605015992187
1615,C,168556950492846.0,4.122922295263155,4.686189615647434,2.07943683615926,77,1970-01-02 22:49:16.950492846,-1.3276215,-0.7053375,1.34906,14.61080053944212,2.019911562363189,-111.26628112792969,7.025446891784668,-30.023847579956055,25025959.0,50354.0,0.15521590893173093,-0.10767431901468914,0.21802520577826337,0.011641981998002008,-0.008098437773654543,0.0014012866822299234,25.025959020014852
1615,C,168557000846850.0,3.191220595263155,11.110887215647434,-13.713348163840742,77,1970-01-02 22:49:17.000846850,1.5479279,2.4013824,-0.40733337,20.295889772959978,2.8859380951336653,-112.24064636230469,6.795140266418457,-30.254262924194336,25076313.0,50354.0,0.18414817555478094,-0.09574619661848914,-0.2929069854970367,0.00854416955511691,-0.00512151832209653,-0.0018852985679795563,25.076313024008414
1615,C,168557051200854.0,-3.2699763047368444,13.878007615647434,-4.70510916384074,77,1970-01-02 22:49:17.051200854,-2.4811554,0.5207367,0.63964844,12.398834298569493,2.614660390274516,-113.19491577148438,7.368170261383057,-30.3931827545166,25126667.0,50354.0,-0.0019828324974190746,0.13567620516751086,-0.4637215001390367,0.0045863768421552,0.00100531782523872,-0.019049635382859424,25.126667028001975
1615,C,168557101554858.0,7.266721195263155,10.232499615647434,5.24775641615926,77,1970-01-02 22:49:17.101554858,-4.2981415,-2.6845245,1.1687775,9.879411350382581,5.200647362552931,-112.86661529541016,6.650405406951904,-30.226030349731445,25177021.0,50354.0,0.10062604610878094,0.11356104056231085,0.013662229871623367,0.0024835401890932578,0.006275046135739721,-0.011331142247522666,25.177021031995537
1615,C,168557151908862.0,1.9307988552631552,5.429002615647434,1.0455928361592597,77,1970-01-02 22:49:17.151908862,-3.2583466,-2.2551575,-0.14828491,14.069896547955889,3.9654188089118048,-112.85466003417969,6.5860114097595215,-30.09972381591797,25227375.0,50354.0,0.23156596231210094,-0.09915955832268915,0.15844765412562337,0.008363598196012543,0.0003625861183469557,0.004333210549398681,25.2273750359891
1615,C,168557202262866.0,-9.380648304736845,12.681657615647435,1.1897578361592598,77,1970-01-02 22:49:17.202262866,-0.28359985,0.05418396,-0.5881958,13.998253036043542,0.6552397084876223,-112.98147583007812,7.686456203460693,-30.1049861907959,25277729.0,50354.0,-0.18756485958939909,-0.037497107356689124,0.056279423876963365,0.0011078157632494648,-0.003440604871809707,0.005406183642871126,25.277729040011764
1615,C,168557252616870.0,1.477399195263155,16.760972615647432,1.09674013615926,77,1970-01-02 22:49:17.252616870,2.9265442,0.53456116,-1.0810547,4.596553152121042,3.1652955395549207,-113.70496368408203,7.812533855438232,-30.2255802154541,25328083.0,50354.0,-0.1989801028292191,0.24780790133331085,0.057567159449063376,-0.009732042518813551,0.005294994859949406,0.0028663154283993754,25.328083044005325
1615,C,168557302970874.0,1.2825138952631552,10.518205615647434,3.6598352361592594,77,1970-01-02 22:49:17.302970874,4.203949,-0.38478088,-1.1488647,8.598667490955146,4.375058127513355,-113.12986755371094,7.791157245635986,-30.13575553894043,25378437.0,50354.0,0.06948633188018091,0.19333867032931085,0.11975629814886336,-0.0032602646711839345,0.011106747234749827,0.004464472691943002,25.378437047998887
1615,C,168557353324878.0,1.5833409952631552,2.479264615647434,0.8519281361592599,77,1970-01-02 22:49:17.353324878,2.8725739,-0.14352417,-0.58010864,16.98073598184857,2.934076691659243,-112.75995635986328,7.656994342803955,-30.08768081665039,25428791.0,50354.0,0.07215362857878091,-0.16623189198668917,0.11359266642486336,0.003566069284475282,0.000682467358332186,0.0058750268810727185,25.428791051992448
1615,C,168557403678881.0,2.315823885263155,13.785890215647434,-3.0333561638407396,77,1970-01-02 22:49:17.403678881,1.68396,-2.2751617,-0.6075897,9.543564281664517,2.8950383911604662,-113.48307037353516,7.552084445953369,-30.078983306884766,25479145.0,50354.0,0.09816927419701092,-0.08396139681248914,-0.05492181345293662,0.004288219723186111,-0.0062991164320969125,0.0014771560652741998,25.47914505499648
1615,C,168557454032885.0,-0.48184460473684476,13.311479215647434,15.26046683615926,77,1970-01-02 22:49:17.454032885,-0.4417572,0.17663574,-0.28746033,12.068609111982292,0.5558624377675618,-112.1118392944336,7.874270439147949,-29.894390106201172,25529499.0,50354.0,0.04617409634581092,0.18876127017171088,0.3078419653969634,0.0036341330401566257,0.002638546411565126,0.006367770665494763,25.52949905899004
1615,C,168557504386889.0,9.471509195263156,2.5519276156474326,10.87396183615926,77,1970-01-02 22:49:17.504386889,-0.4304657,-0.49897766,0.07019043,18.70522196275949,0.6627262787298769,-111.23587799072266,7.225465297698975,-29.7547550201416,25579853.0,50354.0,0.22633278539568097,-0.09407620620848918,0.6579865106829634,0.006860905761605542,0.0023838858554020327,0.02431666354226432,25.579853063012706
1615,C,168557554740893.0,1.2855656952631551,9.217958115647434,4.13934273615926,77,1970-01-02 22:49:17.554740893,-1.2639923,-2.0458374,0.2844391,9.817624903495208,2.4215765119662978,-110.89068603515625,7.287716865539551,-29.613727569580078,25630207.0,50354.0,0.27083087451878096,-0.19713878694318918,0.3779899692172634,0.012517089465666409,-0.007331919882579807,0.026082779834448015,25.630207067006268
1615,C,168557605094897.0,2.3012364752631553,6.872346615647434,0.77981513615926,77,1970-01-02 22:49:17.605094897,0.36621094,-1.6405945,0.6696167,12.766024323301494,1.8094328644425643,-110.8257064819336,7.1950507164001465,-29.543684005737305,25680561.0,50354.0,0.09030491824734092,-0.08836359778018915,0.12384963775136339,0.00909231585447265,-0.007188093540180496,0.012634815784649119,25.68056107099983
1615,C,168557655448901.0,6.288373295263155,10.479432615647434,-4.213990163840741,77,1970-01-02 22:49:17.655448901,1.1712189,1.1341553,0.23327637,13.045294932266554,1.6469607830897726,-111.39582061767578,6.625116348266602,-29.67630958557129,25730915.0,50354.0,0.21626060519254092,-0.05660345429368914,-0.08646222467193665,0.007718400183645906,-0.0036498354700640334,0.000941302899100727,25.73091507499339
1615,C,168557705802905.0,3.1100896252631554,8.652024615647434,-1.3082128638407404,77,1970-01-02 22:49:17.705802905,-1.3712006,-0.41331482,0.64675903,12.06454358106985,1.5714062074328627,-111.71931457519531,6.434994697570801,-29.69779396057129,25781269.0,50354.0,0.2366251009500909,-0.011796501287689125,-0.13903250562793668,0.01140230342355304,-0.0017221056816723607,-0.005677280824759911,25.781269079016056
1615,C,168557756156909.0,6.986691795263155,1.7179126156474354,5.12800544615926,77,1970-01-02 22:49:17.756156909,-4.227417,-5.144806,0.81248474,17.75764146490867,6.708219936932441,-111.38116455078125,6.06798791885376,-29.41474723815918,25831623.0,50354.0,0.25420666582459095,-0.23238529032768912,0.09617091784503337,0.012357671392086166,-0.006147764967500378,-0.0010791261956101565,25.831623083009617
1615,C,168557806510913.0,7.427792895263155,0.10630961564743302,6.49072213615926,77,1970-01-02 22:49:17.806510913,-3.754364,-3.926178,-0.86816406,19.484166898226135,5.501257271502187,-110.94029235839844,5.610136985778809,-29.15254020690918,25881977.0,50354.0,0.36291348105338095,-0.4475407568826892,0.2925247043400334,0.015537233937946699,-0.017118498090615695,0.009786189679753428,25.88197708700318
1615,C,168557856864917.0,-1.6135584047368452,3.4045426156474345,7.063735436159259,77,1970-01-02 22:49:17.856864917,-1.0586548,0.7724304,-2.3691406,16.19065408436207,2.7074389911825456,-110.32938385009766,5.733574390411377,-29.080751419067383,25932331.0,50354.0,0.14638498176798093,-0.40507647337268915,0.3412605782982634,0.01282260739845343,-0.02146634400613966,0.0159568120609844,25.93233109099674
1615,C,168557907218920.0,3.279050195263155,6.873475615647434,8.14526313615926,77,1970-01-02 22:49:17.907218920,0.27418518,-3.1320496,-2.170166,12.462240299232906,3.82027913605116,-109.4753189086914,5.484519004821777,-28.81502342224121,25982685.0,50354.0,0.04193208681008091,-0.23469953499068913,0.38291695705526335,0.004741258835589864,-0.01610764056256478,0.018232617807595743,25.98268509400077
1615,C,168557957572924.0,2.9892400152631553,6.174684615647434,10.23667853615926,77,1970-01-02 22:49:17.957572924,1.1196442,-5.4108887,-2.2386932,13.775652010722833,5.96180064260015,-108.43379974365234,5.318911552429199,-28.431278228759766,26033039.0,50354.0,0.15781674263042092,-0.16495566985668914,0.46280214548396337,0.005029076278823515,-0.010062119092442444,0.021292669844630113,26.033039097994333
1615,C,168558007926928.0,-0.9965388047368449,12.958207615647433,7.044311036159259,77,1970-01-02 22:49:18.007926928,1.436966,-5.7816467,-1.8922424,7.226710285426464,6.250831236654421,-107.5724868774414,5.9269819259643555,-28.050687789916992,26083393.0,50354.0,0.05017023837742092,-0.011760372292689152,0.43508347446226336,0.005236488220834435,-0.004449179793194897,0.022606066253386153,26.083393102017
1615,C,168558058280932.0,0.5660984952631551,13.547975215647433,4.858565746159259,77,1970-01-02 22:49:18.058280932,0.6351776,-6.088516,0.0022888184,5.725204673048444,6.121558862290506,-107.13839721679688,6.379796981811523,-27.71880531311035,26133747.0,50354.0,-0.010837195671619086,0.17387696514351086,0.2996787287484334,0.0009902880162039728,0.004081609458205139,0.018499107990235714,26.13374710601056
1615,C,168558108634936.0,-6.480669804736844,10.711335615647434,9.301741836159259,77,1970-01-02 22:49:18.108634936,-0.4072113,-2.146988,-0.6325226,12.936700136033338,2.274964473239626,-106.41799926757812,7.293529987335205,-27.519573211669922,26184101.0,50354.0,-0.14891116185861908,0.11730746879951083,0.3565140640000334,-0.004021984397538807,0.007331150493383457,0.016520965943028147,26.18410111000412
1615,C,168558158988940.0,-5.974336804736844,5.512147615647434,8.75237983615926,77,1970-01-02 22:49:18.158988940,0.5817871,-1.9829102,0.65504456,16.320979854435333,2.1678312818519907,-105.7237548828125,7.963136196136475,-27.345949172973633,26234455.0,50354.0,-0.3135797014067191,-0.08501056268568916,0.4545486213439634,-0.01164413246443142,0.0008131392052276883,0.02042012522890581,26.234455113997683
1615,C,168558209346276.0,9.696072895263155,3.9356706156474335,7.37194773615926,77,1970-01-02 22:49:18.209346276,-0.23699951,-3.1192322,2.4243011,16.75951254295705,3.9576526008125437,-105.17431640625,7.353752613067627,-27.154939651489258,26284812.0,50357.0,0.09370773215531672,-0.2556167086633422,0.4059863817796219,-0.005536046377796434,-0.008576483751661586,0.02166698057614719,26.284812450001482
1615,C,168558259700280.0,1.5669682952631552,9.283067615647434,5.19618171615926,77,1970-01-02 22:49:18.259700280,0.33598328,-1.0292816,-0.6880493,9.683164616947005,1.2828551031853161,-104.74749755859375,7.303760051727295,-27.04445457458496,26335166.0,50354.0,0.28356958805388094,-0.16066102755068914,0.3164277952210234,0.009498711090906971,-0.010480624564660666,0.018188221734345245,26.335166453995043
1615,C,168558310054284.0,-3.6187008047368447,10.598542615647434,1.7582849361592596,77,1970-01-02 22:49:18.310054284,1.5925293,-1.2106628,-0.8339691,10.856604339882919,2.1673390243377106,-104.79572296142578,7.938262939453125,-26.992382049560547,26385520.0,50354.0,-0.05165646939101908,0.007090100793310855,0.17509260690542336,0.0058388765885748735,-0.0038664552229705136,0.012375009164337552,26.385520457988605
1615,C,168558360408288.0,2.0600102952631554,10.247407615647434,6.77413883615926,77,1970-01-02 22:49:18.360408288,0.796051,-1.4955597,-0.11590576,8.857628025950502,1.6981843704575388,-104.10628509521484,7.853277683258057,-26.830093383789062,26435874.0,50354.0,-0.03924315095701908,0.03136928897331086,0.2148208333156634,-0.002288579741502557,0.000968292056154235,0.009816850684446302,26.43587446201127
1615,C,168558410762292.0,0.38551079526315535,9.809205615647434,6.4340509361592595,77,1970-01-02 22:49:18.410762292,0.9286804,-0.9490967,-0.2272644,9.467292315185846,1.347175170051174,-103.50328063964844,8.003227233886719,-26.704925537109375,26486228.0,50354.0,0.06157088449618093,0.01149615132431086,0.3325425938976634,0.0005621453473154779,0.001079223190373222,0.013780969006949929,26.48622846600483
1615,C,168558461116295.0,1.5339482952631551,9.657838615647433,6.17976323615926,77,1970-01-02 22:49:18.461116295,0.5300293,-0.7691803,-0.03845215,9.385194538069277,0.934905321733812,-102.96337890625,7.978970050811768,-26.59608268737793,26536582.0,50354.0,0.04832622152218092,-0.0033474273886891625,0.3175779994164634,0.0027668794382242966,0.00020516042252714751,0.01636808617786977,26.536582469008863
1615,C,168558511470299.0,1.5112278952631553,10.153474615647434,6.60819953615926,77,1970-01-02 22:49:18.511470299,0.33613586,-0.69104004,0.093307495,8.965692882952727,0.7740994392739968,-102.3740463256836,7.97475004196167,-26.48432731628418,26586936.0,50354.0,0.07666840094888092,0.005320233224310853,0.32196253871866337,0.003146989609953924,4.9669332523447296e-05,0.016101712128628088,26.586936473002424
1615,C,168558561824303.0,2.0256779952631554,10.162461615647434,6.70785473615926,77,1970-01-02 22:49:18.561824303,0.51171875,-0.41571045,0.28147888,8.929905051296718,0.7168693167006239,-101.77410888671875,7.894686698913574,-26.387937545776367,26637290.0,50354.0,0.08904867960578092,0.018025126495310868,0.33525829841416344,0.0041722589371247214,0.000587766121660916,0.01654684901649318,26.637290476995986
1615,C,168558612178307.0,2.506680815263155,8.135087615647434,5.58119147615926,77,1970-01-02 22:49:18.612178307,0.627594,-0.21061707,0.42982483,10.793794317188718,0.789292824936293,-101.37273406982422,7.734051704406738,-26.331806182861328,26687644.0,50354.0,0.11411119777262092,-0.032791803003689154,0.30940131648754343,0.005114956232756024,-0.00037178061445144014,0.016230595124380274,26.687644480989547
1615,C,168558662532311.0,1.2719853952631552,3.690812615647433,4.77922004615926,77,1970-01-02 22:49:18.662532311,0.4540863,-0.19195557,0.6531067,15.278828032310845,0.8182845900336906,-101.08722686767578,7.698355197906494,-26.293581008911133,26737998.0,50354.0,0.09513547918242092,-0.1957285098766892,0.2608440808974134,0.005268203585697089,-0.005753455917389285,0.014357068369961059,26.737998485012213
1615,C,168558712886315.0,2.0833714952631555,0.3484966156474343,-0.2791751638407405,77,1970-01-02 22:49:18.712886315,-0.56843567,-0.62557983,0.5569,19.310317554998623,1.0122286523464832,-101.2336196899414,7.575366497039795,-26.284116744995117,26788352.0,50354.0,0.08447782043278093,-0.3917715114836892,0.11329763000213337,0.0045221240444119366,-0.014791488037790247,0.00941976585531789,26.788352489005774
1615,C,168558763240319.0,1.7019627952631553,2.6468976156474326,-3.6665961638407403,77,1970-01-02 22:49:18.763240319,-3.6083984,-0.581604,0.36889648,18.456920380132505,3.6735387351836852,-101.8289794921875,7.484201431274414,-26.31363868713379,26838706.0,50354.0,0.09530336143258093,-0.4180541594386892,-0.09934268471703665,0.004526350815824216,-0.02038898091681272,0.00035134365744288014,26.838706492999336
1615,C,168558813594323.0,-10.668062804736845,1.2085896156474334,3.3224482361592598,77,1970-01-02 22:49:18.813594323,-5.364609,0.23181152,-0.07319641,22.163582513028913,5.370113966958485,-101.96989440917969,8.176871299743652,-26.308408737182617,26889060.0,50354.0,-0.2257394999385191,-0.3963995979776892,-0.008664612375236636,-0.003283990659164005,-0.02050550225047216,-0.0027192997188921647,26.889060496992897
1615,C,168558863948327.0,-6.307192804736844,-0.47260938435256605,0.0540155361592598,77,1970-01-02 22:49:18.863948327,-5.1558685,0.5974579,-0.16851807,21.885665648332715,5.193104492640331,-102.28675079345703,8.55046272277832,-26.34502601623535,26939414.0,50354.0,-0.4273860104797191,-0.4749394257166892,0.08500922839566337,-0.016443740975799984,-0.021937702599553365,0.001922128397546284,26.939414501015563
1615,C,168558914302331.0,1.0013707952631552,-0.47260938435256605,-2.6397711638407406,77,1970-01-02 22:49:18.914302331,-6.7673798,-1.202591,-0.6107483,20.899728883114207,6.90048316835002,-102.84747314453125,8.429377555847168,-26.312973022460938,26989768.0,50354.0,-0.13358468073251906,-0.5172669729396892,-0.06510156943813665,-0.014123559092650518,-0.024980780498971636,0.0005012151295736503,26.989768505009124
1615,C,168558964656335.0,2.0047581952631552,5.153306615647434,3.7953943361592595,77,1970-01-02 22:49:18.964656335,-7.0130615,-2.396576,-0.5686493,13.825135206421825,7.433032365929045,-102.98382568359375,8.27719497680664,-26.15955924987793,27040122.0,50354.0,0.07568530959448092,-0.37562328580768917,0.02909512460946335,-0.0014577324671423864,-0.022480298044482747,-0.0009065342614515077,27.040122509002686
1615,C,168559015010338.0,0.3253453952631551,21.226182615647435,11.788283836159259,77,1970-01-02 22:49:19.015010338,-3.5696106,-2.5388947,-0.6077423,7.499720314959128,4.422381353584258,-100.49677276611328,9.445218086242676,-25.621509552001953,27090476.0,50354.0,0.05866501809868092,0.17068720037631088,0.3923502653444633,0.0033825382003307355,-0.005159675822905811,0.010610730582870011,27.090476512006717
1615,C,168559065364342.0,1.3841221952631553,25.884919615647433,15.057219836159259,77,1970-01-02 22:49:19.065364342,0.43122864,-0.27330017,-0.7520447,12.283335409021484,0.9089677407237116,-97.68406677246094,10.221856117248535,-25.124561309814453,27140830.0,50354.0,0.04303926552668092,0.6926470208773109,0.6758892459579634,0.002560608748835735,0.021736165688502437,0.0268950661760612,27.14083051600028
1615,C,168559115718346.0,2.8347905552631554,23.146302615647436,9.592284836159259,77,1970-01-02 22:49:19.115718346,3.088852,1.5981903,-1.3176727,6.242712251753144,3.7190698107515248,-94.65959167480469,10.547679901123047,-24.675922393798828,27191184.0,50354.0,0.10621956632000093,0.7409898821173109,0.6206005791349634,0.003757889609403909,0.03609467630669559,0.03264172432636461,27.19118451999384
1615,C,168559166072350.0,5.821484895263155,19.334062215647435,7.18696543615926,77,1970-01-02 22:49:19.166072350,4.9694366,2.2730865,-1.5947571,3.9453096153195135,5.692580483919593,-92.7899398803711,8.09693431854248,-24.523447036743164,27241538.0,50354.0,0.21793904701790093,0.5760589453575109,0.42245118410616334,0.008161341408008355,0.03315933832933359,0.02626091424312185,27.241538524016505
1615,C,168559216426354.0,-0.9147975047368448,10.001451115647434,6.56677193615926,77,1970-01-02 22:49:19.216426354,5.0380707,4.396393,-0.50038147,9.690130119885591,6.705282201680019,-92.27273559570312,8.386336326599121,-24.70095443725586,27291892.0,50354.0,0.1235356684312809,0.24511101914201092,0.34627784582286336,0.008597308910864052,0.020674596196204462,0.019354290786523107,27.291892528010067
1615,C,168559266780358.0,-3.1158778047368445,1.2312936156474343,2.04368533615926,77,1970-01-02 22:49:19.266780358,3.3862305,-0.97351074,2.0471497,18.805824609196566,4.074935834370363,-92.27114868164062,8.720414161682129,-24.681310653686523,27342246.0,50354.0,-0.10148031226661909,-0.21066238590018915,0.21678548274516338,0.0005552877021576904,0.0008673132391293466,0.014176245423357211,27.342246532003628
1615,C,168559317134362.0,1.0029118952631553,5.367387615647434,4.57958930615926,77,1970-01-02 22:49:19.317134362,2.6153412,-1.3522339,-0.63313293,13.642042187832775,3.01154502204052,-92.11875915527344,8.63689136505127,-24.610122680664062,27392600.0,50354.0,-0.05319814270281908,-0.32733420263968915,0.1667541856696534,-0.0038943394607655448,-0.013545140109668516,0.009656378231679842,27.39260053599719
1615,C,168559367488366.0,1.4859288952631553,0.8653126156474329,7.36727853615926,77,1970-01-02 22:49:19.367488366,2.4222412,-0.98768616,-1.1261292,18.232946277471484,2.8479717970383107,-91.75000762939453,8.453592300415039,-24.522666931152344,27442954.0,50354.0,0.06266154458308093,-0.3365485062766892,0.3007862916660534,0.00023826006913935268,-0.01671457496238766,0.01177126659788109,27.44295453999075
1615,C,168559417842370.0,-5.107119204736845,-0.47260938435256605,4.8011926961592595,77,1970-01-02 22:49:19.417842370,4.1255646,0.4083252,0.591629,20.847327792321227,4.187724634138353,-91.52035522460938,8.807638168334961,-24.539609909057617,27493308.0,50354.0,-0.09117070842161909,-0.4835821107456892,0.3063656002160834,-0.0007177752179628753,-0.02064842854477242,0.01528626318191656,27.493308544013416
1615,C,168559468196374.0,2.3791173352631554,-0.337766384352566,-2.29507516384074,77,1970-01-02 22:49:19.468196374,3.3031769,0.5479431,0.5653839,20.59234244179151,3.395714685881373,-91.83753204345703,8.640071868896484,-24.640810012817383,27543662.0,50354.0,-0.0686829030677391,-0.5138720307286891,0.06309652111118337,-0.004024634376467571,-0.025112902919900423,0.009301947828656596,27.543662548006978
1615,C,168559518550377.0,5.792249095263156,12.802751215647433,-4.637894163840739,77,1970-01-02 22:49:19.518550377,1.5795593,0.4741516,0.8663788,11.871451623084354,1.8629115779039247,-92.9140853881836,8.178532600402832,-24.834918975830078,27594016.0,50354.0,0.20573049262136092,-0.17963827690248918,-0.17455136876303662,0.0034504471621915373,-0.01746050901523018,-0.0028060986993307096,27.59401655101101
1615,C,168559568904381.0,8.784848495263155,10.811234615647434,-8.37446616384074,77,1970-01-02 22:49:19.568904381,-1.7787476,-0.16918945,0.11618042,16.84145562470864,1.7905490734655776,-94.1134262084961,7.552822113037109,-24.97833824157715,27644370.0,50354.0,0.36700758603668093,0.10106012127451085,-0.3276121959700366,0.01441982660637352,-0.001978362224245611,-0.012642972069284586,27.64437055500457
1615,C,168559619258385.0,4.039624495263155,16.168229615647434,3.0449060361592597,77,1970-01-02 22:49:19.619258385,-2.9456177,2.7721863,-1.1145477,3.688596379187147,4.1956998334051825,-94.96761322021484,6.767879486083984,-25.198545455932617,27694724.0,50354.0,0.3228817564824809,0.1857927709513108,-0.13418233533463664,0.01736934397660494,0.007222095267569512,-0.011626600914657758,27.694724558998132
1615,C,168559669612389.0,-5.322924304736845,4.8364886156474345,3.80017033615926,77,1970-01-02 22:49:19.669612389,-4.2394867,-0.40042114,-1.4092102,16.178005544957557,4.485471876694784,-95.17543029785156,7.244840145111084,-25.17304801940918,27745078.0,50354.0,-0.0323096393031191,0.03536659090931086,0.1723384878258634,0.007315734194224793,0.005568129253564872,0.000960657451271616,27.745078562991694
1615,C,168559719966393.0,-6.7896598047368455,-0.15096938435256746,4.01014653615926,77,1970-01-02 22:49:19.719966393,-5.8919525,-1.1647949,1.0240479,21.256141762865294,6.092661612367511,-95.41405487060547,7.763888359069824,-25.114103317260742,27795432.0,50354.0,-0.30495853012421914,-0.3755018823136892,0.19664034789436338,-0.008491400701672095,-0.008563586231688033,0.00928978014692815,27.79543256701436
1615,C,168559770320397.0,12.932355195263156,-0.47260938435256605,-10.08876116384074,77,1970-01-02 22:49:19.770320397,-5.980606,0.035064697,-0.45436096,26.674206970517677,5.997943109282033,-96.42717742919922,7.037930011749268,-25.203821182250977,27845786.0,50354.0,0.15465464184728092,-0.5091690426596892,-0.15304128048113663,-0.0037842009951484738,-0.02227335987805475,0.00109769372026281,27.84578657100792
1615,C,168559820674401.0,-2.0076928047368447,1.5403606156474332,1.5838922361592598,77,1970-01-02 22:49:19.820674401,-5.873108,-2.4626617,-0.31323242,18.287172564944346,6.3762226103901005,-96.82076263427734,7.221990585327148,-25.093515396118164,27896140.0,50354.0,0.27505022500628096,-0.4665864272496892,-0.21412708499223665,0.010818679432772128,-0.024566595465908423,-0.009244197937523119,27.896140575001482
1615,C,168559871028405.0,1.4545262952631552,21.486863615647433,9.20536753615926,77,1970-01-02 22:49:19.871028405,-3.4736786,-2.8902588,-0.44065857,5.041914671134419,4.54028841841461,-94.27220916748047,8.23046875,-24.58403778076172,27946494.0,50354.0,-0.013927073209019081,0.08628722447131082,0.2716411932876634,0.0065742975927996624,-0.009574793028351233,0.0014480327045539594,27.946494578995043
1615,C,168559921382409.0,0.9748661952631552,23.684144615647433,10.754012536159259,77,1970-01-02 22:49:19.921382409,0.41555786,-1.6397247,-0.37606812,7.630910698477508,1.7328625616817406,-91.57183074951172,9.337395668029785,-24.09224510192871,27996848.0,50354.0,0.061164814733980916,0.6438012742393109,0.5025173120807633,0.0011893046183739642,0.018381438132037325,0.01949098868966088,27.996848582988605
1615,C,168559971736413.0,-0.3274561047368447,23.747438115647434,13.11512683615926,77,1970-01-02 22:49:19.971736413,2.177765,1.5970917,-0.77101135,9.866378630006581,2.808526445533799,-88.83057403564453,10.485254287719727,-23.715686798095703,28047202.0,50354.0,0.01629984384918092,0.7007157584258109,0.6009533219768634,0.001950327709148266,0.033850905331409775,0.027782080153668866,28.04720258701127
1615,C,168560022090417.0,4.418240895263155,20.055619815647432,7.44753983615926,77,1970-01-02 22:49:20.022090417,3.8782196,3.0402374,-1.45607,3.2712307905952662,5.138459940398769,-86.24859619140625,8.826005935668945,-23.46870231628418,28097556.0,50354.0,0.10299368867108093,0.6093603895362107,0.5177062588089635,0.0030034532682626327,0.03298378717723982,0.028164492265444763,28.09755659100483
1615,C,168560072444420.0,7.903149895263155,14.801789915647433,9.31913683615926,77,1970-01-02 22:49:20.072444420,5.795166,3.9095764,-0.40893555,8.00271258458108,7.002568448722709,-85.2601089477539,7.7532172203063965,-23.56470489501953,28147910.0,50354.0,0.3102156559330809,0.3841358048048108,0.42213461857896334,0.010403371669098984,0.0250132536849239,0.023662373769995835,28.147910594008863
1615,C,168560122798424.0,-3.0925318047368444,-0.09385538435256535,-11.74800116384074,77,1970-01-02 22:49:20.122798424,4.7466736,2.2621613,1.5667725,25.963423565236905,5.486625563942823,-86.05548858642578,8.01708984375,-23.811120986938477,28198264.0,50354.0,0.12111693166518094,-0.12316753230558916,-0.06115151717803665,0.01085966055796144,0.006570398196712903,0.009088471543971133,28.198264598002424
1615,C,168560173152428.0,7.115643795263155,9.680177615647434,-1.0888981638407405,77,1970-01-02 22:49:20.173152428,-0.4995575,0.24497986,1.6230621,11.969199274117159,1.7157806992935547,-86.8924789428711,7.411080360412598,-23.926563262939453,28248618.0,50354.0,0.10128989058548094,-0.25211436518268915,-0.32319461437303665,0.005599536563804915,-0.009448472333062384,-0.009676682554061372,28.248618601995986
1615,C,168560223506432.0,1.7035954952631553,4.074220615647434,2.3224328361592597,77,1970-01-02 22:49:20.223506432,0.96195984,-1.0043335,0.23672485,15.10539115129663,1.4107059110964972,-87.17147827148438,7.32097053527832,-23.918174743652344,28298972.0,50354.0,0.22204198761758093,-0.14717471573068916,0.03105670244496336,0.00814052669751849,-0.010052901190156126,-0.007355156208613102,28.298972605989547
1615,C,168560273860436.0,6.581998195263155,0.884248615647433,2.31372013615926,77,1970-01-02 22:49:20.273860436,1.3439789,-0.74432373,-0.8969116,18.669362233733935,1.7789737257477647,-87.37696075439453,6.793282508850098,-23.917312622070312,28349326.0,50354.0,0.20860639234638093,-0.36862982016368917,0.11672442338406339,0.010842434262352669,-0.012986410800212764,0.0037206854049974068,28.349326610012213
1615,C,168560324214440.0,-13.694185804736847,-0.22866638435256803,-1.02101186384074,77,1970-01-02 22:49:20.324214440,2.9935608,1.0111847,-0.8600769,25.824862028857364,3.27469586904255,-87.61992645263672,7.523817539215088,-24.017404556274414,28399680.0,50354.0,-0.17906354744371913,-0.47696360616268924,0.03254651617216338,0.0007438002061143159,-0.02128950569461923,0.003758194445207122,28.399680614005774
1615,C,168560374568444.0,2.593503325263155,2.692475615647435,2.77609203615926,77,1970-01-02 22:49:20.374568444,3.508316,-0.3785553,1.1493225,16.37467131632722,3.711135605178062,-87.6982192993164,7.392683029174805,-24.0294189453125,28450034.0,50354.0,-0.2794818827857092,-0.4314378749836892,0.044187653498463375,-0.011544798296886316,-0.022870824090822372,0.0019319361897973699,28.450034617999336
1615,C,168560424922448.0,7.731595195263155,8.446824615647433,-4.277924163840741,77,1970-01-02 22:49:20.424922448,2.1280823,0.1098938,1.4648285,14.92099540259875,2.5858332230180623,-88.53030395507812,6.848014831542969,-24.14878273010254,28500388.0,50354.0,0.2599550054512909,-0.21301503807668914,-0.037811627478636645,-0.0004916281906486488,-0.016225390992121145,0.0001605292071011776,28.500388621992897
1615,C,168560475276452.0,11.495694195263155,13.715608215647434,-4.401307163840741,77,1970-01-02 22:49:20.475276452,-0.074783325,1.2301788,1.0806274,13.983316152400445,1.63911195569377,-89.5235366821289,5.932511806488037,-24.318565368652344,28550742.0,50354.0,0.48408546498528093,0.06451437139351082,-0.21851700713703667,0.01873270692418157,-0.003738801285082381,-0.006453586033718808,28.550742626015563
1615,C,168560525630456.0,6.696576395263155,14.358400015647433,1.65101573615926,77,1970-01-02 22:49:20.525630456,-3.351532,0.7284241,-0.6385956,7.013165152855535,3.488720790895163,-90.39117431640625,4.963582515716553,-24.420114517211914,28601096.0,50354.0,0.4580267966576809,0.2133501052393108,-0.06924408727473666,0.02371956041138485,0.006995793928184551,-0.007244961074005218,28.601096630009124
1615,C,168560575984460.0,-1.7332028047368446,12.137956215647435,-0.2871251638407406,77,1970-01-02 22:49:20.575984460,-3.941162,-0.16612244,-1.285141,9.612263307869991,4.148727752600375,-91.37376403808594,5.447904109954834,-24.483509063720703,28651450.0,50354.0,0.12496285688868092,0.17362956083531086,0.03433867293926336,0.014677930507336755,0.00974298705276075,-0.0008788136167242113,28.651450634002686
1615,C,168560626338463.0,-1.4661738047368447,-0.47260938435256605,1.9006495361592597,77,1970-01-02 22:49:20.626338463,-4.3783417,-1.1602936,-0.6810913,20.042336414722893,4.580397650760853,-91.7770004272461,5.569600582122803,-24.44288444519043,28701804.0,50354.0,-0.08055070489671907,-0.19977076282848913,0.04062370312186336,0.0011181647507016233,-0.0006581570425822492,0.0018873277420909872,28.701804637006717
1615,C,168560676692467.0,4.747235595263155,-0.47260938435256605,-5.42730766384074,77,1970-01-02 22:49:20.676692467,-5.129074,0.8070984,-0.1824646,22.127049492028902,5.195392310019689,-92.67645263671875,5.293545722961426,-24.54300308227539,28752158.0,50354.0,0.08260729270008092,-0.5172669729396892,-0.08879067168063662,5.1778711125241244e-05,-0.018052859073435425,-0.0012126997674042344,28.75215864100028
1615,C,168560727046471.0,4.4767582952631555,0.051453615647432116,-0.37777766384074063,77,1970-01-02 22:49:20.727046471,-6.997452,-3.4039307,-0.87138367,19.71093886669143,7.830095031546498,-93.33922576904297,4.991867542266846,-24.398818969726562,28802512.0,50354.0,0.23223249418178094,-0.5040726387886892,-0.14615463329503664,0.007926721314324637,-0.025714267404485385,-0.005915217943372526,28.80251264499384
1615,C,168560777400475.0,1.1766484952631553,7.402467615647433,3.1066736361592597,77,1970-01-02 22:49:20.777400475,-5.2037354,-2.928543,-0.84347534,11.749228086928458,6.030478991361322,-93.73712921142578,5.003303527832031,-24.262767791748047,28852866.0,50354.0,0.14233582276508092,-0.30580182515968923,0.06870541389506336,0.009430506515771143,-0.020390209378828326,-0.0019499389968331273,28.852866649016505
1615,C,168560827754479.0,-0.8708521047368447,25.670549015647435,8.07694953615926,77,1970-01-02 22:49:20.827754479,-1.204422,-1.9411011,-0.684433,8.172985804852187,2.3847336048276357,-92.21104431152344,7.372178077697754,-23.994279861450195,28903220.0,50354.0,0.007699035724280922,0.3392101397261108,0.28157008060946337,0.0037774276321866636,0.000841121135838796,0.008818886125140469,28.903220653010067
1615,C,168560878108483.0,-0.9724298047368447,25.368699615647433,10.21186783615926,77,1970-01-02 22:49:20.878108483,1.8347931,-0.7448273,-0.4606018,9.0089624256644,2.0330733987724448,-89.93550872802734,9.236059188842773,-23.639524459838867,28953574.0,50354.0,-0.04640830863481908,0.791545962790111,0.4604575549828634,-0.0009745833640686193,0.02846904639305092,0.01868202978130801,28.953574657003628
1615,C,168560928462487.0,1.0316746952631553,23.227021615647434,10.86491343615926,77,1970-01-02 22:49:20.928462487,3.173996,1.5612183,-0.6469574,7.428851362201615,3.5958597116246973,-87.06525421142578,10.200220108032227,-23.257465362548828,29003928.0,50354.0,0.0014916086087809206,0.7300252734403108,0.5306501220931634,-0.0011308677565555628,0.03830859901457333,0.024953117985743126,29.00392866099719
1615,C,168560978816491.0,4.2727787952631555,17.072969115647435,5.9262232361592595,77,1970-01-02 22:49:20.978816491,4.9286957,3.0684052,-1.0102692,2.677478292902105,5.893029410333378,-86.40206909179688,9.076065063476562,-23.343408584594727,29054282.0,50354.0,0.13355022553098092,0.5211636666418109,0.4227504479989634,0.003399948258136784,0.03150118394444758,0.02400376615320948,29.05428266499075
1615,C,168561029170495.0,5.234265695263155,8.898011615647434,3.0476221361592595,77,1970-01-02 22:49:21.029170495,5.3784943,4.309601,0.042999268,10.551877043631542,6.892221024559646,-86.5219497680664,8.521135330200195,-23.61639404296875,29104636.0,50354.0,0.23935885913798097,0.16040218187181088,0.22593450493886336,0.009388732024710454,0.017159783368027457,0.016331941060115665,29.104636669013416
1615,C,168561079524499.0,2.5106023232631554,4.065064615647433,-3.6244511638407406,77,1970-01-02 22:49:21.079524499,3.274582,2.1801453,0.53660583,17.177674916933867,3.970373612221661,-87.17668151855469,8.380407333374023,-23.84287452697754,29154990.0,50354.0,0.19499254210243694,-0.16709782972468917,-0.014522824429936652,0.010935665229030002,-0.00016857632599191684,0.005322711880173248,29.154990673006978
1615,C,168561129878502.0,3.4729436352631553,9.188142615647434,0.4965052361592601,77,1970-01-02 22:49:21.129878502,0.37956238,-0.49064636,0.7720642,10.761769023550919,0.9903961731621108,-87.82462310791016,8.11260986328125,-23.912452697753906,29205344.0,50354.0,0.1506477365978169,-0.15979320153768917,-0.07875229462123665,0.008702185296836291,-0.0082301354940929,-0.0023483876723513902,29.20534467601101
1615,C,168561180232506.0,2.8833592952631553,1.9128586156474334,3.0801691361592596,77,1970-01-02 22:49:21.180232506,0.6348419,-1.0428619,0.036880493,17.113398991523805,1.221452148563808,-88.00320434570312,7.8856520652771,-23.89012908935547,29255698.0,50354.0,0.16003263888186092,-0.21397929199968915,0.09004993067186337,0.00782199981345185,-0.009410470069790573,0.00028444058284662904,29.25569868000457
1615,C,168561230586510.0,0.36218019526315537,3.978303615647434,2.00907843615926,77,1970-01-02 22:49:21.230586510,1.2770844,-0.07324219,-0.7662811,15.391586846533158,1.4911390637149058,-88.26985168457031,7.860198974609375,-23.933109283447266,29306052.0,50354.0,0.08171294775298092,-0.34514740850268916,0.12813198612826338,0.006086428634705414,-0.01407713293854838,0.005493166119276791,29.306052683998132
1615,C,168561280940514.0,-4.641146304736845,1.7437146156474341,0.7959131361592595,77,1970-01-02 22:49:21.280940514,2.3953705,0.65000916,-0.32014465,19.08914470767737,2.5025595571889547,-88.51347351074219,8.205236434936523,-24.01619529724121,29356406.0,50354.0,-0.10773152973821908,-0.34940594699068916,0.07062127281626338,-0.000655069838642341,-0.017486769831256785,0.00500401080044635,29.356406687991694
1615,C,168561331294518.0,2.0683720952631552,3.881944615647434,2.2638086361592595,77,1970-01-02 22:49:21.331294518,2.8713684,-0.38426208,1.3412933,15.288745691588634,3.1924099910991037,-88.663818359375,8.117073059082031,-24.03729820251465,29406760.0,50354.0,-0.06477473627191908,-0.35183197753368917,0.07703461506166336,-0.004343190259337249,-0.017655067225750273,0.0037175322891025613,29.40676069201436
1615,C,168561381648522.0,7.168317195263155,8.274323615647434,-3.5236971638407404,77,1970-01-02 22:49:21.381648522,2.4626007,-0.23657227,1.6318817,14.398615062569629,2.9636812462490516,-89.42017364501953,7.5969014167785645,-24.14449119567871,29457114.0,50354.0,0.23255212626758093,-0.18741083474068915,-0.03172021346143664,0.004224131347920778,-0.013576516284632023,0.001140880689088908,29.45711469600792
1615,C,168561432002526.0,8.488934795263155,12.564241015647433,-5.543717163840741,77,1970-01-02 22:49:21.432002526,0.6937103,0.397583,1.0753479,13.672157139307343,1.3400295997661766,-90.50869750976562,6.9468536376953125,-24.3060302734375,29507468.0,50354.0,0.39420263336548095,0.03118334172211083,-0.22829029052803668,0.015779804583281598,-0.003933339591728747,-0.006546284458942971,29.507468700001482
1615,C,168561482356530.0,6.657925895263155,12.171434015647435,-2.34956416384074,77,1970-01-02 22:49:21.482356530,-1.9729462,1.4870758,-0.13122559,10.792099974547597,2.474092014964465,-91.59076690673828,6.288280963897705,-24.492549896240234,29557822.0,50354.0,0.3813525116053809,0.12930089026291086,-0.19872914398703667,0.01952615188493139,0.004040511508686891,-0.010751068302786002,29.557822703995043
1615,C,168561532710534.0,4.035748795263155,10.255662615647434,2.81149233615926,77,1970-01-02 22:49:21.532710534,-3.2282104,0.8981018,-1.0208435,9.054917307284645,3.5028632119058902,-92.06829833984375,5.8521409034729,-24.568584442138672,29608176.0,50354.0,0.2692346476833809,0.0711778118861109,0.011629965594463373,0.016379832909413156,0.005047452284005921,-0.0047105960143898175,29.608176707988605
1615,C,168561583064538.0,-1.524935404736845,1.1664436156474345,1.2049098361592598,77,1970-01-02 22:49:21.583064538,-3.2498322,-1.500412,-1.3601379,18.604322367130912,3.8291801478798635,-92.46772766113281,5.959385395050049,-24.51609230041504,29658530.0,50354.0,0.06321474873328091,-0.20589483141468914,0.10112095749246337,0.008370078453582295,-0.0033917704006710143,0.002838729990559555,29.65853071201127
1615,C,168561633418542.0,-0.7475153047368446,-0.47260938435256605,-1.1209874638407404,77,1970-01-02 22:49:21.633418542,-3.5975342,-0.86587524,-1.2131348,20.600049065139473,3.8940580753740357,-93.01283264160156,5.987471580505371,-24.50852394104004,29708884.0,50354.0,-0.057213491512419085,-0.47600053555868915,0.0021129135678633632,0.00015109365304963817,-0.017168079654288744,0.0025991191716858465,29.70888471600483
1615,C,168561683772545.0,3.9823277952631555,-0.47260938435256605,-2.18850766384074,77,1970-01-02 22:49:21.683772545,-4.7693787,-0.99339294,-1.6955566,20.729425479265284,5.158363587520667,-93.67424774169922,5.665255546569824,-24.497028350830078,29759238.0,50354.0,0.08144287407398093,-0.5172669729396892,-0.08332315882963665,0.0006100231647524426,-0.02500749606146367,-0.002044630344955666,29.759238719008863
1615,C,168561734126549.0,-0.2018611047368446,5.773622615647433,-0.13397266384074058,77,1970-01-02 22:49:21.734126549,-5.6369476,-3.3305817,-1.4705963,14.378923501086392,6.710484794938019,-94.36886596679688,5.744601726531982,-24.368192672729492,29809592.0,50354.0,0.09518080986738094,-0.3600055898756892,-0.05847308721003664,0.004446854490591667,-0.022087091314002782,-0.0035700040865408542,29.809592723002424
1615,C,168561784480553.0,-1.2922541047368448,13.752412615647433,3.2939295361592595,77,1970-01-02 22:49:21.784480553,-3.4408112,-2.541977,-0.86447144,6.663801487097014,4.36441744716865,-94.8126449584961,6.421231269836426,-24.268632888793945,29859946.0,50354.0,-0.03761733862891908,-0.00186221098168919,0.07955823417436336,0.0014492755153707544,-0.009110745622186217,0.0005308607451208539,29.859946726995986
1615,C,168561834834557.0,-0.7608058047368447,21.582643115647436,8.14257763615926,77,1970-01-02 22:49:21.834834557,-0.3853302,-1.7393341,-0.7333679,5.284942438408094,1.9265489745151199,-93.01200866699219,8.624619483947754,-23.941497802734375,29910300.0,50354.0,-0.051689889340819084,0.3961614981468109,0.28793694107746337,-0.002248488078594098,0.00992727315295627,0.009252426027315241,29.910300730989547
