Subject-id_accel,Activity_accel,Timestamp_accel,accel_x,accel_y,accel_z,Segment_accel,DateTime,gyro_x,gyro_y,gyro_z,accel_magnitude,gyro_magnitude,Roll,Pitch,Yaw,Time_Difference,Difference_Microseconds,vx,vy,vz,dx,dy,dz,Time_diff
1633,C,693632186926838.0,4.539882392281232,10.585457534932212,2.7586722533756696,171,1970-01-09 00:40:32.186926838,0.23213196,0.43392944,-1.2445526,7.8418404655925045,1.338316546979419,-100.84705352783203,16.619569778442383,-72.17223358154297,15005505.0,50354.0,0.24904372075482917,0.0740578954889766,0.1257269868002785,0.01293614612273478,0.005040447563888718,0.00532699200465794,15.005505991983227
1633,C,693632237280842.0,3.737407492281232,8.543755534932213,1.0973563333756697,171,1970-01-09 00:40:32.237280842,0.6678314,1.172409,-1.0038757,10.105913435605961,1.6817574329127996,-100.75276184082031,16.56587028503418,-72.20096588134766,15055859.0,50354.0,0.20839732742362915,-0.011853002540023399,0.09708323172863847,0.011516993269989046,0.0015661325897757946,0.005609692871902543,15.055859996005893
1633,C,693632287634846.0,2.3444325922812315,5.789635534932213,1.4869590033756697,171,1970-01-09 00:40:32.287634846,0.38383484,1.184372,-0.68782043,13.104285327377575,1.422379401814864,-100.59052276611328,16.591035842895508,-72.20977020263672,15106214.0,50355.0,0.15312552872907143,-0.13260004633848843,0.06506659939105684,0.009102241710784617,-0.0036369666381387313,0.004082527373016129,15.106214000028558
1633,C,693632337988850.0,2.011440192281232,3.0937275349322118,1.5240836333756698,171,1970-01-09 00:40:32.337988850,0.50949097,1.8345337,0.017990112,15.761451140270824,1.9040532001698385,-100.41304016113281,16.59309959411621,-72.25292205810547,15156568.0,50354.0,0.10966780909692915,-0.26981276799002346,0.07580902046548847,0.006616347866445217,-0.010131547426348945,0.0035468254811282414,15.156568004051223
1633,C,693632388342853.0,3.964671892281232,1.9462525349322135,0.6460624333756697,171,1970-01-09 00:40:32.388342853,0.4920349,2.8583374,0.8764801,16.498273081793204,3.029918876926044,-100.32527923583984,16.433008193969727,-72.37730407714844,15206922.0,50354.0,0.15046057395302917,-0.36657762178102343,0.054637767522598475,0.006549252300048801,-0.016022400843265647,0.0032842587811760656,15.20692200702615
1633,C,693632438696857.0,8.778255192281232,2.799339534932212,-2.42098456662433,171,1970-01-09 00:40:32.438696857,-0.071899414,4.0590363,1.4164276,16.20843567668296,4.299675843187832,-100.39156341552734,16.4661808013916,-72.59873962402344,15257276.0,50354.0,0.32082867520802916,-0.37398942845702343,-0.04468721454880152,0.011865649426127965,-0.018645256623843306,0.00025052507222128595,15.257276011048816
1633,C,693632489050861.0,8.064677992281233,5.718147534932212,0.1323752333756696,171,1970-01-09 00:40:32.489050861,-0.77737427,1.8999634,0.19874573,12.69207998717339,2.0624431003523047,-100.45858001708984,16.45876693725586,-72.69804382324219,15307630.0,50354.0,0.4240545287877292,-0.27902442804202343,-0.05762031718320153,0.01875392442700121,-0.016440929865076503,-0.002575796726416641,15.307630015071481
1633,C,693632539404865.0,7.086986292281232,9.572563534932213,1.9867148633756697,171,1970-01-09 00:40:32.539404865,-0.71487427,0.981781,0.09220886,8.573331639530306,1.2179661849704748,-100.50882720947266,16.45436668395996,-72.7492446899414,15357984.0,50354.0,0.3814734516924292,-0.10849496739402341,0.05335233136590847,0.020280777964548947,-0.009756575818893352,-0.00010745507892198724,15.357984018977731
1633,C,693632589758869.0,7.818019592281232,11.430382534932212,0.4378257333756699,171,1970-01-09 00:40:32.589758869,-0.26852417,0.6618347,0.58410645,7.074473861632613,0.9226650231421377,-100.53343963623047,16.47703742980957,-72.78872680664062,15408338.0,50354.0,0.37526333315562915,0.035321973200976596,0.061042658604408474,0.019052362032119567,-0.0018422764747983399,0.0028801226624826696,15.408338023000397
1633,C,693632640112873.0,7.415843732281232,12.040047534932214,0.7061362333756698,171,1970-01-09 00:40:32.640112873,-0.38145447,-0.7090149,0.30046082,6.364371842570534,0.8593522825128606,-100.54302215576172,16.498294830322266,-72.75525665283203,15458692.0,50354.0,0.38354297692250916,0.09744581786897662,0.02880153043689848,0.019104466468837292,0.003342694675768212,0.002262007147492985,15.458692027023062
1633,C,693632690466877.0,7.373332742281232,12.802727534932213,1.4383597333756697,171,1970-01-09 00:40:32.690466877,-0.39250183,-1.2910156,0.119384766,5.4568118201622,1.354633414747172,-100.54415893554688,16.515974044799805,-72.69019317626953,15509046.0,50354.0,0.37234709610005917,0.13199734793397663,0.05399197495489848,0.019031044368489205,0.005776690585420955,0.0020844920852492723,15.509046031045727
1633,C,693632740820881.0,7.462978132281232,12.400047934932212,1.4632010633756698,171,1970-01-09 00:40:32.740820881,-0.15682983,-1.1622772,0.038223267,5.85761810025632,1.173432956481887,-100.53516387939453,16.528484344482422,-72.63097381591797,15559400.0,50354.0,0.3735337988888592,0.1410610780047766,0.07305259617980848,0.018779043293136,0.006874791989859991,0.0031986011674585172,15.559400035068393
1633,C,693632791174885.0,7.269496692281232,12.001915534932213,1.0743613333756699,171,1970-01-09 00:40:32.791174885,-0.0769043,-1.0127106,-0.06402588,6.296859528474846,1.0176425423598525,-100.52405548095703,16.534591674804688,-72.57843017578125,15609754.0,50354.0,0.37091951865800915,0.1208990342807766,0.06388820846300848,0.018743101175877505,0.006595369747013373,0.003447758638492203,15.609754038974643
1633,C,693632841528889.0,6.968776472281232,11.230232934932213,0.6918540333756698,171,1970-01-09 00:40:32.841528889,-0.26913452,-1.1813354,-0.07801819,7.113176962705815,1.2141143089180964,-100.52005004882812,16.541545867919922,-72.51712036132812,15660108.0,50354.0,0.3584770034641892,0.0914466020257766,0.04446800428869848,0.01836401623747059,0.00534622608529009,0.002728084368449726,15.660108042997308
1633,C,693632891882893.0,7.678859492281232,7.903114534932213,0.7688041333756699,171,1970-01-09 00:40:32.891882893,-0.68862915,-1.4141083,-0.17515564,10.402743274036467,1.5825902465838788,-100.53336334228516,16.54585075378418,-72.44293212890625,15710462.0,50354.0,0.3687835306797892,-0.011748910751223402,0.03677499066429848,0.018310238468142944,0.002006548773219426,0.0020454548839316045,15.710462047019973
1633,C,693632942236896.0,7.484294652281232,5.218712534932212,1.0725608333756698,171,1970-01-09 00:40:32.942236896,-0.6690216,-1.7622375,-0.46426392,13.001501562785652,1.9412912957839625,-100.53981018066406,16.53913688659668,-72.3481216430664,15760816.0,50354.0,0.3817627318976492,-0.16310095986202341,0.04636004576789848,0.01889650325291217,-0.004402195192429715,0.002093090812253423,15.7608160499949
1633,C,693632992590900.0,7.813716692281232,3.9451525349322125,2.1311545533756697,171,1970-01-09 00:40:32.992590900,0.10975647,-2.748581,-0.38786316,14.228791210877954,2.7779816102978523,-100.4931411743164,16.545156478881836,-72.2034683227539,15811170.0,50354.0,0.3851580316220492,-0.2627505691360234,0.08065994229223847,0.019308764063135447,-0.010721663945583824,0.0031979822393900684,15.811170054017566
1633,C,693633042944904.0,8.139125592281232,5.645409534932213,1.9302573333756698,171,1970-01-09 00:40:33.042944904,0.17558289,-1.426117,-0.49542236,12.575223257961822,1.5198955107959633,-100.46220397949219,16.533761978149414,-72.12562561035156,15861524.0,50354.0,0.4016447101984292,-0.25200761876702343,0.10225416707273849,0.019809332630814185,-0.012960066896835012,0.004605228531482025,15.861524058040231
1633,C,693633093298908.0,6.793559792281232,7.3991785349322114,3.13588478337567,171,1970-01-09 00:40:33.093298908,0.33462524,0.15718079,-0.6667633,10.750690659118296,0.7623996000897244,-100.44597625732422,16.49955177307129,-72.12738800048828,15911878.0,50354.0,0.3759602199271292,-0.16504560616502342,0.1275502600734485,0.019577759325771184,-0.010500149044114145,0.00578578606225955,15.911878062062897
1633,C,693633143652912.0,6.103648892281232,10.185372034932211,1.7714591333756697,171,1970-01-09 00:40:33.143652912,1.0182037,1.3640137,-0.553421,7.985671693713512,1.7898455105741333,-100.41343688964844,16.459989547729492,-72.19210052490234,15962232.0,50354.0,0.3247130230512292,-0.05074297030252348,0.12355219779204848,0.017640850238466132,-0.005432908989723428,0.006322006581679618,15.962232065969147
1633,C,693633194006916.0,4.5810505922812315,11.585427034932213,1.25929783337567,171,1970-01-09 00:40:33.194006916,0.96984863,1.6730957,-0.58683777,6.961355868152581,2.020948825371375,-100.37799072265625,16.44084358215332,-72.26962280273438,16012585.999999998,50353.99999999814,0.26900867892281916,0.05465420818197454,0.07630536815189566,0.014948131290600063,9.847323609093583e-05,0.005031813937770496,16.012586069991812
1633,C,693633244360920.0,3.8298146922812317,12.424629934932213,0.4373526333756699,171,1970-01-09 00:40:33.244360920,0.72254944,1.5299683,-0.19934082,6.668262669250368,1.703706974443515,-100.36351776123047,16.417268753051758,-72.34620666503906,16062940.000000002,50354.000000003725,0.2117603552694448,0.11103200433028482,0.04271656880140164,0.012104321973859525,0.004171481772421462,0.0029966153066733874,16.062940074014477
1633,C,693633294714924.0,3.658122792281232,12.748741834932211,0.036550033375669866,171,1970-01-09 00:40:33.294714924,0.5740509,-0.21640015,-0.123291016,6.605009311223733,0.6257508572404394,-100.33135986328125,16.41315269470215,-72.3339614868164,16113294.0,50353.99999999814,0.18852380204882216,0.1403207810498714,0.011931447440798038,0.010077954228801634,0.006328309077515959,0.0013758731049298106,16.113294078037143
1633,C,693633345068928.0,2.276500492281232,9.991371534932213,0.5834708333756697,171,1970-01-09 00:40:33.345068928,0.3170929,-1.756607,0.013214111,9.423539587612195,1.7850464062340035,-100.29006958007812,16.429519653320312,-72.2439956665039,16163647.999999998,50353.99999999814,0.14941601043542363,0.07905863431307365,0.0156102653621979,0.00850831065891554,0.005523315540592663,0.0006934177032410031,16.163648082059808
1633,C,693633395422932.0,2.361980192281232,6.375252534932212,0.6931052333756698,171,1970-01-09 00:40:33.395422932,-0.4045868,-1.8475189,0.71772766,12.63211194249615,2.022906215947869,-100.2374267578125,16.569068908691406,-72.14228820800781,16214002.0,50354.00000000186,0.11678302819523348,-0.08140670579302642,0.03214035563259966,0.006702093195604301,-5.911739565077296e-05,0.0012022173847860628,16.214002085966058
1633,C,693633445776936.0,1.7634694922812315,1.9421775349322132,-0.9293312666243301,171,1970-01-09 00:40:33.445776936,-0.93844604,-1.1131439,1.1214752,17.237489925544867,1.8377913201215015,-100.3070068359375,16.633392333984375,-72.1058349609375,16264356.0,50354.0,0.10386644670822914,-0.2840612631310234,-0.0059474628391015215,0.0055552918296444785,-0.009201387053600804,0.0006594584618619027,16.264356089988723
1633,C,693633496130939.0,4.873927792281232,-0.8538124650677865,-3.0241495666243305,171,1970-01-09 00:40:33.496130939,-1.9842987,-1.599884,1.9037018,19.824287068809003,3.1813755967507094,-100.38774871826172,16.741397857666016,-72.0415267944336,16314710.000000002,50354.00000000186,0.16710975143343532,-0.4660674326360406,-0.09953678693870521,0.006822367740612938,-0.018885990173328072,-0.0026557769566559384,16.31471009296365
1633,C,693633546484943.0,6.223247292281232,5.389961534932212,-0.7680915666243302,171,1970-01-09 00:40:33.546484943,-0.94737244,-3.1801147,1.9553528,13.134393957995611,3.85149952845583,-100.39322662353516,16.866247177124023,-71.89659881591797,16365064.0,50353.99999999814,0.2793935771040188,-0.37926257486800935,-0.095477255011798,0.011241614302587067,-0.021282873598928678,-0.004909868534187637,16.365064096986316
1633,C,693633596838947.0,6.6183126022812315,12.938042534932212,-0.1433052666243304,171,1970-01-09 00:40:33.596838947,-0.5786133,-2.1104584,1.3957214,5.783837789824566,2.5955473864842866,-100.39442443847656,16.953922271728516,-71.80126953125,16415417.999999998,50353.99999999814,0.32331195346538716,-0.03202504153302226,-0.02294623807070068,0.015174317143145374,-0.01035498831812839,-0.002981548285337959,16.41541810100898
1633,C,693633647192951.0,7.843028792281232,7.274681534932212,5.74973063337567,171,1970-01-09 00:40:33.647192951,-0.8857422,-2.8535767,0.13656616,11.41167286398026,2.9910014282345094,-100.39625549316406,16.986385345458984,-71.65581512451172,16465772.000000002,50354.000000003725,0.36409319229092607,0.01542655390697769,0.1411529714587089,0.01730679935470798,-0.0004179001229609551,0.002976090926510103,16.465772105031647
1633,C,693633697546955.0,2.673473192281232,10.135384334932212,3.67990643337567,171,1970-01-09 00:40:33.697546955,0.47184753,0.09288025,-0.30549622,9.021948927292387,0.5697321939661228,-100.37321472167969,16.970521926879883,-71.65772247314453,16516126.0,50353.99999999814,0.26477397046531936,-0.05513597159442141,0.2374099724295897,0.015832988556713404,-0.0009997640091167334,0.00953107923827534,16.516126109054312
1633,C,693633747900959.0,4.662288392281232,12.671745934932211,1.1282706333756698,171,1970-01-09 00:40:33.747900959,1.0178833,2.580185,-0.18357849,5.9514699816877545,2.779773751339229,-100.43207550048828,17.006988525390625,-71.8095703125,16566479.999999998,50353.99999999814,0.18469246941452233,0.08074591880437355,0.12105547400959399,0.011316216556854355,0.0006447816409049413,0.009025084544998993,16.566480112960562
1633,C,693633798254963.0,5.195445792281232,12.557045534932213,-0.09990926662432997,171,1970-01-09 00:40:33.798254963,0.9883423,0.02142334,-0.15010071,6.2847785573084,0.9999048377763504,-100.38256072998047,16.999418258666992,-71.80924987792969,16616834.0,50354.00000000186,0.24818817356473832,0.1417160828367818,0.02589105413069944,0.01089863594828925,0.005600925815319576,0.0036996727389883048,16.616834116983227
1633,C,693633848608967.0,6.258769752281232,10.399086534932213,0.3335471333756699,171,1970-01-09 00:40:33.848608967,0.952301,0.7454071,-0.053146362,8.011909471657079,1.2105095931570493,-100.34600830078125,16.99009895324707,-71.84709167480469,16667188.0,50354.0,0.28838278476544915,0.0844973371229766,0.005882300571198485,0.013509247017879129,0.005695375274326838,0.0007999577513296841,16.667188121005893
1633,C,693633898962971.0,5.703304052281232,8.352303534932211,0.09813443337566996,171,1970-01-09 00:40:33.898962971,0.92985535,2.09404,-0.11482239,10.089896103850586,2.2940834062363415,-100.33065032958984,16.965662002563477,-71.95372009277344,16717542.000000002,50354.00000000186,0.3011691321774803,-0.021365452211024216,0.010868446806098886,0.014843148612872685,0.001589471466428284,0.0004217335667182315,16.717542125028558
1633,C,693633949316975.0,3.795573992281232,8.453972534932213,-8.195490566624331,171,1970-01-09 00:40:33.949316975,1.2735138,1.5009613,0.32635498,14.641411203669783,1.9953019310016542,-100.29039001464844,16.968273162841797,-72.0339584350586,16767896.0,50353.99999999814,0.23915325252794029,-0.07033758738902082,-0.20386713536679402,0.013603696679727871,-0.0023088074280102487,-0.004859127981892442,16.767896129051223
1633,C,693633999670978.0,0.32380269228123204,9.193001534932213,-0.44790126662433005,171,1970-01-09 00:40:33.999670978,-0.65771484,-1.4680939,0.76724243,11.324162999690394,1.782287703028257,-100.30330657958984,17.01914405822754,-71.96562194824219,16818250.0,50354.0,0.10371354678722917,-0.0491713338430234,-0.21761467618570154,0.008632357406358022,-0.0030088761098591775,-0.010611647569457181,16.81825013202615
1633,C,693634050024982.0,3.737239592281232,3.6016165349322122,-0.10378506662433029,171,1970-01-09 00:40:34.050024982,-2.4036407,-3.0227509,1.3625183,15.028877601537928,4.09523720143073,-100.36986541748047,16.969266891479492,-71.81934356689453,16868604.0,50354.0,0.10224486159842916,-0.1713391008550234,-0.013889806812201522,0.00518541484792572,-0.005551791214392725,-0.005828588368438206,16.868604136048816
1633,C,693634100378986.0,2.935817492281232,-1.122657465067789,4.14366673337567,171,1970-01-09 00:40:34.100378986,-3.3171082,-3.7172852,1.0424194,19.68231896323163,5.089995508263503,-100.48268127441406,17.05415916442871,-71.6380615234375,16918958.0,50354.0,0.16800755821802915,-0.43105644749802347,0.1017121007237985,0.006804145173718972,-0.015166512720884663,0.0022111018938122773,16.91895814007148
1633,C,693634150732990.0,0.5727801922812317,4.969429534932212,6.30013043337567,171,1970-01-09 00:40:34.150732990,-2.2657623,0.11331177,-0.17999268,15.01073653499451,2.275723120719084,-100.59718322753906,17.044279098510742,-71.64217376708984,16969312.0,50354.0,0.08833596390422915,-0.39661901959702345,0.2629434812672985,0.006453960856472098,-0.020838385235051996,0.00918093358778985,16.96931214397773
1633,C,693634201086994.0,0.5517384922812321,10.694527534932213,1.2808432333756699,171,1970-01-09 00:40:34.201086994,0.28053284,-0.54885864,-0.29818726,9.691071565763362,0.6847336146615141,-100.57404327392578,17.034664154052734,-71.611083984375,17019666.0,50354.0,0.028312006921229153,-0.09909775285202341,0.19086617400779848,0.002936845961472564,-0.012480661179949655,0.011425565690861117,17.019666148000397
1633,C,693634251440998.0,0.8177144922812323,12.646980934932213,-2.15098056662433,171,1970-01-09 00:40:34.251440998,0.29156494,-1.8622894,-0.21838379,9.224638969605511,1.8975835695231786,-100.53079986572266,17.04098129272461,-71.51325225830078,17070020.0,50354.0,0.03447871779232917,0.09419995874577662,-0.02190744763920151,0.0015808820761132579,-0.00012331176221297535,0.004253873853782166,17.070020152023062
1633,C,693634301795002.0,2.944972792281232,14.589211234932213,1.7853141033756699,171,1970-01-09 00:40:34.301795002,-0.5720978,-3.0285187,-0.04623413,5.173524917264469,3.0824274531270617,-100.51360321044922,17.066364288330078,-71.3570785522461,17120374.0,50354.0,0.09473317776342917,0.19225641026067666,-0.009206384545211511,0.003253167894407328,0.007212112002475474,-0.0007833529529069666,17.120374156045727
1633,C,693634352149006.0,5.059047492281232,15.989617034932213,2.8406424733756697,171,1970-01-09 00:40:34.352149006,-0.36967468,-2.4545288,-0.10334778,2.7077746004328613,2.484361439624571,-100.49474334716797,17.08365821838379,-71.2298583984375,17170728.0,50354.0,0.20151721870442918,0.27641395935037666,0.11646770873286848,0.0074586962318712695,0.011799713895697492,0.0027005183590726395,17.170728160068393
1633,C,693634402503010.0,5.510463492281232,15.883461634932212,2.12831643337567,171,1970-01-09 00:40:34.402503010,-0.7168274,-1.6386566,-0.03489685,2.539376327830182,1.7889255893564278,-100.50570678710938,17.096872329711914,-71.14524841308594,17221082.0,50354.0,0.2661085780583292,0.30899930167117656,0.1251034783952785,0.011773414685095969,0.014738949672739646,0.006082037778325357,17.221082163974643
1633,C,693634452857014.0,5.083232692281232,12.613503134932213,0.13149023337566978,171,1970-01-09 00:40:34.452857014,-1.3479309,-0.9371948,-0.17123413,6.172983465512802,1.650628041564394,-100.55845642089844,17.09702491760254,-71.09541320800781,17271436.0,50354.0,0.2667174888387292,0.22399888201087656,0.05689515244879848,0.01341496188626724,0.013419295270563052,0.004582179528761326,17.271436167997308
1633,C,693634503211018.0,-0.02089330771876785,3.8973925349322123,2.4158072673756696,171,1970-01-09 00:40:34.503211018,-2.271347,-0.970047,-0.5627289,15.721832010734746,2.5331151161195202,-100.65576934814453,17.078296661376953,-71.04010772705078,17321790.0,50354.0,0.12745451868512916,-0.07777437971982341,0.06413330917641648,0.009924068633428183,0.0036814942941818455,0.0030471335783380372,17.321790172019973
1633,C,693634553565021.0,-5.235446807718768,0.01574053493221328,5.691655633375669,171,1970-01-09 00:40:34.553565021,-1.2607727,0.7128601,-0.59814453,21.91781130025978,1.5670016598607102,-100.72785186767578,17.04229736328125,-71.0709457397461,17372144.0,50354.0,-0.13233887508637085,-0.39494824870002343,0.20412159345221645,-0.0001229734411140619,-0.011901737615726484,0.006753853683481092,17.3721441749949
1633,C,693634603919025.0,-6.695392807718768,3.3303305349322123,4.25594093337567,171,1970-01-09 00:40:34.603919025,1.2366486,0.79063416,-0.34277344,20.021776259499312,1.5072809180807336,-100.67695617675781,17.018117904663086,-71.10824584960938,17422498.0,50354.0,-0.3003827489978709,-0.4092251686740234,0.2504506387610985,-0.010894632329568955,-0.02024667412922638,0.011444765090434633,17.422498179017566
1633,C,693634654273029.0,12.713756192281231,8.043129534932213,-11.67894956662433,171,1970-01-09 00:40:34.654273029,1.1962585,2.6148071,1.2724915,18.352941052626605,3.144437181214615,-100.66012573242188,17.056442260742188,-71.25495147705078,17472852.0,50354.0,0.15152433493312914,-0.2071195958210234,-0.18688908835930154,-0.003747808290908003,-0.015517712135691794,0.0016002891544660426,17.47285218304023
1633,C,693634704627033.0,2.042384892281232,8.214943534932212,-10.07982856662433,171,1970-01-09 00:40:34.704627033,-0.58792114,1.3040314,0.2280426,16.6053845289928,1.4485001161406992,-100.70982360839844,17.055553436279297,-71.32418060302734,17523206.0,50354.0,0.37151536408602914,-0.08413969432002341,-0.5478207570608016,0.013168570502205348,-0.007333035147881135,-0.018497789778141937,17.523206187062897
1633,C,693634754981037.0,2.692500792281232,11.835564534932212,0.5582480333756699,171,1970-01-09 00:40:34.754981037,-1.041153,-0.26345825,0.29403687,7.669159518005015,1.1134933766401394,-100.75874328613281,17.072450637817383,-71.3134994506836,17573560.0,50354.0,0.11921021688022916,0.011342441674976575,-0.23972483308560155,0.012354997951987485,-0.0018328164298443445,-0.019828035323115993,17.573560190969147
1633,C,693634805335041.0,3.279048692281232,13.181603134932212,0.6076712333756698,171,1970-01-09 00:40:34.805335041,-1.045166,-1.5281677,0.021835327,6.260559529019515,1.851525119566161,-100.78800201416016,17.08780860900879,-71.23519134521484,17623914.0,50354.0,0.15034570137282918,0.13638803042417658,0.02935434937899848,0.006786609353857251,0.0037194100960403795,-0.005296497668281146,17.623914194991812
1633,C,693634855689045.0,4.828838092281232,14.047508934932212,1.6591544333756698,171,1970-01-09 00:40:34.855689045,-1.2567444,-0.5404968,0.2267456,4.536827601952621,1.3867071950707404,-100.83653259277344,17.27457618713379,-71.20771026611328,17674268.0,50354.0,0.20413226557492917,0.19207815458297658,0.05707186981179847,0.008924691773843713,0.008269793139925097,0.002175952920566695,17.674268199014477
1633,C,693634906043049.0,4.267390992281232,11.725563534932213,3.16177893337567,171,1970-01-09 00:40:34.906043049,-0.60006714,-1.0002594,0.22999573,6.875791161976088,1.1889059994862388,-100.85192108154297,17.295278549194336,-71.15853118896484,17724622.0,50354.0,0.22901575966202914,0.15541944557377663,0.12137663937469849,0.0109053678313909,0.008748947079146576,0.0044927981157884345,17.724622203037143
1633,C,693634956397053.0,3.019756192281232,7.6502465349322115,2.8391928833756697,171,1970-01-09 00:40:34.956397053,0.17845154,0.35525513,0.2259674,11.100228950855866,0.4572881207536978,-100.8490982055664,17.303028106689453,-71.17903137207031,17774976.0,50354.0,0.18346850466572917,-0.005644429871023411,0.1510864674303485,0.010385116322979972,0.003770885570348218,0.0068598036400306685,17.774976207059808
1633,C,693635006751057.0,3.718440792281232,3.5683985349322125,2.3032736983756696,171,1970-01-09 00:40:35.006751057,1.677597,0.9764099,0.28012085,14.852973501224023,1.9611669173815198,-100.7809829711914,17.307628631591797,-71.23200988769531,17825330.0,50354.0,0.16964758548032915,-0.21101737307602345,0.1294718811287535,0.008890403801607312,-0.0054548942127977985,0.007063617541672512,17.825330210966058
1633,C,693635057105061.0,2.3395497922812316,4.874336534932212,-0.27976456662433025,171,1970-01-09 00:40:35.057105061,2.3173065,-0.7859955,0.12715149,14.198050739792288,2.4502787274862667,-100.67127990722656,17.332366943359375,-71.1980972290039,17875684.0,50354.0,0.15252202894752914,-0.2809064591460234,0.05094588941010347,0.00811126438245019,-0.012385166323854474,0.004542378208856802,17.875684214988723
1633,C,693635107459064.0,2.455425192281232,10.189842934932212,0.21428443337566971,171,1970-01-09 00:40:35.107459064,1.1586609,-0.21792603,0.43885803,9.250024981306222,1.2580076336158903,-100.61126708984375,17.355947494506836,-71.19112396240234,17926038.0,50354.0,0.12072308518632915,-0.11419835348722344,-0.0016485933148015263,0.006879492238548152,-0.009947553867667257,0.0012411580237914172,17.92603821796365
1633,C,693635157813068.0,3.411510192281232,11.787895834932211,-0.81220486662433,171,1970-01-09 00:40:35.157813068,0.3297577,0.22032166,0.16508484,7.822071051378476,0.4295751144704162,-100.59864044189453,17.362030029296875,-71.20406341552734,17976392.0,50354.0,0.14771183217712916,0.05986432900887655,-0.015053842747901522,0.0067583859144597904,-0.0013679677342913399,-0.00042051723275067466,17.976392221986316
1633,C,693635208167072.0,1.7605397922812323,10.379906534932212,-0.6947425666243303,171,1970-01-09 00:40:35.208167072,-0.53944397,-2.020218,-0.24217224,9.68240737174905,2.1049769495459985,-100.5938491821289,17.36870002746582,-71.09768676757812,18026746.0,50354.0,0.1302167024613292,0.06464956026607656,-0.03794041552690152,0.006997406716592466,0.0031348861902754945,-0.0013342364405847162,18.02674622600898
1633,C,693635258521076.0,0.8883168922812317,9.151924534932212,2.08585121337567,171,1970-01-09 00:40:35.258521076,-2.600998,-3.724228,-0.36672974,10.678862602545777,4.5573627784266275,-100.66557312011719,17.385028839111328,-70.90239715576172,18077100.0,50354.0,0.06669026474722915,-0.0017162891540234337,0.035023942399258476,0.004957526713409873,0.0015844709667881618,-7.342804393466895e-05,18.077100230031647
1633,C,693635308875080.0,2.430751592281232,8.888588534932213,3.17406227337567,171,1970-01-09 00:40:35.308875080,-3.4987793,-3.8274994,-0.23451233,10.190566812716728,5.19097334611062,-100.78092193603516,17.40911865234375,-70.70307159423828,18127454.0,50354.0,0.08356418723582915,-0.03926320244002343,0.13242884185593848,0.0037829563375774596,-0.001031740659863318,0.0042159587491930935,18.127454234054312
1633,C,693635359229084.0,3.7711293922812317,8.897453534932213,2.7211508933756696,171,1970-01-09 00:40:35.359229084,-2.8059235,-3.6087189,-0.13130188,9.676627392097073,4.573106052866147,-100.8652114868164,17.43654441833496,-70.5160140991211,18177808.0,50354.0,0.15614475754832915,-0.0456700188070234,0.1484237818992985,0.006035152102830754,-0.002138363711336898,0.007071026508285602,18.177808237960562
1633,C,693635409583088.0,4.884853092281232,8.027748534932213,2.36195900037567,171,1970-01-09 00:40:35.409583088,-2.459198,-3.9797363,-0.116744995,10.25373605734512,4.6796992654014895,-100.9263916015625,17.468429565429688,-70.31002807617188,18228162.0,50354.0,0.21793167101382918,-0.06734338748702338,0.1279774577949775,0.00941812224190946,-0.002845338530265216,0.006958954011782787,18.228162241983227
1633,C,693635459937092.0,5.691600592281231,5.657417534932213,1.9804892733756698,171,1970-01-09 00:40:35.459937092,-2.5912323,-3.9069672,-0.2227478,12.513338155223455,4.693452259994126,-100.99488830566406,17.494632720947266,-70.10673522949219,18278516.0,50354.0,0.2662833744162291,-0.14891777385902338,0.10932982018823749,0.012191082198792579,-0.00544480725920942,0.005974685337783404,18.278516246005893
1633,C,693635510291096.0,5.383250992281232,4.409050534932213,2.51630165337567,171,1970-01-09 00:40:35.510291096,-2.7552643,-3.187378,-0.30549622,13.776398062866209,4.2242381346430715,-101.08240509033203,17.510160446166992,-69.93966674804688,18328870.0,50354.0,0.2788315383445292,-0.2400257334050234,0.11321570516281848,0.013724358158577612,-0.009792430682386907,0.0056030286917635366,18.328870250028558
1633,C,693635560645100.0,5.859004742281232,5.4941945349322125,3.10823583337567,171,1970-01-09 00:40:35.560645100,-2.914856,-2.1292114,-0.7272186,12.675660154631922,3.68222399900005,-101.19297790527344,17.49505043029785,-69.82276153564453,18379224.0,50354.0,0.2830462726290791,-0.24413519887602342,0.14160898030393848,0.014146397646882535,-0.012189719792039916,0.006415721105996541,18.379224254051223
1633,C,693635610999103.0,4.642299392281232,8.268181534932213,4.07562783337567,171,1970-01-09 00:40:35.610999103,-2.6000214,-2.3743134,-1.1352539,10.199011896751234,3.6994968332656715,-101.28284454345703,17.462509155273438,-69.6891098022461,18429578.0,50354.0,0.2643913341958792,-0.1469738576890234,0.18086813553779849,0.013782836627031975,-0.009846952717138183,0.008119006345547413,18.42957825702615
1633,C,693635661353107.0,2.893275992281232,10.401360234932213,4.73961403337567,171,1970-01-09 00:40:35.661353107,-1.9585876,-3.5422516,-1.1081848,8.905702218797297,4.196627852875134,-101.32276153564453,17.44289207458496,-69.49565887451172,18479932.0,50354.0,0.18972318145712916,-0.0234261468601234,0.2219413444791985,0.01143324116059579,-0.004290160914533869,0.010141534278387935,18.479932261048816
1633,C,693635711707111.0,-0.31991980771876793,10.568855934932213,5.120229233375669,171,1970-01-09 00:40:35.711707111,-0.57369995,-2.7956085,-1.0779877,10.642098218804776,3.0506746793543136,-101.30509185791016,17.417465209960938,-69.34092712402344,18530286.0,50354.0,0.06478938865872916,0.0344979325086766,0.24824127392699846,0.006407862977806965,0.00027875434727362396,0.011837787783612821,18.53028626507148
1633,C,693635762061115.0,-1.169941207718768,10.199516934932213,4.00790933337567,171,1970-01-09 00:40:35.762061115,1.2978973,-0.054489136,-0.61276245,11.260350269940767,1.436309258975698,-101.23748016357422,17.387948989868164,-69.33184814453125,18580640.0,50354.0,-0.037510230785670846,0.0294161237445766,0.22981914469509848,0.0006868073577699892,0.001609164194288156,0.012036127159648535,18.58064026897773
1633,C,693635812415119.0,2.961879492281232,8.220619534932212,0.5432944333756697,171,1970-01-09 00:40:35.812415119,2.520691,2.3768616,0.06373596,10.739718122817475,3.4651719229545708,-101.1350326538086,17.43810272216797,-69.45067596435547,18630994.0,50354.0,0.045115630190429155,-0.02970542409822343,0.11458565723549849,0.00019148114081359995,-7.283715003766236e-06,0.00867107969820664,18.630994273000397
1633,C,693635862769123.0,6.864513162281232,8.730004034932213,-0.7470497666243303,171,1970-01-09 00:40:35.862769123,2.2754364,2.119873,0.13442993,9.914814089848404,3.1128031985099485,-101.0543212890625,17.42430305480957,-69.5610580444336,18681348.0,50354.0,0.24739908786391915,-0.06670335038152343,-0.005129948025201528,0.007364643056454328,-0.0024272837150765866,0.002755766390787647,18.681348277023062
1633,C,693635913123127.0,2.029598192281232,9.694039534932212,-0.41399616662433036,171,1970-01-09 00:40:35.913123127,1.7856445,0.18693542,-0.12554932,10.030321046585048,1.7997871439098816,-100.96754455566406,17.41635513305664,-69.56941223144531,18731702.0,50354.0,0.22392704157381915,-0.029607055041523406,-0.02923165346140153,0.011866577960853938,-0.0024248070773360505,-0.0008651220406282053,18.731702281045727
1633,C,693635963477131.0,-1.0470164077187682,9.843651534932212,-3.7544502666243305,171,1970-01-09 00:40:35.963477131,0.8959656,0.5252838,0.16705322,12.891049367946183,1.0519430617852699,-100.93132781982422,17.419570922851562,-69.59810638427734,18782056.0,50354.0,0.024738461589929147,-0.0015687519340234287,-0.10494897584990155,0.006260651373153691,-0.0007849132922233427,-0.003378265704170678,18.782056285068393
1633,C,693636013831135.0,2.485591692281232,9.461556534932212,-6.073069066624331,171,1970-01-09 00:40:36.013831135,-0.7708893,-0.73239136,0.3467102,12.829854765721414,1.1184254020010362,-100.95962524414062,17.44354820251465,-69.5638656616211,18832410.0,50354.0,0.03621900993942915,-0.007421976425023434,-0.24742745425320156,0.0015347262606946537,-0.00022635956789572288,-0.008871781380705827,18.832410288974643
1633,C,693636064185139.0,3.053920492281232,8.245613534932213,-1.4304756666243303,171,1970-01-09 00:40:36.064185139,-1.5594025,-3.4663696,0.39068604,11.200824148624612,3.8210064044255794,-101.23961639404297,17.537078857421875,-69.46585083007812,18882764.0,50354.0,0.13946829827072915,-0.04765577915102341,-0.18891674574900155,0.0044232793588071554,-0.0013866926521381316,-0.010985837923455468,18.882764292997308
1633,C,693636114539143.0,3.324031592281232,8.472923534932212,0.8809409333756697,171,1970-01-09 00:40:36.114539143,-1.9320526,-3.433197,0.552063,10.329738428959226,3.977994777013258,-101.22980499267578,17.63179588317871,-69.27837371826172,18933118.0,50354.0,0.16057769963302918,-0.07254659219202342,-0.01383563597900153,0.007554258089222923,-0.0030263351033038904,-0.005104696714765934,18.933118297019973
1633,C,693636164893146.0,4.0520283922812315,8.428536534932212,1.96381141337567,171,1970-01-09 00:40:36.164893146,-2.1508942,-3.0072021,0.45291138,10.05345948853196,3.7248810783663355,-101.0757827758789,17.624086380004883,-69.06279754638672,18983472.0,50354.0,0.18570706223132916,-0.06794113982102344,0.07162232983415848,0.00871841144945895,-0.0035370596288924814,0.0014548955911912866,18.9834722999949
1633,C,693636215247150.0,2.7417714922812317,8.240135534932213,2.3192496533756697,171,1970-01-09 00:40:36.215247150,-1.7276306,-2.472702,0.29406738,10.636762674435206,3.030748801012783,-101.12448120117188,17.662317276000977,-68.93846130371094,19033826.0,50354.0,0.17104749969362915,-0.07380204329702343,0.10783462847759848,0.008982009605584675,-0.0035686681213630664,0.004518187839415105,19.033826304017566
1633,C,693636265601154.0,2.112209192281232,8.221871534932212,1.7639365333756698,171,1970-01-09 00:40:36.265601154,-1.3995667,-1.1467743,0.08694458,10.920535054785724,1.8114738758482707,-101.00150299072266,17.85532569885254,-68.82691955566406,19084180.0,50354.0,0.12220867169522916,-0.07900524800202341,0.10280237862383848,0.007383310627057285,-0.003847229173036103,0.005303207927792879,19.08418030804023
1633,C,693636315955158.0,3.0995289922812317,7.766808534932212,1.8610892333756697,171,1970-01-09 00:40:36.315955158,-1.6912079,-1.3446198,-0.03817749,10.969879487224611,2.1609359287857544,-100.86807250976562,17.898433685302734,-68.69685363769531,19134534.0,50354.0,0.13121593227272915,-0.09092220188102344,0.09126727372949849,0.006380471254101286,-0.004278263405705471,0.004886091637299965,19.134534312062897
1633,C,693636366309162.0,3.773860692281232,8.896279534932212,3.12634803337567,171,1970-01-09 00:40:36.366309162,-2.317871,-2.3355713,-0.30155945,9.698199169895183,3.3042937780876858,-100.94600677490234,17.905719757080078,-68.57335662841797,19184888.0,50354.0,0.17305133208822915,-0.07394263166502345,0.12556870806499848,0.007660536914815848,-0.004150801914188823,0.005459279513640051,19.184888315969147
1633,C,693636416663166.0,3.157878592281232,9.862663534932212,3.9113974333756696,171,1970-01-09 00:40:36.416663166,-2.2209167,-2.241745,-0.71217346,9.101143517769037,3.2349780015468825,-101.01932525634766,17.892122268676758,-68.45059967041016,19235242.0,50354.0,0.17452039996742916,-0.021175290330023435,0.17718931761639847,0.00875081349796531,-0.0023947839220692956,0.007622538812580532,19.235242319991812
1633,C,693636467017170.0,1.466655492281232,10.390312834932212,3.89053873337567,171,1970-01-09 00:40:36.467017170,-1.2302094,-1.5573425,-0.8572235,9.437364916925459,2.1618424917432955,-101.05352783203125,17.864959716796875,-68.36166381835938,19285596.0,50354.0,0.11643189464702917,0.016439986064076564,0.19642934687029848,0.007325305921508218,-0.00011922075550374439,0.00940659711578157,19.285596324014477
1633,C,693636517371174.0,1.5503193922812315,10.667366534932214,3.5028739333756698,171,1970-01-09 00:40:36.517371174,-0.33511353,-3.3456573,-0.6078949,9.110310269731666,3.416907967223929,-101.01548767089844,17.867141723632812,-68.18305969238281,19335950.0,50354.0,0.07595837666862915,0.03669999349507661,0.1861439507107985,0.00484380986091433,0.0013379052653607994,0.00963204791319928,19.335950328037143
1633,C,693636567725178.0,5.665721692281232,9.903328534932212,5.00990823337567,171,1970-01-09 00:40:36.567725178,-0.21336365,-3.9081116,-0.46298218,8.679506822299922,3.941219712753075,-100.9628677368164,17.881671905517578,-67.97686767578125,19386304.0,50354.0,0.18167826638602916,0.02443918977397662,0.21432631661229848,0.006486517762187132,0.0015393012171649532,0.010082639920393613,19.386304332059808
1633,C,693636618079182.0,5.402003992281232,8.830284534932213,6.14642863337567,171,1970-01-09 00:40:36.618079182,0.26486206,-0.75042725,-0.70028687,10.095430761959415,1.0600446540898185,-100.93560028076172,17.854419708251953,-67.9311752319336,19436658.0,50354.0,0.27865212956022917,-0.021813023740023398,0.2808830932941985,0.011589738378738947,6.611898223684026e-05,0.012467887313215876,19.436658335966058
1633,C,693636668433186.0,0.08320219228123182,8.369484534932212,4.16605143337567,171,1970-01-09 00:40:36.668433186,0.92874146,2.5375824,-0.8276062,11.899793567879613,2.8260957447671746,-100.92670440673828,17.78973388671875,-68.05378723144531,19487012.0,50354.0,0.13810103610872915,-0.060430614128023405,0.25963731064059853,0.010492594452047364,-0.0020706480706038145,0.013608682209866387,19.487012339988723
1633,C,693636718787189.0,0.21616719228123227,7.157372534932213,1.8216910333756697,171,1970-01-09 00:40:36.718787189,1.4125977,4.970642,-0.302948,12.73880032418002,5.176339599071268,-100.93329620361328,17.727733612060547,-68.3070068359375,19537366.0,50354.0,0.0075372229951291584,-0.10254951955202342,0.15075339208539848,0.003666734449457841,-0.004103350825662539,0.010332406722532427,19.53736634296365
1633,C,693636769141193.0,5.199290992281232,4.374642534932212,-1.2979073666243304,171,1970-01-09 00:40:36.769141193,2.1325378,4.6536255,-0.08883667,14.318456036736862,5.119749966220595,-100.89933013916016,17.679309844970703,-68.54595184326172,19587720.0,50354.0,0.13634499071272915,-0.20312765658602341,0.013187301377798472,0.0036225224945227487,-0.007696034263627606,0.00412753483932291,19.587720346986316
1633,C,693636819495197.0,3.2689473922812318,3.944832534932212,-1.4686684666243304,171,1970-01-09 00:40:36.819495197,1.5684814,2.4919586,-0.49668884,15.090389737689748,2.9860829476155657,-100.97098541259766,17.51618766784668,-68.70352935791016,19638074.0,50354.0,0.21320483780812916,-0.28400977616602346,-0.06965407975370154,0.00880061603266965,-0.012264659144398286,-0.0014216640791701117,19.63807435100898
1633,C,693636869849201.0,1.607539892281232,5.945793534932212,-0.8861335666243302,171,1970-01-09 00:40:36.869849201,0.67930603,0.96928406,-0.36091614,13.595870333873094,1.2374282732655433,-101.05301666259766,17.59864044189453,-68.78059387207031,19688428.0,50354.0,0.12277532036342914,-0.24445290743902343,-0.059286850791101534,0.008458972442285323,-0.013305104985124267,-0.003246345808326507,19.688428355031647
1633,C,693636920203205.0,4.342754192281232,7.369957534932212,-0.6403755666243303,171,1970-01-09 00:40:36.920203205,-0.12644958,-0.30529785,-0.06402588,11.420044685895894,0.33659409799723655,-101.1776123046875,17.453996658325195,-68.80134582519531,19738782.0,50354.0,0.14981055416702918,-0.15821853531402344,-0.03843292044780153,0.00686289456305335,-0.010138058914193462,-0.0024602906804818627,19.738782359054312
1633,C,693636970557209.0,6.645702127281232,8.728859534932212,1.73946143337567,171,1970-01-09 00:40:36.970557209,-0.6442108,-1.672699,0.05316162,9.420400504864919,1.7932528146579512,-101.18418884277344,17.47282600402832,-68.71588897705078,19789136.0,50354.0,0.2766563647576241,-0.08814928263202344,0.02767168486719848,0.010737157617765995,-0.006202802552427623,-0.0002709356282128429,19.789136362960562
1633,C,693637020911213.0,8.605388392281231,9.609734534932212,3.83708713337567,171,1970-01-09 00:40:37.020911213,0.2006073,-0.56077576,0.088912964,8.847660321511938,0.6021779280114249,-101.16575622558594,17.482616424560547,-68.68793487548828,19839490.0,50354.0,0.3839767060110242,-0.031758417103023434,0.14040076326509848,0.01663275882274226,-0.0030189161562292756,0.004231560026626841,19.839490366983227
1633,C,693637071265217.0,7.065166242281232,9.095436534932212,0.7700400333756698,171,1970-01-09 00:40:37.071265217,0.7956543,1.6112976,-0.22550964,9.186733497268682,1.8111323305068516,-101.15016174316406,17.455963134765625,-68.76851654052734,19889844.0,50354.0,0.3945375540343792,-0.022529107974023445,0.11599364067729849,0.01960065352516312,-0.0013667970188648093,0.006455241908057729,19.889844371005893
1633,C,693637121619221.0,5.155498292281232,11.160317134932212,-1.3825478666243303,171,1970-01-09 00:40:37.121619221,0.5794983,1.4155579,-0.055511475,8.075860506683362,1.5305894197373688,-101.14285278320312,17.439558029174805,-68.84075164794922,19940198.0,50354.0,0.30767967098667914,0.016509910146176563,-0.015421109717701524,0.017679723074355187,-0.00015154534371170095,0.002532114611969773,19.940198375028558
1633,C,693637171973225.0,4.537791992281232,11.274132534932212,-1.32738726662433,171,1970-01-09 00:40:37.171973225,-0.28016663,0.23454285,0.118011475,8.092114273086851,0.3839666616821766,-101.16083526611328,17.44308090209961,-68.85400390625,19990552.0,50354.0,0.24404796949442917,0.07136293933817658,-0.06822803684980153,0.013890846804392865,0.0022123747314675593,-0.0021060345631300245,19.990552379051223
1633,C,693637222327228.0,1.3462331922812316,7.513603534932212,3.10620643337567,171,1970-01-09 00:40:37.222327228,-1.1373138,0.34495544,-0.12834167,11.891522759206158,1.1953863473849877,-101.22261810302734,17.43343734741211,-68.87042999267578,20040906.0,50354.0,0.14814210207172915,-0.020450368969023427,0.04478533016129849,0.009874169431821168,0.001281825784184169,-0.000590217026296441,20.04090638202615
1633,C,693637272681232.0,3.4080769922812317,9.368874534932212,2.0917411033756697,171,1970-01-09 00:40:37.272681232,-1.1027222,1.4966583,-0.56988525,9.349126171161757,1.9444154688490043,-101.07634735107422,17.47044563293457,-68.87479400634766,20091260.0,50354.0,0.11969926751672914,-0.06841904963502343,0.1308687251327885,0.006743442162128615,-0.002237465352194088,0.004422442150139228,20.091260386048816
1633,C,693637323035236.0,6.4633290822812315,13.108269534932212,0.8861441333756699,171,1970-01-09 00:40:37.323035236,-0.7003174,0.6741333,-0.5992279,5.248574147318079,1.1419169160013614,-101.11994934082031,17.434558868408203,-68.9034194946289,20141614.0,50354.0,0.24853239073925915,0.07243785624697659,0.07497421660568848,0.009270968459911018,0.00010118149406914458,0.005182507744149635,20.14161439007148
1633,C,693637373389240.0,4.670222992281232,11.763512534932213,1.2418876333756699,171,1970-01-09 00:40:37.373389240,-0.079711914,0.206604,-0.3010559,6.770462255962917,0.37372965760607413,-101.10945129394531,17.411191940307617,-68.9059829711914,20191968.0,50354.0,0.2803094405812591,0.1327276571729766,0.05357745579149848,0.013314650787156691,0.0051654521313741625,0.003236545455943976,20.19196839397773
1633,C,693637423743244.0,-1.448764807718769,5.5576560349322115,-2.31856756662433,171,1970-01-09 00:40:37.423743244,0.09988403,0.30473328,0.58532715,15.69207372414568,0.6674182076597266,-101.11090850830078,17.436969757080078,-68.92755126953125,20242322.0,50354.0,0.08110665271272914,-0.05737413891652343,-0.027107570679401515,0.009099372980862743,0.0018971755291427217,0.0006664322974672653,20.242322398000397
1633,C,693637474097248.0,6.3203237122812315,6.5861895349322115,3.0047965333756697,171,1970-01-09 00:40:37.474097248,0.26057434,-0.07801819,-0.35714722,11.559079685199174,0.44893202312938213,-101.0956039428711,17.420204162597656,-68.9199447631836,20292676.0,50354.0,0.12265123854016913,-0.18772360008752348,0.01727718669589848,0.00513001242807422,-0.00617082577490489,-0.0002474995775526559,20.292676402023062
1633,C,693637524451252.0,6.275600192281232,5.757713534932213,-0.26317836662433036,171,1970-01-09 00:40:37.524451252,1.2438049,0.108047485,-0.7761383,12.66006819252707,1.4700733141601223,-101.0327377319336,17.381078720092773,-68.91769409179688,20343030.0,50354.0,0.3171275761451692,-0.18268675241002344,0.06902572058429847,0.011072311217332763,-0.00932582144483074,0.0021728482965935186,20.343030406045727
1633,C,693637574805256.0,5.856395492281232,6.278343534932212,3.5862632333756697,171,1970-01-09 00:40:37.574805256,1.751831,-1.0966492,-0.8396759,11.932046716484322,2.2308309970641993,-100.92581176757812,17.350303649902344,-68.85291290283203,20393384.0,50354.0,0.30544725535022915,-0.19043739115202343,0.08366530769019848,0.015674566532559643,-0.009394146562461654,0.0038443020188670095,20.393384410068393
1633,C,693637625159260.0,4.400691792281232,7.310417534932212,3.80913303337567,171,1970-01-09 00:40:37.625159260,2.2109985,-1.2305145,-0.39067078,11.137403570014294,2.5603327830690894,-100.79524230957031,17.34271240234375,-68.78575897216797,20443738.0,50354.0,0.25824268656342914,-0.15134496254402346,0.18619389180799847,0.014192021667560176,-0.008605054319005373,0.006794245065766104,20.443738413974643
1633,C,693637675513264.0,4.841243492281232,8.962380534932212,2.68214943337567,171,1970-01-09 00:40:37.675513264,1.7862701,-0.14863586,0.33624268,9.346881255265762,1.823708482429561,-100.70462799072266,17.360614776611328,-68.78138732910156,20494092.0,50354.0,0.23268420465942918,-0.08376896299502345,0.1634310186653985,0.012360066340317905,-0.005919463303296585,0.008802506370988715,20.494092417997308
1633,C,693637725867268.0,5.0675770922812315,10.760384334932212,2.08795693337567,171,1970-01-09 00:40:37.725867268,0.055038452,0.6034088,0.5465393,7.5437453765949645,0.8159881234187703,-100.50465393066406,17.25857162475586,-68.755859375,20544446.0,50354.0,0.24947437585752913,0.003090851128576562,0.12009696799569848,0.01213930658167546,-0.0020312328224615338,0.007138384120166439,20.544446422019973
1633,C,693637776221271.0,4.252620492281232,10.456871534932212,3.06352763337567,171,1970-01-09 00:40:37.776221271,-0.67059326,-0.14901733,0.43780518,8.065849545552082,0.8146010438445245,-100.5371322631836,17.281455993652344,-68.75236511230469,20594800.0,50354.0,0.23465461458652917,0.04071765103557656,0.12969892693709847,0.012188915592410057,0.0011029666589868834,0.00628911124672303,20.5948004249949
1633,C,693637826575275.0,4.919353192281232,10.821846534932213,3.5852103333756697,171,1970-01-09 00:40:37.826575275,-0.5425873,-0.49517822,0.33392334,7.600328583745863,0.806912166645425,-100.55763244628906,17.30240249633789,-68.73007202148438,20645154.0,50354.0,0.23092278145622916,0.04226508484497659,0.16739527578889848,0.011721842100168528,0.002089256341264687,0.007479940742032426,20.645154429017566
1633,C,693637876929279.0,6.054286692281232,11.488396534932212,2.63371803337567,171,1970-01-09 00:40:37.876929279,-0.6249695,-0.3901062,0.3686676,6.668537816358292,0.8238237205242696,-100.5839614868164,17.32410430908203,-68.71353149414062,20695508.0,50354.0,0.27628333137362915,0.0682357897699766,0.1565739594896985,0.012769928302717342,0.002782080520180677,0.008156573436609237,20.69550843304023
1633,C,693637927283283.0,7.256923442281232,9.748467534932212,2.06512977337567,171,1970-01-09 00:40:37.927283283,-0.7387848,-0.55618286,0.46598816,8.404409763060732,1.0355130707668567,-100.61370849609375,17.352121353149414,-68.68938446044922,20745862.0,50354.0,0.33513633755787914,0.04121132668697657,0.1183028912305785,0.015393713004688586,0.0027555500510367103,0.006920574470584415,20.745862437062897
1633,C,693637977637287.0,4.293697192281232,7.034554534932212,3.46455913337567,171,1970-01-09 00:40:37.977637287,-0.5784302,0.09461975,0.0017700195,11.390322696832294,0.5861207438157541,-100.64407348632812,17.35133171081543,-68.69426727294922,20796216.0,50354.0,0.2908099757163792,-0.07092305334702342,0.1392209776052785,0.015759450329306004,-0.0007480521421199996,0.006483678445680372,20.796216440969147
1633,C,693638027991291.0,0.7280995922812314,3.7517635349322127,3.02129127337567,171,1970-01-09 00:40:38.027991291,-0.12844849,1.0714874,0.0155181885,15.564328197438549,1.0792706227431386,-100.66700744628906,17.342191696166992,-68.74958801269531,20846570.0,50354.0,0.12643377764492914,-0.22190206995502343,0.1632942556907785,0.01050494597837766,-0.007372458129375634,0.007616426028694828,20.846570444991812
1633,C,693638078345295.0,0.4488484922812317,3.318077534932213,1.9999442333756698,171,1970-01-09 00:40:38.078345295,-0.5842285,1.2280731,0.27018738,16.065626008602518,1.386538026693507,-100.71583557128906,17.344072341918945,-68.81541442871094,20896924.0,50354.0,0.029632021925029135,-0.3154718113840234,0.1264196463534785,0.00392926863577284,-0.013529462210473183,0.007294126911768258,20.896924449014477
1633,C,693638128699299.0,1.4305531922812316,4.423439534932212,1.11044843337567,171,1970-01-09 00:40:38.128699299,-0.837265,0.05593872,0.5186615,14.726629330743881,0.9864844510698019,-100.63102722167969,17.45795249938965,-68.78479766845703,20947278.0,50354.0,0.04731769621222914,-0.2985610247320234,0.07831035617079848,0.0019373630535417517,-0.01545950471489371,0.0051544872735537215,20.947278453037143
1633,C,693638179053303.0,4.711940492281232,7.551720534932212,1.6292777333756698,171,1970-01-09 00:40:38.179053303,-1.3993378,-1.0955048,0.8620758,10.781490507717743,1.9752092877154868,-100.52263641357422,17.338369369506836,-68.6876220703125,20997632.0,50354.0,0.15464956349622916,-0.19197059492102345,0.0689780857002985,0.005084929697679855,-0.01235011458800476,0.0037082811009886084,20.997632457059808
1633,C,693638229407307.0,7.3262440922812315,9.602364534932212,2.79161598337567,171,1970-01-09 00:40:38.229407307,-1.5945435,-0.66737366,0.88960266,8.556199653427631,1.944054903579917,-100.59465026855469,17.388208389282227,-68.66178894042969,21047986.0,50354.0,0.30308537328552915,-0.06158080019602344,0.11130484110664848,0.01152439250335433,-0.00638366347486189,0.004538983248218504,21.047986460966058
1633,C,693638279761311.0,11.910945692281231,9.488365534932212,3.72400433337567,171,1970-01-09 00:40:38.279761311,-0.1954956,-0.54467773,0.22235107,10.187423371804318,0.6199454472027823,-100.59668731689453,17.404144287109375,-68.6358871459961,21098340.0,50354.0,0.4843347272059292,-0.012821889031023428,0.1640437727148485,0.019824875870073446,-0.001873236506669359,0.006932452050183831,21.098340464988723
1633,C,693638330115314.0,7.749461892281232,12.576424534932212,1.6399741333756697,171,1970-01-09 00:40:38.330115314,1.7588959,-0.12336731,-0.003692627,5.705705938941139,1.763220892488405,-100.5068130493164,17.405086517333984,-68.62948608398438,21148694.0,50354.0,0.4949900817565292,0.062056019588976566,0.13504888585739847,0.024656460715247817,0.0012395677050575861,0.007530255864873462,21.14869446796365
1633,C,693638380469318.0,4.243297292281232,11.634926534932212,0.12445593337566985,171,1970-01-09 00:40:38.380469318,2.2296753,0.1006012,-0.43081665,7.297352796315103,2.273142215258155,-100.61556243896484,17.438034057617188,-68.69636535644531,21199048.0,50354.0,0.3019416979897292,0.11609998588597657,0.04442305579059848,0.02006435141867155,0.004485433749842896,0.00451856507487162,21.199048471986316
1633,C,693638430823322.0,1.4040486922812319,12.931160534932213,3.2642874933756696,171,1970-01-09 00:40:38.430823322,2.0400085,0.45637512,0.13725281,7.44407755322051,2.094934668212868,-100.5210189819336,17.440587997436523,-68.72120666503906,21249402.0,50354.0,0.14218322985332918,0.1250311741579766,0.08531839325531848,0.011181733308304681,0.00607095921642661,0.0032665004626290513,21.24940247600898
1633,C,693638481177326.0,1.721965592281232,10.196709534932213,-0.5210823666243303,171,1970-01-09 00:40:38.481177326,-1.1543732,5.6805267,0.26339722,9.79543114995037,5.802614856234632,-100.6670913696289,17.40131378173828,-69.01634216308594,21299756.0,50354.0,0.07870366164242916,0.0888211847489766,0.06906567547621847,0.005561269267188708,0.005384160840200361,0.0038869276984539063,21.299756480031647
1633,C,693638531531330.0,6.934581522281232,12.715660734932213,-3.30701686662433,171,1970-01-09 00:40:38.531531330,-1.08461,2.704712,-0.53907776,7.878785148004276,2.9635199824483416,-100.76134490966797,17.349687576293945,-69.15032196044922,21350110.0,50354.0,0.21794588670333917,0.0833955462843766,-0.09638005439550153,0.00746874567870141,0.004335900637226734,-0.0006876941180507895,21.350110484054312
1633,C,693638581885334.0,4.879665192281232,13.357170834932212,2.69164039337567,171,1970-01-09 00:40:38.581885334,-0.88908386,0.7420807,-0.47595215,5.099932730415261,1.2520720125115057,-100.81578826904297,17.319366455078125,-69.18384552001953,21400464.0,50354.0,0.2974472895325392,0.16296648043447656,-0.01549333346698152,0.012976053998090709,0.006202656746700566,-0.002816636286213736,21.400464487960562
1633,C,693638632239338.0,0.27331119228123146,9.213509534932212,-1.1319527666243303,171,1970-01-09 00:40:38.632239338,-0.041992188,1.5510864,0.63230896,11.528183053740301,1.6755437878534445,-100.843505859375,17.335851669311523,-69.26986694335938,21450818.0,50354.0,0.12973648643412916,0.07479281967207659,0.039268255378718475,0.01075520592751281,0.005986065898782689,0.0005985812089718013,21.450818491983227
1633,C,693638682593342.0,1.764095192281232,5.062294534932212,-3.96224456662433,171,1970-01-09 00:40:38.682593342,-0.39559937,0.3190155,-0.006866455,15.341504551548521,0.5082488553739339,-100.86815643310547,17.332508087158203,-69.28620910644531,21501172.0,50354.0,0.051295780544129144,-0.13404728093302343,-0.12825660625920152,0.0045578493857116095,-0.0014918495711668588,-0.0022404597101179217,21.501172496005893
1633,C,693638732947346.0,0.7295031922812321,0.7878045349322136,-0.25438926662433037,171,1970-01-09 00:40:38.732947346,0.8854523,-0.49047852,-0.9685669,18.519702356942425,1.4009699475478732,-100.76109313964844,17.32412338256836,-69.23580169677734,21551526.0,50354.0,0.06278132652812916,-0.34618125571802344,-0.10616219001970155,0.0028721193247582474,-0.012090713867263408,-0.005901962033913942,21.551526500028558
1633,C,693638783301350.0,3.640254692281232,6.947914534932213,-0.4397225666243303,171,1970-01-09 00:40:38.783301350,2.1890717,-1.5552216,-0.17419434,11.926832958814517,2.690927869887167,-100.71764373779297,17.26552963256836,-69.18098449707031,21601880.0,50354.0,0.11001739425962917,-0.2987070009780234,-0.01747565362570153,0.004350553393273391,-0.01623635163883637,-0.0031128299894603133,21.601880504051223
1633,C,693638833655353.0,3.3301503922812317,8.146385534932213,2.0908866133756696,171,1970-01-09 00:40:38.833655353,2.1910248,-3.3808136,0.029891968,10.527293349600395,4.028819157260712,-100.33734130859375,17.33310317993164,-68.94208526611328,21652234.0,50354.0,0.17549388881402914,-0.1134400071410234,0.04157135720505847,0.007188317573945496,-0.010376625223413241,0.0006066575290174698,21.65223450702615
1633,C,693638884009357.0,2.435970192281232,9.736595534932212,2.73019935337567,171,1970-01-09 00:40:38.884009357,1.7326508,-2.803238,0.5091858,9.401112641271697,3.334590268429733,-100.20902252197266,17.383148193359375,-68.80235290527344,21702588.0,50354.0,0.14517361795752914,-0.043229385604023424,0.12138048138489849,0.008073445817987523,-0.003944465301142044,0.0041026384401793466,21.702588511048816
1633,C,693638934363361.0,5.005351792281232,12.902748834932211,2.11945106337567,171,1970-01-09 00:40:38.934363361,-0.71910095,0.4854889,0.40045166,5.4887269362194395,0.9555978130525772,-100.08003997802734,17.40801239013672,-68.77922821044922,21752942.0,50354.0,0.18735016360532916,0.07652157320007655,0.12209964854254848,0.008371951248408085,0.0008381974071058296,0.006130099231183333,21.75294251507148
1633,C,693638984717365.0,7.406017092281232,13.976891234932213,1.1033225333756698,171,1970-01-09 00:40:38.984717365,-2.746521,1.8090363,0.31718445,4.4126013552429715,3.3040272265041177,-100.24616241455078,17.407657623291016,-68.8754653930664,21803296.0,50354.0,0.31248103440662917,0.1832794980389766,0.08113977084540848,0.012584250072347074,0.0065410115705856415,0.005116958861930593,21.80329651897773
1633,C,693639035071369.0,7.397685792281232,12.475075534932213,2.8781638333756696,171,1970-01-09 00:40:39.035071369,-1.6753998,-1.7576752,0.054016113,5.715485958674863,2.4288483565259296,-100.30294799804688,17.425989151000977,-68.78533935546875,21853650.0,50354.0,0.37271282752462914,0.17251196736487656,0.10024188225569848,0.01725112586184329,0.008957761724472813,0.00456664588012657,21.853650523000397
1633,C,693639085425373.0,5.345363392281232,10.911217534932213,4.585469733375669,171,1970-01-09 00:40:39.085425373,-0.5014038,-1.6303253,0.078308105,7.648503371267345,1.707483093264241,-100.30305480957031,17.44442367553711,-68.70201873779297,21904004.0,50354.0,0.3208317493197292,0.09532750061997661,0.18791190231009847,0.01746137181121041,0.0067433942854546475,0.00725484783401307,21.904004527023062
1633,C,693639135779377.0,2.037669892281232,5.797768534932212,5.51047283337567,171,1970-01-09 00:40:39.135779377,0.109176636,1.5452881,-0.047561646,13.527298320017476,1.5498699816501111,-100.32134246826172,17.42825698852539,-68.78124237060547,21954358.0,50354.0,0.18588262900542918,-0.07278705771902341,0.2541855460030985,0.012757547903092515,0.0005675007309172987,0.01113068745618136,21.954358531045727
1633,C,693639186133381.0,-0.46106380771876854,3.7646415349322115,4.61203533337567,171,1970-01-09 00:40:39.186133381,0.9528351,2.4621124,-0.3529663,16.18270730645007,2.6635460211833135,-100.31067657470703,17.388845443725586,-68.90486145019531,22004712.0,50354.0,0.03969421139102915,-0.25271640167102344,0.2548543881142985,0.005679348110661632,-0.008195200597063211,0.012816098421273705,22.004712535068393
1633,C,693639236487385.0,-0.4127543077187683,3.851448534932212,-0.08587116662433036,171,1970-01-09 00:40:39.236487385,1.587265,1.5911255,-0.18725586,16.128774886860448,2.255250605604528,-100.24664306640625,17.58100700378418,-68.98243713378906,22055066.0,50354.0,-0.022000118692370868,-0.30171890031102344,0.11395523522629848,0.0004454841718741195,-0.013959017598001996,0.00928551988684621,22.055066538974643
1633,C,693639286841389.0,0.7420001922812318,5.595314534932212,0.02100143337566962,171,1970-01-09 00:40:39.286841389,0.89990234,-0.23449707,0.28378296,14.065972437117209,0.9722889826396379,-100.21235656738281,17.780059814453125,-68.9770278930664,22105420.0,50354.0,0.008289423635629144,-0.25562804619002344,-0.0016332252740015316,-0.0003451941694435864,-0.014032324072056858,0.0028279312445689806,22.105420542997308
1633,C,693639337195393.0,2.758113592281232,6.949669534932212,-0.09696436662433028,171,1970-01-09 00:40:39.337195393,-0.006881714,-0.6197052,0.38212585,12.103383806428166,0.7280810793674289,-100.26502990722656,17.83150863647461,-68.96720886230469,22155774.0,50354.0,0.08812236475392915,-0.1776241360730234,-0.0019125187704015295,0.0024273595962839094,-0.01090799019283673,-8.927119780593588e-05,22.155774547019973
1633,C,693639387549396.0,6.291743992281232,7.573769534932213,-0.025995666624330394,171,1970-01-09 00:40:39.387549396,-1.2318268,-1.1008606,0.42642212,10.836486038088069,1.70620255252883,-100.31041717529297,17.862316131591797,-68.91431427001953,22206128.0,50354.0,0.22784826440652917,-0.12781257453802342,-0.00309576475710153,0.00795519253037286,-0.007689980063054326,-0.00012609355437194454,22.2061285499949
1633,C,693639437903400.0,11.220439692281232,7.964394534932213,1.7836966733756698,171,1970-01-09 00:40:39.437903400,-2.6943665,-1.1252899,-0.16822815,11.151377599178966,2.9247545035125055,-100.42681121826172,17.86417007446289,-68.85458374023438,22256482.0,50354.0,0.44090424862622923,-0.1022648432130234,0.04425363824697848,0.01683718202062576,-0.005792659146718106,0.001036231780854632,22.256482554017566
1633,C,693639488257404.0,7.352107792281232,11.085945834932211,3.80585243337567,171,1970-01-09 00:40:39.488257404,-0.8019104,1.9461365,-0.47883606,7.207529209402752,2.1586550300167775,-100.49630737304688,17.822954177856445,-68.95053100585938,22306836.0,50354.0,0.4676010280188292,-0.013838780507923438,0.1407280778606785,0.02287343735009264,-0.0029231409344222786,0.0046572846664424804,22.30683655804023
1633,C,693639538611408.0,3.8559529922812317,11.146202534932211,-0.4640602666243301,171,1970-01-09 00:40:39.538611408,1.8449097,-0.827301,0.13323975,8.056401495461465,2.026295036941845,-100.39138793945312,17.837013244628906,-68.90908813476562,22357190.0,50354.0,0.28218534637292914,0.06626959950807652,0.08413630138229848,0.0188773715480613,0.0013200507299668545,0.005661410476200432,22.357190562062897
1633,C,693639588965412.0,2.294444792281232,11.810311034932212,1.5898795333756697,171,1970-01-09 00:40:39.588965412,1.0643463,-1.9364777,-0.27694702,7.726006349587219,2.2269886799909555,-100.30669403076172,17.840778350830078,-68.806396484375,22407544.0,50354.0,0.15484856502192915,0.08450694214847655,0.028344751678998477,0.011003202787188348,0.003796100989287037,0.002831935472924274,22.407544565969147
1633,C,693639639319416.0,5.191005492281231,13.632775034932212,8.90930703337567,171,1970-01-09 00:40:39.639319416,-1.2200928,0.5471039,0.109069824,8.033476938300135,1.3415831485653213,-100.3766860961914,17.841236114501953,-68.83570098876953,22457898.0,50354.0,0.18846118181442917,0.1471113779809766,0.26433802019109853,0.008643509496098992,0.005831454445899243,0.007368874147373433,22.457898569991812
1633,C,693639689673420.0,4.002589992281232,9.483544534932212,1.9819541133756697,171,1970-01-09 00:40:39.689673420,-1.6637115,1.6415405,0.02809143,9.053762144406074,2.337387493936755,-100.29808044433594,17.813583374023438,-68.86325073242188,22508252.0,50354.0,0.23146715351482916,0.0885303778104766,0.2742092818917585,0.010572535698584738,0.005932752485561417,0.013559005424540093,22.508252574014477
1633,C,693639740027424.0,4.770290192281232,10.610085234932212,1.3346000333756698,171,1970-01-09 00:40:39.740027424,-1.1540527,2.0232391,0.0060577393,7.825953537782284,2.329242534892304,-100.33380889892578,17.7017765045166,-68.9512939453125,22558606.0,50354.0,0.22087480440672916,0.012428116715876583,0.08350088375275848,0.011388613474591074,0.002541832016689994,0.009006068840432006,22.558606578037143
1633,C,693639790381428.0,4.061717792281232,12.523216934932211,0.11186743337566973,171,1970-01-09 00:40:39.790381428,-0.28807068,1.4259186,0.07369995,6.5940881679426555,1.4565919995426395,-100.37080383300781,17.692590713500977,-69.02560424804688,22608960.0,50354.0,0.22236346502732918,0.08895794873067656,0.03641771141039848,0.011159409909541286,0.0025525969697478687,0.003019190470422803,22.608960582059808
1633,C,693639840735432.0,2.4816091922812316,8.665856534932212,-3.0283150666243306,171,1970-01-09 00:40:39.840735432,0.42477417,0.32789612,-0.54115295,11.689292914998846,0.7620993874186921,-100.35316467285156,17.66303062438965,-69.03743743896484,22659314.0,50354.0,0.16474134349032918,0.040008102750776556,-0.07342740206230154,0.009746137764049086,0.0032469782781485456,-0.0009317929815429635,22.659314585966058
1633,C,693639891089436.0,5.939265992281232,6.336281534932212,-2.57778406662433,171,1970-01-09 00:40:39.891089436,0.05682373,-0.6768799,-0.87205505,12.823237166586427,1.1053847047727887,-100.33724212646484,17.62621307373047,-68.9942855834961,22709668.0,50354.0,0.21201237452172916,-0.11576036981502344,-0.14114475787780154,0.009485528358389594,-0.001907214827876544,-0.005402283270811976,22.709668589988723
1633,C,693639941443439.0,5.783641592281231,4.582817534932213,0.26271583337566984,171,1970-01-09 00:40:39.941443439,0.15960693,-1.3804474,-1.2778778,13.74068909380826,1.8878773975032448,-100.30409240722656,17.575716018676758,-68.9110336303711,22760022.0,50354.0,0.2951476442565292,-0.21855904271802343,-0.058286472908501516,0.012768767792780212,-0.008417159849344522,-0.005021080097506752,22.76002259296365
1633,C,693639991797443.0,3.584605892281232,6.421166534932212,0.29436253337566987,171,1970-01-09 00:40:39.991797443,0.85191345,-2.8873444,-0.40122986,12.287769545916985,3.0370215032261267,-100.21464538574219,17.505739212036133,-68.75810241699219,22810376.0,50354.0,0.23586436691882914,-0.21642189307302342,0.01402556203969848,0.013369289405361999,-0.010951515020411187,-0.0011143569529438542,22.810376596986316
1633,C,693640042151447.0,3.3190571922812317,8.568230534932212,1.2468467333756699,171,1970-01-09 00:40:40.042151447,1.2496643,-3.2879791,-0.08528137,10.193975938592386,3.5184855174919187,-100.02045440673828,17.572980880737305,-68.5633544921875,22860730.0,50354.0,0.17381352548002915,-0.11608114997202344,0.03880302570899848,0.010314460296926056,-0.008371429114745145,0.0013300653537489434,22.86073060100898
1633,C,693640092505451.0,2.6096455922812316,7.1680385349322115,1.0037894333756698,171,1970-01-09 00:40:40.092505451,0.40092468,-2.4030151,0.4967041,11.769589248761273,2.4863501629533045,-99.8981704711914,17.683673858642578,-68.42369842529297,22911084.0,50354.0,0.14926695000692916,-0.09727715362802344,0.05666426677029849,0.008134197131335149,-0.00537172200973838,0.00240358002275126,22.911084605031647
1633,C,693640142859455.0,4.887538692281232,9.469963534932212,4.23248813337567,171,1970-01-09 00:40:40.142859455,-1.1157532,0.56777954,1.0542755,9.02133052057432,1.636696562974671,-99.96578979492188,17.730703353881836,-68.46260070800781,22961438.0,50354.0,0.18875660873242914,-0.07457422188702344,0.13183376029809848,0.008510419138380824,-0.004326702081342336,0.0047458148275010305,22.961438609054312
1633,C,693640193213459.0,6.415599592281232,12.051750834932212,4.17213963337567,171,1970-01-09 00:40:40.193213459,-1.0967865,1.5140076,0.7109833,6.327302821688708,2.0001642163379736,-100.04647064208984,17.752559661865234,-68.54736328125,23011792.0,50354.0,0.2845791125904292,0.04838300269007659,0.2116033132834985,0.011917173455745604,-0.0006594163257215308,0.008646715201563867,23.011792612960562
1633,C,693640243567463.0,5.171062192281232,12.311913234932213,1.8741812933756699,171,1970-01-09 00:40:40.243567463,-0.2015686,-0.17782593,0.20776367,6.027233952725611,0.3397318125495371,-99.93426513671875,17.681690216064453,-68.50353240966797,23062146.0,50354.0,0.29171738374992917,0.1199347702869766,0.1522282219728185,0.014509416888361201,0.004237736570243268,0.009160186563148293,23.062146616983227
1633,C,693640293921467.0,4.677699792281231,11.927483334932212,2.2892661333756696,171,1970-01-09 00:40:40.293921467,-0.3844452,-0.060317993,0.12158203,6.510696671523462,0.4076991073101693,-99.73461151123047,17.69607925415039,-68.43519592285156,23112500.0,50354.0,0.24796228048532915,0.1168060874394766,0.10482311586331848,0.0135875149064511,0.005960424574978912,0.006471781532700421,23.112500621005893
1633,C,693640344275471.0,3.874538192281232,10.372139534932213,2.54565956337567,171,1970-01-09 00:40:40.344275471,-0.24150085,0.47494507,0.22212219,8.242043637158588,0.5772640187630124,-99.7547607421875,17.7030029296875,-68.46173858642578,23162854.0,50354.0,0.21531969573732915,0.0679684049945766,0.12172892426710848,0.011664050315357869,0.004652067396012157,0.00570390071436376,23.162854625028558
1633,C,693640394629475.0,3.494853692281232,7.352043534932212,2.2578635433756697,171,1970-01-09 00:40:40.394629475,0.40118408,0.5600128,0.2856903,11.23185666618067,0.7457760721043392,-99.5207290649414,17.68511199951172,-68.42530059814453,23213208.0,50354.0,0.18553917947762918,-0.0472274428500234,0.12093830125867848,0.010092423901287007,0.0005221952039134159,0.006109632737062738,23.213208629051223
1633,C,693640444983478.0,2.3769031922812323,4.124687534932212,1.5823264333756697,171,1970-01-09 00:40:40.444983478,0.9956207,0.36584473,0.11651611,14.667036752612368,1.0670890068906131,-99.32383728027344,17.673404693603516,-68.39873504638672,23263562.0,50354.0,0.14783322308262917,-0.20451954185402343,0.09668446304466848,0.008393316979259624,-0.006338233833893788,0.005479088336865366,23.26356263202615
1633,C,693640495337482.0,1.047023492281232,3.0002065349322127,1.54128029337567,171,1970-01-09 00:40:40.495337482,0.6510315,0.78923035,0.018966675,16.15941256839458,1.0232723460125013,-99.15597534179688,17.737302780151367,-68.39482116699219,23313916.0,50354.0,0.08620420213722917,-0.3140857420030234,0.07864304655941848,0.0058923602547603735,-0.013056925231668869,0.004414220709302097,23.313916636048816
1633,C,693640545691486.0,3.510539792281232,4.286690534932212,0.7300010333756699,171,1970-01-09 00:40:40.545691486,0.16616821,1.0355988,0.17701721,14.293791964825335,1.063678448222125,-99.1078109741211,17.613983154296875,-68.43275451660156,23364270.0,50354.0,0.11474577081542917,-0.3100069924720234,0.057184049963618484,0.005059317469029078,-0.015712782775878256,0.0034197188091605016,23.36427064007148
1633,C,693640596045490.0,6.273921732281232,7.708306034932212,0.9274955333756698,171,1970-01-09 00:40:40.596045490,-0.09931946,0.19534302,0.06694031,10.529768413843883,0.22913807125902952,-99.11599731445312,17.615737915039062,-68.44342803955078,23414624.0,50354.0,0.24634338780390916,-0.19147117136052344,0.041730791061098484,0.00909114174655908,-0.012625715730812033,0.002490378952479299,23.41462464397773
1633,C,693640646399494.0,8.198024492281231,9.162804534932212,1.9652762633756697,171,1970-01-09 00:40:40.646399494,0.4048462,-0.14376831,0.10179138,9.102812802749295,0.4415102010792055,-99.09375,17.621896743774414,-68.43682098388672,23464978.0,50354.0,0.3643601900958091,-0.06870524918252344,0.07283131552680848,0.015375683980781209,-0.006550461740012292,0.002884330157563734,23.464978648000397
1633,C,693640696753498.0,6.8137013922812315,9.596214534932212,0.7189689333756699,171,1970-01-09 00:40:40.696753498,1.5458679,0.5347748,0.022018433,8.697000988743367,1.635902338881275,-99.02490997314453,17.6187744140625,-68.46470642089844,23515332.0,50354.0,0.37795022259562916,-0.021173376878023436,0.06758124131860847,0.01868914926033234,-0.0022628741683263886,0.003535166943697063,23.515332652023062
1633,C,693640747107502.0,2.0006521922812315,10.284310034932211,0.4655356333756697,171,1970-01-09 00:40:40.747107502,2.2857666,1.9194031,-0.10572815,9.331072440005624,2.986639524895429,-98.94044494628906,17.598567962646484,-68.56330108642578,23565686.0,50354.0,0.22191898019852915,0.007062767095476556,0.02982227147709848,0.015102906918748526,-0.00035526282249518287,0.002452328241657514,23.565686656045727
1633,C,693640797461506.0,2.5733296922812317,11.413750534932213,-2.35450216662433,171,1970-01-09 00:40:40.797461506,0.92640686,2.5597687,-0.11288452,9.195853479186715,2.724589580580969,-98.93392181396484,17.573110580444336,-68.69500732421875,23616040.0,50354.0,0.11515914190762915,0.05282287096747657,-0.04755851040760152,0.008486615880266748,0.001507740709510971,-0.0004465452875532751,23.616040660068393
1633,C,693640847815510.0,3.816646292281232,11.335259134932212,-2.2493995666243305,171,1970-01-09 00:40:40.847815510,-1.4202118,1.4109039,-0.29745483,8.71743698345993,2.023890003874909,-99.02623748779297,17.547401428222656,-68.76565551757812,23666394.0,50354.0,0.16088042536332914,0.07928261645817658,-0.11591243393800153,0.006949848185180917,0.0033260198569156694,-0.004115707965789249,23.666394663974643
1633,C,693640898169514.0,4.072887192281232,9.012932534932212,3.43556743337567,171,1970-01-09 00:40:40.898169514,-1.9203186,0.4113922,-0.45220947,9.52937812163648,2.0152817352629584,-99.12754821777344,17.521831512451172,-68.78321838378906,23716748.0,50354.0,0.1986347845408292,0.018837221672176552,0.029864148381198472,0.009051514439756995,0.002470363164607901,-0.002166437685463631,23.716748667997308
1633,C,693640948523518.0,6.294963592281232,11.076622534932213,2.83086159337567,171,1970-01-09 00:40:40.948523518,-1.2146149,1.1560822,0.050430298,7.0704749854737665,1.6776050260461248,-99.2064208984375,17.51511001586914,-68.8434829711914,23767102.0,50354.0,0.2610313792029292,0.012325527993976576,0.15776988360651847,0.011573015004576605,0.0007845845483447374,0.00472406202335475,23.767102672019973
1633,C,693640998877521.0,4.037288392281232,11.795601534932214,-0.5608772666243302,171,1970-01-09 00:40:40.998877521,0.048965454,0.7886963,0.22261047,7.472815012097632,0.8209719183216543,-99.21682739257812,17.519784927368164,-68.88617706298828,23817456.0,50354.0,0.2601351082153292,0.08238478540697663,0.057151395394618484,0.013121408653729493,0.002384521560495799,0.005411073041411625,23.8174566749949
1633,C,693641049231525.0,2.3972127922812323,10.898049034932212,-0.77006006662433,171,1970-01-09 00:40:41.049231525,0.66859436,-0.15335083,-0.14733887,8.978917330650697,0.7016007681711698,-99.18062591552734,17.513734817504883,-68.87699127197266,23867810.0,50354.0,0.16200143632372915,0.07788884039747662,-0.03350900923920152,0.010628131781859873,0.00403520907687872,0.0005952443562349329,23.867810679017566
1633,C,693641099585529.0,2.2152516922812318,10.063164534932213,-1.7112375666243298,171,1970-01-09 00:40:41.099585529,0.22544861,-0.42819214,-0.09358215,10.0923022084203,0.4928825451437028,-99.1624526977539,17.512529373168945,-68.85404968261719,23918164.0,50354.0,0.11612801832782917,0.03427127404847659,-0.062471630512301514,0.007002465279762284,0.002823855201405764,-0.002416504567023592,23.91816468304023
1633,C,693641149939533.0,3.475612392281232,4.167427534932212,0.9288077333756699,171,1970-01-09 00:40:41.149939533,-0.036193848,-0.6367645,-0.34335327,14.395096264643016,0.724341418885452,-99.07479858398438,17.383941650390625,-68.79463958740234,23968518.0,50354.0,0.14327888505702915,-0.13518558345702342,-0.019699235911701512,0.006531087606520579,-0.0025407195679789836,-0.0020688159039571243,23.968518687062897
1633,C,693641200293537.0,4.700786392281232,4.670799534932213,-1.0626778666243304,171,1970-01-09 00:40:41.200293537,0.7381897,-0.51846313,-0.19126892,14.035080349189773,0.9221235546896377,-99.0293960571289,17.37857437133789,-68.76622772216797,24018872.0,50354.0,0.20585719219892917,-0.27094915706202344,-0.0033704483448015253,0.008790199017073263,-0.010225254362048044,-0.000580825440525977,24.018872690969147
1633,C,693641250647541.0,4.789638292281232,7.8813555349322115,-1.1260323666243304,171,1970-01-09 00:40:41.250647541,0.42619324,-1.0224304,-0.40248108,11.000151189709616,1.1785565834629341,-98.99130249023438,17.366703033447266,-68.71002960205078,24069226.0,50354.0,0.23894042228322918,-0.17744359180602343,-0.05510515754250154,0.011198669539817302,-0.011289184238250817,-0.0014722403294246294,24.069226694991812
1633,C,693641301001545.0,3.928447492281232,10.275383534932212,0.4709525333756699,171,1970-01-09 00:40:41.301001545,0.024047852,-2.25943,-1.0279541,8.53848537026163,2.482396393768051,-99.07460021972656,17.368974685668945,-68.62109375,24119580.0,50354.0,0.2194952457979292,-0.03633698043802345,-0.016492944961701526,0.011542034815279325,-0.005382353467388368,-0.0018026254267483207,24.119580699014477
1633,C,693641351355549.0,3.313014792281232,7.319145534932213,0.4480185333756699,171,1970-01-09 00:40:41.351355549,0.45455933,-4.661484,-1.1174011,11.484642574533504,4.8150433523517995,-99.00833129882812,17.341049194335938,-68.38003540039062,24169934.0,50354.0,0.1823182959384292,-0.05049174160802341,0.023136934547598482,0.010116459540296297,-0.002186086734953322,0.00016727572580412767,24.169934703037143
1633,C,693641401709553.0,3.486873392281232,5.468300534932212,4.42902143337567,171,1970-01-09 00:40:41.401709553,0.09436035,-3.9849548,0.14447021,13.204970213174192,3.9886890421882484,-98.94245910644531,17.379276275634766,-68.17503356933594,24220288.0,50354.0,0.17120078482272916,-0.17151967029902343,0.1227892352428985,0.008900549896323684,-0.005589581317583719,0.003673983176815343,24.220288707059808
1633,C,693641452049968.0,4.032939692281232,8.897667534932213,4.47218843337567,171,1970-01-09 00:40:41.452049968,-0.69355774,0.26608276,0.5904541,9.814373251057157,0.9489248748399082,-98.9826889038086,17.406360626220703,-68.19361877441406,24270629.0,50341.0,0.1892774552449795,-0.13174320069747755,0.2240479029510646,0.009073417541624261,-0.007633278094417426,0.008730064186911147,24.270629122038372
1633,C,693641502403972.0,5.249294092281232,10.874550534932212,3.07703163337567,171,1970-01-09 00:40:41.502403972,-1.0665588,2.1102295,0.77763367,7.417648581485351,2.489042052928266,-99.07061004638672,17.428211212158203,-68.3092269897461,24320983.0,50354.0,0.23369879999392917,0.0043359343449765695,0.1900667136205985,0.010649273178150004,-0.003207732744956918,0.010426163701424762,24.320983126061037
1633,C,693641552757975.0,5.158214292281232,11.693672834932212,2.88715126337567,171,1970-01-09 00:40:41.552757975,-0.7845764,1.2575226,0.5085907,6.623150796301709,1.567031498430778,-99.13059997558594,17.44338035583496,-68.3785171508789,24371337.0,50354.0,0.2620298385981292,0.07473095978307655,0.1501602327915085,0.012480959933832254,0.0019906671934619936,0.008565893829817619,24.371337129035965
1633,C,693641603111979.0,4.438411492281231,12.279824034932211,2.79723121337567,171,1970-01-09 00:40:41.603111979,-0.35995483,0.42512512,0.25146484,6.267877589769588,0.6111737993824415,-99.15581512451172,17.452411651611328,-68.40259552001953,24421691.0,50354.0,0.24161424737792914,0.11011153069257655,0.1431156976171685,0.012680247152619221,0.004653779382705519,0.007383808099899261,24.42169113305863
1633,C,693641653465983.0,4.203792292281232,9.939018534932213,1.4043784333756697,171,1970-01-09 00:40:41.653465983,0.19264221,-0.2776947,0.34188843,8.608591783193148,0.48074220331653744,-99.08961486816406,17.451435089111328,-68.37515258789062,24472045.0,50354.0,0.21758476468392915,0.06593459938147658,0.10578392607625849,0.011561253526681407,0.004432313416874435,0.006266545825729412,24.47204513696488
1633,C,693641703819987.0,3.941859992281232,5.5958485349322125,1.5508322933756697,171,1970-01-09 00:40:41.703819987,0.4280243,-0.8960571,0.1353302,12.851543995237158,1.0022162395825265,-98.9232406616211,17.336931228637695,-68.2906494140625,24522399.0,50354.0,0.2050830875684292,-0.1023478517820234,0.07440334046741848,0.010641508516157628,-0.0009167764556885671,0.004536574809770154,24.522399140987545
1633,C,693641754173991.0,2.787700392281232,3.5141535349322126,2.92656473337567,171,1970-01-09 00:40:41.754173991,0.5601654,-0.68255615,-0.13447571,15.12614586101052,0.8931695750751851,-98.8843765258789,17.3355712890625,-68.25424194335938,24572753.0,50354.0,0.16943014180212917,-0.2641066778870234,0.11272742494251849,0.009429119575862548,-0.009226225693477592,0.004711391280725983,24.57275314501021
1633,C,693641804527995.0,3.160060692281232,3.4699025349322117,1.9699912333756697,171,1970-01-09 00:40:41.804527995,0.1499176,0.66581726,-0.3086853,15.075821871085925,0.7490490804611922,-98.70499420166016,17.22151756286621,-68.23231506347656,24623107.0,50354.0,0.14974678082602916,-0.3176316203290234,0.12328058957489849,0.008035917381009143,-0.014646425134185412,0.005941973781505008,24.623107149032876
1633,C,693641854881999.0,4.657375192281232,4.002831534932213,2.2585959633756696,171,1970-01-09 00:40:41.854881999,-0.038528442,0.60469055,-0.037826538,14.265518720456377,0.6070963260301576,-98.7160873413086,17.215070724487305,-68.26331329345703,24673461.0,50354.0,0.19681958326562918,-0.30532817432302345,0.10646313985260848,0.008725501348735681,-0.015684258749954584,0.0057842578757963435,24.67346115305554
1633,C,693641905236003.0,5.921992992281232,8.550041534932213,2.03633643337567,171,1970-01-09 00:40:41.905236003,0.5027313,1.2731018,-0.12004089,9.61147334799033,1.3740221135174362,-98.71015930175781,17.19949722290039,-68.3282241821289,24723815.0,50354.0,0.2663567527827292,-0.1774255147200234,0.10813351295300848,0.01166139061268952,-0.01215428962903679,0.005402899927687018,24.72381515696179
1633,C,693641955590007.0,7.802486192281232,9.111824534932213,0.6875663333756699,171,1970-01-09 00:40:41.955590007,1.351532,1.487915,-0.04977417,9.246981688658533,2.0107230695071334,-98.66522216796875,17.185794830322266,-68.40481567382812,24774169.0,50354.0,0.3455412124297292,-0.04879639795902341,0.06857969995849848,0.015405755070154063,-0.005695589095520362,0.004449108561473011,24.774169160984457
1633,C,693642005944011.0,7.117488622281232,10.357262534932213,-0.8418068666243301,171,1970-01-09 00:40:42.005944011,1.5207977,1.2992554,0.07640076,8.434852694552111,2.001681122177813,-98.60921478271484,17.179813385009766,-68.47264099121094,24824523.0,50354.0,0.37564020590623914,-0.003295994842023398,-0.0038833139056015198,0.01815718456944468,-0.0013115301735519556,0.0016288609116537867,24.824523165007122
1633,C,693642056298014.0,3.483089192281232,10.623268834932212,0.5437369333756699,171,1970-01-09 00:40:42.056298014,1.3981171,0.03425598,0.2501526,8.36222223413788,1.4207326352149903,-98.67091369628906,17.32379913330078,-68.5149917602539,24874877.0,50354.0,0.26689074763723913,0.03475763829907658,-0.00750450670940152,0.016177001817364152,0.0007921097973182281,-0.00028671115962393157,24.87487716798205
1633,C,693642106652018.0,4.0195729922812315,11.397255534932214,1.9837393933756697,171,1970-01-09 00:40:42.106652018,0.7287903,1.5316772,0.41363525,7.24339208069855,1.745927967132806,-98.53734588623047,17.43741798400879,-68.56119537353516,24925231.0,50354.0,0.18889452582072916,0.060941542060076605,0.06363427147861848,0.011475305829851267,0.0024094182639024,0.0014131790875945756,24.925231172004715
1633,C,693642157006022.0,4.4192006922812315,12.847267834932213,-1.9881385666243303,171,1970-01-09 00:40:42.157006022,0.15821838,0.68292236,-0.06340027,7.232183409725333,0.7038718631923475,-98.53988647460938,17.42921257019043,-68.5960922241211,24975585.0,50354.0,0.21246300505622914,0.11693516488307663,-0.00011075798488152719,0.01010497855488918,0.00447840185070777,0.0015993314992318155,24.97558517602738
1633,C,693642207360026.0,3.179546192281232,8.731056534932213,3.3415580033756695,171,1970-01-09 00:40:42.207360026,-0.64112854,-0.407135,-0.19197083,10.06372616530684,0.7833629507440472,-98.56517791748047,17.422748565673828,-68.57350158691406,25025939.0,50354.0,0.19131365031262915,0.04980827266007661,0.03407504115908847,0.010165884852221746,0.004198099527023969,0.0008551187574770083,25.025939180050045
1633,C,693642257714030.0,5.544292192281231,10.721291234932213,1.1832023333756698,171,1970-01-09 00:40:42.257714030,-0.18022156,0.6712799,0.19033813,7.589255269076321,0.720642157082654,-98.6078109741211,17.205547332763672,-68.61651611328125,25076293.0,50354.0,0.21964007900812912,-0.0037174401981233817,0.11391989099838848,0.01034658204310873,0.0011604288888945966,0.0037260684069287974,25.07629318407271
1633,C,693642308068034.0,3.226710992281232,10.605217534932212,2.31232216337567,171,1970-01-09 00:40:42.308068034,0.50234985,-1.0861664,0.21478271,8.27074744023332,1.2158307582878984,-98.56655883789062,17.224273681640625,-68.56197357177734,25126647.0,50354.0,0.22082754717772915,0.0434683112988766,0.08800682025470849,0.011089653424481354,0.0010008076817036638,0.005083908809219223,25.12664718797896
1633,C,693642358422038.0,2.628032492281232,11.572502834932212,-1.1906532666243304,171,1970-01-09 00:40:42.358422038,0.33026123,-1.1098328,0.3708954,8.500885888991423,1.2158802250789806,-98.53385925292969,17.25086212158203,-68.50740051269531,25177001.0,50354.0,0.14740487671082916,0.06489926575207658,0.028240257813508477,0.009270987736242233,0.0027283704874118482,0.0029267526845234986,25.177001192001626
1633,C,693642408776042.0,2.652660192281232,3.5627375349322126,9.05466243337567,171,1970-01-09 00:40:42.408776042,-0.1444397,-3.170166,-0.046569824,16.500606873176846,3.1737964715777665,-98.49226379394531,17.27202606201172,-68.34288024902344,25227355.0,50354.0,0.13295199971922916,-0.11240925320792342,0.19799215879129847,0.00705854507787958,-0.0011961589541758558,0.005695853552859224,25.22735519602429
1633,C,693642459130046.0,5.253719092281232,5.925438534932212,3.60786963337567,171,1970-01-09 00:40:42.459130046,1.0500336,-2.3659058,-1.0378113,12.339095977291725,2.7887511739146413,-98.40104675292969,17.238075256347656,-68.21236419677734,25277709.0,50354.0,0.19905891124742917,-0.25458539108902345,0.3188045698445985,0.008359038705407558,-0.00923982415946423,0.013011391236865979,25.277709200046957
1633,C,693642509484050.0,7.276256322281232,9.553673534932212,2.3787894433756698,171,1970-01-09 00:40:42.509484050,-0.023803711,-2.3039703,-0.19589233,8.59286347590481,2.3124055796707226,-98.36642456054688,17.245180130004883,-68.09154510498047,25328063.0,50354.0,0.3154671910124392,-0.10375159541702343,0.1507261155753685,0.012954223676596707,-0.009021850309262744,0.01182137406681851,25.328063204069622
1633,C,693642559838054.0,2.420268792281232,7.008003534932213,5.37337253337567,171,1970-01-09 00:40:42.559838054,-2.2282562,-0.3528595,0.43466187,12.263261407214443,2.297513103512271,-98.47339630126953,17.26926612854004,-68.07660675048828,25378417.0,50354.0,0.24412941280933917,-0.07649585641202342,0.1951761820886685,0.014088963694420914,-0.004538090094699913,0.00870878214828746,25.378417207975872
1633,C,693642610192057.0,4.9214436922812315,6.597557534932212,3.9476676333756697,171,1970-01-09 00:40:42.610192057,-2.7201538,3.54924,1.7921906,11.759369036585309,4.817498149452971,-98.6682357788086,17.3314266204834,-68.2743911743164,25428771.0,50354.0,0.18484229522382914,-0.15092198894402342,0.2346758282782985,0.01080022069315108,-0.005725699092529192,0.010822384065009127,25.428771211067215
1633,C,693642660546061.0,3.950328592281232,11.338173534932213,2.47833778337567,171,1970-01-09 00:40:42.660546061,-1.0479126,0.7247772,0.07090759,7.311270682247135,1.276107633860956,-98.50916290283203,17.44683074951172,-68.24595642089844,25479125.0,50354.0,0.22336461080842918,-0.04190129885402339,0.16178753837754847,0.010277425273174167,-0.004854711916891425,0.00998175818229426,25.479125214973465
1633,C,693642710900065.0,5.564540592281232,11.699990034932213,1.2799277333756698,171,1970-01-09 00:40:42.710900065,0.1741333,-2.1608124,-0.12535095,6.617296144271791,2.1714385772635967,-98.50580596923828,17.2613582611084,-68.14472961425781,25529479.0,50354.0,0.23955586145972918,0.08656264419847665,0.09462185091524848,0.011654948730295423,0.0011244386917372998,0.006455619194224749,25.52947921899613
1633,C,693642761254069.0,6.643794778281232,12.827584034932212,3.15837623337567,171,1970-01-09 00:40:42.761254069,-1.276947,-0.6748047,0.15032959,5.349309799637681,1.4520860889012945,-98.55963134765625,17.273794174194336,-68.1109619140625,25579833.0,50354.0,0.30736925962465117,0.1240615323569766,0.11174317897089849,0.013769933773541446,0.005302884893136646,0.005195652357443522,25.579833223018795
1633,C,693642811608073.0,4.569637092281232,10.742592534932212,4.08701083337567,171,1970-01-09 00:40:42.811608073,-0.62609863,0.44758606,0.0037841797,7.854986444442535,0.7696408874340047,-98.59781646728516,17.270645141601562,-68.13416290283203,25630187.0,50354.0,0.28232057420515116,0.09995713549947657,0.1824171101795985,0.014846620946332933,0.005640118000621922,0.007406073599942062,25.63018722704146
1633,C,693642861962077.0,2.2866475922812315,8.084053534932213,3.0134330033756695,171,1970-01-09 00:40:42.861962077,0.5767212,-0.26315308,-0.17597961,10.971833546955885,0.6578949073968262,-98.56453704833984,17.26390838623047,-68.1191635131836,25680541.0,50354.0,0.17262067950322915,-0.019470731899023395,0.1787678744778885,0.011454055944615892,0.0020264061834486097,0.009093554358721551,25.680541231064126
1633,C,693642912316081.0,1.719310492281232,6.376839534932213,2.79051735337567,171,1970-01-09 00:40:42.912316081,0.7870331,0.2815857,-0.14407349,12.753700361799249,0.8482150537811034,-98.52918243408203,17.254695892333984,-68.13262939453125,25730895.0,50354.0,0.10085800669502915,-0.1293872951800234,0.1461260581319285,0.00688537288241355,-0.0037477985477691617,0.008179854541317364,25.730895234970376
1633,C,693642962670085.0,1.4130665922812318,5.762566534932212,2.04025795337567,171,1970-01-09 00:40:42.962670085,0.68174744,1.3527069,-0.03916931,13.438466146259186,1.5152985725922268,-98.35247802734375,17.389461517333984,-68.15372467041016,25781249.0,50354.0,0.07886385785802916,-0.18783537337902342,0.12162442989807849,0.004524857383852349,-0.007986715126311121,0.006741154037131487,25.78124923899304
1633,C,693643013024089.0,2.116939192281232,6.046013534932213,0.9005484333756697,171,1970-01-09 00:40:43.013024089,0.19697571,1.007019,0.20613098,12.996725470365295,1.0466024448694762,-98.32917022705078,17.47020149230957,-68.19865417480469,25831603.0,50354.0,0.08887495563792916,-0.19616457958102343,0.07404068239923849,0.004223160107387743,-0.0096679668156751,0.00492626053230955,25.831603243015707
1633,C,693643063378093.0,3.588435892281232,4.918068534932212,1.8755088333756698,171,1970-01-09 00:40:43.063378093,-0.49247742,0.41558838,0.38702393,13.572107668646783,0.751688255324989,-98.20861053466797,17.379915237426758,-68.17744445800781,25881957.0,50354.0,0.14364422850402916,-0.21742650572702343,0.06989279380499848,0.005854135499142085,-0.010412982754800697,0.0036238131303940745,25.881957247038372
1633,C,693643113732097.0,8.242946392281231,5.883522534932212,0.3845878333756696,171,1970-01-09 00:40:43.113732097,-1.1126862,0.93647766,-0.059631348,12.508166408409668,1.4555469367264708,-98.27861022949219,17.37025260925293,-68.2255630493164,25932311.0,50354.0,0.2978787117784292,-0.22151754163402346,0.056902453778798476,0.011116223067491453,-0.011051294280409078,0.003192323948417256,25.932311251061037
1633,C,693643164086100.0,10.291804992281232,9.366921534932212,2.50941993837567,171,1970-01-09 00:40:43.164086100,-1.7138214,-0.4485016,-0.5357971,9.478300506561332,1.8507879426527853,-98.35613250732422,17.34698486328125,-68.19823455810547,25982665.0,50354.0,0.46664943560912914,-0.10950876965302345,0.07286243366938348,0.019248525166776557,-0.00833424943927398,0.003267090571282877,25.982665254035965
1633,C,693643214440104.0,7.609126792281232,9.523964534932212,4.0010734333756695,171,1970-01-09 00:40:43.214440104,0.06367493,-0.5236511,-0.40711975,8.796377238064418,0.6663418507656392,-98.34394836425781,17.330646514892578,-68.16799926757812,26033019.0,50354.0,0.4506917595399292,-0.017853361419023443,0.16391469162058347,0.023095899270267842,-0.0032065963740009248,0.005961337683425499,26.03301925805863
1633,C,693643264794108.0,3.553203392281232,9.913643534932213,1.2578177333756697,171,1970-01-09 00:40:43.264794108,2.667038,-0.38230896,-0.37602234,8.85846593641499,2.7204125853479204,-98.19593811035156,17.396282196044922,-68.14289855957031,26083373.0,50354.0,0.28103398705672916,-0.004088541625023421,0.13240310290529847,0.018422659122064068,-0.0005524312929399679,0.00746039311277813,26.08337326196488
1633,C,693643315148112.0,1.4530446922812317,9.700112534932213,0.13921123337566987,171,1970-01-09 00:40:43.315148112,2.5848694,0.29441833,-0.3353424,10.166742393707667,2.6231062680215818,-98.07050323486328,17.37759780883789,-68.15567779541016,26133727.0,50354.0,0.12604230802502914,0.0003463365709766118,0.035172998295898476,0.01024895988127343,-9.421749664573652e-05,0.004219063499942536,26.133727265987545
1633,C,693643365502116.0,4.556285592281232,7.275109034932212,-0.4454750666243301,171,1970-01-09 00:40:43.365502116,-0.3106537,5.1122437,-0.2892151,11.417781657401644,5.129833013225809,-98.33592987060547,17.162080764770508,-68.46942901611328,26184081.0,50354.0,0.15129690857442915,-0.0660840465355234,-0.0077108045297015195,0.006982569456324561,-0.0016550783237773944,0.0006914156524515408,26.18408127001021
1633,C,693643415856120.0,5.809779892281232,6.8501055349322115,-2.88567586662433,171,1970-01-09 00:40:43.415856120,-2.547226,3.9733887,-1.6242218,12.488391597213164,4.991420089709834,-98.52010345458984,17.052627563476562,-68.66260528564453,26234435.0,50354.0,0.2609864307048292,-0.13783867277452344,-0.08386838704640152,0.010380057633033887,-0.00513416230406905,-0.0023056893063115465,26.234435274032876
1633,C,693643466210124.0,6.241328962281232,14.172005334932212,2.92656473337567,171,1970-01-09 00:40:43.466210124,-2.577301,-0.5792389,-0.36579895,4.008750972079531,2.6667971463340274,-98.63935089111328,17.038864135742188,-68.62979125976562,26284789.0,50354.0,0.3034107676313192,0.03580448537057656,0.0010294589981984833,0.01420982826250921,-0.0025689147362691705,-0.0020856356914696083,26.28478927805554
1633,C,693643516564128.0,6.212184672281232,11.044518234932212,-1.0856728666243303,171,1970-01-09 00:40:43.516564128,0.28956604,0.7571411,-0.19267273,7.91185878797127,0.8332070077214573,-98.6358871459961,17.023656845092773,-68.66742706298828,26335143.0,50354.0,0.3135421127773792,0.14140721391847658,0.04634813452919848,0.015533022670049799,0.004461658953000491,0.0011928256722392736,26.33514328196179
1633,C,693643566918132.0,3.670192492281232,12.887291534932213,-4.07285556662433,171,1970-01-09 00:40:43.566918132,0.22158813,-0.38293457,-0.14309692,8.861161357580782,0.4649913039740293,-98.61869049072266,17.019453048706055,-68.6465072631836,26385497.0,50354.0,0.24880860987218914,0.10906197457587662,-0.12987627036390154,0.014158304144148183,0.00630606275872233,-0.0021029878759103193,26.385497285984457
1633,C,693643617272136.0,6.375179052281232,10.022835534932213,-2.60962916662433,171,1970-01-09 00:40:43.617272136,-0.77474976,-2.3439178,-0.07511902,9.538336873192923,2.4697835352400133,-98.62177276611328,17.033306121826172,-68.52472686767578,26435851.0,50354.0,0.2529123193774492,0.08333906923797663,-0.16824491812900152,0.012631827835718144,0.004844081080101384,-0.00750579716268582,26.435851290007122
1633,C,693643667626139.0,5.290401192281232,1.2332995349322111,4.07837443337567,171,1970-01-09 00:40:43.667626139,-0.712204,-3.0455933,-2.140915,17.029221151652887,3.7903021151150855,-98.60648345947266,16.950273513793945,-68.35054016113281,26486205.0,50354.0,0.2937043138173491,-0.21007348734602344,0.036978599580998486,0.01376216697394544,-0.003190792444706295,-0.0033048921020830723,26.48620529298205
1633,C,693643717980143.0,7.9726979922812315,5.348915534932212,-1.2201943666243302,171,1970-01-09 00:40:43.717980143,1.2850189,-2.5382385,-0.6265869,13.347050930269715,2.913166558830969,-98.50257873535156,16.93817138671875,-68.21446990966797,26536559.0,50354.0,0.3339250481697292,-0.32774877118602347,0.07196039954059848,0.015801824446748672,-0.013540751003061346,0.002742757180884447,26.536559297004715
1633,C,693643768334147.0,6.839763402281232,6.229759534932212,0.8668418333756698,171,1970-01-09 00:40:43.768334147,1.5406494,-3.7222137,-0.86776733,11.996773495420712,4.120861019399148,-98.36756134033203,16.922548294067383,-68.01536560058594,26586913.0,50354.0,0.37293334053089916,-0.20195289776602343,-0.008896356729601524,0.017796573652315722,-0.013336298919205684,0.0015877634058524704,26.58691330102738
1633,C,693643818688151.0,4.551631692281232,7.292641534932212,3.6489615333756698,171,1970-01-09 00:40:43.818688151,0.83706665,-2.8370972,0.30851746,11.10602363524858,2.9740518021572715,-98.28363037109375,16.958351135253906,-67.87097930908203,26637267.0,50354.0,0.28680115429579917,-0.15301570826402344,0.11369438136469848,0.016610135376251785,-0.00893704459401849,0.002638499866237836,26.637267305050045
1633,C,693643869042155.0,5.729381322281232,9.313790034932213,4.61937473337567,171,1970-01-09 00:40:43.869042155,0.43836975,0.61842346,0.89920044,9.131131893497304,1.1760854751631056,-98.27303314208984,16.998395919799805,-67.90973663330078,26687621.0,50354.0,0.2588450646676392,-0.07536907236552343,0.20817190218799853,0.013737734854842488,-0.005750043621910102,0.008103627421006253,26.68762130907271
1633,C,693643919396159.0,5.109645592281232,10.068260534932213,2.6050772833756697,171,1970-01-09 00:40:43.919396159,-0.099090576,1.352005,0.50205994,8.208380619664634,1.4456142796852192,-98.299560546875,17.01349639892578,-67.98348236083984,26737975.0,50354.0,0.2728941806279392,-0.005487312802523397,0.18189002842574847,0.013387598978806778,-0.002035721209375915,0.00982058922706231,26.73797531297896
1633,C,693643969750163.0,4.5783651922812325,11.469109234932212,2.70361853337567,171,1970-01-09 00:40:43.969750163,-0.005645752,0.35282898,0.28671265,6.982374274113076,0.4546694484056614,-98.3058090209961,17.025131225585938,-68.00389862060547,26788329.0,50354.0,0.2439150475229292,0.04877715869587659,0.1336570345783485,0.013011705937154413,0.0010899084500569534,0.007944528405254149,26.788329317001626
1633,C,693644020104167.0,4.436717792281232,11.005425134932214,2.22612526337567,171,1970-01-09 00:40:44.020104167,0.033859253,0.6135864,0.4864807,7.463635111698549,0.7837717721066305,-98.1456069946289,17.056955337524414,-67.98983001708984,26838683.0,50354.0,0.2269727443023292,0.07237215183007661,0.12411615957080849,0.011855541934784532,0.003050176191111924,0.006489955709093326,26.83868332102429
1633,C,693644070458171.0,4.787883492281232,9.041863534932212,1.3003745333756698,171,1970-01-09 00:40:44.070458171,-0.072265625,0.9850311,0.75556946,9.342564077381216,1.2435408306157634,-98.1363754272461,16.95161247253418,-68.03779602050781,26889037.0,50354.0,0.23224778654142916,0.011261386841176599,0.08878668538280848,0.011561795305053305,0.0021056416031261425,0.005360254927397215,26.889037325046957
1633,C,693644120812175.0,6.011592632281232,7.916374534932212,0.8684745333756698,171,1970-01-09 00:40:44.120812175,0.1209259,0.52989197,0.47486877,10.34599730516937,0.7217402038702041,-98.13936614990234,16.97136688232422,-68.06874084472656,26939391.0,50354.0,0.2718984103881092,-0.06651164011502346,0.054605112953598475,0.012692888800094988,-0.0013910356266756425,0.0036101753067157186,26.939391329069622
1633,C,693644171166179.0,6.127055892281232,6.119713534932213,0.6483512333756698,171,1970-01-09 00:40:44.171166179,0.4220276,-0.04270935,0.05065918,12.146660550593909,0.427197537747416,-98.11772155761719,16.974178314208984,-68.06690216064453,26989745.0,50354.0,0.3056147539029092,-0.14008261066502342,0.03818912232949848,0.014540048937354971,-0.005201423451889241,0.0023362804617225326,26.989745332975872
1633,C,693644221520182.0,4.3879658922812315,4.194603534932213,1.0782065333756699,171,1970-01-09 00:40:44.221520182,0.18141174,0.48228455,-0.007843018,14.179027418410568,0.5153349585559652,-98.04798126220703,16.778474807739258,-68.07208251953125,27040099.0,50354.0,0.26473670346992917,-0.23378563913202338,0.04346954489349848,0.014359738642275952,-0.009412880925140248,0.002055920264673395,27.040099336067215
1633,C,693644271874186.0,3.428386492281232,3.9366385349322126,0.9982657333756697,171,1970-01-09 00:40:44.271874186,-0.17327881,1.0275116,0.039276123,14.622473199547064,1.0427599186617633,-98.0123519897461,16.67427635192871,-68.1082992553711,27090453.0,50354.0,0.19679230398612915,-0.2887489184070234,0.05227934225999848,0.01161991582072118,-0.013155852555160582,0.0024106697318635934,27.090453339973465
1633,C,693644322228190.0,4.262172492281232,7.6124195349322115,0.4702201333756697,171,1970-01-09 00:40:44.322228190,-0.41293335,0.46507263,0.06845093,10.95849269117442,0.6256932415610739,-98.10283660888672,16.575151443481445,-68.15078735351562,27140807.0,50354.0,0.1936252035543292,-0.20269856497502345,0.036972068667198474,0.00982954158734612,-0.012373173289109793,0.002247082772914038,27.14080734399613
1633,C,693644372582194.0,5.473155692281232,10.008690534932212,1.2319846333756699,171,1970-01-09 00:40:44.372582194,-0.53497314,-0.013671875,0.26028442,8.288760215313753,0.5950892033823262,-98.13484954833984,16.381816864013672,-68.15332794189453,27191161.0,50354.0,0.24510635770272918,-0.04982251177102345,0.04285640941249848,0.01104594451776896,-0.006357723149235223,0.0020098415926125303,27.191161348018795
1633,C,693644422936198.0,6.149760992281232,9.291466534932212,1.0474906333756697,171,1970-01-09 00:40:44.422936198,-0.33979797,-0.054000854,0.5243225,8.95381354234482,0.6271306376307094,-98.15216064453125,16.40815544128418,-68.15443420410156,27241515.0,50354.0,0.2926301733672292,-0.007549145452023433,0.05739034879099848,0.013538592642748341,-0.0014444462139046516,0.002523912631289443,27.24151535204146
1633,C,693644473290202.0,7.616985092281232,10.289757534932212,0.6566977333756698,171,1970-01-09 00:40:44.473290202,-0.24232483,-0.81307983,0.3995514,8.085906422395075,0.93779606228077,-98.15325164794922,16.433692932128906,-68.11542510986328,27291869.0,50354.0,0.34660536617102916,-0.0004727215930234275,0.04290635050969848,0.01609403317895473,-0.0002019665465931448,0.0025251699982936473,27.291869356064126
1633,C,693644523644206.0,7.210796092281232,10.872154934932212,1.6830954733756698,171,1970-01-09 00:40:44.523644206,0.17251587,-1.4615479,-0.12815857,7.309786197256717,1.4772638926274182,-98.12300109863281,16.43769645690918,-68.03904724121094,27342223.0,50354.0,0.3733190468837292,0.039324270253776564,0.05890897356637849,0.018125536947479655,0.000978165440631782,0.0025634044142633897,27.342223359970376
1633,C,693644573998210.0,4.318843592281231,11.108177834932214,1.4493613333756699,171,1970-01-09 00:40:44.573998210,1.1061401,-0.45578003,-0.1903534,7.462610144572651,1.2114106543473897,-98.0535659790039,16.479402542114258,-68.01210021972656,27392577.0,50354.0,0.2902817383382292,0.0599296381468766,0.0788658650235785,0.016707476969533244,0.002498915651803245,0.0034687571111793472,27.39257736399304
1633,C,693644624352214.0,2.7845875922812318,10.684685534932212,-0.57238246662433,171,1970-01-09 00:40:44.624352214,0.9091339,2.12529,0.05343628,8.90902855948647,2.312193216028766,-98.03933715820312,16.467174530029297,-68.1222152709961,27442931.0,50354.0,0.17884308693372916,0.05520972106307662,0.022079696928198486,0.011811155725872095,0.0028988636468289925,0.002541506413259889,27.442931368015707
1633,C,693644674706218.0,4.753246092281232,8.834953534932213,-2.31492086662433,171,1970-01-09 00:40:44.674706218,-0.9713135,3.8682404,-0.09387207,10.599433497197738,3.989429241508175,-98.14424133300781,16.435302734375,-68.32118225097656,27493285.0,50354.0,0.18978003867622917,-0.0020232471380234054,-0.07269363602120152,0.009280824433481922,0.0013390758540110649,-0.0012743071445445375,27.493285372038372
1633,C,693644725060222.0,5.446956392281232,10.487679234932212,-0.34864276662433014,171,1970-01-09 00:40:44.725060222,-1.4836731,2.3429108,0.005554199,8.21340510317924,2.7731836818982583,-98.25263214111328,16.418874740600586,-68.44212341308594,27543639.0,50354.0,0.25681049795382915,-0.006983274753123405,-0.06706054159430151,0.011243809940734978,-0.00022675720165340327,-0.00351859092982552,27.543639376061037
1633,C,693644775414225.0,4.401851392281232,11.239342534932213,0.3401847333756698,171,1970-01-09 00:40:44.775414225,-0.38575745,0.6629486,0.18981934,7.540338719013897,0.790152541165627,-98.49298858642578,16.454509735107422,-68.53744506835938,27593993.0,50354.0,0.24796343359192916,0.0535520270998766,-0.00021294790310152155,0.012708693274527559,0.0011724614778342054,-0.001693744645076116,27.593993379035965
1633,C,693644825768229.0,3.286388192281232,10.573891534932212,-1.7359415666243305,171,1970-01-09 00:40:44.825768229,0.6991272,-0.17834473,0.03805542,9.256982055905857,0.722519134341776,-98.45550537109375,16.457704544067383,-68.52853393554688,27644347.0,50354.0,0.19356680802052917,0.05572259417697659,-0.03514096979070153,0.011116406893076865,0.002751207139887333,-0.0008901055857768796,27.64434738305863
1633,C,693644876122233.0,3.327174892281232,9.539223534932212,-1.94079056662433,171,1970-01-09 00:40:44.876122233,0.4070282,-0.8232422,0.033554077,10.190995712891233,0.9189807133663915,-98.4231948852539,16.46540641784668,-68.48633575439453,27694701.0,50354.0,0.16650967778002915,0.01291869811397657,-0.09256908491880153,0.009065645683000657,0.0017281818160093281,-0.0032153560474211585,27.69470138696488
1633,C,693644926476237.0,3.729060892281232,6.402672534932213,-0.8672585666243302,171,1970-01-09 00:40:44.926476237,0.28761292,-0.87887573,-0.37454224,12.523137627875647,0.997710193432029,-98.57760620117188,16.38425636291504,-68.48976135253906,27745055.0,50354.0,0.17765484834792916,-0.0921000826490234,-0.07069825302780151,0.008665030274323608,-0.001993549718438874,-0.0041105817674816246,27.745055390987545
1633,C,693644976830241.0,4.6948659922812315,5.298409534932212,0.3309531333756697,171,1970-01-09 00:40:44.976830241,0.4497528,-1.1104431,-0.62812805,13.143863680639713,1.3527402953421075,-98.55452728271484,16.168413162231445,-68.43246459960938,27795409.0,50354.0,0.21208920717262916,-0.19887105672702343,-0.013502561892901527,0.009812586085841098,-0.007325780376070732,-0.0021199239172585405,27.79540939501021
1633,C,693645027184245.0,4.7462117922812315,6.151451534932212,-0.009363566624330133,171,1970-01-09 00:40:45.027184245,0.5729828,-1.6355133,-0.47569275,12.366892350098984,1.7970800304870378,-98.57586669921875,15.977437019348145,-68.36529541015625,27845763.0,50354.0,0.23769801538192914,-0.20519604784402345,0.008096660522098476,0.011324292902256115,-0.010173197491785248,-0.00013610437881270843,27.845763399032876
1633,C,693645077538249.0,3.716701192281232,8.276543534932213,0.3258414333756696,171,1970-01-09 00:40:45.077538249,0.5621338,-2.0998535,-0.32351685,10.491515207179608,2.1977357172323093,-98.60218811035156,15.986915588378906,-68.27815246582031,27896117.0,50354.0,0.21307076021232915,-0.13021556812602342,0.007967963251198475,0.011349005463136642,-0.00844465825527787,0.00040445903274029737,27.89611740305554
1633,C,693645127892253.0,1.6385914922812317,8.132775034932212,0.8493552333756698,171,1970-01-09 00:40:45.127892253,0.49824524,-2.859024,0.5556946,11.295970852287835,2.9548372273659704,-98.53790283203125,16.035696029663086,-68.1353988647461,27946471.0,50354.0,0.13483020391922917,-0.08033178636652341,0.029587926478798474,0.008759102573940246,-0.0053009507440588514,0.0009455446357321332,27.94647140696179
1633,C,693645178246257.0,2.608684192281232,8.715798534932212,2.69995643337567,171,1970-01-09 00:40:45.178246257,-0.08894348,-1.4421692,1.1179352,10.251738096564992,1.8268941007792954,-98.5241928100586,16.10166358947754,-68.06981658935547,27996825.0,50354.0,0.10693365991022916,-0.06927266323152344,0.08936101983379849,0.006086888799634272,-0.003766591227530026,0.002994777621312254,27.996825410984457
1633,C,693645228600261.0,4.980235792281232,10.990532534932212,2.3803916183756697,171,1970-01-09 00:40:45.228600261,-1.0856628,1.0553741,0.64912415,7.331617751742263,1.6473737791915568,-98.38690185546875,16.060312271118164,-68.07148742675781,28047179.0,50354.0,0.19106623845132917,0.0026770973459765693,0.12790792289894348,0.007502743441048954,-0.0016766765623004135,0.005470180171182245,28.047179415007122
1633,C,693645278954264.0,5.142009492281232,11.639046534932213,2.84644081337567,171,1970-01-09 00:40:45.278954264,-1.2112122,0.9677429,0.34126282,6.677140046319315,1.5874575982506125,-98.46197509765625,16.070100784301758,-68.1239013671875,28097533.0,50354.0,0.25484776952942917,0.0762757122419766,0.1315959601342035,0.011226776978931553,0.001987794886995897,0.006533529263125542,28.09753341798205
1633,C,693645329308268.0,5.110088092281232,12.365181534932212,5.09464023337567,171,1970-01-09 00:40:45.329308268,0.20082092,-0.62677,0.15090942,6.540945861484564,0.6752357572391904,-98.44332122802734,16.082172393798828,-68.09280395507812,28147887.0,50354.0,0.25811706088652914,0.11088525011497659,0.19993259751405848,0.012914915535382583,0.00471215154926101,0.00834689449591029,28.147887422004715
1633,C,693645379662272.0,4.689037092281232,9.924080534932212,4.6455741333756695,171,1970-01-09 00:40:45.379662272,1.1832123,-0.3190155,-0.06802368,8.72630787582041,1.227350584451029,-98.37945556640625,16.081140518188477,-68.07585144042969,28198241.0,50354.0,0.24671257477172914,0.06770755113297658,0.24522937711169845,0.012710095736967969,0.004496430957019718,0.011207843035152681,28.19824142602738
1633,C,693645430016276.0,3.757243892281232,6.929573534932212,3.01946023337567,171,1970-01-09 00:40:45.430016276,0.5773468,0.79039,-0.16575623,11.583570385053433,0.9927340063451302,-98.36151123046875,16.067188262939453,-68.11528015136719,28248595.0,50354.0,0.21265201634832914,-0.06914475148302343,0.19298257025169846,0.011565422310629708,-3.61843932131296e-05,0.011032862198768244,28.248595430050045
1633,C,693645480370280.0,2.656093192281232,6.360222534932213,3.2782187633756696,171,1970-01-09 00:40:45.480370280,-0.031097412,0.95500183,-0.42819214,12.460169792355607,1.047064493283115,-98.37576293945312,16.03905487060547,-68.16120147705078,28298949.0,50354.0,0.16146858777802917,-0.15887200434902343,0.15855666410120847,0.009419234450089324,-0.005740777861583444,0.008850703303303138,28.29894943407271
1633,C,693645530724284.0,1.649242192281232,4.711785034932213,2.18799354337567,171,1970-01-09 00:40:45.530724284,0.6663208,0.9999695,-0.43769836,14.32344648281969,1.2788675708569592,-98.17579650878906,16.12498664855957,-68.15948486328125,28349303.0,50354.0,0.10839542897712916,-0.21470926541352342,0.13762282724707847,0.006794366349844621,-0.009405655628811642,0.00745691105367582,28.34930343797896
1633,C,693645581078288.0,1.7331654922812323,3.943978034932213,0.5402274333756698,171,1970-01-09 00:40:45.581078288,1.2473755,1.1177673,0.015060425,15.13197356049646,1.6749854301905793,-98.11363220214844,16.190593719482422,-68.21276092529297,28399657.0,50354.0,0.08515887827422916,-0.2755430531900234,0.06868841953166849,0.004873116793667448,-0.0123430826254815,0.005194298260148512,28.399657442001626
1633,C,693645631432292.0,4.338420592281231,5.404076534932212,-1.7560982666243299,171,1970-01-09 00:40:45.631432292,0.104385376,1.0518646,0.16807556,13.588659108070908,1.0703106265590074,-98.12387084960938,16.19148826599121,-68.2682113647461,28450011.0,50354.0,0.15286432285102916,-0.2581132300945234,-0.030611979968701516,0.0059927101347306295,-0.013435864244255037,0.0009586505188768195,28.45001144602429
1633,C,693645681786296.0,7.858775892281232,8.015526534932212,0.4579520333756697,171,1970-01-09 00:40:45.681786296,-1.2037201,-0.44178772,0.053894043,10.36569438954362,1.2833639532719057,-98.17782592773438,16.19728660583496,-68.245849609375,28500365.0,50354.0,0.3070888158918291,-0.15560385351002345,-0.03268342771450152,0.011580240174128942,-0.010416155013911677,-0.0015935884792400029,28.500365450046957
1633,C,693645732140300.0,8.628719092281232,9.402962534932213,3.34441139337567,171,1970-01-09 00:40:45.732140300,-0.3131256,-0.29736328,-0.16978455,8.987651219842773,0.464003615380765,-98.18885803222656,16.190998077392578,-68.22925567626953,28550719.0,50354.0,0.4151056612263292,-0.05492390068802342,0.0957321039953185,0.018182690350403874,-0.005300457267444226,0.0015873765227221292,28.550719454069622
1633,C,693645782494304.0,5.138637292281231,9.665886534932213,1.1040854333756698,171,1970-01-09 00:40:45.782494304,1.2162933,0.432312,0.041397095,8.695775800066812,1.2915017523965382,-98.15025329589844,16.038883209228516,-68.25633239746094,28601073.0,50354.0,0.34662073169412916,-0.013372786968023395,0.11199980460711849,0.01917798539455838,-0.001719505705116291,0.005230066262883556,28.601073457975872
1633,C,693645832848307.0,1.953838192281232,9.496987534932213,-0.09951256662433039,171,1970-01-09 00:40:45.832848307,2.0433197,0.5793762,0.14125061,10.148739611330363,2.128563814490865,-98.05661010742188,16.04178810119629,-68.28720092773438,28651427.0,50354.0,0.17856725527482914,-0.011005519543023388,0.025292131066198473,0.013222657947917464,-0.000613772623028625,0.003456599064447101,28.651427461067215
1633,C,693645883202311.0,1.8248707922812315,10.133995534932211,-1.4183755666243303,171,1970-01-09 00:40:45.883202311,0.13685608,1.0528717,0.0066986084,10.100292157089347,1.0617500999050355,-98.06477355957031,16.034740447998047,-68.34149932861328,28701781.0,50354.0,0.09513655610432915,0.0007800607499765697,-0.038215869530801534,0.006891040859093069,-0.0002574463760325398,-0.0003253809633233113,28.701781464973465
1633,C,693645933556315.0,4.201122092281231,10.520790734932213,-0.14443446662433024,171,1970-01-09 00:40:45.933556315,-2.0310059,1.2702026,-0.079589844,8.394333016004026,2.3968175053911622,-98.18421173095703,16.021825790405273,-68.40631866455078,28752135.0,50354.0,0.15171642285462913,0.026556353916376563,-0.03934686820710153,0.006215017451249694,0.0006882489120547729,-0.0019527970480271856,28.75213546899613
1633,C,693645983910319.0,5.337444092281232,10.624504534932212,0.7058005333756698,171,1970-01-09 00:40:45.983910319,-2.1486206,1.3952484,-0.2397461,7.807148659600867,2.5730850691168627,-98.42987823486328,15.84632682800293,-68.50884246826172,28802489.0,50354.0,0.24015248082872914,0.0389058990093766,0.014133513462598477,0.009866083388035912,0.0016481431419116876,-0.0006347966324023534,28.802489473018795
1633,C,693646034264323.0,5.754726192281232,12.670738934932213,1.4036918333756698,171,1970-01-09 00:40:46.034264323,-1.9862518,1.1160889,0.19934082,5.622039252932455,2.2870477494413453,-98.59833526611328,15.68627643585205,-68.58200073242188,28852843.0,50354.0,0.27926757125442914,0.09303514484077662,0.05311068931769849,0.013077438651297676,0.0033218796610153074,0.001693007293399537,28.85284347704146
1633,C,693646084618327.0,3.8594929922812318,12.400612534932211,0.05040503337566982,171,1970-01-09 00:40:46.084618327,-0.0716095,1.3190002,0.24627686,6.800947110810979,1.3437044838288477,-98.62075805664062,15.688581466674805,-68.65165710449219,28903197.0,50354.0,0.24205719640972914,0.13775221595677659,0.03660979681419848,0.013125393675480513,0.005810533382799997,0.00225889267934277,28.903197481064126
1633,C,693646134972331.0,2.231395492281232,10.476830234932212,-1.56312036662433,171,1970-01-09 00:40:46.134972331,1.0537415,0.27105713,-0.011306763,9.695973803047831,1.088104296212282,-98.57180786132812,15.685999870300293,-68.66548919677734,28953551.0,50354.0,0.15335029937582914,0.08251617661687655,-0.03808563394520152,0.009955174521393,0.005545697319826865,-3.71571514472636e-05,28.953551484970376
1633,C,693646185326335.0,2.276759892281232,3.187523534932213,-3.47872396662433,171,1970-01-09 00:40:46.185326335,0.6105652,-0.96432495,-0.12445068,16.648000837307745,1.1481291061531385,-98.52763366699219,15.687010765075684,-68.61499786376953,29003905.0,50354.0,0.11350182811712917,-0.14944176513612342,-0.12693851477820153,0.006718536013890211,-0.0016849855421490786,-0.004154812992409118,29.00390548899304
1633,C,693646235680339.0,5.540141792281232,3.877312534932212,-0.009790866624330263,171,1970-01-09 00:40:46.235680339,1.1240997,-1.6369934,-0.5637512,14.496556727413086,2.0642584486166187,-98.44752502441406,15.671209335327148,-68.5265884399414,29054259.0,50354.0,0.19680613371222916,-0.31559782226902344,-0.08783033795670152,0.007812623554977754,-0.011708301692099382,-0.005407235405306654,29.054259493015707
1633,C,693646286034343.0,6.0352742922812315,5.4156115349322125,-0.6242165666243302,171,1970-01-09 00:40:46.286034343,0.8408203,-2.364853,-0.28070068,13.083088389621658,2.5255299167211525,-98.37208557128906,15.674622535705566,-68.4029769897461,29104613.0,50354.0,0.29143425076102913,-0.25950125069302343,-0.015962405146901525,0.012292428159883224,-0.014479269359965454,-0.0026131898931194136,29.104613497038372
1633,C,693646336388347.0,4.2695881922812315,8.574364534932212,2.24576332337567,171,1970-01-09 00:40:46.336388347,1.3147125,-3.217163,-0.1547699,9.848804477374049,3.4788734452651853,-98.07671356201172,15.653565406799316,-68.1866683959961,29154967.0,50354.0,0.25944552277382915,-0.14124357248902344,0.040825682694728485,0.013869500058287128,-0.010089552413254394,0.0006259827388216395,29.154967501061037
1633,C,693646386742350.0,3.856395492281232,8.844551534932211,2.0502372033756697,171,1970-01-09 00:40:46.386742350,0.5431824,-1.6980743,0.099823,9.70406993303522,1.785628202991667,-97.88163757324219,15.701973915100098,-68.06100463867188,29205321.0,50354.0,0.20458789122622914,-0.054913150109023465,0.10816040526201849,0.011682969264279468,-0.004938637804851027,0.0037510227364870186,29.205321504035965
1633,C,693646437096354.0,4.222163892281232,8.741890534932212,2.2151389333756697,171,1970-01-09 00:40:46.437096354,-0.75819397,0.04307556,0.5580902,9.698876106128706,0.9424321043712987,-97.75424194335938,15.704548835754395,-68.02201080322266,29255675.0,50354.0,0.20339388962512917,-0.050695348007023446,0.10738937499498846,0.010271757296494648,-0.0026589051570677135,0.005426896817530664,29.25567550805863
1633,C,693646487450358.0,4.561259992281232,9.185036534932213,4.415975133375669,171,1970-01-09 00:40:46.487450358,-0.629776,0.5191498,0.58340454,9.400376270449811,1.0032423347868906,-97.79405975341797,15.729936599731445,-68.05281829833984,29306029.0,50354.0,0.22114026314162916,-0.042122957162023425,0.16695155885859847,0.010688496364208674,-0.0023368864692410933,0.006907081691631759,29.30602951196488
1633,C,693646537804362.0,4.134074892281232,10.931587934932212,2.7350211333756698,171,1970-01-09 00:40:46.537804362,0.26330566,-0.17401123,0.41278076,7.633599073364238,0.519613062364993,-97.77926635742188,15.751565933227539,-68.04678344726562,29356383.0,50354.0,0.21892244638862915,0.013007054277776582,0.18004063300799847,0.011079458837843312,-0.0007330510869166828,0.008736222414625312,29.356383515987545
1633,C,693646588158366.0,4.782344592281232,12.591301534932212,2.4663596353756696,171,1970-01-09 00:40:46.588158366,-0.18095398,0.16986084,0.36846924,5.846606278983351,0.44425964105410654,-97.5877456665039,15.849234580993652,-68.0026626586914,29406737.0,50354.0,0.22448869336282917,0.09876658818277657,0.1309551636148525,0.011163762265522466,0.002814124996229347,0.007829941171573518,29.40673752001021
1633,C,693646638512370.0,5.022807792281232,12.513710534932212,2.2224478933756697,171,1970-01-09 00:40:46.638512370,-0.20684814,-0.016036987,0.31051636,5.850868866029778,0.3734484540082438,-97.45849609375,15.878750801086426,-67.96572875976562,29457091.0,50354.0,0.2468643215861292,0.13859968888297658,0.11805010715137247,0.011867254857369926,0.0059761707576844675,0.006269205702081246,29.457091524032876
1633,C,693646688866374.0,5.278697692281232,11.484459534932213,1.46577980337567,171,1970-01-09 00:40:46.688866374,-0.09681702,-0.028152466,0.19978333,6.850559734786922,0.22378444014151308,-97.48055267333984,15.784680366516113,-67.97030639648438,29507445.0,50354.0,0.25936100358482916,0.11073272784897661,0.09285850872110848,0.012745235011829219,0.006277442256060386,0.005310046221821453,29.50744552805554
1633,C,693646739220378.0,5.239467392281232,9.112038534932212,1.1823783333756699,171,1970-01-09 00:40:46.739220378,-0.12832642,0.15563965,-0.2325592,9.20846146222647,0.30785573281454237,-97.49662017822266,15.601177215576172,-67.97889709472656,29557799.0,50354.0,0.26481584233402916,0.025088831904976613,0.06667267740898848,0.013197200449699095,0.00341957940992528,0.004016516673197452,29.55779953196179
1633,C,693646789574382.0,3.046779392281232,5.628792534932213,2.7168326533756697,171,1970-01-09 00:40:46.789574382,0.15327454,0.5024719,-0.2836609,13.014007941077002,0.5970214410644157,-97.27490997314453,15.602176666259766,-67.94352722167969,29608153.0,50354.0,0.20862283529492914,-0.1223392961540234,0.09817043501343847,0.011919765586664284,-0.0024484749383982514,0.004150255041459443,29.608153535984457
1633,C,693646839928386.0,1.3998981922812321,3.7844935349322117,1.2929740333756699,171,1970-01-09 00:40:46.839928386,0.47158813,0.8244629,-0.3130188,15.318943577741043,1.0000576018343879,-97.19397735595703,15.694648742675781,-67.96551513671875,29658507.0,50354.0,0.11195400154652915,-0.25647089661902345,0.10095490295233848,0.008071163021157396,-0.009537304223447,0.005013378633964367,29.658507540007122
1633,C,693646890282389.0,0.3918871922812315,3.5518575349322123,0.4318442333756698,171,1970-01-09 00:40:46.890282389,0.26091003,-0.34048462,-0.3534546,15.990905965319515,0.5558182926751379,-97.1888198852539,15.864182472229004,-67.94924926757812,29708861.0,50354.0,0.04511178062712915,-0.30876188911402347,0.043425749501998484,0.003954445197786195,-0.014230865846400924,0.003635071686842842,29.70886154298205
1633,C,693646940636393.0,6.376552342281232,4.8290485349322125,0.5457816333756698,171,1970-01-09 00:40:46.940636393,-0.8243408,-1.1325226,-0.33799744,13.429876269204513,1.4409675442222678,-97.2134780883789,15.854511260986328,-67.8886489868164,29759215.0,50354.0,0.17040900216167915,-0.28246312787902345,0.02461368644719848,0.005426166748273827,-0.014885272252833941,0.001713028878892932,29.759215547004715
1633,C,693646990990397.0,5.564738992281232,8.407234534932213,4.95352703337567,171,1970-01-09 00:40:46.990990397,-0.84181213,-0.9377289,-0.46672058,10.104266199451407,1.34380476703496,-97.24153137207031,15.837261199951172,-67.83724975585938,29809569.0,50354.0,0.3006458919302792,-0.1602193011500234,0.13845609430279848,0.011859749068553235,-0.011145415515664314,0.004105607869942673,29.80956955102738
1633,C,693647041344401.0,5.166713492281232,9.382515534932212,2.20395423337567,171,1970-01-09 00:40:47.041344401,0.65974426,0.72158813,0.10595703,8.873068096595436,0.9834524951243275,-97.06919860839844,15.687992095947266,-67.83451080322266,29859923.0,50354.0,0.2701857792038292,-0.045576662491023406,0.1802039058529985,0.014371828984143447,-0.005181324976590636,0.008022902823922502,29.859923555050045
