Subject-id_accel,Activity_accel,Timestamp_accel,accel_x,accel_y,accel_z,Segment_accel,DateTime,gyro_x,gyro_y,gyro_z,accel_magnitude,gyro_magnitude,Roll,Pitch,Yaw,Time_Difference,Difference_Microseconds,vx,vy,vz,dx,dy,dz,Time_diff
1605,C,184322009840720.0,1.002572,9.126099,-3.3423057,28,1970-01-03 03:12:02.009840720,-0.5291701,-0.61598915,0.40719733,9.77045756171314,0.9084455367334144,82.54520416259766,-7.691352844238281,70.6926040649414,15037734.0,38237.0,0.07263117194075,0.13914266497949998,-0.048874705466499996,0.003597627763885734,0.004678494669953752,-0.001143441926411993,15.037734526005806
1605,C,184322051455875.0,0.4345476,7.16405,-1.6208745,28,1970-01-03 03:12:02.051455875,0.12809806,0.9398296,-0.25672874,7.357966985785952,0.982648683891609,83.04373931884766,-7.576669692993164,70.67174530029297,15079349.0,41615.0,0.029902866076999997,-0.06886972468250004,-0.1032713720115,0.002133476996054333,0.0014622042052298263,-0.0031657795071234848,15.079349681007443
1605,C,184322091318009.0,1.1988965,10.039486,6.913856,28,1970-01-03 03:12:02.091318009,-0.13662016,0.22849922,-1.0655308,12.248674897744827,1.0982863230540902,82.37020874023438,-7.494269371032715,70.76403045654297,15119211.0,39862.0,0.0325561743571,-0.047763923984000034,0.1054944142765,0.0012448711348920472,-0.002324625251572013,4.430745538371505e-05,15.119211815006565
1605,C,184322129726032.0,1.7064673,6.4858923,0.39145198,28,1970-01-03 03:12:02.129726032,-0.454069,-0.700944,-0.32304144,6.718040207219253,0.8954646390864766,82.45419311523438,-7.663398265838623,70.71341705322266,15157619.0,38408.0,0.055794606415199996,-0.059045035126800025,0.14029113444792,0.001696688393951249,-0.002051159250763804,0.004720065677703761,15.15761983799166
1605,C,184322171184938.0,1.7531542,6.551733,1.3269863,28,1970-01-03 03:12:02.171184938,0.041279,-0.81918836,-0.24314661,6.910835520590425,0.8555079186979988,82.36677551269531,-7.832531929016113,70.68364715576172,15199078.0,41459.0,0.07171622388425,-0.13603474634365006,0.03562236632526,0.0026432357566924486,-0.004043906329991695,0.003646598914277635,15.199078744015424
1605,C,184322209370459.0,3.0460231,6.63134,0.82899237,28,1970-01-03 03:12:02.209370459,-0.644485,-0.53103435,0.023169503,7.344396181501365,0.8354012341229748,82.34991455078125,-8.248129844665527,70.65570831298828,15237264.0,38186.0,0.09163069218889999,-0.12251838721100003,0.04116410074631,0.0031187826685846525,-0.004936554978958934,0.0014660840157974858,15.237264265015256
1605,C,184322250937855.0,2.1751323,6.369175,1.0498575,28,1970-01-03 03:12:02.250937855,-0.6993461,-0.41199103,0.31451932,6.81173923997642,0.8704849102879,82.27665710449219,-8.524476051330566,70.64322662353516,15278831.0,41567.0,0.10851388325590001,-0.13716039649750003,0.039049076273145,0.004159704783757001,-0.005397034001205611,0.001667110564583843,15.278831661009463
1605,C,184322290363896.0,5.2480903,11.104906,2.1164744,28,1970-01-03 03:12:02.290363896,-1.3877733,-0.19467708,1.3424995,12.463581064511333,1.9406490680106145,82.13693237304688,-8.99645709991455,70.65360260009766,15318257.0,39426.0,0.14633398711380002,-0.04190824124700003,0.06241790074470001,0.005023816068597897,-0.00352998005585733,0.002000218517952779,15.31825770199066
1605,C,184322329323532.0,1.9512744,16.093225,1.0474633,28,1970-01-03 03:12:02.329323532,-1.3454291,1.6170714,2.7830033,16.24489279895584,3.4885823400968565,82.15784454345703,-9.07140064239502,70.73771667480469,15357217.0,38960.0,0.14024362435600002,0.14801159188,0.061633506396,0.005582531871431705,0.002066893270330839,0.002416521411100836,15.35721733799437
1605,C,184322370168012.0,0.7164649,15.804724,1.4628572,28,1970-01-03 03:12:02.370168012,-0.37044573,0.3304983,2.902313,15.888441517552936,2.944465981319384,82.19812774658203,-9.051316261291504,70.76417541503906,15398061.0,40844.0,0.0544805719846,0.25114871447799997,0.05126576525099999,0.003976657537667733,0.008151651776443074,0.002305628925575034,15.398061818006681
1605,C,184322410662907.0,-2.1853075,10.410587,5.0374002,28,1970-01-03 03:12:02.410662907,0.3752394,0.6250439,1.0737866,11.76993166203973,1.2978837184351801,81.77056884765625,-8.626668930053711,70.87059020996094,15438556.0,40495.0,-0.0297403905435,0.13394350947249997,0.13161396170650003,0.0005009268237286722,0.007797154804437748,0.003702857271571982,15.438556712993886
1605,C,184322450458376.0,1.5227122,7.207744,1.3694834,28,1970-01-03 03:12:02.450458376,1.7038904,-0.9624664,-0.04447479,7.4930441608494744,1.9574376294754998,81.80047607421875,-8.708977699279785,70.83145141601562,15478352.0,39796.0,-0.013184321279399999,-0.039431249762000034,0.1274841698728,-0.0008541159158520642,0.0018806049437195276,0.005155534622164912,15.478352181991795
1605,C,184322489935042.0,1.7830818,5.8759694,0.95468795,28,1970-01-03 03:12:02.489935042,1.4623418,-0.27057716,-1.4551512,6.21432427357173,2.0806538766460765,81.85234832763672,-8.837413787841797,70.81112670898438,15517828.0,39476.0,0.06524976197199998,-0.12861846491080003,0.04587449410629999,0.0010276676683905383,-0.0033169652682117274,0.0034217533096194755,15.51782884800923
1605,C,184322530266346.0,3.685275,7.1784153,2.0272903,28,1970-01-03 03:12:02.530266346,0.74967986,0.08974853,-2.2855248,8.319904086308519,2.4070102414700734,81.71916961669922,-9.155029296875,70.82611083984375,15558160.0,40332.0,0.1102748832288,-0.13199887813980002,0.0601345733895,0.0035396299951193323,-0.0052556093399584005,0.0021377788551203026,15.558160151995253
1605,C,184322570214884.0,1.4550761,9.066243,0.9780314,28,1970-01-03 03:12:02.570214884,0.4016047,2.0604877,-2.2237396,9.234205651339273,3.0580898785878645,81.77857208251953,-9.0281400680542,70.9047622680664,15598108.0,39948.0,0.10267337287139999,-0.06701959511580002,0.0600282956358,0.004253428467345394,-0.003975194984807355,0.0024001331459113416,15.598108689999208
1605,C,184322609588950.0,0.21547815,7.530363,2.0350714,28,1970-01-03 03:12:02.609588950,0.83063996,1.3036174,-1.3347764,7.803480848185275,2.042304851565633,81.63739776611328,-8.768667221069336,70.98739624023438,15637482.0,39374.0,0.03288820151975,-0.059127817678000016,0.0593189548236,0.00266880071503857,-0.0024834641156715413,0.002349589319794208,15.637482755992096
1605,C,184322649992282.0,-0.6871359,7.662044,3.50571,28,1970-01-03 03:12:02.649992282,0.808802,-0.3882889,-0.71825457,8.453938526338172,1.1492687120047664,81.27831268310547,-8.411810874938965,71.02305603027344,15677886.0,40404.0,-0.0095284298655,-0.08904219378600003,0.1119348658428,0.0004719141069591585,-0.0029933305715957293,0.003459669685102613,15.677886088000378
1605,C,184322689925354.0,-0.12629414,7.8248496,0.6003461,28,1970-01-03 03:12:02.689925354,0.44448158,-0.51026165,-0.58030283,7.848862141240838,0.8914494943214831,81.4141845703125,-8.155235290527344,70.9774398803711,15717819.0,39933.0,-0.016241350893660002,-0.08212433893560003,0.08198356912065001,-0.0005145323275277682,-0.003417596575585828,0.003871872431697725,15.717819159995997
1605,C,184322729789938.0,-0.3321955,7.6506715,0.5650316,28,1970-01-03 03:12:02.729789938,0.17736652,0.056459017,-0.5249091,7.678697087405588,0.5569345260264682,81.53307342529297,-7.865090370178223,70.96100616455078,15757683.0,39864.0,-0.009138615504479999,-0.08220911343480003,0.0232283083164,-0.0005058734902477264,-0.003275494372646814,0.002097083141075281,15.757683744013775
1605,C,184322769735510.0,-0.088585466,12.313978,2.801216,28,1970-01-03 03:12:02.769735510,0.26684874,-0.06098639,-0.21544974,12.628884061860987,0.34834778637288233,81.43746185302734,-7.649480819702148,70.97118377685547,15797629.0,39946.0,-0.008404258233918,0.0072831444634999755,0.06723406331480002,-0.00035038381717702327,-0.001496496378263776,0.001806804948589958,15.797629316017265
1605,C,184322809586604.0,2.5091233,14.393941,-5.4258595,28,1970-01-03 03:12:02.809586604,-0.4673848,0.4628574,0.092944324,15.585929184999658,0.6643223399597645,82.10726165771484,-7.714535236358643,70.90191650390625,15837480.0,39851.0,0.048230426611367,0.14162884003449996,-0.05229733405924999,0.0007935563180048599,0.0029671457471148978,0.00029762179878146207,15.837480410002172
1605,C,184322849497125.0,4.2742486,10.760141,0.89423436,28,1970-01-03 03:12:02.849497125,-0.20240025,0.669785,0.23036344,11.612471335813389,0.7366445017195853,82.1660385131836,-8.065298080444336,70.92691040039062,15877390.0,39910.0,0.13536218626450003,0.11083170630999999,-0.09042857966869998,0.0036635905899379266,0.005037850202304496,-0.0028480956084412415,15.877390931011178
1605,C,184322889442490.0,2.7922378,19.612701,-2.5091233,28,1970-01-03 03:12:02.889442490,0.381631,-1.943575,0.53742594,19.968733865264287,2.0523042273919536,82.57209777832031,-8.110862731933594,70.78076934814453,15917336.0,39946.0,0.14113893286720003,0.21516597326600004,-0.032254176798620006,0.005522556852417445,0.0065111516541714485,-0.0024503426949217823,15.917336295999121
1605,C,184322927818167.0,-0.7404069,13.196839,4.3448777,28,1970-01-03 03:12:02.927818167,-0.28975195,-1.179514,0.54408383,13.913400885385496,1.3308781622644017,82.29485321044922,-7.8718061447143555,70.76284790039062,15955711.0,38375.0,0.039369505393750004,0.25345804875,0.03522353754999999,0.0034635056591319786,0.008991723422432001,5.697460941710343e-05,15.95571197301615
1605,C,184322969834886.0,-1.033098,3.5583823,-1.6346412,28,1970-01-03 03:12:02.969834886,-0.89322424,0.99096227,0.6016081,4.049867642688429,1.4634849057891717,82.99095916748047,-7.372551918029785,70.71703338623047,15997728.0,42017.0,-0.03725867769165,-0.059764533318950014,0.05693800351024999,4.434532377956797e-05,0.004069210218933214,0.0019361757353642617,15.997728692018427
1605,C,184323007695614.0,-0.6398504,4.9224787,-0.59136784,28,1970-01-03 03:12:03.007695614,-0.88843054,1.0833739,-0.5025385,4.99899199924546,1.4884733036195683,83.28300476074219,-6.982210636138916,70.72511291503906,16035589.000000002,37861.00000000186,-0.031669749686201565,-0.21049086083951038,-0.04213946413172208,-0.0013048495944764835,-0.005116069739116986,0.0002801437497052364,16.035589420003816
1605,C,184323049067751.0,-1.2826935,7.6243353,3.2064347,28,1970-01-03 03:12:03.049067751,-0.04873585,0.14913702,-0.5685849,8.370006861833057,0.5898354196873166,82.88514709472656,-6.569718360900879,70.77581024169922,16076961.0,41371.99999999814,-0.03976974311539821,-0.14590220559599346,0.054095273065957565,-0.0014777973480938266,-0.0073723469722845,0.0002473178636135841,16.076961557002505
1605,C,184323088925354.0,0.79008657,6.754043,2.4600422,28,1970-01-03 03:12:03.088925354,0.47271112,-4.0589237,-0.0039947415,7.231399675009272,4.086359426598815,82.61206817626953,-6.591730117797852,70.60972595214844,16116819.0,39858.0,-0.009817163507969998,-0.10406169885930001,0.1129272181401,-0.000988217462097105,-0.004981530651889544,0.0033285912272455207,16.116819160000887
1605,C,184323127155719.0,2.5151088,6.4499793,-1.5388732,28,1970-01-03 03:12:03.127155719,-0.47137952,-0.5052017,0.14913702,7.091976873336811,0.706872874209218,83.07062530517578,-6.962965488433838,70.52896881103516,16155048.999999998,38229.99999999814,0.06317880949754694,-0.12225911373549408,0.017608145434999146,0.0010200078630907136,-0.004326122332749279,0.002495183474737899,16.155049524997594
1605,C,184323168956031.0,4.7022123,7.0263834,2.5959132,28,1970-01-03 03:12:03.168956031,-1.1118698,-0.014913702,0.272974,8.844186199984772,1.1449854476522332,82.73234558105469,-7.589339733123779,70.56597137451172,16196849.0,41800.00000000186,0.15084201099000674,-0.12798401957000574,0.022092136000000984,0.004473035148190071,-0.00523008148608518,0.0008297358819915398,16.19684983699699
1605,C,184323208641084.0,4.6800656,7.8948803,1.6687586,28,1970-01-03 03:12:03.208641084,-1.4207965,-1.2399678,1.3904364,9.328285171279092,2.3429673966775657,82.56671905517578,-8.21544075012207,70.5271224975586,16236533.999999998,39684.99999999814,0.18616784923074126,-0.09283782503274568,0.08462175019149604,0.006687118151429878,-0.00438165745152989,0.00211747028675468,16.236534889991162
1605,C,184323248555252.0,4.023456,15.729905,-0.60932434,28,1970-01-03 03:12:03.248555252,-1.1976236,0.8380968,2.8956552,16.247750171770782,3.2436904246142606,82.73320007324219,-8.509188652038574,70.55401611328125,16276449.0,39915.00000000186,0.17370053233200813,0.0803246526247537,0.021143659243950993,0.007182073225038906,-0.0002497316383325115,0.0021108131588080327,16.276449058001162
1605,C,184323287942906.0,0.46028528,17.493235,0.5189432,28,1970-01-03 03:12:03.287942906,-0.41891524,1.0301107,2.7923245,17.50698247411689,3.0056104447947005,82.84244537353516,-8.467583656311035,70.602783203125,16315836.0,39387.0,0.08830055889768,0.2682873075899999,-0.0017799209805899993,0.005159718490131863,0.00686538963848925,0.0003813397794894997,16.315836711990414
1605,C,184323326810407.0,0.1592144,6.2985463,3.9785647,28,1970-01-03 03:12:03.326810407,0.01571265,0.5592638,1.8287928,7.451577805438063,1.9124607161174063,82.22289276123047,-8.393481254577637,70.7324447631836,16354704.000000002,38868.00000000186,0.012039356781120576,0.08146307778420384,0.08740456852860419,0.0019500059213019036,0.006797048989362601,0.0016640294004481872,16.354704213008517
1605,C,184323368257750.0,-0.6841431,9.118916,4.712986,28,1970-01-03 03:12:03.368257750,1.5869777,-0.3882889,0.010652645,10.287609918369261,1.6338237264178765,81.82179260253906,-8.105634689331055,70.7826156616211,16396151.0,41446.99999999814,-0.010878359914449512,-0.08667682002594612,0.1801193509314419,2.4059918566456715e-05,-0.00010804698734674142,0.005544031944930017,16.39615155599313
1605,C,184323408299730.0,1.471237,6.6905966,0.47225627,28,1970-01-03 03:12:03.408299730,1.8232001,-0.86419576,-1.2572783,6.866705699143868,2.3773181612676244,82.02241516113281,-8.156511306762695,70.7159194946289,16436193.0,40042.0,0.015758406971899997,-0.07588934823540001,0.10381373548767,9.770342213721617e-05,-0.003254737254760411,0.0056846243231970395,16.436193536006613
1605,C,184323447561813.0,5.4324436,6.4643445,2.4343045,28,1970-01-03 03:12:03.447561813,0.16138756,-0.5075985,-2.2008364,8.78777740276695,2.264372549138053,81.78687286376953,-8.771723747253418,70.71172332763672,16475455.0,39262.0,0.13552615385859998,-0.12652295126590002,0.057058694475869996,0.002969867213663545,-0.003973555851510021,0.003158086672614254,16.47545561901643
1605,C,184323487483843.0,2.1739352,7.1832037,-0.8391677,28,1970-01-03 03:12:03.487483843,0.22690132,0.8183894,-2.3449135,7.551729078708798,2.493965665668305,82.15097045898438,-8.855083465576172,70.68115234375,16515377.0,39922.0,0.1518309272268,-0.11881689037980002,0.0318405256648,0.005735934695545669,-0.004897228579089819,0.001774517333227914,16.515377649018774
1605,C,184323526059885.0,-0.3286042,9.434352,0.3669114,28,1970-01-03 03:12:03.526059885,0.69508505,2.1875205,-1.5054849,9.447200768249377,2.7449724859790057,82.31254577636719,-8.497154235839844,70.75902557373047,16553953.0,38576.0,0.035592744328,-0.05752538565840001,-0.009108879514399999,0.0036150277769489824,-0.0034012898202248018,0.0004384479909489152,16.553953691007337
1605,C,184323567805041.0,-3.1268275,5.6778493,5.018845,28,1970-01-03 03:12:03.567805041,1.1544803,1.2796489,-1.2128036,8.197794094894782,2.107419901807008,81.6192855834961,-7.724590301513672,70.92005920410156,16595697.999999998,41744.99999999814,-0.07212349815824678,-0.09367157836574584,0.11241420045899499,-0.0007624881593217921,-0.0031558586315938433,0.0021562403114159627,16.595698846998857
1605,C,184323607675042.0,0.97862995,9.715072,2.5372553,28,1970-01-03 03:12:03.607675042,-0.002396845,-0.8263789,-0.6215818,10.08850856180432,1.034055977847623,81.46854400634766,-7.6471052169799805,70.89520263671875,16635568.0,39870.00000000186,-0.042824318159252,-0.08386811388450396,0.15063085948050703,-0.002291484718289445,-0.003539253765008895,0.005243803269894217,16.635568847996183
1605,C,184323647588270.0,3.2968156,14.95179,-6.995259,28,1970-01-03 03:12:03.647588270,0.5629923,2.228267,0.46951532,16.833260699626333,2.345757615113504,82.26591491699219,-7.776212692260742,70.90460205078125,16675481.999999998,39913.99999999814,0.08532506684134601,0.10111936493399526,-0.08896837984089585,0.0008481874414485106,0.0003442832171946817,0.0012305981061676628,16.675482076010667
1605,C,184323687644363.0,10.652402,15.506047,3.3919852,28,1970-01-03 03:12:03.687644363,-0.23355924,-1.8519622,1.1169298,19.115876269029158,2.175280691530695,82.16972351074219,-8.474526405334473,70.8331527709961,16715537.999999998,40056.0,0.2793749300928,0.21746075943600002,-0.0721663676664,0.007304211538597076,0.006380522730882266,-0.0032272067230761214,16.71553816899541
1605,C,184323727386345.0,-2.2655134,16.051327,-1.8291701,28,1970-01-03 03:12:03.727386345,-0.979777,1.3494238,1.1068097,16.313292515039464,2.001483268416084,82.46459197998047,-8.120928764343262,70.85694885253906,16755279.999999998,39742.0,0.1666558633706,0.23760497875399997,0.031054698852100004,0.008863077896911221,0.009042611283573488,-0.0008169299710089552,16.755280151002808
1605,C,184323767290978.0,-0.7248446,5.5126495,-1.4772224,28,1970-01-03 03:12:03.767290978,-1.9366508,2.0647488,-0.49827746,5.752989676947211,2.874384169763348,82.90363311767578,-7.718718528747559,70.880859375,16795184.0,39904.00000000186,-0.059663622816002786,0.03918525912800182,-0.06596914316000309,0.0021347091835454235,0.005522518826221958,-0.0006966129928313148,16.795184784015873
1605,C,184323807229989.0,-0.17357962,9.69951,2.2583308,28,1970-01-03 03:12:03.807229989,-0.56245965,1.3619406,-0.87138635,9.960455919625767,1.7118870368026056,82.71599578857422,-7.450899124145508,70.96348571777344,16835123.0,39939.0,-0.01794108246129,-0.08762298086475002,0.015598344193799999,-0.0015497271620348984,-0.0009672770842219934,-0.0010058796699555926,16.835123794997344
1605,C,184323847092699.0,2.2703018,11.227609,3.994127,28,1970-01-03 03:12:03.847092699,1.7848506,-2.872752,-0.5121259,12.131221068470115,3.4206240154795102,82.52207946777344,-7.53140926361084,70.8558349609375,16874986.0,39863.0,0.04179081813067,0.02645147234849996,0.1246208626407,0.00047536100649424757,-0.0012192399219916382,0.002794779121021837,16.874986504990375
1605,C,184323887000458.0,5.6401405,9.112331,3.8911762,28,1970-01-03 03:12:03.887000458,0.68176925,-5.540174,-0.6306366,11.401184733734809,5.617476282262447,82.25535583496094,-8.082109451293945,70.62017822265625,16914894.0,39908.0,0.1578449656542,0.014764762759999942,0.15734334005279998,0.003983532429643296,0.0008224287553550071,0.0056263137005460985,16.914894264016766
1605,C,184323925242019.0,4.8763905,5.7365074,2.0853498,28,1970-01-03 03:12:03.925242019,-0.391751,-2.02347,1.3225259,7.812514655800976,2.4488720756854185,82.00940704345703,-8.892799377441406,70.56330108642578,16953135.0,38241.0,0.2010813309855,-0.09084458537280003,0.11427416538299999,0.006862850254899383,-0.001454684248268044,0.005193462512685213,16.953135824995115
1605,C,184323966809625.0,1.7369933,3.8893807,-4.2251673,28,1970-01-03 03:12:03.966809625,-1.3393037,-0.70813453,2.3113575,5.99970554833874,2.763614011800176,83.08843994140625,-9.29954719543457,70.36358642578125,16994703.0,41568.0,0.13745256889920002,-0.20730194172960006,-0.044473966919999997,0.0070360885752036055,-0.006196677419296284,0.0014507273248549918,16.994703431002563
1605,C,184324007878635.0,-1.7256209,5.837662,-1.6861166,28,1970-01-03 03:12:04.007878635,-2.130529,3.5060515,2.0905814,6.316569821157396,4.604571807510358,83.4975814819336,-8.791481971740723,70.4662094116211,17035772.0,41069.0,0.00023352654779999895,-0.20273624167685003,-0.12138525924455,0.0028273151269564223,-0.00841992907715975,-0.0034058362796759523,17.03577244101325
1605,C,184324046607750.0,-2.6198552,10.668563,0.5201403,28,1970-01-03 03:12:04.046607750,-0.8114652,1.3171995,1.2490226,10.997837227637994,1.9883530242193035,83.53713989257812,-8.296706199645996,70.52577209472656,17074501.0,38729.0,-0.08414797193845,-0.05990940598750002,-0.022578548061350002,-0.001624961277767242,-0.005086001644196306,-0.0027877871465751005,17.074501555995084
1605,C,184324086560874.0,1.8010383,6.6971807,4.5860934,28,1970-01-03 03:12:04.086560874,0.71798825,-1.0064086,-0.037284255,8.314338275535999,1.2368328557096662,82.9180908203125,-8.429044723510742,70.57131958007812,17114454.0,39953.0,-0.016357095802849997,-0.044632620976950026,0.10200467750805002,-0.0020077394857340794,-0.0020883838016553364,0.001586656074892003,17.11445468000602
1605,C,184324126428062.0,7.665635,2.3702598,4.226963,28,1970-01-03 03:12:04.126428062,1.6719326,1.257811,-0.7419567,9.06903013977184,2.219897942550209,82.36774444580078,-9.51484489440918,70.72660827636719,17154321.0,39867.0,0.18870393222555,-0.20995077479325003,0.1756750597494,0.0034354756638318904,-0.005074738119585283,0.00553512904262138,17.154321868001716
1605,C,184324166509780.0,5.8508306,13.53562,5.1780596,28,1970-01-03 03:12:04.166509780,1.0162623,2.1451764,-2.5068336,15.628740471178364,3.4523594175009085,82.09337615966797,-9.691222190856934,70.86921691894531,17194403.0,40082.0,0.2708834870896,-0.07403386292820004,0.18848605792659998,0.00921059147049492,-0.005691336124575581,0.007298152959344716,17.194403586006956
1605,C,184324206275458.0,1.2372037,15.355811,4.257489,28,1970-01-03 03:12:04.206275458,0.49960902,-1.1171961,-1.3323795,15.983047802222693,1.8091355479180713,81.9380111694336,-9.503962516784668,70.83576202392578,17234169.0,39766.0,0.14093138598690003,0.184741522573,0.18760701281380002,0.00818811512138005,0.0022012003967175576,0.007477858525531373,17.234169264003867
1605,C,184324245654989.0,-2.3385365,5.0876784,-1.6262615,28,1970-01-03 03:12:04.245654989,2.1667478,-3.0602384,0.2543319,5.830776185898499,3.7582628711942183,82.64785766601562,-8.77485466003418,70.59320831298828,17273548.0,39379.0,-0.021684692165599997,0.01660788454129995,0.05180755386124999,0.0023479077779944867,0.003964469151377008,0.004713953110548397,17.273548794997623
1605,C,184324284583426.0,-1.1546037,4.2413282,0.05267244,28,1970-01-03 03:12:04.284583426,-0.05219796,2.062352,-1.2407668,4.395992378303729,2.4073891772861327,82.79271697998047,-8.118986129760742,70.66477966308594,17312477.0,38929.0,-0.0679922274229,-0.19991975103430001,-0.03062912425837,-0.001745516401330358,-0.0035680738253529997,0.0004122275430052575,17.312477232015226
1605,C,184324325990770.0,0.65182143,3.6164417,3.41892,28,1970-01-03 03:12:04.325990770,0.053263225,2.2069616,-1.4839134,5.0192166433125935,2.6599841077930377,81.9343032836914,-8.052151679992676,70.88504791259766,17353884.0,41407.0,-0.010409352726945,-0.24310526087535,0.07187411408154,-0.001623187114632316,-0.00917216833407144,0.0008539156468040001,17.35388457600493
1605,C,184324364458739.0,0.9068039,15.819089,-8.628703,28,1970-01-03 03:12:04.364458739,-0.3187804,0.5850965,0.3720436,18.042183503256616,0.7631351767789046,82.77671813964844,-7.976386547088623,70.79661560058594,17392352.0,38468.0,0.02997859959722,-0.0031634025162000073,-0.10020496622200001,0.00037639489430286944,-0.004736731471673073,-0.0005449156100696079,17.392352544993628
1605,C,184324405862281.0,9.758167,18.607735,9.677363,28,1970-01-03 03:12:04.405862281,0.5115933,-2.459163,1.0322412,23.132682068101897,2.715645827450872,82.3644790649414,-8.472554206848145,70.7447738647461,17433756.0,41404.0,0.22078622757180003,0.306944910448,0.02170935932,0.005191333452053053,0.006288884777204124,-0.0016250160540852044,17.43375608700444
1605,C,184324444084156.0,-0.81522566,13.160927,-1.4227544,28,1970-01-03 03:12:04.444084156,0.38269624,-1.346228,1.3821807,13.262685341165671,1.9670306880032724,82.73680114746094,-8.258005142211914,70.63652038574219,17471977.0,38221.0,0.17090408047807001,0.23254921515100002,0.15774969765029997,0.007485397631987041,0.01031000248725969,0.0034295523082309176,17.47197796200635
1605,C,184324483996656.0,-1.2246342,14.687829,1.8962077,28,1970-01-03 03:12:04.483996656,-1.748099,1.1001519,0.052996907,14.86027096989116,2.066154154226198,82.63928985595703,-7.931772708892822,70.69203186035156,17511890.0,39913.0,-0.04070846329608999,0.16461629911399991,0.009448470781449997,0.0025982488342921844,0.00792603358542947,0.003336690248308218,17.511890462017618
1605,C,184324523920042.0,0.28431144,6.905476,-0.21188685,28,1970-01-03 03:12:04.523920042,-0.6508766,-0.98776644,-0.69002503,6.914573581841023,1.3694734135587792,82.84302520751953,-7.767073631286621,70.6068344116211,17551813.0,39923.0,-0.018770252773739997,0.03978935775749999,0.033621570647275,-0.0011872843908279113,0.004080243519640446,0.0008597426319794941,17.551813847996527
1605,C,184324565533999.0,2.8742392,8.194754,0.64463884,28,1970-01-03 03:12:04.565533999,0.50333744,-0.8681905,-0.84209156,8.708088385711825,1.3100463801786704,82.93824005126953,-8.016565322875977,70.54927825927734,17593427.0,41614.0,0.06571996316648,-0.09362671439000003,0.009004270655930001,0.0009768826241417412,-0.0011201938794524282,0.0008869158799957864,17.59342780499719
1605,C,184324605255666.0,7.4854717,10.935516,2.7461493,28,1970-01-03 03:12:04.605255666,0.16751283,-0.4346279,-0.9558085,13.533629695526894,1.0632647122637282,82.80282592773438,-8.591157913208008,70.54283905029297,17633149.0,39722.0,0.2057542181849,-0.009329307530000039,0.06734444324854,0.0053917487158197585,-0.0020448095513531214,0.0015163618068566786,17.633149472007062
1605,C,184324643393062.0,8.884883,6.1489086,3.6116533,28,1970-01-03 03:12:04.643393062,-0.32384038,-1.3640711,1.0287791,11.392728490324162,1.738950543911633,82.43775939941406,-9.632197380065918,70.5376968383789,17671286.0,38137.0,0.31215810859695,-0.04796824951490002,0.12123375887809998,0.009875811203239705,-0.0010925784665106767,0.003595903447251834,17.671286868018797
1605,C,184324685175093.0,-1.4083891,6.077681,1.4802152,28,1970-01-03 03:12:04.685175093,-1.7965685,0.45140582,1.6823189,6.411926639713749,2.5023234145128668,82.19141387939453,-9.169816970825195,70.59587097167969,17713068.0,41782.0,0.15619143406490002,-0.15403791666640002,0.10637422483350001,0.00978429029574871,-0.00422011081769354,0.004754958387719035,17.713068899000064
1605,C,184324725121239.0,-1.6867151,12.394184,0.44472298,28,1970-01-03 03:12:04.725121239,-1.7217337,1.9912456,1.7651432,12.516332665096597,3.1694094859675817,82.23185729980469,-8.82815170288086,70.68505096435547,17753015.0,39947.0,-0.0618200637387,-0.022532804422500045,0.03844775273823,0.0018849265652103563,-0.003526735297669146,0.0028926017690289497,17.7530150450184
1605,C,184324764932801.0,-0.41060558,16.318878,2.695871,28,1970-01-03 03:12:04.764932801,-0.515588,0.32357407,1.9425098,16.545153265227018,2.035651121291761,82.16084289550781,-8.667377471923828,70.720703125,17792826.0,39811.0,-0.04174821679574,0.18140005564099998,0.06251509346888999,-0.0020615784081782955,0.00316233206912985,0.0020097159351758266,17.792826607008465
1605,C,184324804793218.0,-0.78649527,11.860276,4.124611,28,1970-01-03 03:12:04.804793218,0.63889235,0.057790596,0.72278196,12.581619033623191,0.9664041336707947,81.90753173828125,-8.402917861938477,70.77081298828125,17832687.0,39861.0,-0.023858818490925,0.17098682879699997,0.135935616501,-0.001307581016780877,0.007023246800291557,0.003955221875054893,17.832687023998005
1605,C,184324844695405.0,1.9710265,7.3484035,1.2910733,28,1970-01-03 03:12:04.844695405,1.0729877,-0.7057377,0.25326663,7.716919704680579,1.3090119523610688,81.92037963867188,-8.580081939697266,70.74395751953125,17872589.0,39902.0,0.023632582569730002,-0.007807235295500017,0.10804831746929999,-4.513632863761385e-06,0.003255596069948426,0.0048677234666414555,17.872589211008744
1605,C,184324884704467.0,6.4685345,6.6307416,2.9364884,28,1970-01-03 03:12:04.884704467,0.8133294,-1.2471584,-0.5270396,9.717594191310695,1.5794554528580664,81.67635345458984,-9.352149963378906,70.72335052490234,17912598.0,40009.0,0.1688291980245,-0.11244239184705003,0.08457025802765,0.003850101689897274,-0.0024055336661731428,0.0038532382935287366,17.912598273018375
1605,C,184324927239208.0,3.9552212,5.6748567,1.7633295,28,1970-01-03 03:12:04.927239208,1.1606057,1.2282499,-1.7672738,7.138424492283614,2.4451707694737683,81.53826904296875,-9.847414016723633,70.80313110351562,17955133.0,42535.0,0.22168722434975,-0.15513368815475004,0.09995337718825001,0.008305308012844362,-0.005690674281438283,0.0039243564119541535,17.955133014009334
1605,C,184324964526447.0,-0.18076223,7.103596,-0.20649989,28,1970-01-03 03:12:04.964526447,0.79601884,1.6663399,-1.4378407,7.108895365637378,2.3404530618116324,81.82109069824219,-9.487157821655273,70.8332290649414,17992420.0,37287.0,0.070369125807195,-0.12717751708755004,0.029024752834035,0.005444952564151004,-0.005263268954934822,0.0024046037670704705,17.992420252994634
1605,C,184325004535143.0,-0.45070848,8.639477,1.5711949,28,1970-01-03 03:12:05.004535143,0.5411543,1.2812468,-1.1057445,8.792744416918925,1.7768264513449195,81.78524017333984,-9.115259170532227,70.89826965332031,18032428.0,40008.0,-0.01263194008284,-0.07715396770800005,0.027299358980040003,0.0011549746632299974,-0.004087447021850184,0.0011267075327287565,18.032428948994493
1605,C,184325044215666.0,3.292626,9.431359,4.9458222,28,1970-01-03 03:12:05.044215666,0.7600662,0.5526059,-1.4508902,11.146886372291137,1.7286284394146967,81.35863494873047,-9.252530097961426,70.98914337158203,18072109.0,39681.0,0.05638506455556,-0.030339378342000033,0.12930087777255,0.0008680838661010012,-0.0021327217323050267,0.0031070269972897618,18.07210947200656
1605,C,184325084165769.0,6.251859,8.593389,4.3688197,28,1970-01-03 03:12:05.084165769,0.3400857,1.7760621,-0.7837683,11.489937381566103,1.9708748348096057,80.97884368896484,-9.785757064819336,71.13552856445312,18112059.0,39950.0,0.19065108787499999,-0.03146565870000002,0.18605997195250004,0.004934547144800436,-0.001234555614913951,0.006299332973257875,18.11205957501079
1605,C,184325123541397.0,3.2650926,9.024344,2.4061728,28,1970-01-03 03:12:05.123541397,-0.26977822,1.9092202,0.0974717,9.893901245735707,1.9306482829286382,80.80741882324219,-10.012653350830078,71.2563705444336,18151435.0,39376.0,0.18736974310079998,-0.03902687269600004,0.13338605234,0.00744247412025155,-0.0013878569581244494,0.00628925332627074,18.15143520300626
1605,C,184325164103321.0,-2.4594438,19.339165,0.5859809,28,1970-01-03 03:12:05.164103321,-1.6479641,0.87351686,1.1630025,19.503731446001513,2.1980428100015064,80.9030532836914,-9.64026165008545,71.27733612060547,18191997.0,40562.0,0.016339363312800004,0.17773272602899998,0.0606838691897,0.004131424387174221,0.002813093411446572,0.003935932078543846,18.191997126996284
1605,C,184325203877071.0,0.5518635,11.419145,-3.3554738,28,1970-01-03 03:12:05.203877071,-1.6383767,2.4029703,0.54408383,11.914723256380892,2.9588125469269673,81.42434692382812,-9.497305870056152,71.29815673828125,18231770.0,39773.0,-0.037935095635949996,0.22189973181500003,-0.05507552055585,-0.0004294635308443224,0.007947290872914707,0.00011153042510705802,18.23177087699878
1605,C,184325243737073.0,-0.8924387,14.523826,-3.2603042,28,1970-01-03 03:12:05.243737073,-0.14753912,2.7252128,0.4111921,14.911993561830402,2.760005713819561,81.91874694824219,-9.193084716796875,71.35257720947266,18271630.0,39860.0,-0.006787663736000002,0.12641541202999998,-0.13185245554000002,-0.0008913245942829635,0.00694192081683085,-0.0037254745635902906,18.271630878996802
1605,C,184325284494365.0,1.5975311,16.053122,2.184709,28,1970-01-03 03:12:05.284494365,-0.42903525,1.4189322,0.30493194,16.27967398251673,1.513414458095193,81.89397430419922,-9.109210968017578,71.4245376586914,18312388.0,40758.0,0.014369078019600003,0.22369922329199995,-0.02191955458080001,0.00015450164168548443,0.007134986153227037,-0.003133719794251784,18.312388171005296
1605,C,184325323541447.0,0.077811554,9.980229,-3.0891187,28,1970-01-03 03:12:05.323541447,0.9715212,-1.2258531,0.24900557,10.4476638476296,1.583847542764162,82.5716552734375,-8.93478775024414,71.26779174804688,18351435.0,39047.0,0.032708552305369,0.12560152824849996,-0.017657242777950007,0.0009191201156495323,0.0068195732227009495,-0.0007726776032335558,18.35143525301828
1605,C,184325364048010.0,0.33518824,7.9313917,-1.34195,28,1970-01-03 03:12:05.364048010,0.16777915,1.3179984,0.19574234,8.051096525167438,1.342976056840165,82.99380493164062,-8.782366752624512,71.26988220214844,18391941.0,40506.0,0.008364484827882001,-0.03419474596290002,-0.0897424343811,0.0008318522210597325,0.0018512615616302556,-0.0021751656615022394,18.39194181599305
1605,C,184325403568218.0,-3.6553473,10.060435,5.2558713,28,1970-01-03 03:12:05.403568218,1.7963022,1.4460965,0.00958738,11.924684456831802,2.306076451224537,82.58877563476562,-8.14470100402832,71.41417694091797,18431462.0,39521.0,-0.06560800310513,-0.031778308494650014,0.07734104184865001,-0.001131160542917559,-0.0013036605426084173,-0.0002450577171374779,18.4314620240184
1605,C,184325443261135.0,1.5945383,8.416218,-0.30406362,28,1970-01-03 03:12:05.443261135,1.3853765,0.6175871,-0.2790993,8.571332014261168,1.5422640150438414,82.88811492919922,-8.193984985351562,71.40999603271484,18471154.0,39692.0,-0.040898815414,-0.022293944562000016,0.09827357521727999,-0.002113734320330654,-0.0010731179341622766,0.0034852476902904467,18.471154941013083
1605,C,184325481885978.0,3.1118636,8.567052,1.3982137,28,1970-01-03 03:12:05.481885978,-0.48815745,0.6130597,-0.96113485,9.221338112583046,1.240129062492737,82.8088150024414,-8.428884506225586,71.44220733642578,18509779.0,38625.0,0.09089238669375,-0.05053559812500001,0.02113077342,0.0009655008453401718,-0.001406520543142688,0.0023059964830574697,18.509779784013517
1605,C,184325522587281.0,3.4494462,9.1751795,-1.1121067,28,1970-01-03 03:12:05.522587281,0.020240024,2.5667548,-0.72651035,9.865058502416476,2.6676688607380945,83.12210845947266,-8.681642532348633,71.51719665527344,18550481.0,40702.0,0.1335292157398,-0.03780744674350001,0.005822563556999998,0.004567204031125176,-0.0017978693061188441,0.000548527360818927,18.5504810870043
1605,C,184325562963738.0,2.4971523,9.853935,-1.5628152,28,1970-01-03 03:12:05.562963738,-0.21331921,2.7989824,-0.6130597,10.284852742891914,2.8732646513380686,83.4756088256836,-8.776763916015625,71.59565734863281,18590857.0,40376.0,0.12004993051800002,-0.011525036474000022,-0.054001323317200006,0.0051192558046524676,-0.0009959241711948908,-0.0009726328020389178,18.59085754401167
1605,C,184325602908738.0,2.099715,10.424355,-1.8632874,28,1970-01-03 03:12:05.602908738,-0.4346279,2.9055088,-0.3190467,10.795731572350656,2.9551097433287885,83.83942413330078,-8.814607620239258,71.67757415771484,18630802.0,39945.0,0.09181093214925001,0.013547147024999975,-0.0684278341785,0.004231391079621651,4.038660297984656e-05,-0.0024452163480828686,18.630802544008475
1605,C,184325642783531.0,1.6352397,10.593145,-0.6368576,28,1970-01-03 03:12:05.642783531,-0.531567,1.9070897,0.2724414,10.73751914876797,1.9984441237545396,84.03684997558594,-8.81969165802002,71.73835754394531,18670677.0,39875.0,0.07446565933125,0.028261406249999975,-0.0498466409375,0.0033151395426424687,0.0008335580309203115,-0.00235809734762525,18.670677337009693
1605,C,184325685835041.0,-0.49440265,9.79827,4.730344,28,1970-01-03 03:12:05.685835041,-0.9936254,1.366468,0.99921805,10.891587732353948,1.9628965693573777,83.48562622070312,-8.59090805053711,71.88644409179688,18713728.0,43051.0,0.024557087919775,0.017035603582499975,0.0881143415032,0.0021315141459519386,0.0009750407851494777,0.0008237313885269752,18.713728847011225
1605,C,184325722574780.0,-0.20171149,11.6747265,-0.15203181,28,1970-01-03 03:12:05.722574780,-2.543319,3.090066,1.4807175,11.677458629609962,4.267259511082405,83.51726531982422,-8.410292625427246,72.02286529541016,18750468.0,36740.0,-0.012787616751799999,0.03440694570499999,0.08410359493030001,0.0002162051853557008,0.0009449996304113744,0.0031636434922833953,18.750468586018542
1605,C,184325762548166.0,-2.4181437,14.924855,-3.9983168,28,1970-01-03 03:12:05.762548166,-1.3089437,2.2871227,1.4783207,15.639221622511682,3.021538672046656,83.95756530761719,-8.059301376342773,72.07089233398438,18790441.0,39973.0,-0.052361735754935,0.13989713564975004,-0.082950942493765,-0.0013021075338758594,0.0034837285219967117,2.303748792280691e-05,18.790441971999826
1605,C,184325802439990.0,2.1362264,11.479599,-3.3638535,28,1970-01-03 03:12:05.802439990,-0.7837683,3.3358757,2.2767365,12.151549975304395,4.114108472605897,84.43524932861328,-8.221887588500977,72.17384338378906,18830333.0,39892.0,-0.005623122465799998,0.13572163948399998,-0.14684584880379997,-0.0011565659820707802,0.005497492088817777,-0.004583526799221231,18.830333796009654
1605,C,184325842292697.0,5.217564,10.386645,-2.7868507,28,1970-01-03 03:12:05.842292697,0.63702816,2.88953,1.9489013,11.952903633603487,3.543078431911249,84.90265655517578,-8.751507759094238,72.26107788085938,18870186.0,39853.0,0.1465353044056,0.04515831106599997,-0.1225620072413,0.002807886593423425,0.003604304334634574,-0.005368355643482685,18.870186503016157
1605,C,184325882241186.0,4.685453,10.597335,-3.0897174,28,1970-01-03 03:12:05.882241186,1.231712,1.3568805,2.053031,11.991802722247257,2.7519403026201803,85.43848419189453,-9.214037895202637,72.26258087158203,18910134.0,39948.0,0.197802861558,0.02764361651999995,-0.1173785712294,0.006877810526956946,0.0014541457016027622,-0.004792573114373761,18.91013499200926
1605,C,184325922103531.0,0.65541273,11.068395,-2.1601684,28,1970-01-03 03:12:05.922103531,1.066596,6.140717,0.9518138,11.29624987502621,6.304917272349847,85.83142852783203,-9.099411010742188,72.51444244384766,18949997.0,39863.0,0.10645146529749501,0.04117309749499997,-0.10463809882269999,0.0060642451157203,0.001371620335389971,-0.004425125259143431,18.949997337011155
1605,C,184325962000562.0,-1.4496891,10.576984,-4.6938324,28,1970-01-03 03:12:05.962000562,0.8066715,5.6467004,1.1006845,11.662171822701145,5.809255605050673,86.50420379638672,-8.76075267791748,72.6983871459961,18989894.0,39897.0,-0.015844622166945002,0.040802242981499974,-0.1367270349588,0.001807470610189777,0.0016352850794954593,-0.0048148723712402525,18.989894368016394
1605,C,184326001961810.0,-3.6014779,10.2178545,-3.2399535,28,1970-01-03 03:12:06.001961810,0.5784386,5.2666674,0.9438243,11.308071998776843,5.381745165414581,86.98716735839844,-8.148791313171387,72.89439392089844,19029855.0,39961.0,-0.1009248422435,0.023873470649249957,-0.15852100917495002,-0.0023331122836528963,0.0012922530961991991,-0.005899203545814393,19.029855616012355
1605,C,184326040037073.0,-5.7945666,8.125322,0.89064306,28,1970-01-03 03:12:06.040037073,0.6516755,4.183826,1.0293118,10.019536154226188,4.3575869167689,86.92461395263672,-7.203692436218262,73.11685180664062,19067930.0,38075.0,-0.17887719716874997,-0.02392677738125002,-0.0447249975015,-0.005326731325310708,-1.0148269104512225e-06,-0.003869295852102917,19.067930879013147
1605,C,184326081761914.0,-3.7960067,6.8067155,3.1268275,28,1970-01-03 03:12:06.081761914,1.0711234,3.052249,1.0178602,8.397505163984205,3.391101396710603,86.48629760742188,-6.454169273376465,73.32958221435547,19109655.0,41725.0,-0.20008333547124998,-0.09738536765625001,0.083814479558,-0.007906064112201999,-0.0025308746258448445,0.0008155043194037314,19.10965572000714
1605,C,184326121135614.0,-1.3221979,8.654441,2.2343888,28,1970-01-03 03:12:06.121135614,0.90654004,2.3137543,0.391751,9.035488344235239,2.5156992369702484,86.24777221679688,-6.1016716957092285,73.4766845703125,19149029.0,39374.0,-0.1007620939602,-0.08148141198450001,0.1055462652981,-0.005922743969216956,-0.003521350290787446,0.0037279449839820403,19.149029419990256
1605,C,184326161522853.0,-0.1592144,10.369886,3.2495303,28,1970-01-03 03:12:06.161522853,0.36485308,1.8455707,0.23835292,10.868271805985597,1.896328318924891,85.91648864746094,-5.938348770141602,73.60570526123047,19189416.0,40387.0,-0.02991489928005,-0.011624852725500038,0.11073952034585,-0.0026388258629969886,-0.001880141356421386,0.004367567012401105,19.189416659006383
1605,C,184326201472435.0,0.5291186,8.957906,1.9458874,28,1970-01-03 03:12:06.201472435,0.13608754,0.53316486,0.19520971,9.182076245119113,0.5838590732020487,85.71611785888672,-5.881760120391846,73.65418243408203,19229366.0,39950.0,0.007388836395,-0.005437354800000053,0.1037784685575,-0.0004499581061288737,-0.00034081759532186433,0.004284996828344416,19.22936624099384
1605,C,184326241509519.0,-1.7998412,7.293337,0.13706805,28,1970-01-03 03:12:06.241509519,0.16911073,-0.84395576,0.17710021,7.513386759053287,0.8787629078541918,85.80680847167969,-5.41008996963501,73.60492706298828,19269403.0,40037.0,-0.025437960368100004,-0.06703709200450005,0.04169764367582501,-0.00036131638825550244,-0.0014508297133558855,0.002912213552742817,19.269403325015446
1605,C,184326279459521.0,-1.3599066,9.177573,-1.7824832,28,1970-01-03 03:12:06.279459521,0.13289174,-1.1411645,-0.32410672,9.447456720691278,1.1937176368679638,86.19151306152344,-5.06355094909668,73.51261901855469,19307353.0,37950.0,-0.059956214504999994,-0.059374482750000006,-0.031221752471249996,-0.0016203544682170724,-0.0023986596309666383,0.0001987800356068108,19.307353326992597
1605,C,184326319200511.0,0.8170213,15.124172,3.6876693,28,1970-01-03 03:12:06.319200511,0.34248254,2.9603698,-1.2543489,15.588682027560898,3.2333380283985313,85.94934844970703,-4.941202163696289,73.67819213867188,19347094.0,39741.0,-0.01078740235365,0.09342602402249997,0.03785700040005,-0.0014057110387898047,0.0006766211508552106,0.0001318456939692205,19.347094316995936
1605,C,184326359334833.0,1.2970588,10.682928,-0.6667852,28,1970-01-03 03:12:06.359334833,-0.9598033,0.13289174,-0.5526059,10.782018117531639,1.1154621777388634,86.09027862548828,-4.963435649871826,73.66656494140625,19387228.0,40134.0,0.0424232453667,0.12455787570000001,0.0606200812347,0.0006348364617428745,0.0043742829157314075,0.0019761395971645284,19.387228639010573
1605,C,184326398960821.0,1.1438298,13.345281,-5.9609637,28,1970-01-03 03:12:06.398960821,0.057790596,3.003513,0.23089607,14.66076259316161,3.0129293203287193,86.75255584716797,-4.967473983764648,73.75953674316406,19426854.0,39626.0,0.0483613258318,0.08773610491699999,-0.1313155889557,0.0017987147091558806,0.004206180637964622,-0.001400690094476173,19.426854627003195
1605,C,184326440069676.0,-0.87089086,10.496181,3.1196449,28,1970-01-03 03:12:06.440069676,1.2966932,2.2684808,-0.03222425,10.984555101454431,2.6131316073215567,86.4780502319336,-4.72564172744751,73.90106964111328,19467963.0,41109.0,0.005610123442229999,0.08718113067899996,-0.058401887274599995,0.0011093561541030495,0.0035953363190579807,-0.003899547865175701,19.46796348199132
1605,C,184326480798739.0,-0.82240826,11.131242,0.04129998,28,1970-01-03 03:12:06.480798739,0.8378305,0.32783514,0.19867182,11.161658008424565,0.9213611223679791,86.60127258300781,-4.5118842124938965,73.9114990234375,19508692.0,40729.0,-0.03448318992924,0.04128745568349998,0.06437106200876,-0.0005879855624747152,0.00261619852697913,0.00012155925887380142,19.508692545001395
1605,C,184326519301968.0,1.1671734,9.248801,2.0260932,28,1970-01-03 03:12:06.519301968,1.1944277,-0.68842715,-0.07137272,9.539793883431381,1.380464971140018,86.44169616699219,-4.57462215423584,73.8943862915039,19547195.0,38503.0,0.0066372460927100006,0.015016997814499985,0.03980041980477,-0.0005360761877689574,0.0010839451865167465,0.002005457282133173,19.547195774008287
1605,C,184326560568582.0,-0.019752163,6.915053,-2.4199393,28,1970-01-03 03:12:06.560568582,0.9400959,-0.505468,0.14487597,7.326285167561844,1.0771570205426184,87.04847717285156,-4.473923683166504,73.8255615234375,19588462.0,41267.0,0.0236753160936395,-0.07089971849100002,-0.008126423504349995,0.0006254542518720423,-0.0011530561170785634,0.0006535454026647161,19.588462387997424
1605,C,184326600462748.0,-0.89782566,8.502409,0.5177461,28,1970-01-03 03:12:06.600462748,0.65700185,0.90148,-0.12144015,8.565343585817246,1.122080804280799,87.06463623046875,-4.2047438621521,73.8714599609375,19628356.0,39894.0,-0.018302924835381,-0.08342908548600002,-0.037943047760399994,0.00010716308842848234,-0.00307839665292922,-0.000918947743317968,19.62835655399249
1605,C,184326638940040.0,0.21547815,8.594585,0.9391256,28,1970-01-03 03:12:06.638940040,0.05885586,0.39521313,-0.21438447,8.648426391426812,0.453451355007257,86.98352813720703,-4.123785495758057,73.8967056274414,19666833.0,38477.0,-0.013127342571134997,-0.048154080931000015,0.028028026200449998,-0.000604671199500258,-0.002531462747113455,-0.00019075014228109798,19.666833846014924
1605,C,184326680184467.0,0.42078096,9.416994,-1.6525977,28,1970-01-03 03:12:06.680184467,-0.0018642128,0.20852552,-0.29561087,9.570157353480653,0.3617625661159416,87.30472564697266,-4.070974349975586,73.88335418701172,19708078.0,41245.0,0.013121253495975,-0.03275721207250001,-0.01471357838225,-1.2557195248703957e-07,-0.0016685931399646793,0.0002745772001308294,19.70807827298995
1605,C,184326720093998.0,0.760159,11.025897,-1.5011644,28,1970-01-03 03:12:06.720093998,-0.007456851,0.1818939,-0.6679208,11.15355283825371,0.6922854834218946,87.56363677978516,-4.034769058227539,73.8725357055664,19747987.0,39909.0,0.02356506643182,0.016819468459499998,-0.06293174582444999,0.0007320571709991853,-0.00031802970492560866,-0.001549373621882595,19.74798780400306
1605,C,184326759868374.0,2.0410569,13.51886,-0.75596917,28,1970-01-03 03:12:06.759868374,0.057257965,0.41731736,-0.8338358,13.692953602295894,0.9341918405097268,87.70462036132812,-4.106047630310059,73.88175964355469,19787762.0,39775.0,0.05570918121124999,0.09833885483749998,-0.04488874387337499,0.0015765666000015545,0.002290211154569087,-0.002144279988865494,19.787762179999845
1605,C,184326799728946.0,0.9983821,13.202826,0.9804256,28,1970-01-03 03:12:06.799728946,-0.03222425,0.45912898,-0.67990506,13.276769771334132,0.8210412371967114,87.65270233154297,-4.0763702392578125,73.9068603515625,19827622.0,39860.0,0.06057601927,0.14193520198,0.004473416649900001,0.0023175640455913122,0.004788661952372774,-0.0008054774715638565,19.827622751996387
1605,C,184326839749311.0,-0.8146271,13.143569,0.47225627,28,1970-01-03 03:12:06.839749311,-0.54461646,-0.071106404,-0.18136127,13.17725500073402,0.5784073991995224,87.63298034667969,-3.87749981880188,73.90237426757812,19867643.0,40021.0,0.0036770294275000003,0.13499873714749994,0.029068890559634998,0.0012857356309613239,0.005541586588910839,0.0006711983384164002,19.867643117002444
1605,C,184326879991239.0,-0.7374141,11.489176,0.66618663,28,1970-01-03 03:12:06.879991239,-1.2711269,-0.23435818,0.5611281,11.53207480637572,1.40909619864867,87.54635620117188,-3.7179906368255615,73.89329528808594,19907885.0,40242.0,-0.031228620985200004,0.10126386214499997,0.0229066095909,-0.0005543655737324818,0.0047538397603643905,0.0010457990385289147,19.907885045016883
1605,C,184326919696551.0,2.9520507,13.277045,1.1701661,28,1970-01-03 03:12:06.919696551,-1.4687333,-0.8956211,1.4104102,13.651513321569322,2.224538512491555,87.41252899169922,-4.008904457092285,73.85591125488281,19947590.0,39705.0,0.0439660731015,0.10256240240249996,0.036456192572325,0.0002528702681388456,0.004046460916929242,0.001178500029945424,19.947590357012814
1605,C,184326957962540.0,1.158195,13.545197,0.7350199,28,1970-01-03 03:12:06.957962540,-0.84155893,-1.2490226,2.202967,13.614478751690422,2.668584360866732,87.36158752441406,-4.143571376800537,73.79930877685547,19985856.0,38266.0,0.0786413309781,0.13818315618599997,0.036451923738000006,0.0023458474622549868,0.004606184772473769,0.0013949509893654486,19.98585634600022
1605,C,184326999551238.0,-2.0871453,16.763002,0.9463082,28,1970-01-03 03:12:06.999551238,-0.35313517,-0.18269286,2.3204124,16.918921678543917,2.3542291382657865,87.3294677734375,-3.980943441390991,73.7965316772461,20027445.0,41589.0,-0.019317057013349997,0.22267164410549994,0.03496237717545,0.0012336186149599939,0.007503795144661595,0.001485024680344736,20.027445043990156
1605,C,184327037859675.0,-8.92738,11.815386,0.7757214,28,1970-01-03 03:12:07.037859675,0.3438141,-1.6144083,0.80773675,14.829133612042678,1.8376509330578161,87.32980346679688,-3.08543062210083,73.71914672851562,20065753.0,38308.0,-0.2109722175962,0.17197204375199998,0.0329837549584,-0.004410960765871321,0.007559005197222554,0.001301440214891763,20.065753481001593
1605,C,184327079312644.0,1.2138603,11.423933,1.5903485,28,1970-01-03 03:12:07.079312644,-1.5161376,0.48043427,3.2466598,11.597797651617196,3.6152856272859317,87.12153625488281,-3.319744348526001,73.75821685791016,20107206.0,41453.0,-0.15987426606204996,0.07543034525349997,0.049040347782349995,-0.007686349643542717,0.005127785615722494,0.001700072565456155,20.107206450018566
1605,C,184327119256967.0,1.6849195,8.486847,-5.6820393,28,1970-01-03 03:12:07.119256967,-1.3994912,1.8940402,3.4184337,10.351381373016537,4.1511026076681325,87.89120483398438,-3.653169631958008,73.81034851074219,20147150.0,39944.0,0.057894430165599996,0.006206898159999952,-0.08171924865759998,-0.0020367412825238987,0.0016304590254544204,-0.0006526630082804928,20.147150773002068
1605,C,184327159117176.0,2.6964695,2.9460652,2.5821466,28,1970-01-03 03:12:07.159117176,-2.2868564,2.1062942,2.6711507,4.755810024693254,4.098930776834989,87.0220947265625,-4.533670425415039,73.97503662109375,20187010.0,39860.0,0.08732108277,-0.16277005985400006,-0.061780861510999985,0.002894145172806508,-0.0031203038125614223,-0.0028599571956601975,20.187010982015636
1605,C,184327199068268.0,0.3286042,-1.0378864,-0.18076223,28,1970-01-03 03:12:07.199068268,-1.8389127,3.074087,1.7502295,1.1035687035056645,3.986842623487983,87.76463317871094,-7.350396633148193,74.04841613769531,20226962.0,39952.0,0.060428872231200005,-0.3534118202912,0.04797005417512001,0.0029514531011039713,-0.010311249237780517,-0.00027588468734153845,20.22696207399713
1605,C,184327237271186.0,-1.5269021,-1.6567876,4.6740804,28,1970-01-03 03:12:07.237271186,-1.6487631,2.2431805,0.6426208,5.188776614979906,2.857138429984536,84.89204406738281,-6.594459533691406,74.4990463256836,20265164.0,38202.0,-0.022888688187900002,-0.425850568074,0.08582687036517,0.0007170550554110734,-0.014884690880163686,0.0025556550556440796,20.265164992015343
1605,C,184327278872593.0,1.2078748,4.748899,5.4713492,28,1970-01-03 03:12:07.278872593,0.10892329,0.2892193,0.123038046,7.344839366045841,0.3326416200062948,83.90867614746094,-6.715352535247803,74.62850189208984,20306766.0,41602.0,-0.006636086867300003,-0.3433805907686,0.2110350811096,-0.0006141448459232153,-0.016000777335084922,0.006175025452626691,20.306766399007756
1605,C,184327318805978.0,5.088876,8.717288,4.8027687,28,1970-01-03 03:12:07.318805978,1.1872373,-1.0892329,-0.4348942,11.178298448512622,1.6688599947710834,83.47762298583984,-7.209585189819336,74.63162231445312,20346699.0,39933.0,0.1257240748482,-0.12247077726450005,0.20513817505035,0.0023777703120206398,-0.009301421339832893,0.008309523319117643,20.346699784015073
1605,C,184327358158218.0,6.245275,6.615778,4.654328,28,1970-01-03 03:12:07.358158218,1.5821841,-1.2865732,-1.7630126,10.219332047765795,2.695698527842053,83.01863861083984,-7.872844219207764,74.62845611572266,20386052.0,39353.0,0.2230164221515,-0.08395832685100003,0.18608256321754998,0.006861992389214597,-0.0040618022671286376,0.007697854856528334,20.386052023997763
1605,C,184327397791708.0,1.4652514,3.602675,0.7613561,28,1970-01-03 03:12:07.397791708,2.645318,-0.7568704,-2.765693,3.963065976215154,3.9012328684364848,83.04251861572266,-8.083159446716309,74.58939361572266,20425685.0,39633.0,0.15279564640560003,-0.18590942612550004,0.10731990396765001,0.007447279856561773,-0.0053478343268588135,0.005814209990975517,20.42568551399745
1605,C,184327436495510.0,0.75477207,9.916783,3.318962,28,1970-01-03 03:12:07.436495510,2.7808728,-0.9438243,-3.3641052,10.484644710441318,4.465563977340082,82.90225219726562,-7.827212810516357,74.56181335449219,20464389.0,38704.0,0.04296189419144,-0.11767064878400003,0.07896231587119999,0.003788299925633919,-0.005874881609648646,0.0036049335183214255,20.464389316010056
1605,C,184327476765144.0,-0.635062,18.148048,-0.88286185,28,1970-01-03 03:12:07.476765144,2.590723,-1.5954999,-1.4221281,18.18060491293767,3.3585583107099124,83.29141998291016,-7.52447509765625,74.44034576416016,20504658.0,40269.0,0.002410302404415,0.1704351397695,0.049049658470175,0.0009135464923592425,0.0010623866437475492,0.0025774570973764147,20.504658949997975
1605,C,184327516499727.0,3.1836896,3.9175124,2.2583308,28,1970-01-03 03:12:07.516499727,0.49215218,-0.88869685,-0.12170646,5.530175483249203,1.0231365118518674,82.85509490966797,-8.200153350830078,74.45880126953125,20544393.0,39735.0,0.050634858843,0.04898452124699995,0.027327129364125003,0.0010538747410830174,0.004359320115245313,0.0015174158322979554,20.544393532996764
1605,C,184327558145978.0,1.2545617,7.3430166,0.56802434,28,1970-01-03 03:12:07.558145978,0.8250473,0.019707393,-1.7020262,7.4710420623775695,1.8915561355832362,82.96544647216797,-8.152470588684082,74.43946838378906,20586039.0,41646.0,0.09241770681990001,-0.17365280463300004,0.05885319308022,0.002978783574798567,-0.00259596766494668,0.0017945328542585963,20.586039784015156
1605,C,184327598108633.0,-5.5018754,19.612701,-5.792771,28,1970-01-03 03:12:07.598108633,-1.0167949,0.89642006,-2.2280006,21.177461351421876,2.607954651875062,83.46646118164062,-7.4879608154296875,74.3946304321289,20626002.0,39963.0,-0.08486769869655,0.14697827122440002,-0.10439827538679,0.00015086048731671818,-0.0005329971893039412,-0.0009100590621087284,20.626002439006697
1605,C,184327637493998.0,-0.5722142,17.995419,-0.7116765,28,1970-01-03 03:12:07.637493998,-0.3334278,2.1923141,-1.2703278,18.018574236517573,2.555611067890513,83.65740966796875,-7.1830267906188965,74.46886444091797,20665387.0,39385.0,-0.11961400944800002,0.3546249031,-0.12808883239375002,-0.004026756037636551,0.009877820510383249,-0.004578252369968285,20.665387804008787
1605,C,184327677390977.0,5.3701944,19.612701,1.6490064,28,1970-01-03 03:12:07.677390977,1.8532939,0.62238073,-1.1177287,20.40137864254358,2.251971025492165,83.78430938720703,-7.325430393218994,74.48899841308594,20705284.0,39897.0,0.0957125080197,0.35923498181999997,0.01869832551015,-0.0004767991012424431,0.01424043391432662,-0.0021821765265674954,20.70528478300548
1605,C,184327717817747.0,2.7724855,8.669404,2.973,28,1970-01-03 03:12:07.717817747,2.966229,-2.44638,-1.4460965,9.575174701431106,4.107856457101836,83.64517974853516,-7.507744312286377,74.39749908447266,20745711.0,40427.0,0.16459206015865002,0.1754957294175,0.0934269263664,0.005261666388873078,0.010808779231599204,0.0022664437788066437,20.745711552997818
1605,C,184327757682697.0,-2.2319946,3.3423057,4.3448777,28,1970-01-03 03:12:07.757682697,0.85966843,-0.100933805,-0.8476842,5.918679710428579,1.2115221605319826,82.72709655761719,-6.809526443481445,74.50790405273438,20785576.0,39865.0,0.010773334864249999,-0.15125359640475003,0.14586359725524997,0.0034954707362939543,0.0004832063162766387,0.004769658362088538,20.785576502996264
1605,C,184327797565665.0,-1.2126632,4.9703627,5.1571107,28,1970-01-03 03:12:07.797565665,0.92784536,-2.4040356,-0.8117315,7.26435462916287,2.7017017241422376,81.89768981933594,-6.416679382324219,74.48542022705078,20825459.0,39883.0,-0.0686916435187,-0.22508632310140003,0.18948390167859996,-0.0011549779520327146,-0.007504782504831892,0.00668733214998937,20.825459471001523
1605,C,184327837528060.0,4.4125137,3.5571852,-6.1195793,28,1970-01-03 03:12:07.837528060,-0.6514092,-2.5158882,0.18322548,8.34104876551955,2.60530208560641,83.01499938964844,-7.142947196960449,74.2273941040039,20865421.0,39962.0,0.0639362128405,-0.2212386654101,-0.019231085096600004,-9.501826038111422e-05,-0.008918019595448282,0.0034018215281249407,20.865421866008546
1605,C,184327877390352.0,4.4963107,0.7733272,-1.0007763,28,1970-01-03 03:12:07.877390352,-0.49348375,-0.38056573,1.201352,4.670802722427487,1.353367324220773,83.32904815673828,-8.548206329345703,74.16996002197266,20905284.0,39863.0,0.17756623352860001,-0.30434379209940005,-0.1419193676414,0.004813506009805717,-0.0104756467518506,-0.0032119702487474477,20.905284158012364
1605,C,184327917292905.0,5.530606,-1.9997569,7.4711065,28,1970-01-03 03:12:07.917292905,-0.46711847,-2.8224182,1.0338391,9.50810510673267,3.041885508265423,80.98416137695312,-10.309511184692383,74.4180679321289,20945186.0,39902.0,0.20004701508170003,-0.4155080989447,0.1290895578202,0.007533761923024096,-0.01436176507822084,-0.0002559675357427611,20.94518671100377
1605,C,184327957243217.0,0.62608373,8.03554,0.15023616,28,1970-01-03 03:12:07.957243217,-2.2599585,0.8271778,2.0189424,8.061293620278462,3.1412997228938297,81.06148529052734,-10.259072303771973,74.4397964477539,20985137.0,39951.0,0.12298295570161501,-0.27095201468595004,0.15224013030483002,0.0064526851813821095,-0.013712383999829051,0.005619701185141537,20.985137023002608
1605,C,184327997106967.0,1.6849195,19.612701,2.7952304,28,1970-01-03 03:12:07.997106967,-1.9475697,2.5963159,5.579323,19.882412007248153,6.454667235983579,80.95378112792969,-10.379607200622559,74.61058044433594,21025000.0,39863.0,0.046061760878745,0.1604135154915,0.05870756674064,0.003369314768521446,-0.002203198096694181,0.0042045040236617865,21.025000772991916
1605,C,184328035338113.0,-5.899313,10.11251,0.748188,28,1970-01-03 03:12:08.035338113,1.6184031,-2.3323965,0.9235843,11.73134850114909,2.985349223542926,81.15885162353516,-9.512534141540527,74.48358917236328,21063231.0,38231.0,-0.08056023894925,0.1935484708705,0.0677342144252,-0.0006594556575567384,0.006766160350302812,0.002416997867875615,21.063231918989914
1605,C,184328076957902.0,7.3244615,15.321095,-0.5674258,28,1970-01-03 03:12:08.076957902,0.42690474,0.34301516,2.9851372,16.99134074470031,3.0349548859658744,81.4229507446289,-10.05664348602295,74.4815902709961,21104851.0,41620.0,0.029657340284999993,0.12139732004999997,0.0037616613819999993,-0.0010592893212030426,0.0065540219090556035,0.0014878291755478319,21.104851707990747
1605,C,184328116817282.0,4.4286747,14.132973,-2.0069396,28,1970-01-03 03:12:08.116817282,-0.23169503,3.2354746,2.02347,14.945965742473694,3.8231412889235283,81.77853393554688,-10.321941375732422,74.58902740478516,21144711.0,39860.0,0.234240004466,0.19639157523999995,-0.051307102422,0.005259474080887429,0.006333532683129699,-0.0009475806399271999,21.14471108801081
1605,C,184328155045924.0,-3.650559,2.4624364,-0.85473,28,1970-01-03 03:12:08.155045924,-1.3198626,3.2107072,2.2572954,4.485614496301032,4.140780183718011,82.07014465332031,-9.131683349609375,74.70011138916016,21182939.0,38228.0,0.014872903489800004,-0.05742974472840003,-0.05469795273439999,0.004761544122667161,0.0026561164283987206,-0.002026180624259429,21.182939730002545
1605,C,184328195373217.0,-2.3427265,-3.3159695,2.3319526,28,1970-01-03 03:12:08.195373217,-1.237571,3.6173718,1.732919,4.682096123252839,4.197614677413499,79.57565307617188,-7.592968940734863,75.2418212890625,21223267.0,40328.0,-0.120848608822,-0.41242504142840003,0.029786716506400007,-0.002136894122318481,-0.009474151908065716,-0.0005023101673013918,21.22326702301507
1605,C,184328236530665.0,-0.2645593,-3.0454245,5.379173,28,1970-01-03 03:12:08.236530665,-0.7318367,1.9600866,0.5390238,6.187091737831737,2.1605719363013325,76.63604736328125,-7.59184455871582,75.72584533691406,21264424.0,41157.0,-0.0536540308353,-0.534246546429,0.1586833981596,-0.003591002570187748,-0.019481081270723507,0.003878432254654281,21.26442447100999
1605,C,184328276433528.0,1.7351977,6.938995,2.6677392,28,1970-01-03 03:12:08.276433528,0.6623282,-0.32756883,-1.160872,7.633963263425292,1.3760827676004117,76.48535919189453,-7.679255485534668,75.72116088867188,21304327.0,39903.0,0.029341442037600002,-0.31336682816925004,0.1605479687583,-0.0004850726153973115,-0.01691115824329699,0.006369144617062482,21.304327334015397
1605,C,184328316332957.0,0.85532856,9.759963,-2.059612,28,1970-01-03 03:12:08.316332957,1.1568772,-0.70174295,-2.2471755,10.011516683173669,2.6230908774868613,77.1694107055664,-7.5264129638671875,75.57854461669922,21344226.0,39899.0,0.05167970362386999,-0.057874337379,0.012131833576400002,0.0016163313453734956,-0.007406075632104814,0.003444875716676097,21.344226763001643
1605,C,184328356237957.0,-3.164536,-0.66858083,5.7921724,28,1970-01-03 03:12:08.356237957,1.2159994,-0.16964336,-2.6144252,6.634044734011163,2.888365028314027,75.97484588623047,-6.704292297363281,75.697509765625,21384131.0,39905.0,-0.0460744614466,-0.209673197253075,0.07447391138100001,0.00011183859454197955,-0.005338242184746478,0.001728001126262524,21.38413176301401
1605,C,184328396184205.0,-3.0885203,13.641562,4.8817773,28,1970-01-03 03:12:08.396184205,1.991512,-1.3843112,-3.1505196,14.814280983232072,3.975954136377028,75.94711303710938,-6.108921527862549,75.60761260986328,21424078.0,39947.0,-0.12489542000805001,-0.13236476060100502,0.21319613433295004,-0.0034148669272344523,-0.006831695151198468,0.005745777658067582,21.42407801101217
1605,C,184328436043996.0,1.0618285,19.612701,5.943007,28,1970-01-03 03:12:08.436043996,0.9086706,-2.1856563,-0.9403622,20.52083946822991,2.546970119224584,75.93462371826172,-6.011508464813232,75.49700927734375,21463937.0,39859.0,-0.0403909542281,0.2721226344585,0.21573253870685002,-0.0032940747953393514,0.002785304547042946,0.008548333989346695,21.463937802007422
1605,C,184328475950145.0,2.0021513,12.650962,-3.176507,28,1970-01-03 03:12:08.475950145,0.91319793,-2.5587652,-1.0343717,13.196425503695487,2.907083525089744,76.66670227050781,-6.076508522033691,75.28878784179688,21503843.0,39906.0,0.0611355889494,0.252678067839,0.05519997449999999,0.00041391769659409895,0.010471348412942016,0.005405916436016278,21.503843951009912
1605,C,184328515563321.0,2.336741,14.858416,-3.3488896,28,1970-01-03 03:12:08.515563321,-0.019707393,-0.011717909,-1.6026903,15.409346062799846,1.6028542942027757,77.29267883300781,-6.079529285430908,75.20346069335938,21543457.0,39614.0,0.0859404397861,0.156661050046,-0.12924853045620002,0.0029131349011640487,0.008107779907948195,-0.001466679747824454,21.543457127001602
1605,C,184328555803269.0,2.6150668,10.791864,0.2801216,28,1970-01-03 03:12:08.555803269,0.04234426,1.1225225,-1.0700581,11.10771673539368,1.5514103701912036,77.56265258789062,-6.205732822418213,75.217529296875,21583697.0,40240.0,0.099630372936,0.12173163359999997,-0.061743612159999996,0.0037336847519686515,0.00560126079495752,-0.003842761909437944,21.583697074995143
1605,C,184328595665560.0,0.5267244,5.0661306,1.0073603,28,1970-01-03 03:12:08.595665560,0.57364494,0.6823019,-0.52837116,5.192099057590081,1.0362337972923674,77.6181411743164,-6.1630539894104,75.24211883544922,21623559.0,39862.0,0.06261904040720001,-0.07458190962740002,0.0256608017489,0.0032337930573433193,0.0009397411484978897,-0.000719166494303634,21.62355936600943
1605,C,184328635649103.0,-0.061650693,3.004723,1.8531121,28,1970-01-03 03:12:08.635649103,0.6111955,0.31052458,-0.44554687,3.530748584909833,0.8176169441561392,77.1720962524414,-5.967733383178711,75.3028564453125,21663542.0,39983.0,0.0092975210134905,-0.23048493025560002,0.0571851339846,0.0014377199376417343,-0.006098743729520995,0.001656214524216265,21.663542908994714
1605,C,184328675517383.0,0.6793547,3.0095115,0.7835025,28,1970-01-03 03:12:08.675517383,0.18082865,0.3368899,-0.30306774,3.1831679887418116,0.48789738717433206,77.13641357421875,-6.107834815979004,75.32054138183594,21703411.0,39869.0,0.0123136205275415,-0.27082544235975003,0.0525595937437,0.0004308073010497024,-0.009993371622900695,0.0021877062748997963,21.703411188995233
1605,C,184328715380143.0,1.7040731,3.3985693,0.36152446,28,1970-01-03 03:12:08.715380143,0.20586236,-0.052464273,0.105993815,3.819010127274395,0.23741630109249523,77.29947662353516,-6.613636493682861,75.30220794677734,21743273.0,39862.0,0.0475040994818,-0.2629281415752,0.022821532339760003,0.0011922269775061854,-0.01063824268140749,0.0015024212239694416,21.74327394901775
1605,C,184328755275457.0,2.307412,5.832874,-0.45190558,28,1970-01-03 03:12:08.755275457,0.13315806,-0.7235809,0.5030711,6.288941714696929,0.8912804942569895,77.70515441894531,-7.021245956420898,75.22525787353516,21783169.0,39896.0,0.0800211047748,-0.20683196905160003,-0.0018029225817599998,0.0025438727745106565,-0.009370774686783406,0.0004192792274525841,21.783169263013406
1605,C,184328795403060.0,5.429451,14.858416,-3.1399956,28,1970-01-03 03:12:08.795403060,0.7438209,-1.5499598,1.464206,16.127958226585175,2.2582170230801224,78.30815887451172,-7.436841011047363,75.09423828125,21823296.0,40127.0,0.1552285508005,0.02189509691499998,-0.07206610932493002,0.004719931464635031,-0.003710480934112675,-0.0014820713216598753,21.82329686600133
1605,C,184328835092695.0,1.429937,16.257229,-0.2657564,28,1970-01-03 03:12:08.835092695,-0.6783071,1.113734,0.13022858,16.322157977625107,1.3105202889368888,78.58154296875,-7.376181125640869,75.10997772216797,21862986.0,39690.0,0.13612455486000002,0.22852797502499994,-0.06758714844000001,0.005781902381832623,0.004969645862649298,-0.0027714189003450367,21.862986501015257
1605,C,184328875034624.0,-0.5422867,16.079458,-2.6982653,28,1970-01-03 03:12:08.875034624,0.24554345,0.1555286,-0.75101143,16.3132976454163,0.8052942935638545,79.1094970703125,-7.1186676025390625,75.04513549804688,21902928.0,39942.0,0.0177272641413,0.2543643760769999,-0.059194477370699994,0.0030725746772749625,0.00964384314385804,-0.00253195584906549,21.902928430004977
1605,C,184328914897592.0,-6.7444663,17.123331,2.9586349,28,1970-01-03 03:12:08.914897592,0.58296597,0.7752462,-1.365669,18.64000565125705,1.675084418873712,79.16117095947266,-6.364574432373047,75.06766510009766,21942791.0,39863.0,-0.1452359174195,0.2711239889535,0.005189556682399996,-0.0025414387228144437,0.01047377134760541,-0.0010763990766988515,21.942791398003465
1605,C,184328954909153.0,1.3341689,12.73835,1.074398,28,1970-01-03 03:12:08.954909153,-0.74435353,-0.690824,-1.0599382,12.853011259569923,1.4679131324498398,79.27909088134766,-6.309665679931641,75.00688934326172,21982802.0,40011.0,-0.1082357046357,0.20529005924549998,0.08068283968095,-0.005070826535025304,0.009530901241245093,0.0017179202254469983,21.982802959013497
1605,C,184328994706134.0,0.5279215,9.484032,0.90141696,28,1970-01-03 03:12:08.994706134,-0.66365975,-0.47564057,0.7033408,9.541389658899895,1.0776671548045933,79.38044738769531,-6.270877361297607,74.97541046142578,22022599.0,39797.0,0.0370528058244,0.05218146822699996,0.03931575398156,-0.001416432911996653,0.00512329718941154,0.0023877920159934554,22.022599940013606
1605,C,184329033243425.0,0.9516952,9.894637,1.5556326,28,1970-01-03 03:12:09.033243425,-0.5070659,-1.7025589,1.2378373,10.061290071439885,2.165193713316042,79.40525817871094,-6.326373100280762,74.8980941772461,22061137.0,38538.0,0.0285107341923,-0.004264827039000055,0.04734488797164001,0.0012633438525817926,0.0009233057590515703,0.001669863909796211,22.061137231008615
1605,C,184329074558372.0,5.566519,10.193314,2.5959132,28,1970-01-03 03:12:09.074558372,-0.31158987,-0.8644621,2.011752,11.900779361953202,2.2116801484226936,79.31031799316406,-6.959893226623535,74.8835220336914,22102452.0,41315.0,0.1346500098365,0.010079847782499977,0.0857605573635,0.0033704930697749354,0.00012012379100884965,0.0027496257370106547,22.102452177990926
1605,C,184329114418789.0,-0.4830302,14.761451,1.7208325,28,1970-01-03 03:12:09.114418789,-1.6413062,2.3848608,1.9981698,14.869264214902138,3.517688108284633,79.3134536743164,-6.816709995269775,75.00789642333984,22142312.0,39860.0,0.10131393178400001,0.10672046644999997,0.086032741801,0.004702761356496565,0.002327830262653724,0.0034238404523484847,22.14231259500957
1605,C,184329153034570.0,-3.5942953,12.171523,-0.7332243,28,1970-01-03 03:12:09.153034570,-2.3193471,1.0471549,1.6732641,12.712299112168562,3.045606196346013,79.52738189697266,-6.328991413116455,75.0361328125,22180928.0,38616.0,-0.078725000754,0.1415850619919999,0.019068739125599997,0.00043614708032724015,0.004794283143158134,0.0020292993937307924,22.180928376008524
1605,C,184329194266029.0,-4.0743327,8.72088,1.2060791,28,1970-01-03 03:12:09.194266029,-1.5984293,0.008255799,1.7473,9.70095674251494,2.3681430859041477,79.50503540039062,-5.6737518310546875,75.04585266113281,22222159.0,41231.0,-0.15809260053399998,0.026643534046499964,0.009748138129399998,-0.004882113259352764,0.003468116621631694,0.0005940743330504523,22.22215983501519
1605,C,184329234308320.0,1.4143747,8.347982,1.7890673,28,1970-01-03 03:12:09.234308320,-0.6897587,-0.93130744,2.5579662,8.653902071797056,2.8082542072197603,79.43312072753906,-5.901310920715332,75.02731323242188,22262202.0,40043.0,-0.053256349097000014,-0.050677179467000046,0.0599673236476,-0.004231522995037066,-0.00048118963178654244,0.0013958081179682056,22.262202126003103
1605,C,184329274068424.0,2.7970262,5.8885393,-1.2725182,28,1970-01-03 03:12:09.274068424,-1.1310445,0.51505536,2.4967136,6.642104577651737,2.7889285550673293,79.87718200683594,-6.496097564697266,75.0215072631836,22301962.0,39760.0,0.083722649892,-0.10662595655600003,0.010268996107999999,0.0006056700598045996,-0.0031271863441372414,0.0013962980367413277,22.3019622300053
1605,C,184329313992435.0,0.47884035,2.4833858,0.50038815,28,1970-01-03 03:12:09.313992435,-1.5438346,1.7243968,1.7196032,2.578154652671206,2.883401595591159,79.75704193115234,-6.670607089996338,75.12589263916016,22341886.0,39924.0,0.0653928480711,-0.22413483115380003,-0.015413260058099999,0.002976643570339402,-0.006602646844263029,-0.0001026897969718962,22.341886241018074
1605,C,184329353835351.0,-0.4357447,0.095768064,3.627814,28,1970-01-03 03:12:09.353835351,-0.84422207,1.2929647,1.1539477,3.655144235766408,1.927709499187174,78.30498504638672,-6.5096659660339355,75.36101531982422,22381729.0,39843.0,0.0008585299914750009,-0.3390807862983241,0.08223997913122501,0.001319826828073588,-0.01122009992307249,0.00133128848401526,22.381729157001246
1605,C,184329393785820.0,1.4951789,2.1841104,4.140772,28,1970-01-03 03:12:09.393785820,0.15153387,0.15686019,0.19307919,4.914457339155298,0.29128543831621434,77.25110626220703,-6.850892066955566,75.49404907226562,22421679.0,39950.0,0.021162198145,-0.34596942768160005,0.15517750535,0.00043986404452608815,-0.013683878024248985,0.00474241425251247,22.421679626015248
1605,C,184329433648790.0,5.8885393,5.1277814,4.525041,28,1970-01-03 03:12:09.433648790,0.7709851,-0.002130529,-0.97951066,9.02469020108233,1.2465406919268482,76.76558685302734,-7.617264747619629,75.54898071289062,22461542.0,39863.0,0.1471685793033,-0.24492042858830004,0.1727226518095,0.0033550848907107915,-0.011777321170243514,0.006535541982424575,22.461542595992796
1605,C,184329473548424.0,5.0906715,4.9266686,1.9524715,28,1970-01-03 03:12:09.473548424,1.4397049,-0.9755159,-2.3744745,7.3484110373229985,2.9432143349384305,76.69587707519531,-8.360960006713867,75.49419403076172,22501442.0,39900.0,0.21903525546,-0.19043372250000004,0.12922637437499998,0.007305766503527834,-0.008685315314211586,0.006023883072380774,22.501442230015527
1605,C,184329512976134.0,-1.0253168,8.565855,1.2378023,28,1970-01-03 03:12:09.512976134,2.536661,-1.0391655,-3.588876,8.715348584839997,4.516031987119583,76.96283721923828,-7.825291156768799,75.3841552734375,22540869.0,39427.0,0.08014236987845,-0.1203997360114,0.06289146255629999,0.005897838117109534,-0.006127615384364484,0.0037873149783451817,22.54086994001409
1605,C,184329553412124.0,-2.8030117,19.612701,-1.7998412,28,1970-01-03 03:12:09.553412124,2.315086,-1.7265273,-3.4141726,19.893575431554666,4.47181107020769,77.54322814941406,-7.2942657470703125,75.20210266113281,22581305.0,40436.0,-0.07740114561299999,0.17344124520800006,-0.011363302480199998,5.5422072198868295e-05,0.00107239323293686,0.0010417963404185896,22.581305930012604
1605,C,184329593306704.0,3.751714,6.0806737,-0.3417723,28,1970-01-03 03:12:09.593306704,0.23835292,-1.4721955,-0.68176925,7.153094357599024,1.6398112741832027,77.89830780029297,-7.872579097747803,75.07815551757812,22621200.0,39895.0,0.018924239129250005,0.12154759182825,-0.04271983529125,-0.0011664680920846027,0.005884289826780598,-0.0010788233906959988,22.621200510009658
1605,C,184329632692124.0,1.7818847,8.932767,-0.65900403,28,1970-01-03 03:12:09.632692124,0.216515,-0.7507451,-0.8538095,9.132564025066527,1.1573623515084894,78.31407928466797,-7.930517673492432,74.97726440429688,22660585.0,39385.0,0.10897039239975002,-0.09032081901525003,-0.019707787878525,0.002518565031384833,0.000614933223620002,-0.0012293559692707944,22.660585930017987
1605,C,184329673067435.0,1.110311,16.424822,-0.9331401,28,1970-01-03 03:12:09.673067435,0.3502057,0.23515713,-1.1635351,16.488733083370384,1.2376416432208222,78.70341491699219,-7.776002407073975,74.92621612548828,22700961.0,40376.0,0.05838764679160001,0.11623420673199995,-0.032142205696439996,0.0033786240951949745,0.0005231394712257474,-0.0010467476702913934,22.700961241003824
1605,C,184329712973842.0,1.1893197,10.123882,1.602918,28,1970-01-03 03:12:09.712973842,0.8492821,-0.15259913,-0.9193232,10.31876030409933,1.2608416736114836,78.80573272705078,-7.703620433807373,74.90184783935547,22740867.0,39906.0,0.045884531357099995,0.1386474909119999,0.0133640784387,0.002080542770601011,0.005085654513090729,-0.0003746799731736861,22.740867648011772
1605,C,184329752875456.0,0.8415619,7.215525,-0.5009867,28,1970-01-03 03:12:09.752875456,0.49188587,0.7704525,-0.7307714,7.281690403383921,1.1702886835819044,79.20175170898438,-7.640203952789307,74.8826904296875,22780769.0,39902.0,0.040518118801599994,-0.04510109094300002,0.0219846313663,0.0017238192733162235,0.0018663442257815166,0.000705242109319555,22.780769261997193
1605,C,184329792820559.0,0.15622166,5.6987987,2.0901382,28,1970-01-03 03:12:09.792820559,-0.47617322,1.9246665,-0.7392935,6.072016923994373,2.116042757320766,78.93193054199219,-7.434266090393066,75.00175476074219,22820714.0,39945.0,0.0199282321521,-0.13352966990175003,0.031739328333750004,0.001207264744422773,-0.0035677028709717703,0.0010730017851092487,22.820714364992455
1605,C,184329832678061.0,1.5005659,6.245275,1.678934,28,1970-01-03 03:12:09.832678061,0.2231729,0.7914915,-0.12357068,6.638823481779269,0.831585624468294,78.8404541015625,-7.561498165130615,75.0524673461914,22860571.0,39857.0,0.033017290889459996,-0.15257112726955,0.0751119553377,0.0010551248559337284,-0.005701559736428251,0.002129385806646491,22.860571867000544
1605,C,184329872626081.0,0.91099375,4.7417164,0.8846575,28,1970-01-03 03:12:09.872626081,0.80587256,-1.2596753,0.23595607,4.9088087070973,1.5138981839479457,78.90336608886719,-7.663543701171875,74.9904556274414,22900519.0,39948.0,0.0481684924491,-0.1720362337764,0.05120517662099999,0.0016216048364043974,-0.006483707429531805,0.002523058393743073,22.900519887014525
1605,C,184329912489258.0,0.20530279,6.2303114,0.32680854,28,1970-01-03 03:12:09.912489258,0.4165184,-0.3669836,0.9257148,6.2422538556493095,1.079403738712517,79.12874603271484,-7.570097923278809,74.95433807373047,22940383.0,39864.0,0.022250022635279997,-0.17197274189040002,0.024146941109279996,0.0014035818426618618,-0.006856786902990657,0.0015019184105999406,22.94038306400762
1605,C,184329951912175.0,1.1192893,10.1226845,0.53211135,28,1970-01-03 03:12:09.951912175,0.059388492,0.12330436,0.5552691,10.198269093941068,0.5718869919764338,79.3266830444336,-7.566215991973877,74.93984985351562,22979805.0,39422.0,0.026109034685989997,-0.06400169781510003,0.01693016995179,0.0009532053788595528,-0.004651292181035111,0.0008096709361247507,22.97980598101276
1605,C,184329992336655.0,-0.25198972,12.75511,-1.7292122,28,1970-01-03 03:12:09.992336655,0.515588,-0.4527374,-0.4924185,12.874257445138905,0.8445579425030647,79.81159210205078,-7.339125156402588,74.8537826538086,23020230.0,40425.0,0.01753029276075,0.06625242133124998,-0.024196400930625,0.0008820599060172323,4.5492749070180915e-05,-0.00014686869365970246,23.0202304609993
1605,C,184330030790716.0,-0.09876082,17.378912,-1.9734207,28,1970-01-03 03:12:10.030790716,0.8253136,-0.13422333,-1.4836471,17.49087548587833,1.7030464344813558,80.26929473876953,-7.083702564239502,74.78202056884766,23058684.0,38454.0,-0.0067438806325799995,0.20253764099399996,-0.07119052276830001,0.0002073903459883246,0.0051680265283275805,-0.0018340043819592314,23.05868452199502
1605,C,184330072107435.0,3.3800142,16.669031,1.6304513,28,1970-01-03 03:12:10.072107435,0.72171664,0.5203817,-1.5233282,17.08623603702215,1.7641430857679938,80.40605163574219,-7.112729549407959,74.78225708007812,23100001.0,41317.0,0.06778577295073,0.2984728304655,-0.007085233349899997,0.0012610339324545018,0.01035012482464608,-0.001617059707767835,23.10000124099315
1605,C,184330112059726.0,1.1492168,13.020866,1.8495208,28,1970-01-03 03:12:10.112059726,-0.06364955,0.6034723,-0.63196814,13.201680871502342,0.8761357269610411,80.43771362304688,-7.02365255355835,74.80226135253906,23139953.0,39952.0,0.090475918456,0.20155578247199996,0.06951592266960001,0.003161435547540839,0.0099885715720395,0.0012471154498503276,23.13995353199425
1605,C,184330150553477.0,-2.5498247,11.379042,0.6003461,28,1970-01-03 03:12:10.150553477,-0.8330368,0.6378271,0.7419567,11.676669828263506,1.2850188575750707,80.5519027709961,-6.574704647064209,74.82096099853516,23178447.0,38494.0,-0.026957500251299997,0.09238382927599997,0.0471525882243,0.0012225389951858608,0.005657455707313755,0.0022455188291748934,23.178447283018613
1605,C,184330191823580.0,-1.5370775,12.974179,1.9243397,28,1970-01-03 03:12:10.191823580,-1.5126755,-0.22610238,0.76059884,13.205870332774108,1.7081627703328686,80.50212097167969,-6.285589218139648,74.8130111694336,23219717.0,41270.0,-0.084333226897,0.09808271533499996,0.052096891483,-0.0022964841547051702,0.003930277148047984,0.0020480130137601354,23.21971738600405
1605,C,184330231766704.0,0.96785605,10.714052,0.12988544,28,1970-01-03 03:12:10.231766704,-1.1741878,-3.8815575,2.1510353,10.758462985935752,4.590442078637,80.68241119384766,-6.397120475769043,74.61405181884766,23259660.0,39943.0,-0.011368206188675003,0.08164810541649997,0.041025957383509996,-0.0019113011708705582,0.003589494086638581,0.0018598029761375044,23.259660509997047
1605,C,184330271622696.0,1.1270704,9.93893,1.4377182,28,1970-01-03 03:12:10.271622696,-0.40932786,-0.83516735,2.4857945,10.105426802172552,2.654096474453868,80.69149780273438,-6.526721954345703,74.58979034423828,23299516.0,39856.0,0.041747694295600005,0.02098382529599997,0.03123920533792,0.0006054024389948014,0.002045249115238699,0.001440100162712657,23.2995165020111
1605,C,184330311601185.0,-1.4706384,13.193249,0.34955344,28,1970-01-03 03:12:10.311601185,-0.37736994,-0.32836777,1.5947009,13.279562646675206,1.6713181697244803,80.86714935302734,-6.290102005004883,74.56475067138672,23339494.0,39978.0,-0.006867580751999998,0.07060472603099995,0.035725772811959995,0.0006972185896230205,0.0018307635524754014,0.0013385629482379512,23.33949499099981
1605,C,184330351430717.0,-0.777517,9.587581,0.06584055,28,1970-01-03 03:12:10.351430717,-1.4567492,-0.31664985,2.6088326,9.619281526957941,3.004728422674572,81.01193237304688,-6.151692867279053,74.54611206054688,23379324.0,39830.0,-0.044772014790999994,0.06334622944999997,0.00827257131085,-0.0010284025452388446,0.002667633278404113,0.0008762270232057609,23.37932452300447
1605,C,184330391386029.0,1.9273324,7.5483193,-0.18734628,28,1970-01-03 03:12:10.391386029,-1.3145363,0.6426208,2.7587686,7.792742332675455,3.1227826317174703,81.19268035888672,-6.488901615142822,74.57215881347656,23419279.0,39955.0,0.0229704371535,-0.04922655175675002,-0.002427380721075,-0.00043554101725315605,0.00028207586111690094,0.00011677229500723006,23.419279835012276
1605,C,184330431239414.0,2.1320367,4.2239704,0.15801731,28,1970-01-03 03:12:10.431239414,-1.9843214,1.722799,2.4005735,4.734181650558276,3.559258482015771,81.23064422607422,-7.09174108505249,74.65929412841797,23459133.0,39854.0,0.0808910480557,-0.15598278314810002,-0.0005844383851900002,0.0020696478157637282,-0.004089206416648947,-6.001651933054266e-05,23.45913321999251
1605,C,184330470672799.0,2.349909,1.8908207,1.0827777,28,1970-01-03 03:12:10.470672799,-1.6719326,1.7915086,1.8024274,3.2046345775215586,3.0419740654856806,80.78033447265625,-8.096628189086914,74.80996704101562,23498566.0,39433.0,0.08836828239405001,-0.26588112127685004,0.024464134814665,0.0033372015888124963,-0.008317679671594528,0.0004708240346517439,23.49856660500518
1605,C,184330509501654.0,0.33638534,2.4546554,3.0466216,28,1970-01-03 03:12:10.509501654,-1.0474212,1.0820423,1.010936,3.9268806199453827,1.813807681452124,79.75611114501953,-8.108023643493652,75.00784301757812,23537395.0,38829.0,0.05215306146393,-0.2961589542565501,0.08017022270985001,0.002728151630330753,-0.010911727046443196,0.0020314237341596967,23.537395460007247
1605,C,184330549147331.0,-0.37828386,4.0240545,3.678691,28,1970-01-03 03:12:10.549147331,-0.4002731,0.4316984,0.43542686,5.465242974579241,0.7322421823110368,78.96416473388672,-7.855989456176758,75.13986206054688,23577041.0,39646.0,-0.000830554361960001,-0.26010333365230004,0.13331587166980002,0.0010173660582823514,-0.011026787333217136,0.004231934848887803,23.577041137003107
1605,C,184330591047278.0,4.1293993,2.5396495,4.022857,28,1970-01-03 03:12:10.591047278,0.29827404,-0.133957,-0.26738137,6.299614004376756,0.4223797791206375,78.18411254882812,-8.672151565551758,75.2449722290039,23618941.0,41900.0,0.078585868468,-0.2731104012,0.1613474306,0.001628973830521538,-0.011170827745155687,0.006173196182552311,23.618941084016114
1605,C,184330629252226.0,4.698621,2.9269116,4.5034933,28,1970-01-03 03:12:10.629252226,1.1480888,-0.4857606,-1.6476978,7.136196656413026,2.0661508399249655,77.4731674194336,-9.413703918457031,75.32521057128906,23657146.0,38205.0,0.16863725778075003,-0.2699840165872501,0.16287460660575004,0.004722579769166748,-0.010374461115780945,0.0061934514657228405,23.6571460319974
1605,C,184330671350871.0,5.659294,5.7418942,5.427655,28,1970-01-03 03:12:10.671350871,2.2863238,-2.6365294,-2.7230823,9.718868060708234,4.426481786710987,77.00812530517578,-9.968975067138672,75.26610565185547,23699244.0,42098.0,0.21802375283499997,-0.23009070671579998,0.2090407405667,0.008138827612450921,-0.010526072850805899,0.0078284461426329,23.699244677001843
1605,C,184330710556811.0,0.8984242,19.612701,5.12838,28,1970-01-03 03:12:10.710556811,2.3622239,-0.54887754,-3.491138,20.29200551899557,4.25081319781188,77.09547424316406,-9.619855880737305,75.20671844482422,23738450.0,39206.0,0.1285509498746,0.1128073297056,0.20692995410499998,0.006793903897216289,-0.00229910603953095,0.008154273527649334,23.738450617005583
1605,C,184330750502122.0,2.9646204,9.298481,1.857302,28,1970-01-03 03:12:10.750502122,0.95660746,-0.7587346,-1.0575413,9.934802149145256,1.6152924276955247,77.19058990478516,-9.769795417785645,75.15058898925781,23778395.0,39945.0,0.0771546582735,0.18596758249499998,0.139521533745,0.004108455258737927,0.0059672819339264835,0.0069195023410841255,23.77839592800592
1605,C,184330791090560.0,0.24001873,3.863643,1.1587936,28,1970-01-03 03:12:10.791090560,1.2460932,-0.22770028,-1.4783207,4.040810417428758,1.9467993663053234,77.15928649902344,-9.542014122009277,75.13931274414062,23818984.0,40589.0,0.065036548823785,-0.13065347448200001,0.0612101521542,0.0028856994524358503,0.0011225721650698277,0.004073749199481315,23.818984365992947
1605,C,184330830912799.0,2.3110032,8.859743,0.51116204,28,1970-01-03 03:12:10.830912799,0.8050736,-0.41438788,-1.9989687,9.170445378911332,2.1944786807092806,77.43964385986328,-9.578340530395508,75.05760192871094,23858806.0,39822.0,0.05079339764823001,-0.13692026135400004,0.03325048674804,0.0023062900642042907,-0.005327660654230598,0.0018808057811825006,23.85880660501425
1605,C,184330870763060.0,-0.42317516,17.138893,-0.6967127,28,1970-01-03 03:12:10.870763060,0.087618,0.14567491,-2.0088224,17.158267367885117,2.016002363111033,77.81916809082031,-9.21336841583252,74.98184204101562,23898656.0,39850.0,0.037614973696999995,0.12749282229999997,-0.003697096900499999,0.0017615367990537075,-0.00018784172315095126,0.0005888512927122345,23.898656866018428
1605,C,184330910897643.0,1.0552444,7.8607626,0.57999533,28,1970-01-03 03:12:10.910897643,0.22050974,0.22290659,-1.4101439,7.952453959634846,1.4445821928874472,78.02998352050781,-9.104531288146973,74.94612884521484,23938791.0,40135.0,0.0126840494737,0.10835758875299997,-0.0023422258224749986,0.001009375647478022,0.0047329281238060765,-0.00012119410874330075,23.938791449007113
1605,C,184330950570143.0,0.3842694,6.2021794,-0.38067806,28,1970-01-03 03:12:10.950570143,0.010120012,0.047670584,-0.9166601,6.225721489668976,0.9179545948214385,78.4179458618164,-8.928258895874023,74.8783187866211,23978463.0,39672.0,0.0285541957368,-0.10983308248800001,0.0039536573677200005,0.000818001831995478,-2.926789372746082e-05,3.196435613147986e-05,23.97846394899534
1605,C,184330988360351.0,0.74878657,7.4884644,-3.0472202,28,1970-01-03 03:12:10.988360351,-0.02396845,0.83063996,-0.72917354,8.11931840395287,1.1055456938455035,79.21290588378906,-8.82997989654541,74.78839874267578,24016254.0,37791.0,0.021409659081135,-0.11166024007710001,-0.06477185157183,0.0009440920187122907,-0.004185227076528847,-0.0011491901885837606,24.01625415700255
1605,C,184331028485299.0,1.4083891,7.9505453,3.9348705,28,1970-01-03 03:12:11.028485299,1.8479675,2.1265342,-0.5249091,8.982089749948013,2.8657740922983965,78.9062271118164,-8.796602249145508,74.94793701171875,24056379.0,40125.0,0.043278336879375004,-0.08347986789375003,0.017808484143750004,0.001297802918957732,-0.003914998416165179,-0.0009422025590258551,24.05637910499354
1605,C,184331070290924.0,0.9684546,7.709928,-0.44532153,28,1970-01-03 03:12:11.070290924,1.0120013,-1.3145363,-0.5344964,7.783264439971617,1.74293967676232,79.32516479492188,-8.748181343078613,74.82295227050781,24098184.0,41805.0,0.04968197543925001,-0.08234595684675004,0.07294029734542501,0.0019431029282400592,-0.0034661743016383027,0.0018968764050774807,24.0981847300136
1605,C,184331110297486.0,1.0785879,8.878897,0.40222588,28,1970-01-03 03:12:11.110297486,0.9044095,-0.95128113,0.4314321,8.953208891407437,1.381675066321578,79.5792007446289,-8.734456062316895,74.74897766113281,24138191.0,40007.0,0.040948014648749996,-0.06023403911250003,-0.0008620638347750008,0.001812917006725308,-0.002852098949170859,0.0014418169440302876,24.138191292004194
1605,C,184331147969935.0,1.2018893,13.250111,-1.1450269,28,1970-01-03 03:12:11.147969935,0.08522116,-0.18722023,0.4956143,13.353691100347465,0.5366074869003307,79.96642303466797,-8.678840637207031,74.68633270263672,24175863.0,37672.0,0.042955068539199996,0.04763639468799998,-0.013991400012719998,0.0015803984749282259,-0.00023728923037988296,-0.0002797798450314158,24.175863740994828
1605,C,184331190000092.0,-0.5907693,11.968615,-1.8070238,28,1970-01-03 03:12:11.190000092,0.24154872,0.38615838,-0.06711166,12.118666939800514,0.4603998843242887,80.43745422363281,-8.398351669311523,74.63642883300781,24217893.0,42030.0,0.012842686799999998,0.11807752688999996,-0.0620373454605,0.0011725898284532877,0.0034824780619616687,-0.0015977440861197182,24.217893897992326
1605,C,184331229951965.0,-1.1821371,14.63755,-1.7322049,28,1970-01-03 03:12:11.229951965,0.17630127,-0.29827404,-0.8069378,14.787016329918636,0.8781788848579625,80.8543701171875,-8.047327995300293,74.55692291259766,24257845.0,39952.0,-0.0354155782464,0.13995515204,-0.0706996325112,-0.0004509160795332865,0.00515446079430568,-0.002651553871962679,24.257845771004213
1605,C,184331269994518.0,-1.352724,12.776059,2.3295584,28,1970-01-03 03:12:11.269994518,-0.086020105,0.017044231,-0.8311726,13.056967034141872,0.8357857711551163,80.82106018066406,-7.6598286628723145,74.55516815185547,24297888.0,40043.0,-0.050751721513650004,0.15644017259349993,0.011959913100249998,-0.001725198592145841,0.00593427899214962,-0.0011760572921863356,24.29788832401391
1605,C,184331309714206.0,1.4670471,12.097901,1.429937,28,1970-01-03 03:12:11.309714206,-1.160073,-0.53130066,-0.12516858,12.270132665272548,1.2820752435269358,80.82775115966797,-7.638227462768555,74.51956939697266,24337608.0,39720.0,0.002270456766,0.10474084559999998,0.07466357864399999,-0.0009628379178883291,0.005187055021322908,0.0017203425460408047,24.337608011992415
1605,C,184331349196341.0,3.3159695,10.566211,0.75836337,28,1970-01-03 03:12:11.349196341,-0.64528394,-0.44554687,0.75154406,11.100251511673463,1.0861500129862376,80.91954040527344,-7.921965599060059,74.48697662353516,24377090.0,39482.0,0.0944215307006,0.06048863499199997,0.04319923760417,0.0019087965245781508,0.003261795176366671,0.002326729855555124,24.377090146997944
1605,C,184331389568736.0,2.0901382,10.993576,-1.2946646,28,1970-01-03 03:12:11.389568736,-1.0282465,-1.7896442,1.8128138,11.265147464164345,2.747073188108815,81.26557159423828,-8.101776123046875,74.35831451416016,24417462.0,40372.0,0.10912769003219999,0.03956026038199993,-0.010825776628779999,0.0041088445697123,0.002019587002019562,0.0006534906832492225,24.4174625420128
1605,C,184331427190768.0,0.34237084,13.161526,-2.034473,28,1970-01-03 03:12:11.427190768,-1.0743192,0.34514567,2.5688853,13.322239482477684,2.8057902561603707,81.64207458496094,-8.070032119750977,74.333984375,24455084.0,37622.0,0.04575792755144001,0.08568602372199997,-0.0626244073936,0.0029135533523658524,0.0023560078502803425,-0.0013816714116449903,24.455084574001376
1605,C,184331468350144.0,-2.4953568,12.855666,0.76195467,28,1970-01-03 03:12:11.468350144,-0.9187906,1.8841865,2.3518376,13.117756240378803,3.150472191625308,81.70372772216797,-7.70628023147583,74.42829132080078,24496243.0,41159.0,-0.04430737456382,0.13206260276399992,-0.026187790972235007,2.9851655208725945e-05,0.0044811578587686356,-0.0018277106362697016,24.496243950008648
1605,C,184331506716289.0,-3.8546648,12.3516865,0.9020155,28,1970-01-03 03:12:11.506716289,-1.2010857,1.4093449,1.4293185,12.970591045780509,2.339190304430734,81.73230743408203,-7.162087440490723,74.49586486816406,24534610.0,38367.0,-0.12181563936359999,0.10756864668374995,0.031920771756194996,-0.003186820837676661,0.004596966073780909,0.00010997863686909645,24.534610094997333
1605,C,184331546544571.0,-0.7410054,9.311649,1.0528502,28,1970-01-03 03:12:11.546544571,-0.89801794,-0.65034395,2.3616912,9.400233488891123,2.609016825936714,81.73490142822266,-6.993649005889893,74.474853515625,24574438.0,39828.0,-0.0915181763628,0.04108926314699995,0.038929195549800004,-0.004248329606375529,0.0029603736163695536,0.0014109062489315843,24.574438376992475
1605,C,184331586588789.0,1.8177977,7.513005,0.3184288,28,1970-01-03 03:12:11.586588789,-0.78962725,0.24394555,2.5917885,7.7363447123832145,2.720365463322826,81.83433532714844,-7.285568714141846,74.48816680908203,24614482.0,40044.0,0.021559535430600005,-0.05556797761200005,0.027455748138,-0.0014007119087445085,-0.0002898928210182321,0.0013291593425171317,24.61448259500321
1605,C,184331626497018.0,2.4247277,6.1943984,0.38367084,28,1970-01-03 03:12:11.626497018,-0.7752462,0.5238438,2.3662186,6.66311333165932,2.5444860896453805,81.89839935302734,-7.747371196746826,74.51725769042969,24654390.0,39908.0,0.0846553518316,-0.11758087255640004,0.01400969621656,0.002119411860429939,-0.0034550121562602555,0.0008274014766508902,24.654390823998256
1605,C,184331666260873.0,2.5516205,4.565144,-0.110731825,28,1970-01-03 03:12:11.666260873,-1.1470236,1.5757924,1.7028252,5.231019829232545,2.588126443705902,82.03667449951172,-8.346696853637695,74.57936096191406,24694154.0,39764.0,0.09893975491240001,-0.1757659780032,0.00542657349623,0.0036502379122842084,-0.005832322082825969,0.0003864319144296908,24.69415467901854
1605,C,184331706424154.0,-0.33039984,1.6849195,2.5013423,28,1970-01-03 03:12:11.706424154,-0.8274442,1.3510216,1.0327739,3.033946452645723,1.891175612232087,80.9146499633789,-8.09382152557373,74.80704498291016,24734317.0,40163.0,0.04460544268378999,-0.26808674982475,0.048007044253712494,0.0028826028855278895,-0.008913228553876978,0.00107302719484547,24.73431796001387
1605,C,184331746552591.0,0.6368576,2.7527335,3.578733,28,1970-01-03 03:12:11.746552591,-0.4596616,1.135572,0.54914385,4.559655602124903,1.3425243095346104,79.89950561523438,-8.163068771362305,75.00715637207031,24774446.0,40129.0,0.00614892172552,-0.30422491138150004,0.12199367085685,0.0010183609446906003,-0.011483147326272803,0.003410979348335881,24.774446397001157
1605,C,184331786478216.0,4.143166,4.6471453,3.7068229,28,1970-01-03 03:12:11.786478216,0.3850931,0.73769563,-0.5323659,7.24584846341907,0.9878790359510201,79.34709930419922,-8.793909072875977,75.12265014648438,24814372.0,39926.0,0.0954236111268,-0.24355101951560004,0.1454415524317,0.0020276924733308647,-0.01093525090849881,0.0053388093625093246,24.81437202199595
1605,C,184331826294361.0,6.5469446,6.7253127,2.4714148,28,1970-01-03 03:12:11.826294361,1.4221281,-0.94275904,-1.9006981,9.705679039712239,2.554191889356581,79.25118255615234,-9.50467300415039,75.08563995361328,24854188.0,39816.0,0.2128187218248,-0.163793906136,0.1229963561316,0.0061364883644004515,-0.008109422779872054,0.005344061883678176,24.8541881669953
1605,C,184331866281914.0,0.87208796,2.6084828,7.2107368,28,1970-01-03 03:12:11.866281914,2.269546,-1.4016217,-2.7076359,7.717476603576265,3.8008781357727983,78.13905334472656,-9.423577308654785,75.19444274902344,24894175.0,39987.0,0.14833242748836,-0.20525735967075,0.19358009801460002,0.007220675503792665,-0.007378626482907257,0.00632947133597205,24.894175719993655
1605,C,184331906311393.0,-2.870648,19.612701,1.9075803,28,1970-01-03 03:12:11.906311393,2.9422605,-2.1108215,-3.973969,19.913249937070873,5.376327172678715,78.4666976928711,-8.815961837768555,75.0244140625,24934205.0,40030.0,-0.04000117920060001,0.05246299375700002,0.18250311675650002,0.0021682499344795165,-0.0030581792337637066,0.007527305543643568,24.93420519900974
1605,C,184331945747226.0,3.7499185,8.949526,1.9027919,28,1970-01-03 03:12:11.945747226,1.1387677,-1.7526263,-0.7190535,9.888201120326379,2.2103232247518076,78.52735137939453,-9.131872177124023,74.93172454833984,24973641.0,39436.0,0.017337455719,0.17671719198600003,0.0751329190396,-0.0004468832996101889,0.004518974902480474,0.0050800673538275,24.973641032003798
1605,C,184331986116966.0,1.3263878,5.810129,-0.4890157,28,1970-01-03 03:12:11.986116966,0.39627838,-0.22184132,-1.0580739,5.9796354360007875,1.1514210800467293,78.94731903076172,-9.18284797668457,74.84690856933594,25014010.0,40369.0,0.10246270451235001,-0.09769994365250002,0.028536365708900002,0.0024181063341896843,0.0015949236489875309,0.0020925126780060982,25.014010771992616
1605,C,184332025855559.0,-1.2036849,10.951078,-2.236783,28,1970-01-03 03:12:12.025855559,0.21491711,0.08335695,-1.7374463,11.24180434314977,1.752671501071363,79.513671875,-8.735077857971191,74.74803161621094,25053749.0,39739.0,0.002438045271549999,-0.05640539751350001,-0.05416025726964999,0.002084325447831201,-0.0030619960762978374,-0.0005091339133663219,25.053749365004478
1605,C,184332067286445.0,1.2886791,11.519701,1.1180922,28,1970-01-03 03:12:12.067286445,-0.01917476,0.35127094,-1.2977585,11.645356805176844,1.3445951320125293,79.63592529296875,-8.609341621398926,74.7348403930664,25095180.0,41431.0,0.0017606973500999981,0.05946962237449998,-0.0231742392674,8.697905277879053e-05,6.347695010804488e-05,-0.0016020227630132592,25.095180250995327
1605,C,184332107307590.0,1.1677719,8.89446,-0.31064767,28,1970-01-03 03:12:12.107307590,0.52464277,0.0892159,-0.86233157,8.9761691091972,1.0133238621214582,79.9701919555664,-8.542571067810059,74.68559265136719,25135201.0,40021.0,0.0491548127355,0.01629176869049997,0.016157368767565,0.0010188448145678987,0.0015160233159061814,-0.0001404110871369483,25.135201396013144
1605,C,184332145819414.0,2.7102363,7.1844006,-0.9780314,28,1970-01-03 03:12:12.145819414,0.8309063,-0.29001826,0.18801917,7.740641976122136,0.8999261518594771,80.42839050292969,-8.860233306884766,74.60994720458984,25173713.0,38512.0,0.0746749258992,-0.06780306028640001,-0.02481480417192,0.002384465447149783,-0.000991901430970651,-0.00016670757614625984,25.17371321999235
1605,C,184332187032955.0,-1.5448587,6.4404025,1.407192,28,1970-01-03 03:12:12.187032955,0.9214538,1.8687402,-0.49321744,6.770935097151349,2.1411516722900865,80.39347839355469,-8.282882690429688,74.70924377441406,25214926.0,41213.0,0.0240143535144,-0.12312789491985002,0.0088434979039,0.002033640636236348,-0.003934418728457591,-0.0003291127226119541,25.214926760992967
1605,C,184332225369205.0,-0.29328972,8.194156,0.84934306,28,1970-01-03 03:12:12.225369205,-0.0063915867,0.221575,-0.8516789,8.243275747284198,0.880052999376034,80.48560333251953,-7.982814788818359,74.69993591308594,25253263.0,38337.0,-0.03523454798877,-0.09518006539275004,0.04325439229761,-0.00021507429778196138,-0.0041846361372520745,0.0009986384083276445,25.25326301099267
1605,C,184332265113215.0,0.88944596,8.658031,0.45190558,28,1970-01-03 03:12:12.265113215,0.57151437,-0.83703154,0.042876896,8.71532177064946,1.0144401915745764,80.68342590332031,-7.9398980140686035,74.635986328125,25293007.0,39744.0,0.01184681680128,-0.05460453993600005,0.02585841297408,-0.0004647609941578013,-0.002976519677092922,0.0013734096663590239,25.29300702101318
1605,C,184332306831079.0,1.2892777,9.950302,0.7422025,28,1970-01-03 03:12:12.306831079,0.4892227,-1.0684602,0.24208134,10.060895160467958,1.1998122454598994,80.84124755859375,-7.946723937988281,74.56727600097656,25334724.0,41717.0,0.04544490746211,-0.02068468611950003,0.024907303386679996,0.0011950194305479203,-0.0015704203216786482,0.0010588966947109122,25.334724885004107
1605,C,184332345354725.0,0.3800795,12.122441,-1.7729063,28,1970-01-03 03:12:12.345354725,-0.054594804,-0.023435818,0.20532973,12.257293052439472,0.2137524928766924,81.27251434326172,-7.812023162841797,74.50825500488281,25373248.0,38524.0,0.0321551583864,0.047629975665999996,-0.019853416595600002,0.0014947324683739999,0.0005190201672446824,9.734796736978284e-05,25.373248531017452
1605,C,184332386516757.0,-0.3693056,15.21994,-2.7048495,28,1970-01-03 03:12:12.386516757,0.30519825,-0.3720436,-0.96326536,15.462831921981225,1.0767741480366029,81.75685119628906,-7.548722267150879,74.42013549804688,25414410.0,41162.0,0.00022173763590000004,0.15934594336099994,-0.09215669211979999,0.0006663488970349562,0.0042597713894946855,-0.002305280047471647,25.414410563011188
1605,C,184332426421392.0,0.7553706,14.519037,0.43035775,28,1970-01-03 03:12:12.426421392,0.4146542,0.3717773,-1.4357102,14.545041352423116,1.5399416368021777,81.9409408569336,-7.36204719543457,74.40702819824219,25454315.0,39905.0,0.0077029619125,0.20229793859250003,-0.04538179664187501,0.00015811756773945104,0.007215699554677209,-0.0027442366970173203,25.454315198003314
1605,C,184332464503527.0,-0.18435353,12.865841,2.2451627,28,1970-01-03 03:12:12.464503527,-0.3616573,0.12144015,-0.6348976,13.061569829495065,0.7407014750633837,81.87631225585938,-7.126275539398193,74.41439056396484,25492397.0,38082.0,0.01087273602987,0.14823186199799998,0.05094458488844999,0.00035369986452066715,0.00667443793304371,0.00010592105100303423,25.492397333000554
1605,C,184332505910143.0,-1.3790601,11.670536,0.13946225,28,1970-01-03 03:12:12.505910143,-1.0274476,0.45673212,0.5318333,11.752560019241898,1.2438245290933703,82.00721740722656,-6.807616233825684,74.41830444335938,25533803.0,41406.0,-0.032367352381889994,0.10219781303099996,0.04936889033985,-0.0004450030423358699,0.005184645562125385,0.0020767898776514948,25.533803949016146
1605,C,184332544659570.0,-1.6950948,11.745954,1.3479356,28,1970-01-03 03:12:12.544659570,-1.4724618,-1.2663331,1.0615361,11.943940393892227,2.21327860067775,81.9760971069336,-6.499127388000488,74.35826110839844,25572553.0,38750.0,-0.0595617511875,0.07394449374999996,0.02881833334375,-0.0017811263816569312,0.0034127571938818734,0.00151487745886975,25.572553375997813
1605,C,184332586034100.0,0.6326678,10.159795,-0.089782566,28,1970-01-03 03:12:12.586034100,-1.479386,-3.2834113,2.133991,10.179870524537106,4.186082929188657,82.13246154785156,-6.555887222290039,74.18538665771484,25613927.0,41374.0,-0.021978427349,0.04769902956299998,0.026027411814358,-0.0016868216733845756,0.00251643956677603,0.0011345939300857802,25.613927906000754
1605,C,184332625944672.0,2.1859062,10.307637,0.24779987,28,1970-01-03 03:12:12.625944672,-0.21837921,-1.664742,2.069276,10.53978041585969,2.6647623852982134,82.28905487060547,-6.805822372436523,74.09807586669922,25653838.0,39911.0,0.056246053457000005,0.017310039275999983,0.0031533143099720007,0.0006838276127981942,0.0012972884732166637,0.0005823159801740674,25.65383847799967
1605,C,184332664198478.0,0.46208093,13.862428,0.66618663,28,1970-01-03 03:12:12.664198478,-0.17097494,1.2048141,2.0836573,13.886116572571485,2.4129726872698134,82.39636993408203,-6.779345512390137,74.15753173828125,25692092.0,38254.0,0.05064804983551,0.08741163325499997,0.0174818197855,0.002044563513675839,0.0020030114305004364,0.000394688209844093,25.69209228400723
1605,C,184332705765818.0,-0.79726917,10.135254,1.30484,28,1970-01-03 03:12:12.705765818,-1.2985574,-0.31691617,2.3947146,10.249957034034264,2.7425071003290746,82.33814239501953,-6.620913028717041,74.15679168701172,25733659.0,41567.0,-0.0069663847860399995,0.09139922384699996,0.040964831964605,0.0009078578855556598,0.0037163154485794153,0.0012147259866483074,25.733659624005668
1605,C,184332745707639.0,1.2425907,7.053318,0.11133038,28,1970-01-03 03:12:12.745707639,-1.2024173,0.7928231,2.346245,7.162801191598259,2.7530422138532313,82.438720703125,-6.817232608795166,74.19265747070312,25773601.0,39942.0,0.00889351627563,-0.04815862858800003,0.02828233865898,3.8486742978601904e-05,0.0008635579279174875,0.001382935244523616,25.773601444991073
1605,C,184332785575614.0,1.6011224,4.9524064,0.5518635,28,1970-01-03 03:12:12.785575614,-1.2876384,-0.015446335,1.9925772,5.233973195687476,2.372470260378269,82.4016342163086,-7.189338207244873,74.20178985595703,25813469.0,39868.0,0.0566865769354,-0.15138428981040003,0.013220106803919999,0.0013072735780686722,-0.003977688535353707,0.0008273097478574485,25.813469420012552
1605,C,184332825521130.0,1.7322049,4.3059716,0.92775315,28,1970-01-03 03:12:12.825521130,-1.5648735,1.8956381,1.582983,4.733143896283473,2.9237147698540737,82.20287322998047,-7.608852386474609,74.32119750976562,25853414.0,39945.0,0.06657487949924999,-0.20654804539500002,0.029551643542125004,0.002461839438641047,-0.007148803564889852,0.0008542587837863839,25.853414935991168
1605,C,184332865828214.0,0.14065935,3.690662,2.6581624,28,1970-01-03 03:12:12.865828214,-1.3092101,1.1302456,1.0844392,4.550450350872997,2.041444238953886,81.4517822265625,-7.530364036560059,74.47425842285156,25893722.0,40308.0,0.037745706094499995,-0.2338542464256,0.0722705419947,0.002102477082056437,-0.00887586778935237,0.002052124327309171,25.893722020002315
1605,C,184332905287643.0,0.29867667,3.843891,3.3692403,28,1970-01-03 03:12:12.905287643,-0.47857004,0.34088463,0.42663842,5.120203704173045,0.7261211714142033,80.64635467529297,-7.473191261291504,74.59611511230469,25933181.0,39459.0,0.008667880006589999,-0.23804523658650006,0.11891764156965,0.000915716846981455,-0.009310340850087228,0.003772047267632843,25.933181449014228
1605,C,184332945368736.0,3.068768,5.2852,3.345897,28,1970-01-03 03:12:12.945368736,0.24580978,0.07590009,-0.38695732,6.967474636655163,0.4646711085351002,80.15162658691406,-7.924739360809326,74.66459655761719,25973262.0,40081.0,0.06748527490913499,-0.20984225181450003,0.13457470906065,0.0015261473010885864,-0.008975889211300242,0.005080113452806527,25.97326254201471
1605,C,184332984608581.0,5.638345,5.895722,3.9456444,28,1970-01-03 03:12:12.984608581,0.91825795,-0.45167214,-1.2575446,9.061930366735355,1.6213031196477548,79.74212646484375,-8.607953071594238,74.69711303710938,26012502.0,39240.0,0.17083355705999997,-0.16518231036000003,0.14306004226799998,0.004675815483234427,-0.007357981909863691,0.005447193821068113,26.0125023869914
1605,C,184333027044256.0,5.073313,7.57286,2.071583,28,1970-01-03 03:12:13.027044256,1.5454324,-1.4029533,-2.4615598,9.347629084503621,3.227369813629465,79.7265625,-9.088627815246582,74.62115478515625,26054938.0,42436.0,0.227279959444,-0.13009642712400002,0.1276735309732,0.008447172593181871,-0.006265224251935513,0.005744424957031781,26.05493806200684
1605,C,184333063359934.0,1.8207904,8.94773,-0.21906945,28,1970-01-03 03:12:13.063359934,2.4008398,-1.5150723,-3.0091057,9.133736434644666,4.136930375684829,80.15035247802734,-9.018380165100098,74.47333526611328,26091253.0,36315.0,0.1251796824855,-0.05591438707500002,0.033637014784124994,0.006399785948334896,-0.0033774913588183434,0.002928996234588629,26.09125374001451
1605,C,184333103132798.0,0.20051439,19.612701,-2.5181017,28,1970-01-03 03:12:13.103132798,1.7752632,-1.3025521,-1.9981698,19.774708157329176,2.9733623983834683,80.67945098876953,-8.73023796081543,74.32537078857422,26131026.0,39773.0,0.040196677706335,0.1781916110815,-0.054432754074475,0.003288756986954927,0.0024316660152052623,-0.00041355446939754547,26.131026604009094
1605,C,184333143255298.0,1.6903064,5.3737855,0.3513491,28,1970-01-03 03:12:13.143255298,0.6306366,-0.7454188,-1.0295781,5.644302659847541,1.4189371982764458,80.85248565673828,-8.902911186218262,74.259033203125,26171149.0,40123.0,0.037932701278585,0.10806099891975,-0.04346830728489999,0.0015673925365059726,0.005742656735540077,-0.001964042142461101,26.171149104018696
1605,C,184333183205507.0,1.5969325,5.4767365,-0.6835446,28,1970-01-03 03:12:13.183205507,0.19680761,0.07643273,-1.29403,5.745613049986717,1.3111402817659006,81.25348663330078,-9.027090072631836,74.1916275024414,26211099.0,39950.0,0.0656625970275,-0.17477082305,-0.006635605112499998,0.0020693160836640478,-0.0013325287370017436,-0.0010008256501380648,26.211099312989973
1605,C,184333224562225.0,-0.11671733,15.669452,-1.1115081,28,1970-01-03 03:12:13.224562225,-0.14993598,0.8245147,-1.5241271,15.709258390254837,1.7393299587970825,81.56258392333984,-8.715785026550293,74.17159271240234,26252456.0,41357.0,0.030608629392845,0.03197285889724999,-0.03711899725695,0.0019907445555331043,-0.002952847701732641,-0.0009047795450966717,26.252456031012116
1605,C,184333264421236.0,0.33877954,10.138845,0.866701,28,1970-01-03 03:12:13.264421236,0.27696875,1.2610068,-1.160872,10.181459626897738,1.7362239597778861,81.6579360961914,-8.47974681854248,74.21266174316406,26292315.0,39859.0,0.004425588814195,0.12372825506149995,-0.004878883099449999,0.0006982144517572036,0.003103045350640907,-0.0008369967565628737,26.292315041995607
1605,C,184333304477277.0,0.36631286,7.2179193,0.44771573,28,1970-01-03 03:12:13.304477277,0.6745787,0.6420882,-0.66525763,7.241063009503736,1.1445092368985699,81.80848693847656,-8.30364990234375,74.2223129272461,26332371.0,40056.0,0.014121590587200002,-0.044927524599600026,0.02632513826844,0.0003714629090511391,0.0015782210296909317,0.00042952559852453174,26.332371083000908
1605,C,184333343743891.0,0.030526072,7.056311,-0.6488287,28,1970-01-03 03:12:13.343743891,0.3635215,0.7728494,-0.40506682,7.086143905660993,0.9452635636199685,82.15795135498047,-8.082971572875977,74.21012115478516,26371637.0,39266.0,0.007791138751956001,-0.10456083652010004,-0.003948450940010001,0.00043021261511564984,-0.0029349049938630716,0.0004393215023190662,26.371637697011465
1605,C,184333384132330.0,0.08319851,7.5590935,1.5490485,28,1970-01-03 03:12:13.384132330,0.5190501,1.0663297,-0.08175905,7.716629302302964,1.1887626246097251,82.082275390625,-7.885931968688965,74.2760238647461,26412026.0,40389.0,0.0022966110711990003,-0.10066141382475002,0.018179488751100002,0.0002037170638037037,-0.004144360734589075,0.000287388693076057,26.412026136007626
1605,C,184333424081807.0,0.24001873,7.978079,1.2030864,28,1970-01-03 03:12:13.424081807,0.5800365,0.08948222,-0.28815404,8.071850494580334,0.6538211986443235,82.09434509277344,-7.716807842254639,74.2807846069336,26451975.0,39949.0,0.00645610276038,-0.08115294789875002,0.05497251856004999,0.00017483108242887473,-0.0036316509682460516,0.0014611747700365653,26.451975613017567
1605,C,184333463639154.0,0.5554548,7.5692687,1.869273,28,1970-01-03 03:12:13.463639154,0.49960902,-0.9323727,0.19414444,7.816427587854425,1.0754627321081676,81.97552490234375,-7.642917156219482,74.25557708740234,26491532.0,39557.0,0.015733273213105,-0.08015538351555003,0.0607666603929,0.00043887257269157313,-0.003190436832877734,0.0022891473509209217,26.491532960004406
1605,C,184333503846808.0,1.5831659,10.160394,0.023343466,28,1970-01-03 03:12:13.503846808,-0.05219796,-0.64555025,0.624245,10.283023165371343,0.8995229693166397,82.17277526855469,-7.710356712341309,74.20154571533203,26531740.0,40208.0,0.042994830552800005,-0.03760126107920002,0.038049161432464,0.0011806697981097544,-0.002367379582932855,0.001986593281977118,26.531740614009323
1605,C,184333542216497.0,2.3439236,11.079767,-2.379238,28,1970-01-03 03:12:13.542216497,-0.43995422,0.8178568,0.61412495,11.572207571486521,1.1133727656156096,82.62770080566406,-7.845730304718018,74.1812973022461,26570110.0,38370.0,0.07534121205750001,0.03146648878499998,-0.04519783663479,0.0022702769774786058,-0.00011769560646422769,-0.00013714733375662437,26.570110303000547
1605,C,184333582173632.0,-0.9768343,15.342045,-2.0093338,28,1970-01-03 03:12:13.582173632,0.5520733,-0.32517198,-0.68203557,15.503869592830815,0.9357853727726435,83.02723693847656,-7.53571081161499,74.11128997802734,26610067.0,39957.0,0.02731239358005,0.13628957104199996,-0.08767708170629998,0.0020508650602297927,0.003351514441253718,-0.0026546415560774663,26.610067438014084
1605,C,184333622569724.0,0.6398504,17.01559,0.13347675,28,1970-01-03 03:12:13.622569724,0.8093347,0.18002969,-1.3321131,17.028139288403494,1.5690629869757289,83.23153686523438,-7.335328102111816,74.09099578857422,26650463.0,40396.0,-0.006806400812200001,0.25767871172999995,-0.0378885606959,0.0004141800419250343,0.007957371375428854,-0.002536174845239635,26.650463530007983
1605,C,184333661918528.0,1.9644425,13.18008,3.8373067,28,1970-01-03 03:12:13.661918528,-0.090014845,-0.31664985,-1.1523498,13.867172237052195,1.1984489398324139,82.99486541748047,-7.302642345428467,74.09825134277344,26689812.0,39349.0,0.051238160661050004,0.20846450941499997,0.078123178987025,0.0008741726591461995,0.009171134804417303,0.000791595997568739,26.68981233399245
1605,C,184333701642434.0,-1.0516531,11.076176,0.75237787,28,1970-01-03 03:12:13.701642434,-0.8567389,-0.6508766,0.12996227,11.15139997870139,1.083758313843231,83.0341796875,-6.998070240020752,74.05667114257812,26729536.0,39724.0,0.0181298230628,0.09248255667199999,0.09116031492934001,0.0013777868927231087,0.005977410626619994,0.0033623087561668423,26.729536240018206
1605,C,184333743485609.0,-1.4269443,10.803237,2.0685902,28,1970-01-03 03:12:13.743485609,-1.4932344,-0.7107977,0.79202414,11.091670980019535,1.8336533429226445,82.86656951904297,-6.6861419677734375,74.03727722167969,26771379.0,41843.0,-0.051855975504099996,0.047688739079499956,0.059018883476505,-0.0007056016983006578,0.002932593764065006,0.003141974099447886,26.77137941500405
1605,C,184333783174724.0,2.9149406,10.502765,-0.18495208,28,1970-01-03 03:12:13.783174724,-1.7864485,-1.9651467,1.7819211,10.901337469258058,3.198193646779124,82.98456573486328,-7.007969379425049,73.9269790649414,26811068.0,39689.0,0.02952854257535,0.03385475668899996,0.037379856672340006,-0.0004430767427545793,0.0016181899017779968,0.0019129847988837547,26.811068529990735
1605,C,184333823123424.0,3.7020345,10.968436,0.4285621,28,1970-01-03 03:12:13.823123424,-0.7707188,-1.485245,2.7316043,11.584270076221577,3.2033766919419464,83.0672607421875,-7.441856861114502,73.85527801513672,26851017.0,39949.0,0.13217076913495,0.037376304374499986,0.00486598834449,0.003229862901757387,0.0014228048292128795,0.000843839631288671,26.851017230015714
1605,C,184333862981236.0,0.049081136,13.425486,-0.009576807,28,1970-01-03 03:12:13.862981236,-0.35739622,1.2564794,2.574478,13.425579131245675,2.8869377397475424,83.21461486816406,-7.383170127868652,73.91118621826172,26890875.0,39858.0,0.07475598350984398,0.09553807153799997,0.008349957904196998,0.004123843253458099,0.0026488505975602113,0.00026338059279008315,26.8908750420087
1605,C,184333902968110.0,-3.5811272,11.449671,0.11851298,28,1970-01-03 03:12:13.902968110,-0.88443583,0.74009246,2.0823257,11.997228153088084,2.3803453336894487,83.31279754638672,-6.883539199829102,73.94194030761719,26930861.0,39986.0,-0.070616196957552,0.10546621390099997,0.002177960906789,8.27667525399736e-05,0.004018678678781926,0.00021048468078804306,26.930861916014692
1605,C,184333942829463.0,0.7679402,7.323863,1.5197195,28,1970-01-03 03:12:13.942829463,-1.134773,0.28336033,2.5976474,7.51919202788606,2.848819905307015,83.12651062011719,-6.98593282699585,73.98663330078125,26970723.0,39862.0,-0.05606963009700001,-0.016472293845999998,0.03265161155888,-0.002524975219024276,0.0017737378206162046,0.0006941882088132489,26.970723269012524
1605,C,184333982690716.0,1.0588357,5.650316,0.87567925,28,1970-01-03 03:12:13.982690716,-0.8245147,0.99256015,2.3784692,5.814982208771671,2.705940848805227,83.02941131591797,-7.185683250427246,74.05662536621094,27010584.0,39861.0,0.03640855707495,-0.13205592544050002,0.047741494786875,-0.0003918550158659677,-0.0029602416744895885,0.00160227480602407,27.010584522009594
1605,C,184334022176654.0,2.0775685,3.7654808,0.6913257,28,1970-01-03 03:12:14.022176654,-1.015996,1.5342472,1.9742013,4.355808507136348,2.6988206897912894,82.8908920288086,-7.794872760772705,74.15575408935547,27050070.0,39486.0,0.0619220281206,-0.20106672377760001,0.03093737872785,0.0019413407435157435,-0.006576840463512949,0.0015533569998012157,27.05007046001265
1605,C,184334061419569.0,2.5378537,3.0747535,2.3145945,28,1970-01-03 03:12:14.061419569,-0.8926916,1.3121395,1.2061456,4.610006311036481,1.9933377959016805,82.23387145996094,-8.486300468444824,74.31465148925781,27089313.0,39243.0,0.09056150669729998,-0.25036574268255,0.0589806632043,0.0029919556784294243,-0.008857782140647833,0.0017643268597716812,27.089313375006896
1605,C,184334102444672.0,-1.0606314,2.172738,3.9953241,28,1970-01-03 03:12:14.102444672,-0.536627,1.4394386,0.2561961,4.669940475782402,1.5574300825251095,81.06114959716797,-8.043221473693848,74.551513671875,27130338.0,41025.0,0.030301522428749998,-0.29440583060625003,0.1294322052825,0.0024792028849481003,-0.011174626897086513,0.003864818964835485,27.13033847801853
1605,C,184334141699258.0,1.8620903,5.5060654,4.994903,28,1970-01-03 03:12:14.141699258,0.20612867,0.74009246,-0.41092578,7.663758376530424,0.8712553440946167,80.2965087890625,-8.198304176330566,74.69400787353516,27169593.0,39255.0,0.01573063455975,-0.23398328626650003,0.17645568240525,0.0009034961612917836,-0.0103709573914199,0.006003814515591312,27.169593063998036
1605,C,184334180755143.0,5.41748,7.2394676,3.5757403,28,1970-01-03 03:12:14.180755143,1.3779196,-0.4460795,-0.94142747,9.72342014801859,1.7274070237367367,80.02644348144531,-8.782958984375,74.7140884399414,27208648.0,39055.0,0.14215180903325,-0.1338506043425,0.16736323704075,0.003083049417262307,-0.007182876298867249,0.006713923949481765,27.208648949017515
1605,C,184334220561237.0,4.6016555,6.8103065,0.8523358,28,1970-01-03 03:12:14.220561237,2.0831246,-1.5672703,-1.9885824,8.263291370911723,3.2787504104425227,80.20542907714844,-9.305312156677246,74.60856628417969,27248455.0,39807.0,0.19941586342425002,-0.11046892120065002,0.08813421265635,0.006798392168757852,-0.004862813676648087,0.0050852934900462304,27.248455043009017
1605,C,184334260189935.0,0.06464344,7.4202294,-0.25139117,28,1970-01-03 03:12:14.260189935,2.518818,-1.4575481,-3.1345406,7.424768053165928,4.277176095741905,80.64202117919922,-8.948265075683594,74.46248626708984,27288083.0,39628.0,0.09245804719715998,-0.1063905616774,0.011907116898819998,0.005783189665052617,-0.004296853793745683,0.0019822189038061384,27.28808374100481
1605,C,184334300261287.0,-2.6078842,19.612701,0.51595044,28,1970-01-03 03:12:14.300261287,2.0780647,-0.9057411,-3.3981936,19.79205157058123,4.084903864315078,80.95291137695312,-8.382489204406738,74.36038208007812,27328155.0,40072.0,-0.05095637186736,0.1489261934944,0.00530070953372,0.0008315275669078726,0.0008522439190854121,0.00034477601040237144,27.328155093011446
1605,C,184334339983162.0,2.1942859,8.81964,-0.19991584,28,1970-01-03 03:12:14.339983162,1.1073424,-1.1448929,-0.94968325,9.090704410749572,1.85442314983359,81.27017974853516,-8.487025260925293,74.25860595703125,27367876.0,39721.0,-0.008214269037149996,0.1754147084305,0.0062766051732999996,-0.0011751585136840206,0.006441572482679477,0.0002299312587387707,27.36787696799729
1605,C,184334381712641.0,0.86610246,11.952454,-0.24241292,28,1970-01-03 03:12:14.381712641,0.51265854,0.021571605,-1.2072109,11.98624437082429,1.311732545092946,81.54502868652344,-8.321748733520508,74.21420288085938,27409606.0,41730.0,0.06385500313140001,0.024455741309999956,-0.0092291895774,0.0011609439168765267,0.004170296933835532,-6.16056735915465e-05,27.40960644700681
1605,C,184334421660142.0,0.41180268,11.000159,-0.7182605,28,1970-01-03 03:12:14.421660142,-0.12783173,0.29001826,-1.1052119,11.031272710725469,1.149758620854756,81.84307098388672,-8.115276336669922,74.17682647705078,27449553.0,39947.0,0.025524238313790006,0.06696341575549997,-0.019188010554370003,0.001785216279005503,0.0018259605336477629,-0.0005675909468319082,27.44955394801218
1605,C,184334459865142.0,-0.62249243,10.134057,0.64583594,28,1970-01-03 03:12:14.459865142,0.120907515,1.0897655,-0.8759137,10.173677416060134,1.403364629033173,81.9559326171875,-7.776261329650879,74.20932006835938,27487758.0,38205.0,-0.0040247009493750005,0.02930736113999998,-0.0013834901573999995,0.00041069491250373763,0.001839012515646288,-0.0003929670923465865,27.48775894800201
1605,C,184334501588735.0,-0.25558102,8.886678,0.11611878,28,1970-01-03 03:12:14.501588735,0.5044027,0.19228023,-0.7190535,8.891110791376796,0.8991283036799547,82.16392517089844,-7.506321907043457,74.18951416015625,27529482.0,41724.0,-0.018318368313899998,-0.012084626430000025,0.01589589936864,-0.000466121110970443,0.0003593006915200191,0.00030275788096488884,27.52948254099465
1605,C,184334539977849.0,0.8559271,7.40766,-0.46088383,28,1970-01-03 03:12:14.539977849,0.55979645,0.22796659,-0.8990832,7.471174725628487,1.0833704039298242,82.47479248046875,-7.4406208992004395,74.1578598022461,27567871.0,38389.0,0.01152334283256,-0.06345052925900004,-0.0066175927522250004,-0.00013042711660158057,-0.0014498595458725116,0.0001780924563487777,27.56787165501737
1605,C,184334579862277.0,0.95109665,6.621165,0.7966706,28,1970-01-03 03:12:14.579862277,1.0847056,0.8202536,-0.664725,6.736400733312307,1.513691359759089,82.5408706665039,-7.4192304611206055,74.19233703613281,27607756.0,39885.0,0.036036571134374994,-0.11110315743750002,0.0066964276607249995,0.000948463584285601,-0.003481036896944952,1.5721651627612306e-06,27.607756083016284
1605,C,184334620270818.0,-0.014963761,5.6156,-0.6793547,28,1970-01-03 03:12:14.620270818,0.37444046,0.56725335,-0.40932786,5.656563451651131,0.7934300965702106,82.9143295288086,-7.212249755859375,74.17245483398438,27648164.0,40408.0,0.018913628889356,-0.14876679994000003,0.0023702504436000004,0.001110213841279461,-0.005250412618855011,0.0001831831644197823,27.648164623999037
1605,C,184334661164464.0,-0.16280572,6.8528037,0.46926352,28,1970-01-03 03:12:14.661164464,0.35633096,0.24048345,0.24873926,6.870781069456456,0.4966641342434258,83.01020812988281,-7.009932041168213,74.17618560791016,27689058.0,40894.0,-0.0036348525780069995,-0.14581974954610002,-0.00429573435746,0.00031240513923815305,-0.006023411177342289,-3.9370369586695406e-05,27.689058270014357
1605,C,184334700277016.0,1.0953473,12.149377,-1.6035166,28,1970-01-03 03:12:14.700277016,1.1478225,-1.1475562,0.5121259,12.303593486547816,1.7019561278468667,83.43431091308594,-6.999967575073242,74.0780258178711,27728170.0,39112.0,0.01823678313848,-0.011690954230800023,-0.022181453232480004,0.00028555535404061003,-0.0030802793230610575,-0.0005177878805088668,27.728170821996173
1605,C,184334740971079.0,0.17058687,13.480553,0.6356605,28,1970-01-03 03:12:14.740971079,0.27190876,-0.44501424,-0.20772657,13.496609697893973,0.5613576181468282,83.54798126220703,-6.835974216461182,74.0428695678711,27768864.0,40694.0,0.02575796255699,0.12269098570999998,-0.0196929680667,0.0008951610906657282,0.0022585176405072816,-0.0008520188501744156,27.768864885001676
