Subject-id_accel,Activity_accel,Timestamp_accel,accel_x,accel_y,accel_z,Segment_accel,DateTime,gyro_x,gyro_y,gyro_z,accel_magnitude,gyro_magnitude,Roll,Pitch,Yaw,Time_Difference,Difference_Microseconds,vx,vy,vz,dx,dy,dz,Time_diff
1627,C,442127090248528.0,5.65728228775955,0.7500763,-2.8637543,136,1970-01-06 02:48:47.090248528,0.49674988,0.3927765,0.21942139,3.4783692904903267,0.6702086008264864,-98.52898406982422,-33.710960388183594,139.47691345214844,15005479.0,50354.0,0.22686818399364436,-0.40643767118330004,-0.09598616065225,0.007130290797861338,-0.018480675890929523,-0.0035421272563934247,15.005479497020133
1627,C,442127140602532.0,4.046274687759549,3.0075226,-3.7911072,136,1970-01-06 02:48:47.140602532,0.20248413,1.0770721,-0.41288757,5.935716324148683,1.1711363186925645,-99.42610931396484,-33.80950164794922,139.9393310546875,15055833.0,50354.0,0.24430645397264436,-0.39886413249470004,-0.1675494479855,0.011862763860077253,-0.020275083511201008,-0.006635036018672632,15.05583350098459
1627,C,442127190956536.0,2.5438942877595494,3.801422,-2.2760773,136,1970-01-06 02:48:47.190956536,-0.10002136,0.2715912,-0.9826355,6.6356458132410365,1.024372284979411,-99.80111694335938,-33.911380767822266,140.14105224609375,15106187.0,50354.0,0.16592068429664436,-0.32204040180580007,-0.1527535041565,0.010328288660205883,-0.018150213460083692,-0.008064267426079134,15.106187505007256
1627,C,442127241310540.0,1.8947395877595499,3.6103516,-0.6463318,136,1970-01-06 02:48:47.241310540,0.46569824,0.7586212,-0.33605957,6.684869417616225,0.951481481909723,-99.67344665527344,-33.90481185913086,140.05416870117188,15156541.0,50354.0,0.11175148508394436,-0.30686297607280005,-0.0735774939107,0.006990952208495082,-0.01583390034484952,-0.005698335538337894,15.156541508971713
1627,C,442127291664544.0,-2.63426771224045,4.4743347,-0.38716125,136,1970-01-06 02:48:47.291664544,0.13085938,1.2192993,0.2588501,11.069793676914744,1.2533229171225126,-99.42036437988281,-33.657867431640625,139.8654022216797,15206895.0,50354.0,-0.018619099590055626,-0.28992105302490007,-0.026020254519850006,0.0023447940695796366,-0.015025231500592796,-0.0025075725122359577,15.206895512994379
1627,C,442127342018548.0,-9.112111712240448,11.182053,-2.1839294,136,1970-01-06 02:48:47.342018548,-0.2905426,-0.18251038,0.90223694,20.13019416479477,0.965275368546752,-99.38794708251953,-33.614383697509766,139.84075927734375,15257249.0,50354.0,-0.2957385947701556,-0.09928832687710004,-0.06473234929505,-0.00791458367090704,-0.009799124557792657,-0.002284878306247738,15.257249517017044
1627,C,442127392372552.0,-2.7665767122404494,14.611832,-1.6204834,136,1970-01-06 02:48:47.392372552,-0.46730042,-1.4539795,-0.5433197,17.92197638011245,1.6209942521059464,-99.45560455322266,-34.14268493652344,139.928955078125,15307603.0,50354.0,-0.2990697384631556,0.15594344264499996,-0.0957837010656,-0.014975489405815076,0.0014264058496884164,-0.004041312599930086,15.307603520981502
1627,C,442127442726556.0,1.87185128775955,5.8677216,-2.7008972,136,1970-01-06 02:48:47.442726556,0.3266449,0.51976013,-0.32432556,8.556661728483801,0.694287082051035,-99.777099609375,-34.41373825073242,140.1001739501953,15357957.0,50354.0,-0.02252650201215561,0.022144520987199944,-0.10879939936619999,-0.00809682854644691,0.004483720660367897,-0.005150788719571429,15.357957525004167
1627,C,442127493080560.0,0.32067328775954973,5.510132,-3.9474792,136,1970-01-06 02:48:47.493080560,0.72164917,1.1678009,0.07611084,9.861608696316521,1.3748924781843868,-100.17205810546875,-34.445125579833984,140.29586791992188,15408311.0,50354.0,0.05520119123784437,-0.20700897991280004,-0.1673861726228,0.0008226506506351662,-0.004654332482369834,-0.0069535241459670535,15.408311528968625
1627,C,442127543434564.0,2.23241658775955,4.0458527,-4.1149445,136,1970-01-06 02:48:47.543434564,-0.13775635,-0.7869873,0.09460449,7.802331094171897,0.804534543605663,-100.90000915527344,-34.431583404541016,140.7349090576172,15458665.0,50354.0,0.06427914379594438,-0.2528781732081001,-0.2029876414949,0.0030081563951456993,-0.011578578854124904,-0.009324901518041334,15.45866553299129
1627,C,442127593788568.0,2.93587728775955,4.650772,-1.9523468,136,1970-01-06 02:48:47.593788568,-0.04711914,-0.0037994385,0.18435669,6.791384572975914,0.19032088228833688,-101.17237091064453,-34.65468215942383,140.88673400878906,15509019.0,50354.0,0.1301221349039444,-0.2745142799281,-0.15275619306010002,0.0048944409938270995,-0.01327815979261011,-0.008956562522591235,15.509019537013955
1627,C,442127644142571.0,2.7728065877595496,4.291031,-1.2144012,136,1970-01-06 02:48:47.644142571,-0.28700256,0.23970032,0.23075867,6.486838096018778,0.4394044567762427,-101.251953125,-34.815269470214844,140.9123992919922,15559373.0,50354.0,0.14372753393394438,-0.26834142586900006,-0.079729214396,0.006894713112331525,-0.01366747810485359,-0.0058532851035222305,15.559373539988883
1627,C,442127694496575.0,2.23906928775955,3.83992,-1.0711975,136,1970-01-06 02:48:47.694496575,-0.4243927,0.20201111,0.059432983,6.587662966747407,0.47376147146533604,-101.27313232421875,-34.8353157043457,140.9037628173828,15609727.0,50354.0,0.12618399891794438,-0.28875624667300004,-0.057544518469900004,0.006795562662612003,-0.014026048101589935,-0.0034561407723647645,15.609727544011548
1627,C,442127744850579.0,-0.8098657122404509,7.8608704,-0.15545654,136,1970-01-06 02:48:47.744850579,-0.45007324,-0.6817932,0.050476074,11.427975778272762,0.8185082302437715,-101.09381866455078,-35.05027389526367,140.81524658203125,15660081.0,50354.0,0.035983058420844365,-0.19887840009920005,-0.030883468765080004,0.0040828800026186845,-0.012277177501783683,-0.002226351434615092,15.660081547976006
1627,C,442127795204583.0,-8.45337471224045,9.261917,-2.248642,136,1970-01-06 02:48:47.795204583,-0.8224335,-1.2355194,0.2820282,18.569488537260632,1.5107762757251155,-101.094482421875,-34.8974494934082,140.83941650390625,15710435.0,50354.0,-0.23322060416715568,-0.06236878163020004,-0.06052798894157999,-0.00496584968925488,-0.006577420294401106,-0.002301466270680579,15.710435551998671
1627,C,442127845558587.0,-6.960423712240451,5.574768,-4.5376587,136,1970-01-06 02:48:47.845558587,-0.7880249,-0.11531067,0.1156311,16.133738585074127,0.8047672613389967,-101.31729125976562,-34.532135009765625,140.94749450683594,15760789.0,50354.0,-0.38807320293315567,-0.11992598175500004,-0.1708586927239,-0.01564231418136454,-0.004589635257749182,-0.00582562248429179,15.760789556021336
1627,C,442127895912591.0,0.42138128775954975,5.4687347,-2.8007965,136,1970-01-06 02:48:47.895912591,-0.181427,0.3037262,-0.37698364,9.360882355388371,0.5169932550073449,-101.57154083251953,-34.594398498535156,141.07737731933594,15811143.0,50354.0,-0.16463347112115567,-0.21542693252210007,-0.18476028657040003,-0.0139154959326654,-0.00844318032275455,-0.008953419041692593,15.811143559985794
1627,C,442127946266595.0,1.8869422877595499,3.967102,-2.7233276,136,1970-01-06 02:48:47.946266595,0.50297546,0.09643555,0.20507813,7.380834886737527,0.551671249994334,-101.90587615966797,-34.554290771484375,141.2758026123047,15861497.0,50354.0,0.05811666266084437,-0.2559031394041001,-0.1390808724657,-0.002681773686605258,-0.011866677220885942,-0.00815334886105189,15.86149756400846
1627,C,442127996620599.0,3.39963768775955,3.6987,-2.6412964,136,1970-01-06 02:48:47.996620599,1.0028992,0.39093018,0.25497437,6.110268639857246,1.106184948529119,-102.33710479736328,-34.65538024902344,141.5312042236328,15911851.0,50354.0,0.13310022404364438,-0.300467303046,-0.135065138448,0.004814267556558913,-0.014007738629566172,-0.006902174116774225,15.911851567972917
1627,C,442128046974603.0,3.0695902877595493,1.4752655,-1.3486023,136,1970-01-06 02:48:48.046974603,1.145401,0.9873657,0.0740509,4.84545239036063,1.5140402940900548,-102.38031005859375,-34.24776077270508,141.5478973388672,15962205.0,50354.0,0.16287575273964439,-0.3632042706065,-0.1004536795699,0.0074517871674728625,-0.016709259209848996,-0.005929657281236669,15.962205571995582
1627,C,442128097328607.0,2.49100728775955,1.0895538,-1.5640106,136,1970-01-06 02:48:48.097328607,0.70739746,1.0419464,-0.1802063,5.344062299390585,1.2722176611913159,-102.45948791503906,-33.722957611083984,141.5716094970703,16012559.0,50354.0,0.13999916515884436,-0.4288947444839001,-0.07333085498330001,0.007625481807930251,-0.019942676902931007,-0.004375373226445918,16.012559576018248
1627,C,442128147682610.0,2.90195698775955,4.087616,-0.4064331,136,1970-01-06 02:48:48.147682610,0.5057068,0.070236206,-0.4254303,6.153456576458803,0.6645776345601802,-102.26892852783203,-33.94627380371094,141.48049926757812,16062913.000000002,50354.00000000186,0.1357786615647494,-0.36312359594541344,-0.049609861034901837,0.006943258343420177,-0.019940645756989565,-0.0030952784071903825,16.062913578993175
1627,C,442128198036614.0,-3.569295712240451,4.8256073,2.9492188,136,1970-01-06 02:48:48.198036614,0.37763977,0.41539,0.26405334,12.415730215837922,0.620390856114763,-101.50890350341797,-33.741817474365234,141.04859924316406,16113267.0,50353.99999999814,-0.016801587066255022,-0.2690609769758901,0.06401971556889763,0.0029954858046484824,-0.01591651099243907,0.00036279690760239865,16.11326758301584
1627,C,442128248390618.0,-8.60588571224045,11.226715,1.9721222,136,1970-01-06 02:48:48.248390618,-0.23329163,-0.4369049,0.49194336,19.717991355926745,0.6980824777346559,-101.08219146728516,-33.77052688598633,140.8187255859375,16163621.0,50354.0,-0.30653454272415565,-0.08931988145290004,0.123904602357,-0.00814063373973317,-0.00902295487266165,0.004731370552420325,16.163621586980298
1627,C,442128298744622.0,-3.4084217122404494,12.484985,-0.5576172,136,1970-01-06 02:48:48.298744622,-0.43017578,-0.714447,-0.22021484,16.577738320529882,0.8625429225631813,-100.96739196777344,-34.15264129638672,140.77354431152344,16213975.000000002,50354.00000000186,-0.3024842180261668,0.1035202709000038,0.03561299238500132,-0.015333265339411435,0.0003575232051097447,0.004016174482819516,16.213975591002963
1627,C,442128349098626.0,0.045237287759549716,6.386505,-0.58955383,136,1970-01-06 02:48:48.349098626,0.28378296,0.99606323,-0.2423706,9.82160409059608,1.0636814533913594,-100.77371978759766,-34.33753204345703,140.6339569091797,16264329.0,50353.99999999814,-0.08467489425515248,-0.018341696269999364,-0.02888232502230893,-0.009747504969906414,0.0021445409734595425,0.0001694580121905,16.26432959496742
1627,C,442128399452630.0,1.0637917877595502,4.45636,-1.4995575,136,1970-01-06 02:48:48.399452630,0.7240448,0.65527344,-0.124053955,7.957477626223431,0.9843848522440884,-100.77584838867188,-34.34331130981445,140.62997436523438,16314682.999999998,50353.99999999814,0.027922025034343344,-0.22047838789499188,-0.052597555955408055,-0.0014288669883722588,-0.006012773259021762,-0.0020514189633759044,16.314683598990086
1627,C,442128449806634.0,2.94162988775955,4.3147125,-3.1361542,136,1970-01-06 02:48:48.449806634,0.14805603,-0.30404663,-0.030227661,7.005817884038011,0.3395271016034636,-101.33244323730469,-34.48672866821289,140.96128845214844,16365037.000000002,50354.000000003725,0.10084450152455185,-0.2726399076675202,-0.11671331347090863,0.003241954839173544,-0.012415239327378284,-0.00426273975954669,16.365037603012752
1627,C,442128500160638.0,3.6390632877595497,3.089569,-1.9924164,136,1970-01-06 02:48:48.500160638,-0.1953888,0.1884613,0.14689636,5.319345817289844,0.30866322318083117,-101.72650146484375,-34.5321044921875,141.1702117919922,16415391.0,50353.99999999814,0.16568211208003825,-0.30705160467448867,-0.1291220219961952,0.006710340550722516,-0.014594893206234218,-0.006189396241055045,16.41539160697721
1627,C,442128550514642.0,3.29372628775955,2.266037,-0.47886658,136,1970-01-06 02:48:48.550514642,-0.7676239,0.3065338,0.12600708,4.7873875871199205,0.8361143501960581,-101.61495971679688,-34.375205993652344,141.07191467285156,16465744.999999998,50353.99999999814,0.17454684314283792,-0.3586311077379868,-0.062219491587457695,0.008565944405646037,-0.016759893650408274,-0.004817405287495451,16.465745610999875
1627,C,442128600868646.0,1.1090952877595495,3.7553558,0.2054596,136,1970-01-06 02:48:48.600868646,-1.140152,0.042266846,0.029556274,7.401278190365959,1.1413179411134966,-101.3225326538086,-34.29586410522461,140.8728485107422,16516099.0,50354.00000000186,0.11084983880684847,-0.3418685934744127,-0.0068835675354602536,0.007185432261447519,-0.017636480977425234,-0.0017398077195377695,16.51609961502254
1627,C,442128651222650.0,-6.894994712240451,11.340164,3.833191,136,1970-01-06 02:48:48.651222650,-1.023346,-1.6127777,-0.16862488,18.70924842935755,1.9174783689753336,-100.81806945800781,-34.42891311645508,140.62596130371094,16566453.0,50354.0,-0.14567158981015568,-0.11340929799540005,0.10168110615619999,-0.0008767072250102657,-0.011462531473535476,0.0023867176298543644,16.566453618986998
1627,C,442128701576653.0,-7.1245167122404505,10.056961,0.24778748,136,1970-01-06 02:48:48.701576653,-0.40878296,-1.4490967,-0.22990417,17.736973932647437,1.5231023214875092,-100.59646606445312,-34.44338607788086,140.54957580566406,16616807.000000002,50354.00000000186,-0.3529692391341687,0.04524621612500161,0.10274679519096379,-0.012554280150331719,-0.0017161419122510848,0.005146881272217733,16.616807622020133
1627,C,442128751930657.0,-0.9582267122404504,4.323288,-2.6315918,136,1970-01-06 02:48:48.751930657,-0.09729004,0.35549927,-0.021102905,9.842770566440135,0.3691753180443859,-100.7716293334961,-34.243629455566406,140.63140869140625,16667161.0,50353.99999999814,-0.2034992311981481,-0.1314176709269952,-0.06001704136463778,-0.014010206677556222,-0.002169538717549712,0.00107580701208537,16.66716162598459
1627,C,442128802284661.0,2.21061178775955,4.189682,-2.5740204,136,1970-01-06 02:48:48.802284661,0.22140503,0.15370178,-0.025894165,7.209935568297432,0.2707673027998701,-101.12670135498047,-34.3010139465332,140.83154296875,16717514.999999998,50353.99999999814,0.031531299046343206,-0.27913815430998973,-0.13106169835939516,-0.0043296366277858316,-0.010336564011991187,-0.0048107894300317994,16.717515630007256
1627,C,442128852638665.0,3.68288658775955,3.4804535,-1.0053558,136,1970-01-06 02:48:48.852638665,0.9691467,0.6182556,-0.08229065,5.250670342531702,1.1525003532015392,-101.14167785644531,-34.49222183227539,140.84291076660156,16767869.000000002,50354.000000003725,0.14838060860045535,-0.30035819851652223,-0.09011795458740668,0.004529642098823782,-0.014589979675114172,-0.005568640122242042,16.767869633971713
1627,C,442128902992669.0,3.04729698775955,3.314621,-2.6490936,136,1970-01-06 02:48:48.902992669,0.9201355,0.38726807,-0.1546936,6.1388095998174155,1.0102257204618852,-101.57681274414062,-34.49741744995117,141.10096740722656,16818223.0,50353.99999999814,0.1694458318808381,-0.32238960931348815,-0.09200807254379659,0.008001916291997228,-0.015678921557735592,-0.004585386985082135,16.81822363799438
1627,C,442128953363222.0,3.5826057877595496,2.6967163,-1.4997559,136,1970-01-06 02:48:48.953363222,0.580307,-0.026245117,-0.3065033,4.973843323240163,0.6568023243916191,-101.79059600830078,-34.47957992553711,141.24205017089844,16868594.0,50371.0,0.16697741635283628,-0.34223726443085006,-0.10449084908225,0.008472987718389205,-0.01673896012868803,-0.0049489235906127966,16.86859419097891
1627,C,442129003717226.0,0.4927315877595495,2.0065002,3.5100555,136,1970-01-06 02:48:49.003717226,0.5854187,0.45741272,-0.11932373,8.075793600953308,0.7524490702157863,-100.7042236328125,-34.163516998291016,140.62860107421875,16918948.0,50354.0,0.10260476910344438,-0.3750563181795001,0.0506133130292,0.006787270683232778,-0.018059300529380786,-0.00135647472520764,16.918948195001576
1627,C,442129054071230.0,-7.4469807122404506,10.864014,2.0724335,136,1970-01-06 02:48:49.054071230,0.21392822,-0.13111877,0.16714478,18.580724236002407,0.30148763264838857,-100.24840545654297,-34.22782897949219,140.38247680664062,16969302.0,50354.0,-0.17508713020705566,-0.16942826398660008,0.140550325553,-0.0018248884055056213,-0.013708488325195905,0.00481292692858405,16.969302198966034
1627,C,442129104425234.0,-4.86008171224045,12.736435,0.10722351,136,1970-01-06 02:48:49.104425234,-0.38253784,-0.49057007,-0.05899048,17.736802592668322,0.6248792438081945,-100.05886840820312,-34.52576446533203,140.28509521484375,17019656.0,50354.0,-0.30985491066115567,0.10071930447299995,0.054877224540769994,-0.012209385762938958,-0.0017298854736739104,0.004920279428710848,17.0196562029887
1627,C,442129154779238.0,-0.08267741224045011,7.0593414,0.072509766,136,1970-01-06 02:48:49.154779238,-0.06866455,0.4479828,-0.20046997,10.348321299644839,0.49557201131050915,-99.81356048583984,-34.760826110839844,140.12698364257812,17070010.0,50354.0,-0.12444384647705563,0.0049290624227999935,0.004525144689852,-0.010934339808468746,0.0026599089333355554,0.00149557345011937,17.070010207011364
1627,C,442129205133242.0,1.9955392877595495,3.9951172,-1.2544556,136,1970-01-06 02:48:49.205133242,0.2468872,0.5005188,0.011871338,6.903127581573167,0.5582233310631062,-99.8599853515625,-34.780479431152344,140.14015197753906,17120364.0,50354.0,0.048160123439944365,-0.21515109582780004,-0.029757850262618003,-0.0019205952949053501,-0.005292760135037686,-0.0006352838282055297,17.120364210975822
1627,C,442129255487245.0,2.79610678775955,2.8513641,-1.0070648,136,1970-01-06 02:48:49.255487245,-0.2077179,0.2720337,0.20169067,5.578245876222928,0.3972759573409255,-99.9190673828125,-34.672515869140625,140.1554412841797,17170718.0,50354.0,0.12063927324334438,-0.32109534030990006,-0.056938299110800006,0.004249862410295161,-0.013501076522638876,-0.0021827489527745454,17.170718214008957
1627,C,442129305841249.0,3.99137348775955,1.572815,-0.07632446,136,1970-01-06 02:48:49.305841249,-0.8135834,0.21870422,0.24861145,3.8308031590969445,0.8783832521584589,-99.71224212646484,-34.41106033325195,140.00442504882812,17221072.0,50354.0,0.17088839089674437,-0.38208164279930007,-0.02727649139902,0.0073397920000550145,-0.01770388690374033,-0.0021202757806657382,17.221072217973415
1627,C,442129356195253.0,3.44388828775955,2.687271,-1.0219116,136,1970-01-06 02:48:49.356195253,-1.1998901,-0.13729858,0.4397583,4.958306957319157,1.2852916068219369,-99.88829040527344,-34.350406646728516,140.07244873046875,17271426.0,50354.0,0.1871975857222444,-0.386213014778,-0.02765028928262,0.009015530633336282,-0.019343354593823685,-0.0013828915572216504,17.27142622199608
1627,C,442129406549257.0,-7.63066671224045,12.536774,5.3980255,136,1970-01-06 02:48:49.406549257,-1.2474518,-0.91452026,0.11773682,20.36540505584839,1.551239909897054,-99.30550384521484,-34.50924301147461,139.74411010742188,17321780.0,50354.0,-0.10541052039315564,-0.11017341903500005,0.11017741966030001,0.002059152943790468,-0.012497521244109903,0.0020777855615188496,17.321780226018745
1627,C,442129456903261.0,-9.188543712240449,8.989792,-1.2353058,136,1970-01-06 02:48:49.456903261,-0.65133667,-0.3006897,-0.08329773,18.98162073999946,0.7222134485011559,-99.21365356445312,-34.35795211791992,139.68649291992188,17372134.0,50354.0,-0.4234572608571556,0.04850515218199994,0.10480479388690002,-0.013315304128539089,-0.001552621954557984,0.0054126071904778555,17.372134229983203
1627,C,442129507257265.0,-1.04564471224045,4.1871033,-2.2150726,136,1970-01-06 02:48:49.507257265,-0.07800293,0.4900055,0.06248474,9.756330843866595,0.5000941809816452,-99.34638214111328,-34.139251708984375,139.73861694335938,17422488.0,50354.0,-0.25766616196315556,-0.16171450703190005,-0.08687017697680001,-0.017148644416346975,-0.002850271927055935,0.00045153984994558797,17.42248823400587
1627,C,442129557611269.0,3.63231898775955,3.3918457,-2.9384918,136,1970-01-06 02:48:49.557611269,0.37226868,0.47096252,-0.19415283,5.913673486258691,0.6309397647562734,-99.9793930053711,-34.2496223449707,140.08688354492188,17472842.0,50354.0,0.06512469823474439,-0.302654001027,-0.12975129089880003,-0.004847616432290209,-0.011691405927398927,-0.005453878696703982,17.472842237970326
1627,C,442129607965273.0,3.5896858877595497,3.8964233,-0.82855225,136,1970-01-06 02:48:49.607965273,1.1009521,0.34069824,-0.35095215,5.570547173391058,1.2047149990031376,-99.95891571044922,-34.52227020263672,140.09495544433594,17523196.0,50354.0,0.18182841675094435,-0.3099724513870001,-0.09484286804685,0.006217538575994686,-0.015424096192427282,-0.005654607139774632,17.52319624199299
1627,C,442129658319277.0,3.3117622877595494,2.7830048,-2.857666,136,1970-01-06 02:48:49.658319277,0.9277191,0.06594849,-0.34519958,5.771949647647236,0.9920557856644285,-100.54235076904297,-34.45997619628906,140.451416015625,17573550.0,50354.0,0.17375776071504437,-0.3253012387263,-0.09280791688025,0.0089525931900612,-0.015994285695982557,-0.004724483812109597,17.573550246015657
1627,C,442129708673281.0,4.604242787759549,1.734314,1.5951233,136,1970-01-06 02:48:49.708673281,0.76026917,-0.21560669,-0.30351257,3.7205946832490557,0.8465313554578177,-99.53522491455078,-34.46648025512695,139.91403198242188,17623904.0,50354.0,0.19930125978634436,-0.3797366645724001,-0.0317870375579,0.009392506959163464,-0.01775073929135137,-0.0031369271678893026,17.623904249980114
1627,C,442129759027284.0,-8.116521712240448,8.602509,3.129959,136,1970-01-06 02:48:49.759027284,0.40086365,0.4621582,0.7789612,18.087643905339522,0.9904859508463523,-98.95140075683594,-34.32587432861328,139.5714569091797,17674258.0,50354.0,-0.0884286464816556,-0.23321900732900008,0.11896339706710002,0.002791439785172149,-0.015432384951461554,0.002194839203363129,17.67425825301325
1627,C,442129809381288.0,-4.67223121224045,12.095276,-1.9996796,136,1970-01-06 02:48:49.809381288,-0.09448242,-0.07531738,0.20005798,17.264358545740656,0.23371527716604493,-98.96607208251953,-34.567806243896484,139.57887268066406,17724612.0,50354.0,-0.3219824323796556,0.027638932944999958,0.028457044453800002,-0.010332919732491234,-0.0051758895327659715,0.0037116044561717,17.724612256977707
1627,C,442129859735292.0,-0.7221427122404505,8.413193,0.53253174,136,1970-01-06 02:48:49.859735292,-0.0843811,0.22866821,-0.2926178,11.76432024454951,0.38083394961407274,-98.69619750976562,-34.873043060302734,139.41534423828125,17774966.0,50354.0,-0.13581415229665564,0.02287252401299996,-0.036938381671219996,-0.011525944612395488,0.001271726951831564,-0.0002135346271229832,17.774966261000372
1627,C,442129910089296.0,1.2224982877595494,4.6147766,-1.5255585,136,1970-01-06 02:48:49.910089296,0.4019165,0.3223114,-0.032730103,7.926196409811822,0.5162293784594215,-98.7888412475586,-34.89792251586914,139.46694946289062,17825320.0,50354.0,0.012597452324844355,-0.16546400938080005,-0.02500143473652,-0.0031022268551902927,-0.003590025827105103,-0.00155945875769767,17.825320265023038
1627,C,442129960443300.0,1.9885506877595498,4.262314,-3.1648407,136,1970-01-06 02:48:49.960443300,0.13339233,0.11166382,0.10424805,7.640604926026986,0.20280527194484813,-99.30087280273438,-34.91361618041992,139.7585906982422,17875674.0,50354.0,0.08084458005664437,-0.2699706899638001,-0.1180901806584,0.0023525900492687418,-0.010962939425398997,-0.003602617600797901,17.875674268987495
1627,C,442130010797304.0,3.2254282877595495,2.2930603,-1.3827362,136,1970-01-06 02:48:50.010797304,-0.57263184,0.08337402,0.14468384,5.030100329827481,0.596482912538064,-99.56011199951172,-34.72106170654297,139.88587951660156,17926028.0,50354.0,0.13127234866664436,-0.3284245412489,-0.11449434361130001,0.005340467914466241,-0.015065796736242152,-0.005855780567538237,17.92602827301016
1627,C,442130061151308.0,4.57149738775955,2.3721924,-0.41796875,136,1970-01-06 02:48:50.061151308,-0.6643677,0.07841492,0.037338257,3.7791795641937327,0.670020511564903,-99.55745697021484,-34.82395553588867,139.8620147705078,17976382.0,50354.0,0.19630319773254437,-0.37601213277210005,-0.045336348526150004,0.008247369531692375,-0.01773560214182672,-0.00402405733594458,17.97638227697462
1627,C,442130111505312.0,2.9320932877595496,3.7399597,-0.7410431,136,1970-01-06 02:48:50.111505312,-0.56108093,-0.13877869,0.104537964,5.937376603599497,0.5873665982374605,-99.58233642578125,-34.92303466796875,139.86512756347656,18026736.0,50354.0,0.18891790243754436,-0.3395835465783001,-0.02918044134745,0.009698711638982324,-0.018016552419005027,-0.0018761092186476273,18.026736280997284
1627,C,442130161859316.0,-9.36150171224045,14.255905,3.8259277,136,1970-01-06 02:48:50.161859316,-1.2728424,-1.4743347,0.10305786,22.396990935407736,1.9504900680007653,-99.18247985839844,-35.06782913208008,139.6582794189453,18077090.0,50354.0,-0.16187321590315565,-0.04038731444810003,0.07766813957419999,0.0006809040728763047,-0.009566526368061675,0.0012207747782548846,18.07709028501995
1627,C,442130212213320.0,-7.92688471224045,8.675125,-2.2057343,136,1970-01-06 02:48:50.212213320,-0.5946655,-0.36853027,0.09458923,17.821486071603076,0.7059665284052182,-99.19676971435547,-34.91213607788086,139.6636505126953,18127444.0,50354.0,-0.4352697050091557,0.08386534230999997,0.040791609231799995,-0.015034267319809265,0.0010946463074790547,0.002982461095688662,18.127444288984407
1627,C,442130262567324.0,0.24157188775954985,4.3081665,-2.9545288,136,1970-01-06 02:48:50.262567324,-0.14181519,-0.10501099,-0.15490723,8.929511002925695,0.2348086583620568,-99.55191040039062,-34.78545379638672,139.86778259277344,18177798.0,50354.0,-0.19349312098195565,-0.16658886990450006,-0.1299199440687,-0.01583036166997821,-0.002082730254246729,-0.0022439840861886314,18.177798293007072
1627,C,442130312921327.0,1.5387825877595498,3.8205109,-1.4477692,136,1970-01-06 02:48:50.312921327,0.43348694,0.12031555,-0.09526062,7.213384180053572,0.4598492627428585,-99.63325500488281,-34.722843170166016,139.92230224609375,18228152.0,50354.0,0.04482398463014437,-0.28881348910020005,-0.110836656746,-0.0037430428459295528,-0.011465665192661335,-0.006061528938711703,18.228152295982
1627,C,442130363275331.0,1.94347628775955,4.4385986,-0.9714813,136,1970-01-06 02:48:50.363275331,0.8985596,0.2702179,-0.20101929,7.165029061920938,0.9596019087020795,-99.58769989013672,-34.8238525390625,139.912353515625,18278506.0,50354.0,0.08767283170894438,-0.28552960011850004,-0.0609094698385,0.0033358723449692378,-0.014460235957259211,-0.004324052229017957,18.278506300004665
1627,C,442130413629335.0,2.97516868775955,2.784027,-0.72076416,136,1970-01-06 02:48:50.413629335,1.1376495,0.6773224,-0.17463684,5.347527129319427,1.335481203266147,-99.49555206298828,-34.75190353393555,139.8660430908203,18328860.0,50354.0,0.12383672454864438,-0.3116251552688,-0.04260566394642001,0.005325176097897313,-0.015034565276386053,-0.002606200523302931,18.328860303969122
1627,C,442130463983339.0,3.2894997877595493,3.2082062,-3.1204376,136,1970-01-06 02:48:50.463983339,0.57514954,0.37480164,-0.2953949,6.1335141252844965,0.7473495899877856,-100.13387298583984,-34.764278411865234,140.233154296875,18379214.0,50354.0,0.15772555820814438,-0.3426027447236001,-0.09670993671151999,0.00708889359296767,-0.016471495838108658,-0.0035075488777649554,18.379214307991788
1627,C,442130514337343.0,3.9740089877595497,1.6772156,0.45870972,136,1970-01-06 02:48:50.514337343,0.39338684,0.12719727,-0.34840393,3.9166987897124703,0.5406640822359882,-99.63714599609375,-34.581851959228516,139.95916748046875,18429568.0,50354.0,0.1828733604412444,-0.3704689353414001,-0.06701432283476,0.00857525897483566,-0.01795300568899651,-0.004122085682596692,18.429568312014453
1627,C,442130564691347.0,-2.155293712240451,4.233368,3.6375732,136,1970-01-06 02:48:50.564691347,0.43074036,0.23773193,0.0552063,11.138274475235482,0.49507723017135874,-98.79707336425781,-34.37730407714844,139.48577880859375,18479922.0,50354.0,0.04578979449174435,-0.3446584367028001,0.10313211507684002,0.005757052251747857,-0.01800476184595683,0.0009093376552788487,18.47992231597891
1627,C,442130615045351.0,-7.07867971224045,15.765244,-2.0956116,136,1970-01-06 02:48:50.615045351,-0.24081421,-0.28967285,0.15574646,21.563715036308714,0.40762581317622437,-98.80558013916016,-34.679927825927734,139.49462890625,18530276.0,50354.0,-0.23248374890815565,0.01003585432399991,0.038821967203200004,-0.004700393690341987,-0.008424792756551053,0.003573977929564568,18.530276320001576
1627,C,442130665399355.0,-2.7547357122404508,11.830612,0.45910645,136,1970-01-06 02:48:50.665399355,-0.20619202,-0.42974854,-0.14601135,15.652386132354378,0.49851606902148554,-98.6055908203125,-35.05085372924805,139.392822265625,18580630.0,50354.0,-0.24757590014215566,0.201311666512,-0.04120229016155,-0.012086461784139689,0.00532109653208797,-5.99293911223778e-05,18.580630323966034
1627,C,442130715753359.0,-1.0816707122404496,4.7510376,1.538559,136,1970-01-06 02:48:50.715753359,0.23196411,0.6887665,-0.1490326,9.914785839548111,0.7419011765141649,-98.07699584960938,-34.94050216674805,139.06936645507812,18630984.0,50354.0,-0.09658920454915564,-0.07599300802080003,0.050295223034650005,-0.008665044840813145,0.003155147864832942,0.00022893277094603888,18.6309843279887
1627,C,442130766107363.0,2.9201149877595496,4.418991,-2.6863098,136,1970-01-06 02:48:50.766107363,0.11735535,0.5601959,-0.08267212,6.897022606621986,0.5782961213562883,-98.56454467773438,-35.117618560791016,139.330322265625,18681338.0,50354.0,0.04628651152474438,-0.26259538993780007,-0.028896921891600005,-0.0012664709022756021,-0.008524640095403675,0.0005387450278785699,18.681338332011364
1627,C,442130816461367.0,4.36988308775955,3.1624298,-0.35881042,136,1970-01-06 02:48:50.816461367,-0.5454712,0.51712036,-0.08302307,4.452504070874597,0.7562044213757246,-98.53123474121094,-35.378055572509766,139.27499389648438,18731692.0,50354.0,0.18354028154734436,-0.30259176851840003,-0.07666699177894001,0.0057863491691759784,-0.014229717088451749,-0.0026577826544831864,18.731692335975822
1627,C,442130866815370.0,4.07505268775955,3.7956848,-0.6358185,136,1970-01-06 02:48:50.866815370,-0.67271423,0.5672455,-0.13813782,5.140965025911989,0.890726641472621,-98.58784484863281,-35.69240951538086,139.2664031982422,18782046.0,50354.0,0.21261814802024437,-0.31828474871580004,-0.025041772318840003,0.009974080781223181,-0.015631808074405458,-0.0025607215536898077,18.782046339008957
1627,C,442130917169374.0,4.428659887759549,2.6301727,0.131073,136,1970-01-06 02:48:50.917169374,-0.70503235,0.41210938,-0.12719727,4.033299241829603,0.8264888995781854,-98.3525161743164,-35.838279724121094,139.09249877929688,18832400.0,50354.0,0.21409797151384438,-0.33168538572250006,-0.0127079774535,0.010743431741509752,-0.01636429807475308,-0.0009504254500182043,18.832400342973415
1627,C,442130967523378.0,-5.7226767122404505,10.961487,0.29716492,136,1970-01-06 02:48:50.967523378,-0.5552521,-0.60072327,-0.22956848,17.16530286772874,0.84963229027822,-98.17495727539062,-35.95039749145508,138.99758911132812,18882754.0,50354.0,-0.03257946158995566,-0.15127198373310005,0.01078174611184,0.004570091524353747,-0.012159417690783644,-4.849672648897381e-05,18.88275434699608
1627,C,442131017877382.0,-10.252156712240449,10.598999,-3.1909027,136,1970-01-06 02:48:51.017877382,0.12753296,-0.80825806,0.11442566,20.906383352702523,0.826219691793751,-98.25067138671875,-35.802406311035156,139.0774383544922,18933108.0,50354.0,-0.4021983811281556,0.049359156021999945,-0.07285563608706,-0.010946401746113887,-0.0025658592632823675,-0.0015628343279061139,18.933108351018745
1627,C,442131068231386.0,-4.98799671224045,7.37265,-0.17489624,136,1970-01-06 02:48:51.068231386,-0.056732178,-0.69577026,0.06994629,14.488847083587952,0.701574855739468,-98.0811538696289,-35.66974639892578,139.00428771972656,18983462.0,50354.0,-0.3837013427681556,-0.04099699312700006,-0.08474071991238,-0.019786597348537428,0.00021053417520741215,-0.003967803454997901,18.983462354983203
1627,C,442131118585390.0,0.32378628775954965,4.4016266,-1.5152893,136,1970-01-06 02:48:51.118585390,0.34500122,-0.23953247,0.17701721,8.54008262446108,0.45578145927842806,-98.17330169677734,-35.544891357421875,139.0766143798828,19033816.0,50354.0,-0.11743082585715563,-0.19702823804180003,-0.042553801340580004,-0.012617004609479461,-0.0059927612451368805,-0.0032048941615857745,19.03381635900587
1627,C,442131168939394.0,2.0463966877595494,2.6501465,-1.5116425,136,1970-01-06 02:48:51.168939394,0.35777283,0.1723175,0.19288635,6.234682150833726,0.44147464560128635,-98.35198211669922,-35.2843132019043,139.1824951171875,19084170.0,50354.0,0.05967409677464436,-0.31592670866130007,-0.0762090619286,-0.0014541411681103862,-0.01291466669314395,-0.002990092608528145,19.084170362970326
1627,C,442131219293398.0,2.8587592877595496,2.5184631,0.24920654,136,1970-01-06 02:48:51.219293398,0.6588898,0.70440674,0.11647034,5.271972360429196,0.9715399960892928,-97.98882293701172,-35.12920379638672,138.96302795410156,19134524.0,50354.0,0.12349711199564437,-0.36333911610080005,-0.03178435016492,0.004611701523209559,-0.017101875670035398,-0.002718950136278553,19.13452436699299
1627,C,442131269647402.0,3.9425912877595497,2.1154633,-3.917328,136,1970-01-06 02:48:51.269647402,0.3020172,1.0206909,-0.13569641,5.688516362238566,1.0730507062229342,-98.98001098632812,-34.98789596557617,139.50051879882812,19184878.0,50354.0,0.17123760343984437,-0.3768008350272001,-0.09235229399842,0.0074205359305193,-0.01863450354954966,-0.0031253882901004114,19.184878371015657
1627,C,442131320001406.0,2.5284828877595498,1.696991,-2.4952393,136,1970-01-06 02:48:51.320001406,-0.45341492,1.1416168,-0.44932556,5.801633237379717,1.3079630983289092,-99.47331237792969,-34.61342239379883,139.72573852539062,19235232.0,50354.0,0.16292223451704438,-0.39748303808890006,-0.16144920691210002,0.008413142240240588,-0.019494145073444054,-0.006389960388424163,19.235232374980114
1627,C,442131370355409.0,-1.486119712240451,2.284958,1.9202881,136,1970-01-06 02:48:51.370355409,-1.1687927,1.0199127,-0.4206543,9.453252656159234,1.6072486837148352,-98.88220977783203,-34.19147491455078,139.3200225830078,19285586.0,50354.0,0.02624357767004435,-0.39321567002700003,-0.014475546362400003,0.004762627653434333,-0.019907421374234017,-0.004429257513192088,19.28558637801325
1627,C,442131420709413.0,-11.040166712240449,11.705109,5.7407837,136,1970-01-06 02:48:51.420709413,-2.2339172,0.56362915,0.7569275,22.6516054380725,2.4250779606935966,-98.31906127929688,-34.15016555786133,138.9130859375,19335940.0,50354.0,-0.31537431330915566,-0.14124128314100004,0.1928828047086,-0.0072794445311859055,-0.01345602270991074,0.004491759543382277,19.335940381977707
1627,C,442131471063417.0,-2.3748217122404496,11.5672455,5.467087,136,1970-01-06 02:48:51.471063417,-0.38137817,1.5009003,0.13038635,16.151724980609448,1.554075808755468,-97.55057525634766,-34.554466247558594,138.406494140625,19386294.0,50354.0,-0.33774916356315565,0.09245886924649999,0.2821805606139,-0.016443689777214183,-0.001228194834621828,0.011960670348724584,19.386294386000372
1627,C,442131521417421.0,-5.05696671224045,5.7667084,3.1921082,136,1970-01-06 02:48:51.521417421,-2.054535,3.5204163,0.066207886,14.16720506190218,4.076619736460501,-96.94384765625,-34.36326217651367,137.86087036132812,19436648.0,50354.0,-0.1871101371631556,-0.05705224265970004,0.2180125575504,-0.013214382614386339,0.0008914326375758623,0.012593362136022582,19.436648390023038
1627,C,442131571771425.0,-0.7181147122404505,5.040924,2.168457,136,1970-01-06 02:48:51.571771425,-1.5758514,2.7858124,-0.45877075,9.868173883455135,3.233346403330655,-96.37716674804688,-34.35938262939453,137.38470458984375,19487002.0,50354.0,-0.14539922502415564,-0.22136543906520006,0.13496295004040001,-0.008371588211789936,-0.00700972197278781,0.008886864354613572,19.487002393987495
1627,C,442131622125429.0,2.8028358877595494,4.9884186,2.1944275,136,1970-01-06 02:48:51.622125429,-1.4706421,2.9193878,-0.42625427,7.18395175887021,3.2965597242844673,-95.69728088378906,-34.71915054321289,136.8399200439453,19537356.0,50354.0,0.052487025036044355,-0.24096044135980005,0.1098443430565,-0.0023392504591006782,-0.011639978691460228,0.0061635132183006525,19.53735639801016
1627,C,442131672479433.0,3.7813362877595496,5.1670074,1.6657257,136,1970-01-06 02:48:51.672479433,-2.484909,2.748352,-0.4282837,6.571087322269827,3.7298308784542353,-95.18695831298828,-35.241310119628906,136.36595153808594,19587710.0,50354.0,0.16576970286304435,-0.23778603959800004,0.09718707711640001,0.005495049638315356,-0.012053400151074534,0.005212430065693103,19.58771040197462
1627,C,442131722833437.0,2.76948028775955,5.7855835,0.7424469,136,1970-01-06 02:48:51.722833437,-2.1667023,2.678421,-0.36436462,7.499793659295425,3.464289174762124,-94.92755126953125,-35.6634635925293,136.04537963867188,19638064.0,50354.0,0.1649299089218444,-0.21771581891070002,0.06063056155020001,0.008326024125908143,-0.011468170291673543,0.003973374688708989,19.638064405997284
1627,C,442131773187441.0,1.45766688775955,6.34523,0.7724762,136,1970-01-06 02:48:51.773187441,-2.115387,2.4044952,-0.18327332,8.784659773120119,3.2078105362405465,-94.68820190429688,-35.95857238769531,135.7469940185547,19688418.0,50354.0,0.10642688443804439,-0.18805170851050004,0.0381412188887,0.00683194998642192,-0.010216009037883554,0.0024867771161101856,19.68841841001995
1627,C,442131823541445.0,1.1026405877595495,8.180252,2.5175629,136,1970-01-06 02:48:51.823541445,-1.8796539,2.3491364,-0.28697205,10.675719467393986,3.022233208584568,-94.1923828125,-36.38451385498047,135.3053741455078,19738772.0,50354.0,0.06446086131114437,-0.12776113968600006,0.08283331442070001,0.004302440774727325,-0.007951220079043284,0.003045775825130764,19.738772413984407
1627,C,442131873895449.0,-3.0864917122404494,7.889282,1.3518524,136,1970-01-06 02:48:51.873895449,-1.5520935,1.7780762,-0.28074646,13.258756084623238,2.3768398727199154,-93.92060852050781,-36.42138671875,135.02749633789062,19789126.0,50354.0,-0.04994741976105562,-0.08888654248200006,0.09742026900810001,0.0003654049179065844,-0.005454538693943739,0.004538244469986899,19.789126418007072
1627,C,442131924249452.0,-7.57651271224045,2.4628143,-1.4025269,136,1970-01-06 02:48:51.924249452,-2.2519073,1.0036011,0.7540436,15.324451594410453,2.578155039251026,-94.03707122802734,-35.73334884643555,134.9868621826172,19839480.0,50354.0,-0.26846246239515564,-0.23283447145490005,-0.001275831886499999,-0.008016605603046931,-0.008099969967889335,0.0024206284934105236,19.839480420982
1627,C,442131974603456.0,0.42232728775954964,3.4194183,-0.80326843,136,1970-01-06 02:48:51.974603456,-0.73646545,1.0999603,0.5953522,7.8866278675369585,1.4514607341105141,-94.10093688964844,-35.458534240722656,134.956298828125,19889834.0,50354.0,-0.18012092643215563,-0.34537222982980004,-0.05553530902341,-0.011293983980505217,-0.014557510118244896,-0.001430334094688804,19.889834425004665
1627,C,442132024957460.0,0.5712379877595497,4.0982056,0.50209045,136,1970-01-06 02:48:52.024957460,-1.1438446,1.8925018,0.3326416,8.051571569172037,2.2362007883915433,-93.87323760986328,-35.3343505859375,134.71337890625,19940188.0,50354.0,0.025014992941744366,-0.30419798306970003,-0.007582758002460002,-0.0039051020874880846,-0.016354229250170712,-0.001589123573510329,19.940188428969122
1627,C,442132075311464.0,0.12089028775954969,5.1962585,-1.3065491,136,1970-01-06 02:48:52.075311464,-0.9364929,1.7915955,0.15759277,9.10589468883366,2.0277250475660975,-94.01175689697266,-35.323036193847656,134.69305419921875,19990542.0,50354.0,0.017425713592744366,-0.25946247735430006,-0.020253855431050002,0.0010685296684188228,-0.014191279412095052,-0.0007008424164154814,19.990542432991788
1627,C,442132125665468.0,0.5175882877595495,5.372574,-1.3751221,136,1970-01-06 02:48:52.125665468,-0.71958923,1.6437378,-0.050430298,8.903959848939595,1.7950559406428541,-94.16419219970703,-35.38119888305664,134.69371032714844,20040896.0,50354.0,0.01607497509584436,-0.22737770414750008,-0.06751643580240001,0.0008434468391125985,-0.012257175249670823,-0.002209792622384571,20.040896437014453
1627,C,442132176019472.0,-0.9812522122404497,2.7102356,-1.2095337,136,1970-01-06 02:48:52.176019472,-0.9789734,1.8398895,-0.07237244,8.970042938211348,2.085382473358152,-94.26400756835938,-34.95566940307617,134.6482696533203,20091250.0,50354.0,-0.011673666626655626,-0.28996830270080004,-0.0650738790766,0.00011081174332876473,-0.013025220414419654,-0.003338226357708584,20.09125044097891
1627,C,442132226373476.0,-1.3233547122404508,3.715042,-0.009552002,136,1970-01-06 02:48:52.226373476,-0.9373932,1.9213562,-0.1300354,9.558434073699898,2.1417807693454156,-94.12704467773438,-34.6712760925293,134.465087890625,20141604.0,50354.0,-0.058023088537655636,-0.3316999858648001,-0.030692920719254,-0.0017547552047718646,-0.015651742501216117,-0.0024111207184602163,20.141604445001576
1627,C,442132276727480.0,-1.0014857122404495,5.3150635,0.24382019,136,1970-01-06 02:48:52.276727480,-0.791687,1.8876343,-0.2831421,10.01526961384105,2.0664222717774554,-93.95387268066406,-34.630001068115234,134.2675323486328,20191958.0,50354.0,-0.05853250736715563,-0.2661182338265,0.005898170169276,-0.0029345202380954335,-0.015051269317167864,-0.0006242574345967961,20.191958448966034
1627,C,442132327081484.0,-1.2563377122404509,5.055435,-0.7303009,136,1970-01-06 02:48:52.327081484,-0.6768799,2.0151825,-0.16773987,10.123085457070973,2.1324313755236943,-93.94046020507812,-34.52875518798828,134.15846252441406,20242312.0,50354.0,-0.05684522035815563,-0.23237115926550006,-0.012248124835670001,-0.0029048650509401618,-0.012550467449877287,-0.00015987280863580177,20.2423124529887
1627,C,442132377435488.0,-0.19954441224045016,5.0814514,-0.95285034,136,1970-01-06 02:48:52.377435488,-0.67811584,1.7841339,-0.21620178,9.260637979738144,1.9208638877503228,-93.99300384521484,-34.51546096801758,134.09629821777344,20292666.0,50354.0,-0.03665474424805565,-0.23825281110720006,-0.04237669876948,-0.0023540486088905817,-0.011848899702073472,-0.0013752891839068618,20.292666457011364
1627,C,442132427789492.0,-0.6939292122404508,5.0680695,-0.6713867,136,1970-01-06 02:48:52.427789492,-0.6857147,1.6368408,-0.3683777,9.644049189023114,1.8124995404683613,-93.99015808105469,-34.46929931640625,134.00904846191406,20343020.0,50354.0,-0.022494985443555646,-0.23793471230070007,-0.04089341595608,-0.0014892127444456975,-0.011988973276840703,-0.002096491678445424,20.343020460975822
1627,C,442132478143495.0,-3.6199087122404494,4.350998,0.22566223,136,1970-01-06 02:48:52.478143495,-1.0810852,1.1101227,-0.22409058,11.927677317201264,1.5656737229573299,-93.86209869384766,-34.1631965637207,133.8612518310547,20393374.0,50354.0,-0.10860949742465563,-0.25632533755250003,-0.011222004981190001,-0.0033008175651729555,-0.01244398527515402,-0.001312109952937647,20.393374464008957
1627,C,442132528497499.0,1.57148228775955,6.019516,1.1905518,136,1970-01-06 02:48:52.528497499,-0.79696655,0.6109772,-0.15769958,8.520847488810913,1.0165224927520882,-93.55816650390625,-34.46067810058594,133.64276123046875,20443728.0,50354.0,-0.05157323208915561,-0.23237076902200005,0.03565602063331,-0.004032920580969226,-0.01230390187522619,0.0006151752120734252,20.443728467973415
1627,C,442132578851503.0,-1.6375477122404503,6.497925,1.5764618,136,1970-01-06 02:48:52.578851503,-0.3500824,0.9627228,-0.25091553,11.309428108258182,1.0546807477264297,-93.21438598632812,-34.50876235961914,133.39926147460938,20494082.0,50354.0,-0.0016633291921556257,-0.17831758794300004,0.0696651014072,-0.0013403369033795729,-0.010339900763307807,0.0026516698896139205,20.49408247199608
1627,C,442132629205507.0,0.035425687759549795,6.111557,-0.48059082,136,1970-01-06 02:48:52.629205507,-0.6601105,0.9654541,-0.38731384,9.646607894011119,1.2320144082244353,-93.22614288330078,-34.6507682800293,133.34841918945312,20544436.0,50354.0,-0.040336626210355636,-0.17600027168600002,0.02759074366346,-0.001057432877169026,-0.008920660751879335,0.002448610411344007,20.544436476018745
1627,C,442132679559511.0,0.3386482877595496,5.090103,1.048233,136,1970-01-06 02:48:52.679559511,-0.6503906,1.1588135,-0.39390564,8.83504029974295,1.3860080496066463,-92.93373107910156,-34.699928283691406,133.11688232421875,20594790.0,50354.0,0.009418060481644366,-0.21144500618000003,0.014291527165860001,-0.0007784367293517637,-0.009754709760832283,0.0010544699326697896,20.594790479983203
1627,C,442132729913515.0,0.20768228775954967,5.512146,0.35313416,136,1970-01-06 02:48:52.729913515,-0.7818146,1.0322571,-0.2795105,9.134937917660464,1.324732013987667,-92.79914855957031,-34.77997589111328,132.9761505126953,20645144.0,50354.0,0.013754964899844362,-0.22653637692700004,0.03528222098732,0.0005834272600297417,-0.011027057282484942,0.0012481182572526128,20.64514448400587
1627,C,442132780267519.0,0.22603828775954948,6.549835,1.0688019,136,1970-01-06 02:48:52.780267519,-0.6054077,0.90737915,-0.16822815,9.834354775485405,1.1037010988154514,-92.54536437988281,-34.975868225097656,132.77687072753906,20695498.0,50354.0,0.01091978292984436,-0.18978470436300005,0.03580008418262,0.000621236126108073,-0.010481715863638334,0.0017896391972635792,20.695498487970326
1627,C,442132830621523.0,-0.011296712240450368,6.0755615,0.16764832,136,1970-01-06 02:48:52.830621523,-0.5688782,0.9286041,-0.18426514,9.649542724171445,1.1044825135742393,-92.45079040527344,-35.08955001831055,132.6686248779297,20745852.0,50354.0,0.005406548646844359,-0.17559959231950004,0.031130107188940003,0.00041104805010629196,-0.009199280437575305,0.0016851014281617663,20.74585249199299
1627,C,442132880975527.0,0.1842142877595494,5.4688873,0.8917084,136,1970-01-06 02:48:52.880975527,-0.75572205,0.9839783,-0.1874237,9.164308908901743,1.2547735871657415,-92.22432708740234,-35.148319244384766,132.47671508789062,20796206.0,50354.0,0.0043535457988443564,-0.20281461256240005,0.026671424139440004,0.0002457298978591048,-0.0095273344363116,0.0014552691542546235,20.796206496015657
1627,C,442132931329531.0,-0.30994171224045,5.426712,1.6990356,136,1970-01-06 02:48:52.931329531,-0.8358917,1.0077667,-0.14556885,9.647530664234003,1.317383370871252,-91.86762237548828,-35.15565872192383,132.2063446044922,20846560.0,50354.0,-0.003165439366155634,-0.21915069642390003,0.065227161688,2.9912955655803967e-05,-0.010623820584348078,0.002313730695377457,20.846560499980114
1627,C,442132981683534.0,-0.9868217122404497,5.1956177,0.1828003,136,1970-01-06 02:48:52.981683534,-0.9132538,1.0351715,-0.22813416,9.938586494700207,1.3991632258552236,-91.79637145996094,-35.0788459777832,132.09707641601562,20896914.0,50354.0,-0.032648612738155613,-0.22603080514310006,0.0473789824543,-0.0009016903898302443,-0.011208334664952363,0.002835084891070687,20.89691450301325
1627,C,442133032037538.0,-0.48404471224045054,4.8170013,-1.4116516,136,1970-01-06 02:48:53.032037538,-1.3323059,1.008255,-0.25790405,9.416965868241492,1.6906009745667994,-92.04353332519531,-34.992794036865234,132.15977478027344,20947268.0,50354.0,-0.037032003969155625,-0.24138149143700002,-0.0309387891801,-0.0017543488868399751,-0.01176803939099718,0.0004139147460645335,20.947268506977707
1627,C,442133082391542.0,-1.221562712240451,5.4923096,-0.67152405,136,1970-01-06 02:48:53.082391542,-1.6680145,0.9597931,-0.039627075,10.314836610499537,1.9248494673846357,-92.1545181274414,-34.926612854003906,132.1363067626953,20997622.0,50354.0,-0.042942078126155664,-0.23391167947070005,-0.05244811334005,-0.0020135074649136526,-0.011966456163943165,-0.0020994320447498163,20.997622511000372
1627,C,442133132745546.0,-0.6651057122404511,5.444809,-0.34625244,136,1970-01-06 02:48:53.132745546,-1.058548,0.970932,0.13459778,9.806470014016815,1.442688247442575,-92.18046569824219,-34.891719818115234,132.0808868408203,21047976.0,50354.0,-0.047500650923155675,-0.21810536500780006,-0.025624558688730006,-0.0022770765892745114,-0.011380433128835198,-0.0019656356636685943,21.047976515023038
1627,C,442133183099550.0,0.09498068775954938,5.1920166,-1.4225922,136,1970-01-06 02:48:53.183099550,-0.8379669,0.8660126,0.18241882,9.141780454731768,1.2187875018823267,-92.40977478027344,-34.88480758666992,132.15231323242188,21098330.0,50354.0,-0.014354037741355664,-0.22566584186880007,-0.04453420150128,-0.001557315496506402,-0.011172827675532161,-0.001766387105303882,21.098330518987495
1627,C,442133233453554.0,-0.0015007122404506745,5.8758698,-1.4663086,136,1970-01-06 02:48:53.233453554,-0.62701416,0.69088745,0.16712952,9.628202558780897,0.9478420236850856,-92.6255874633789,-34.95330810546875,132.22930908203125,21148684.0,50354.0,0.002353545343644348,-0.21481302410720007,-0.0727338554416,-0.00030213639709717783,-0.011089936408677756,-0.0029524578696508903,21.14868452301016
1627,C,442133283807558.0,-0.05336521224045043,5.909729,-1.8793488,136,1970-01-06 02:48:53.283807558,-0.45037842,0.3575592,0.11431885,9.760242616857672,0.5863088794924216,-92.90998077392578,-35.01872634887695,132.3646240234375,21199038.0,50354.0,-0.0013813593806556472,-0.19674317901240004,-0.0842336163598,2.4476725990166524e-05,-0.010361750525942173,-0.003951970037543849,21.19903852697462
1627,C,442133334161562.0,-0.10327671224044987,5.426285,-2.2222748,136,1970-01-06 02:48:53.334161562,-0.25378418,0.09863281,0.11917114,9.588712772398026,0.297214740273204,-93.25358581542969,-35.0172233581543,132.5502166748047,21249392.0,50354.0,-0.003943773732655627,-0.20806237552200008,-0.1032665773772,-0.00013407087639383798,-0.010191789446512592,-0.0047206923777164496,21.249392530997284
1627,C,442133384515566.0,-0.18828341224044998,5.062332,-1.9451447,136,1970-01-06 02:48:53.384515566,-0.15989685,-0.09484863,0.13308716,9.39511705295076,0.228638267596798,-93.54490661621094,-34.962310791015625,132.7162628173828,21299746.0,50354.0,-0.007340609254055616,-0.22939728979100005,-0.10492312075150001,-0.000284106910456429,-0.011013921993585404,-0.005241592029786281,21.29974653501995
1627,C,442133434869570.0,-0.1980337122404503,5.0902405,-1.5631561,136,1970-01-06 02:48:53.434869570,-0.00894165,-0.2775116,0.12423706,9.346718008633163,0.30418331367240725,-93.75755310058594,-34.912559509277344,132.84881591796875,21350100.0,50354.0,-0.009726306243055627,-0.23785788216750006,-0.0883284892416,-0.0004296937314707698,-0.011764083464399158,-0.004865495784796279,21.350100538984407
1627,C,442133485223574.0,-0.18086771224044984,5.0577087,-1.4895782,136,1970-01-06 02:48:53.485223574,0.129776,-0.36094666,0.122680664,9.302847001703668,0.40270938263298073,-93.9480209350586,-34.86111831665039,132.9759063720703,21400454.0,50354.0,-0.009539601164155623,-0.23797428299160006,-0.0768586914711,-0.00048505775079135763,-0.011980026422210664,-0.004158917648803648,21.400454543007072
1627,C,442133535577577.0,-0.3687644122404503,4.771286,-1.5751495,136,1970-01-06 02:48:53.535577577,0.16848755,-0.40699768,0.13816833,9.32231304505608,0.46165534053596063,-94.14612579345703,-34.75665283203125,133.11007690429688,21450808.0,50354.0,-0.013838087998055623,-0.24600460043810007,-0.0771606493029,-0.0005885800800369926,-0.012185136348109561,-0.0038777449426669977,21.450808545982
1627,C,442133585931581.0,-0.4789787122404503,4.929825,-1.7809296,136,1970-01-06 02:48:53.585931581,0.22930908,-0.39437866,0.12339783,9.532951636235556,0.4725930660542439,-94.3673095703125,-34.66609573364258,133.25836181640625,21501162.0,50354.0,-0.021343628645055637,-0.249224328353,-0.0844960035007,-0.0008857700799236122,-0.012468378740173527,-0.004070029547636237,21.501162550004665
1627,C,442133636285585.0,-0.6612297122404511,5.751358,-2.494873,136,1970-01-06 02:48:53.636285585,0.2829895,-0.48207092,-0.0206604,10.278150364142812,0.5593766898504589,-94.68624877929688,-34.665245056152344,133.4676513671875,21551516.0,50354.0,-0.028707027503155656,-0.22454905560900004,-0.10765188206020002,-0.0012601253698435158,-0.011928192488011276,-0.00483770731476678,21.551516553969122
1627,C,442133686639589.0,-0.01471471224045029,5.210785,-2.6163483,136,1970-01-06 02:48:53.686639589,0.26231384,-0.4600067,-0.18869019,9.498522341070682,0.562155407785669,-95.05525970458984,-34.65910720825195,133.7044677734375,21601870.0,50354.0,-0.017018252775155656,-0.21747532568900008,-0.12868521867010002,-0.0011512253815670439,-0.01112884784793975,-0.005950259185086765,21.601870557991788
1627,C,442133736993593.0,-0.6761832122404501,4.4266357,-2.3600006,136,1970-01-06 02:48:53.736993593,0.08540344,-0.048599243,-0.23182678,9.578433146937712,0.25179215617086853,-95.3494873046875,-34.50565719604492,133.87672424316406,21652224.0,50354.0,-0.01739473704465563,-0.25082785903610005,-0.1252895362553,-0.0008664158446933888,-0.011790469281823847,-0.006394322404756797,21.652224562014453
1627,C,442133787347597.0,-2.34850071224045,5.108902,1.0282135,136,1970-01-06 02:48:53.787347597,0.10984802,0.6248169,-0.12414551,11.127795863562346,0.6464324045688694,-95.02058410644531,-34.3493537902832,133.66873168945312,21702578.0,50354.0,-0.07615246716665564,-0.2533929673271001,-0.0335304038167,-0.002355237960428184,-0.012694767745346293,-0.003998609631192744,21.70257856597891
1627,C,442133837701601.0,-1.0567377122404507,6.7023926,3.2024841,136,1970-01-06 02:48:53.837701601,0.8536682,-0.20098877,-0.12020874,11.318786781006326,0.8852095924298045,-94.38068389892578,-34.465755462646484,133.33993530273438,21752932.0,50354.0,-0.08573368781315564,-0.19609623585580008,0.10651627347520001,-0.004075807723926709,-0.011316789668535878,0.001837565240392055,21.752932570001576
1627,C,442133888055605.0,0.0748392877595494,7.739746,0.57463074,136,1970-01-06 02:48:53.888055605,1.4469147,-0.96209717,-0.35954285,10.729550436390053,1.7743912123836225,-94.15724182128906,-34.77704620361328,133.29458618164062,21803286.0,50354.0,-0.024721256633155653,-0.12985947646780005,0.09509642032668,-0.0027809241363247797,-0.00820658696917128,0.005076002791849933,21.803286573966034
1627,C,442133938409609.0,-0.2583823122404505,6.702835,-0.34431458,136,1970-01-06 02:48:53.938409609,1.35466,-0.005783081,-0.4905548,10.246193075056684,1.4407571521352558,-94.05371856689453,-34.95343780517578,133.2757568359375,21853640.0,50354.0,-0.0046210627273556475,-0.12984833816300004,0.005798669960320002,-0.000738751574539593,-0.0065386636489596535,0.0025402356881557993,21.8536405779887
1627,C,442133988763613.0,0.09313428775954957,5.411621,0.8367462,136,1970-01-06 02:48:53.988763613,1.3141174,0.18621826,-0.5752106,9.19806604706769,1.4465299912869236,-93.72484588623047,-35.02070999145508,133.11888122558594,21903994.0,50354.0,-0.004160449512355642,-0.18846354128800002,0.012397950896740001,-0.00022109213365921118,-0.008014138188937828,0.00045813632331819973,21.903994582011364
1627,C,442134039117617.0,0.26771028775954964,4.777542,0.6915741,136,1970-01-06 02:48:54.039117617,1.2136536,0.0008087158,-0.6211548,8.681699397440044,1.3633741234075278,-93.43207550048828,-35.01942825317383,132.9873046875,21954348.0,50354.0,0.009084983877844361,-0.23693664314900004,0.038478520193099996,0.00012398500171990947,-0.010710300443570351,0.0012809169126289017,21.954348585975822
1627,C,442134089471620.0,-0.17033911224045006,5.6526947,1.3418579,136,1970-01-06 02:48:54.089471620,0.69525146,-0.1876831,-0.449646,9.609160262247563,0.8489882590317381,-93.07733917236328,-35.08424758911133,132.8123016357422,22004702.0,50354.0,0.00245151408604437,-0.23086713060410005,0.051195717464,0.0002904544092368266,-0.011777895611781802,0.002257728281492807,22.004702589008957
1627,C,442134139825624.0,-0.36659771224045024,6.112854,1.7891388,136,1970-01-06 02:48:54.139825624,0.5701752,0.009765625,-0.1902771,10.10906689567625,0.6011659512240282,-92.6661148071289,-35.171321868896484,132.59207153320312,22055056.0,50354.0,-0.013518458429955627,-0.19724798038010008,0.0788291039159,-0.00027863245774665374,-0.010778654149249207,0.003273634927881743,22.055056592973415
1627,C,442134190179628.0,-0.5639087122404502,6.3914795,1.174057,136,1970-01-06 02:48:54.190179628,0.38276672,0.04875183,-0.036987305,10.343666412998548,0.3876276094385826,-92.38291931152344,-35.25959014892578,132.43788146972656,22105410.0,50354.0,-0.02342736024915563,-0.17864759547050005,0.0746043806566,-0.0009301848768839842,-0.00946392291319056,0.003862994841081833,22.10541059699608
1627,C,442134240533632.0,0.12160728775954954,8.111862,0.5590973,136,1970-01-06 02:48:54.240533632,0.24511719,-0.039886475,0.011367798,10.968750268598164,0.24860127624931963,-92.23321533203125,-35.571075439453125,132.3598175048828,22155764.0,50354.0,-0.011135822964155637,-0.12831857105450004,0.0436356258111,-0.0008701972637615379,-0.007728487174599927,0.002976928642837283,22.155764601018745
1627,C,442134290887636.0,-0.39691671224045066,8.386444,1.7272339,136,1970-01-06 02:48:54.290887636,0.16864014,0.035095215,0.26011658,11.63692183670124,0.31198045792326834,-91.91445922851562,-35.83837127685547,132.17684936523438,22206118.0,50354.0,-0.006931465380155648,-0.07809134983800005,0.05756296062240001,-0.00045488011864472524,-0.0051967825783104755,0.0025478768106362297,22.206118604983203
1627,C,442134341241640.0,-1.0393882122404507,6.274521,3.9327698,136,1970-01-06 02:48:54.341241640,0.41174316,0.083343506,0.5431366,11.290580850757559,0.6866410532867355,-91.23057556152344,-35.83180618286133,131.78440856933594,22256472.0,50354.0,-0.036161849083655655,-0.12435008419500007,0.14250191315490002,-0.0010849603782553772,-0.005096867984648845,0.005037033327091083,22.25647260900587
1627,C,442134391595644.0,-0.29720071224044986,5.044403,2.3808594,136,1970-01-06 02:48:54.391595644,0.34298706,-0.70803833,0.79415894,9.573660942017236,1.117876031614667,-90.76883697509766,-35.725624084472656,131.552490234375,22306826.0,50354.0,-0.03365129935165564,-0.20849265045200008,0.1589582423684,-0.0017576856381558326,-0.008379981530207524,0.007589862335610125,22.306826612970326
1627,C,442134441949648.0,-1.0052547122404496,6.029785,2.6536865,136,1970-01-06 02:48:54.441949648,0.12477112,-1.2786713,0.9484863,10.745259928594944,1.5969328060746433,-90.35395812988281,-35.671417236328125,131.36541748046875,22357180.0,50354.0,-0.03279192022215561,-0.21465436872400007,0.12675476212429998,-0.0016728409392098458,-0.010653572501794157,0.0071933963141127075,22.35718061699299
1627,C,442134492303652.0,-1.551427712240451,5.062439,2.0394135,136,1970-01-06 02:48:54.492303652,-0.40530396,-1.119461,0.8519745,10.555510093440263,1.4640098289160943,-90.06487274169922,-35.472328186035156,131.23068237304688,22407534.0,50354.0,-0.06436959340115564,-0.214200276352,0.11815817870000002,-0.002446235428494107,-0.010797273399078454,0.006166173111133401,22.407534621015657
1627,C,442134542657656.0,-2.59412171224045,4.2949066,1.9988861,136,1970-01-06 02:48:54.542657656,-0.901947,-1.0427246,1.0724335,11.135607990707143,1.7466815949612597,-89.83053588867188,-35.11628341674805,131.11154174804688,22457888.0,50354.0,-0.10437249786015565,-0.25787930982880003,0.10167226902920001,-0.004248419631686035,-0.011885547741274004,0.005534671182478069,22.457888624980114
1627,C,442134593011659.0,0.4466804877595498,3.6182404,2.5653229,136,1970-01-06 02:48:54.593011659,-0.6547241,-1.6331329,0.9892273,8.31807956643324,2.0185037446704204,-89.38631439208984,-34.87826919555664,130.9048309326172,22508242.0,50354.0,-0.05406612770875563,-0.29423989798100003,0.11491308999300001,-0.003989009275948479,-0.013900705295027337,0.00545296958410193,22.50824262801325
1627,C,442134643365663.0,0.5642492877595497,3.5330658,1.4082031,136,1970-01-06 02:48:54.643365663,-0.33007813,-1.5420532,0.5197754,7.8957378408169205,1.660435518163743,-89.16222381591797,-34.65947723388672,130.83108520507812,22558596.0,50354.0,0.02545217895824437,-0.31342076380260003,0.100041464102,-0.000720413387691622,-0.015299072481725698,0.005411910808449816,22.558596631977707
1627,C,442134693719667.0,-0.07578041224045062,2.7568512,0.4005432,136,1970-01-06 02:48:54.693719667,-0.06724548,-0.95443726,0.44848633,8.056335215955365,1.0566988341309016,-89.13607788085938,-34.27607727050781,130.85389709472656,22608950.0,50354.0,0.012298180878944359,-0.3351079596910001,0.0455388055951,0.0009504408096209008,-0.016328007671398373,0.003665274450163887,22.608950636000372
1627,C,442134744073671.0,-0.9372607122404508,3.2908783,-1.1294556,136,1970-01-06 02:48:54.744073671,0.22546387,-0.4517975,0.43017578,9.111314159787888,0.6633295857869114,-89.37837982177734,-33.93817138671875,131.0150604248047,22659304.0,50354.0,-0.025505336391055657,-0.34120551437850005,-0.0183518274948,-0.00033251655432842614,-0.017027544336647805,0.000684486547631253,22.659304640023038
1627,C,442134794427675.0,-0.9801837122404509,3.3776245,-3.3139038,136,1970-01-06 02:48:54.794427675,0.18310547,0.06739807,0.15751648,9.696676698552691,0.2507619477816285,-89.97135925292969,-33.647762298583984,131.3472442626953,22709658.0,50354.0,-0.04827549827515566,-0.32557630500440005,-0.11187045961380002,-0.0018575800743912026,-0.016787565866603276,-0.0032786065225332227,22.709658643987495
1627,C,442134844781679.0,2.58980798775955,4.795166,-2.6943207,136,1970-01-06 02:48:54.844781679,-0.0022735596,-0.0184021,-0.42826843,7.36219730624556,0.42866963327524105,-90.60433197021484,-33.91677474975586,131.6999053955078,22760012.0,50354.0,0.04052551038474436,-0.28770285358150005,-0.1512690682365,-0.0001951214451168853,-0.015440529375717207,-0.006625063892687005,22.76001264801016
1627,C,442134895135683.0,-6.70642571224045,6.329117,3.443283,136,1970-01-06 02:48:54.895135683,0.46302795,1.6802979,-0.03289795,15.914461240575566,1.7432378467494947,-90.136474609375,-33.68016815185547,131.3828582763672,22810366.0,50354.0,-0.10364408444925562,-0.21339312690900006,0.018856623827100003,-0.0015891363392222,-0.012616093500809321,-0.0033337481128954635,22.81036665197462
1627,C,442134945489687.0,-1.4455767122404497,3.5718384,1.2592163,136,1970-01-06 02:48:54.945489687,0.4895935,1.1360931,-0.48382568,9.699145763587083,1.328343560882245,-89.84790802001953,-33.41200637817383,131.18975830078125,22860720.0,50354.0,-0.20524296504115563,-0.24419284589420004,0.11839482487610002,-0.007776849245020084,-0.01152064203726617,0.003455579724000467,22.860720655997284
1627,C,442134995843691.0,-1.2107287122404502,5.7590637,2.2709503,136,1970-01-06 02:48:54.995843691,0.16603088,1.3352814,-0.7330475,10.67309558650876,1.5322863007792584,-89.43391418457031,-33.449851989746094,130.91043090820312,22911074.0,50354.0,-0.06687780167215562,-0.25854507782830005,0.0888790044882,-0.006851184543541038,-0.012657432705561383,0.005218533201904982,22.91107466001995
1627,C,442135046197695.0,-0.22075411224045016,6.316223,2.7584076,136,1970-01-06 02:48:55.046197695,0.3918457,0.8802948,-0.72346497,10.337320367766056,1.2049330065744863,-88.93852996826172,-33.624263763427734,130.6105194091797,22961428.0,50354.0,-0.03604044307195563,-0.18944970675410006,0.1266241438483,-0.002591172647922489,-0.011279164691431089,0.005425722765668061,22.961428663984407
1627,C,442135096551699.0,1.10335778775955,5.747162,2.3949585,136,1970-01-06 02:48:55.096551699,0.86763,0.2637787,-0.6364441,8.914756607934313,1.1078908393422613,-88.4454574584961,-33.8523063659668,130.34922790527344,23011782.0,50354.0,0.02222131273854438,-0.18974935585500005,0.1297462982997,-0.00034792424440429503,-0.009547094799309314,0.0064546386219601955,23.011782668007072
1627,C,442135146905702.0,0.2156012877595499,5.452606,2.4890442,136,1970-01-06 02:48:55.146905702,0.9878998,0.587204,-0.64559937,9.420706651913891,1.3181627740914386,-87.9557876586914,-33.950252532958984,130.07850646972656,23062136.0,50354.0,0.03320743264434438,-0.21149264106400004,0.12296453597790001,0.0013955295225049904,-0.010102069756429665,0.006362500674607135,23.062136670982
1627,C,442135197259706.0,1.1616005877595494,4.033371,0.88279724,136,1970-01-06 02:48:55.197259706,0.5710907,0.82325745,-0.37409973,7.550813819846383,1.0695083097353966,-87.74897003173828,-33.929298400878906,129.94432067871094,23112490.0,50354.0,0.034673811619944366,-0.25464075707100003,0.08489285193488,0.0017090460868419977,-0.011735840564844897,0.005233225455480063,23.112490675004665
1627,C,442135247613710.0,-0.2631277122404505,4.555664,0.89009094,136,1970-01-06 02:48:55.247613710,0.19088745,0.46743774,-0.19656372,9.030933463711383,0.5418241000214447,-87.61173248291016,-33.84925079345703,129.85340881347656,23162844.0,50354.0,0.022620851586944355,-0.27722306580500006,0.044636005707860006,0.0014425077355598374,-0.013390735468549055,0.0032611480488712653,23.162844678969122
1627,C,442135297967714.0,0.18726588775954944,7.568985,0.859787,136,1970-01-06 02:48:55.297967714,0.04977417,0.17805481,-0.84469604,10.548218478432373,0.8646920742987104,-87.51091766357422,-34.1905403137207,129.78953552246094,23213198.0,50354.0,-0.0019099731549556461,-0.18820691212700005,0.04405667689538,0.0005214377862821798,-0.011718130554393968,0.002233015669901774,23.213198682991788
1627,C,442135348321718.0,-1.0905817122404509,8.1362915,-0.09710693,136,1970-01-06 02:48:55.348321718,-0.14460754,-0.042251587,-0.23912048,11.82052682995941,0.28262190499729595,-87.58821105957031,-34.43506622314453,129.83035278320312,23263552.0,50354.0,-0.022742782512955657,-0.09805745355950005,0.01920199612239,-0.0006206824294510029,-0.007207277934889013,0.0015926636105683953,23.263552687014453
1627,C,442135398675722.0,-2.48759971224045,6.327957,6.822357,136,1970-01-06 02:48:55.398675722,-0.20510864,0.06523132,0.20655823,13.63861963881514,0.2983135627026115,-86.78269958496094,-34.36135482788086,129.36715698242188,23313906.0,50354.0,-0.09008787372415565,-0.12930281551550005,0.16932162101239,-0.0028407374320817513,-0.005724249494501277,0.004746459108602356,23.31390669097891
1627,C,442135449029726.0,-0.8057917122404499,4.6326294,3.070404,136,1970-01-06 02:48:55.449029726,-0.072891235,-0.76356506,0.44615173,9.98009307172956,0.8873534240507678,-86.36189270019531,-34.205078125,129.16058349609375,23364260.0,50354.0,-0.08291771589415563,-0.21751451620720003,0.249070043697,-0.004355761729820223,-0.00873181996078242,0.010533846942388314,23.364260695001576
1627,C,442135499383730.0,0.7313942877595494,6.5814514,3.1707764,136,1970-01-06 02:48:55.499383730,-0.02986145,-1.1114655,0.5597229,9.947928792994194,1.2448039960856336,-85.9250259399414,-34.40205383300781,128.9608612060547,23414614.0,50354.0,-0.0018731039561556313,-0.21113228769840006,0.1571341989308,-0.0021347784713712866,-0.010792040581931294,0.01022700421664012,23.414614698966034
1627,C,442135549737734.0,-0.7440547122404508,5.8871155,0.45864868,136,1970-01-06 02:48:55.549737734,-0.70129395,-0.6644592,0.50416565,10.1273095832095,1.0897257615616716,-86.00581359863281,-34.4078254699707,129.01551818847656,23464968.0,50354.0,-0.0003187515071556554,-0.17954809115870005,0.09137803523916001,-5.518434499978827e-05,-0.00983615989848521,0.006256792519697083,23.4649687029887
1627,C,442135600091738.0,-1.1966907122404509,3.4610596,2.686737,136,1970-01-06 02:48:55.600091738,-1.2597809,-0.41674805,0.6638489,9.723400868688392,1.483719048612244,-85.71529388427734,-34.06003952026367,128.83554077148438,23515322.0,50354.0,-0.04886214755215566,-0.2581101955073,0.07919137526536,-0.0012382274956162813,-0.011018922683389883,0.004294426048272301,23.515322707011364
1627,C,442135650445742.0,1.30927528775955,4.8105927,1.6711731,136,1970-01-06 02:48:55.650445742,-0.5082092,-1.3339996,0.6305237,8.003537623704776,1.5605741443540868,-85.52677917480469,-34.11709213256836,128.772705078125,23565676.0,50354.0,0.002834541857844357,-0.2852138100429001,0.1097191025877,-0.0011588370285656759,-0.013679268487737388,0.004756199100906492,23.565676710975822
1627,C,442135700799745.0,1.6969398877595498,2.614685,1.3800964,136,1970-01-06 02:48:55.700799745,-0.20819092,-1.0688477,0.18925476,6.498184711773198,1.105258444504449,-85.328125,-33.86232376098633,128.70053100585938,23616030.0,50354.0,0.07568747947404438,-0.30652298334710004,0.0768218122015,0.0019769489310729627,-0.014898157247180036,0.004696540611647688,23.616030714008957
1627,C,442135751153749.0,0.5322822877595499,2.2747192,0.12301636,136,1970-01-06 02:48:55.751153749,-0.47050476,-1.2209473,0.5395813,7.315050836331371,1.4153568517761297,-85.49756622314453,-33.45309829711914,128.83367919921875,23666384.0,50354.0,0.05612512671304438,-0.37036867045660005,0.03784386995852,0.003318645985972334,-0.01704210116781576,0.0028869378797428237,23.666384717973415
1627,C,442135801507753.0,-1.9419607122404505,4.0383453,-0.12632751,136,1970-01-06 02:48:55.801507753,-0.27230835,-0.60388184,0.38764954,10.254995813757501,0.7675267291917068,-85.67642211914062,-33.18387985229492,128.9508056640625,23716738.0,50354.0,-0.03549147369315564,-0.33452517508350005,-8.336482354999997e-05,0.0005194934820817388,-0.017747112349163104,0.0009506962377831398,23.71673872199608
1627,C,442135851861757.0,-2.931523712240451,5.050583,-2.6425018,136,1970-01-06 02:48:55.851861757,0.03742981,0.35263062,0.111831665,11.872889808841496,0.37182746823613333,-86.15544891357422,-33.01343536376953,129.19906616210938,23767092.0,50354.0,-0.12269971735515567,-0.26463725219090006,-0.06971081553787,-0.003982779617023334,-0.01508511243148757,-0.0017572080789594712,23.767092726018745
1627,C,442135902215761.0,0.002130987759549896,7.1920776,-2.61409,136,1970-01-06 02:48:55.902215761,-0.09086609,-0.20959473,-0.34553528,10.701937698819492,0.4142236435554342,-86.66411590576172,-33.30596160888672,129.48260498046875,23817446.0,50354.0,-0.07375332062425564,-0.18523573407380006,-0.1323452117486,-0.00494609813720764,-0.011326452175186356,-0.005087164598991455,23.817446729983203
1627,C,442135952569765.0,-4.21571871224045,4.666687,3.831955,136,1970-01-06 02:48:55.952569765,0.73461914,2.166977,-0.22792053,13.165688366926318,2.299435227915503,-86.14839172363281,-33.02295684814453,129.12969970703125,23867800.0,50354.0,-0.10608549813925562,-0.19490108366580006,0.030662187104999995,-0.004527801940008924,-0.009570704660229913,-0.0025600735114519177,23.86780073400587
1627,C,442136002923769.0,0.96853128775955,0.58280945,0.31321716,136,1970-01-06 02:48:56.002923769,0.61753845,0.394989,-0.46894836,6.548555809974652,0.870219863997652,-86.13642883300781,-32.374542236328125,129.1222381591797,23918154.0,50354.0,-0.08175443778615561,-0.3613026278783501,0.10436299947232,-0.004729246066794079,-0.01400354084554707,0.0033995291224571855,23.918154737970326
1627,C,442136053277773.0,-1.9485377122404506,8.205978,2.0669403,136,1970-01-06 02:48:56.053277773,-0.041427612,0.54107666,-0.527298,12.67182274375885,0.756652747194364,-85.9287109375,-32.60419464111328,128.98524475097656,23968508.0,50354.0,-0.024673621749155637,-0.27219389837135005,0.05992522437042001,-0.002679539254920531,-0.0159495420413887,0.0041362846116886655,23.96850874199299
1627,C,442136103631777.0,1.3749489877595495,6.165146,1.9816437,136,1970-01-06 02:48:56.103631777,0.50801086,0.31565857,-0.7510681,8.902317925426557,0.9601138773760092,-85.5956039428711,-32.935272216796875,128.80313110351562,24018862.0,50354.0,-0.014441243316255646,-0.13164741105200004,0.101931199368,-0.00098479495775186,-0.010167512647351684,0.004075059180462201,24.018862746015657
1627,C,442136153985781.0,1.0161232877595499,5.7393646,0.4163971,136,1970-01-06 02:48:56.153985781,0.6738281,0.613678,-0.21789551,8.65688401584719,0.937082413297662,-85.55751037597656,-33.15782928466797,128.7742919921875,24069216.0,50354.0,0.06020002668074437,-0.19374933662380003,0.0603754732216,0.0011520688887677326,-0.008192513916233619,0.00408639509578836,24.069216749980114
1627,C,442136204339784.0,-0.5809527122404505,5.4939117,4.3144073,136,1970-01-06 02:48:56.204339784,0.5582428,0.048049927,-0.50460815,10.66929257774531,0.7540379329204652,-84.93693542480469,-33.18384552001953,128.4463653564453,24119570.0,50354.0,0.010956289579844364,-0.21064900259490005,0.11910746237880002,0.0017915025744928426,-0.010181536986509213,0.004518841869611272,24.11957075301325
1627,C,442136254693788.0,0.9771372877595494,4.606827,0.4206848,136,1970-01-06 02:48:56.254693788,0.76268005,0.45422363,-0.35040283,7.98333133282097,0.9543490493474536,-84.91625213623047,-33.25096893310547,128.43568420410156,24169924.0,50354.0,0.009974739057844354,-0.23916290175010002,0.1192154138017,0.000526980508011089,-0.011324914315694067,0.00600025505359645,24.169924756977707
1627,C,442136305047792.0,0.3784432877595494,4.953354,1.6413727,136,1970-01-06 02:48:56.305047792,0.26460266,0.23077393,-0.3597107,8.815482694515955,0.5026559082923532,-84.69898986816406,-33.29725646972656,128.31280517578125,24220278.0,50354.0,0.03412945214984435,-0.25277252296300007,0.0519164216775,0.0011104112220359785,-0.012385458188001722,0.004308586221859818,24.220278761000372
1627,C,442136355401796.0,-1.07974771224045,8.907059,0.16906738,136,1970-01-06 02:48:56.355401796,0.06460571,-0.3986206,-0.44779968,12.356973809854784,0.6029899119529832,-84.79424285888672,-33.64072036743164,128.3819580078125,24270632.0,50354.0,-0.017656741495155635,-0.14450558189900004,0.045581449894160006,0.00041473343615309777,-0.010002270846110578,0.0024547039125596844,24.270632765023038
1627,C,442136405755800.0,0.4256232877595494,8.097641,1.2922821,136,1970-01-06 02:48:56.405755800,0.24559021,-0.029220581,0.027053833,10.819264454715505,0.24879771598994543,-84.67973327636719,-34.00786590576172,128.32632446289062,24320986.0,50354.0,-0.016468890635155636,-0.06534186810000005,0.03679239585796,-0.000859181040144847,-0.005283329248624825,0.0020739263145011255,24.320986768987495
1627,C,442136456109804.0,-1.6654407122404509,6.4877625,4.70195,136,1970-01-06 02:48:56.456109804,-0.16329956,0.61538696,0.4677887,12.161575067613375,0.7900595703375317,-84.12420654296875,-33.9849853515625,127.987548828125,24371340.0,50354.0,-0.031214883296155658,-0.12625249608050007,0.1509167815817,-0.0012005343762686244,-0.004823771306972452,0.00472595396039832,24.37134077301016
1627,C,442136506463808.0,-0.12938471224045056,3.6856537,1.3220062,136,1970-01-06 02:48:56.506463808,-0.11375427,-0.6480255,0.6568146,8.56089474159583,0.9296679522101657,-84.04593658447266,-33.74602508544922,127.97026824951172,24421694.0,50354.0,-0.04518831971215566,-0.23733310033260005,0.1516651452474,-0.001923603442140254,-0.009153994560892623,0.007618105171776251,24.42169477697462
1627,C,442136556817812.0,0.05163028775954981,6.178879,1.6140747,136,1970-01-06 02:48:56.556817812,-0.4137268,-0.519104,0.73979187,9.79885728953826,0.9939471005905379,-83.93963623046875,-33.849090576171875,127.92430114746094,24472048.0,50354.0,-0.0019576231451556383,-0.24510986021210004,0.0739217088193,-0.0011869934033185265,-0.012146466417633915,0.005679600224837306,24.472048780997284
1627,C,442136607171816.0,-1.137349712240451,4.3502502,0.8832855,136,1970-01-06 02:48:56.607171816,-1.3598328,-0.7448273,0.27494812,9.696661032261893,1.574645807625532,-84.03887176513672,-33.659969329833984,127.9735336303711,24522402.0,50354.0,-0.02733515795015565,-0.22837731413160006,0.0628760377554,-0.0007375043496366524,-0.01192098658845134,0.0034441568655112225,24.52240278501995
1627,C,442136657525820.0,-1.99603771224045,4.6964874,2.4163055,136,1970-01-06 02:48:56.657525820,-1.0178833,-1.2476044,1.1234741,10.85166382434901,1.9633637474215164,-83.91028594970703,-33.41838073730469,127.93077850341797,24572756.0,50354.0,-0.07888929518615564,-0.26569948744480004,0.08307380260700001,-0.0026744130566129097,-0.012439371633289027,0.0036745791308041447,24.572756788984407
1627,C,442136707879824.0,-0.6895197122404495,5.3233795,1.6635437,136,1970-01-06 02:48:56.707879824,-0.44128418,-1.6574402,0.2157898,9.894707937480819,1.7287003736559878,-83.8509521484375,-33.39764404296875,127.95568084716797,24623110.0,50354.0,-0.06761427927615561,-0.24119901105870004,0.10271836330840001,-0.003688520494237611,-0.012762183496822623,0.004677689361252026,24.623110793007072
1627,C,442136758233827.0,-0.2339072122404504,2.9743805,-0.8745575,136,1970-01-06 02:48:56.758233827,0.09851074,-0.7675934,-0.069366455,8.316931029674272,0.7769914405565704,-84.21955108642578,-33.113712310791016,128.19207763671875,24673464.0,50354.0,-0.023249119677655618,-0.28455649648000003,0.0198643055574,-0.0022876677954601055,-0.013236946413301852,0.003086263854034247,24.673464795982
1627,C,442136808587831.0,-0.695363712240451,4.1167755,-0.11012268,136,1970-01-06 02:48:56.808587831,-0.2987671,-0.072891235,0.46418762,9.157239051463637,0.5568168987589185,-84.41226959228516,-32.93578338623047,128.29393005371094,24723818.0,50354.0,-0.023396254065655656,-0.31493516538800004,-0.024791292891860002,-0.001174390574735348,-0.015093401570850639,-0.00012404676011969947,24.723818800004665
1627,C,442136858941835.0,-0.580479712240451,4.889435,-1.0393677,136,1970-01-06 02:48:56.858941835,0.27796936,-0.008621216,0.169693,9.487668786702258,0.3257867472951106,-84.72637176513672,-32.896034240722656,128.47325134277344,24774172.0,50354.0,-0.03212190989815567,-0.26671983824150003,-0.028940719297259998,-0.001397780814116878,-0.014644328026379924,-0.0013528108708854743,24.774172803969122
1627,C,442136909295839.0,0.43252028775954976,3.6348572,-3.0951996,136,1970-01-06 02:48:56.909295839,0.04850769,0.06864929,0.17402649,8.515270879036557,0.19326391341468874,-85.46858978271484,-32.78279113769531,128.87486267089844,24824526.0,50354.0,-0.0037251744301556515,-0.27885309528060004,-0.1040960009121,-0.0009025220421338942,-0.013735889747285913,-0.003349465504711057,24.824526807991788
1627,C,442136959649843.0,1.8134102877595497,2.8061676,3.5429077,136,1970-01-06 02:48:56.959649843,0.0856781,0.7879791,-1.2336731,7.2510381351614095,1.4663564084219192,-84.7122802734375,-32.67022705078125,128.43118286132812,24874880.0,50354.0,0.05654579409984437,-0.3313035186104,0.011271946833700008,0.001329864741423753,-0.01536191306793371,-0.002337031209531877,24.874880812014453
1627,C,442137010003847.0,-1.8109797122404503,8.351913,3.4499664,136,1970-01-06 02:48:57.010003847,1.0102081,3.1241455,-0.06385803,12.963236098977521,3.2840346159063767,-84.2220687866211,-32.86354446411133,128.0619354248047,24925234.0,50354.0,6.119459984436611e-05,-0.21254220473380006,0.1760595912157,0.0014251941544920635,-0.013692403776636927,0.004716446133469744,24.92523481597891
1627,C,442137060357851.0,0.7238716877595497,2.3729248,2.3036804,136,1970-01-06 02:48:57.060357851,-0.128479,-0.2735138,-0.5166626,7.52537851347428,0.5985456494455539,-83.87163543701172,-32.55093002319336,127.87834930419922,24975588.0,50354.0,-0.027370118732355637,-0.22344995870940007,0.14485956548360002,-0.0006875567828842364,-0.01097697469900945,0.008079781608218277,24.975588820001576
1627,C,442137110711855.0,-2.0202687122404503,6.6902466,1.7977448,136,1970-01-06 02:48:57.110711855,-0.1526947,0.7437744,-0.14118958,11.760712381431816,0.7723020956879674,-83.74341583251953,-32.60890579223633,127.77339172363281,25025942.0,50354.0,-0.032639387885355635,-0.26528573366220004,0.10326158226040001,-0.0015108593481141168,-0.012304898526839777,0.006246946136750689,25.025942823966034
1627,C,442137161065859.0,0.6731362877595499,5.3981476,1.4731293,136,1970-01-06 02:48:57.161065859,0.5825348,0.9548645,-0.7027588,8.81431792253401,1.3209780231134545,-83.54175567626953,-32.770450592041016,127.63697052001953,25076296.0,50354.0,-0.03391675305115563,-0.18911969922660005,0.08235079721570002,-0.0016756839603585443,-0.01144056558384132,0.004673162878069771,25.0762968279887
1627,C,442137211419863.0,1.12880928775955,4.4373016,1.4243774,136,1970-01-06 02:48:57.211419863,0.8890991,0.71403503,-0.50590515,7.880454307416693,1.2475108233937025,-83.32102966308594,-32.83253860473633,127.50923156738281,25126650.0,50354.0,0.04536758375484438,-0.24584209549160008,0.0729505261859,0.00028829756462677163,-0.010951033105620124,0.003910021419282084,25.126650832011364
1627,C,442137261773867.0,0.44552088775954957,5.4640503,0.9764862,136,1970-01-06 02:48:57.261773867,0.5608978,0.46566772,-0.6892853,8.963458863250821,1.003278123099935,-83.2465591430664,-32.98222351074219,127.46118927001953,25177004.0,50354.0,0.03963691082904437,-0.24418286321370006,0.060446542857200004,0.0021401581601385674,-0.012337358385323342,0.003358538007298129,25.177004835975822
1627,C,442137312127870.0,1.0895942877595495,5.69545,-0.019042969,136,1970-01-06 02:48:57.312127870,0.05935669,0.25268555,-0.58317566,8.562798558502491,0.6383314611101306,-83.38731384277344,-33.23080825805664,127.52627563476562,25227358.0,50354.0,0.03864959477404436,-0.2125064609469,0.024105548226887,0.001971019351568965,-0.011498067114391428,0.0021287679972240587,25.227358839008957
1627,C,442137362481874.0,-0.4114737122404506,8.204834,0.61647034,136,1970-01-06 02:48:57.362481874,-0.07333374,0.14320374,-0.2280426,11.403120237468151,0.279085248601812,-83.43018341064453,-33.55866241455078,127.54080963134766,25277712.0,50354.0,0.017073041729844352,-0.14350174973200006,0.015041428919667001,0.0014029288192584062,-0.008963218720262667,0.0009856034436187902,25.277712842973415
1627,C,442137412835878.0,-0.42429111224045,7.9684753,1.2449799,136,1970-01-06 02:48:57.412835878,0.13342285,-0.069625854,0.019714355,11.295173322003379,0.15178297743955957,-83.37517547607422,-33.83945083618164,127.5169448852539,25328066.0,50354.0,-0.021042050985955636,-0.08627379175390006,0.046865732692480004,-9.992774604111381e-05,-0.005785058807990508,0.0015586366079090252,25.32806684699608
1627,C,442137463189882.0,-1.3381397122404506,5.5870514,4.6523285,136,1970-01-06 02:48:57.463189882,-0.19947815,0.47505188,0.35101318,11.431621801074868,0.6234389092386432,-82.82767486572266,-33.75056457519531,127.18894958496094,25378420.0,50354.0,-0.044372720867955635,-0.15218170427410005,0.14847653358680002,-0.001646947710965924,-0.006003594023496959,0.004918132238113434,25.378420851018745
1627,C,442137513543886.0,-0.86833671224045,3.7478485,2.0582886,136,1970-01-06 02:48:57.513543886,-0.015045166,-0.31550598,0.5536957,9.38282319450874,0.6374553385408408,-82.65818786621094,-33.47606658935547,127.110595703125,25428774.0,50354.0,-0.055552456939155635,-0.25844442521770006,0.16895320672670003,-0.0025158162016496407,-0.010338334062215052,0.00799192857187299,25.428774854983203
1627,C,442137563897890.0,1.22408528775955,6.3897095,1.0769196,136,1970-01-06 02:48:57.563897890,0.010604858,-1.109375,0.56741333,9.00940458067765,1.2461072348316935,-82.6454086303711,-33.745887756347656,127.15271759033203,25479128.0,50354.0,0.008956681885844383,-0.23823590223400004,0.07893513685140001,-0.0011731418285172174,-0.012504920604251454,0.006241084826265825,25.47912885900587
1627,C,442137614251894.0,0.1838782877595495,6.7984924,-0.2454834,136,1970-01-06 02:48:57.614251894,-0.85069275,-0.6746216,0.45181274,9.978243928855283,1.1759792558184987,-82.9162826538086,-33.96417999267578,127.31022644042969,25529482.0,50354.0,0.03544829894084437,-0.16142984076370004,0.020933069207400002,0.0011179842022735428,-0.010062384411453096,0.002514381823942408,25.529482862970326
1627,C,442137664605898.0,-1.0852107122404506,3.0027008,1.7508698,136,1970-01-06 02:48:57.664605898,-1.3342896,-0.13700867,0.6238098,9.246938293415917,1.4792696775434047,-82.86338806152344,-33.56524658203125,127.25237274169922,25579836.0,50354.0,-0.02269284645115565,-0.24670455880360004,0.03790111339280001,0.00032114402733289293,-0.010275599777905915,0.0014812682153252357,25.57983686699299
1627,C,442137714959902.0,-1.4450427122404497,4.8644714,0.77563477,136,1970-01-06 02:48:57.714959902,-0.49588013,-1.2559662,0.55856323,10.197300061536481,1.461280630398997,-82.98880004882812,-33.419063568115234,127.36267852783203,25630190.0,50354.0,-0.06370419046815563,-0.29539740552060006,0.06360980555889001,-0.0021752181985175,-0.013648501155790386,0.0025557404064466996,25.630190871015657
1627,C,442137765313906.0,-0.5190177122404505,5.4044037,0.34727478,136,1970-01-06 02:48:57.765313906,-0.48324585,-1.3890076,0.053344727,9.662799276308794,1.4716366142151693,-83.17098999023438,-33.44145584106445,127.50756072998047,25680544.0,50354.0,-0.049449149307155625,-0.23492973160730007,0.028271493740350005,-0.0028488616355230117,-0.013352046331469143,0.0023132954724569663,25.680544874980114
1627,C,442137815667909.0,-0.2654927122404507,3.5327148,0.6002197,136,1970-01-06 02:48:57.815667909,-0.12483215,-0.7273102,0.2909088,8.537470814776947,0.7932156848014937,-83.26732635498047,-33.2078742980957,127.58860778808594,25730898.0,50354.0,-0.01975161895715565,-0.26845936752550004,0.023855068522960002,-0.001742267742590565,-0.012673827348866507,0.0013123904581033561,25.73089887801325
1627,C,442137866021913.0,-0.9554497122404504,4.5742188,-0.2509613,136,1970-01-06 02:48:57.866021913,0.045425415,-0.20458984,0.39956665,9.602271555889635,0.451191731696593,-83.49369812011719,-33.07761764526367,127.72408294677734,25781252.0,50354.0,-0.030739667421155647,-0.28936093275280006,0.008793278736800001,-0.0012712191171467436,-0.014044241700106763,0.0008219874389589775,25.781252881977707
1627,C,442137916375917.0,0.6129250877595496,4.195709,-2.3222504,136,1970-01-06 02:48:57.916375917,0.3209381,0.22303772,0.055374146,8.378703291383614,0.3947320415416485,-84.10010528564453,-33.060794830322266,128.05471801757812,25831606.0,50354.0,-0.00862374247055564,-0.27266872777940004,-0.06478575097090002,-0.0009910525708436153,-0.014150220763219205,-0.0014097224734379362,25.831606886000372
1627,C,442137966729921.0,1.5909065877595499,5.411072,-1.1052094,136,1970-01-06 02:48:57.966729921,0.047302246,0.029830933,-0.36860657,8.076183764645926,0.3728246108929237,-84.45745849609375,-33.326663970947266,128.24880981445312,25881960.0,50354.0,0.05548587009454437,-0.25159927476300004,-0.08629315538460001,0.0011798477871891645,-0.013199495500010006,-0.0038037136253124245,25.881960890023038
1627,C,442138017083925.0,-3.06572471224045,4.904846,2.5841675,136,1970-01-06 02:48:58.017083925,0.49256897,1.2657166,-0.6130371,11.917348175679573,1.4901265676776692,-84.16675567626953,-33.133358001708984,128.0479278564453,25932314.0,50354.0,-0.03713149592005563,-0.23374533251400006,0.0372357280837,0.0004621080785911031,-0.012219521177413033,-0.0012351188471547596,25.932314893987495
1627,C,442138067437929.0,0.9579720877595497,4.436554,-0.26576233,136,1970-01-06 02:48:58.067437929,0.64030457,0.0050201416,-0.48661804,7.895387969316054,0.8042463932390437,-84.33406066894531,-33.190345764160156,128.1546630859375,25982668.0,50354.0,-0.05306688782655563,-0.25828077220000006,0.05837048696509001,-0.002270924707588432,-0.01238774123838438,0.002407077676283386,25.98266889801016
1627,C,442138117791933.0,-0.2926993122404502,5.352951,3.2131042,136,1970-01-06 02:48:58.117791933,0.07058716,0.5420227,-0.06555176,9.972391148346219,0.5505162919580611,-83.8956069946289,-33.20014190673828,127.89371490478516,26033022.0,50354.0,0.01674957266924437,-0.24699883261500005,0.07420522626099,-0.0009143610437156258,-0.01272142461042726,0.003337858731893017,26.03302290197462
1627,C,442138168145937.0,-0.6302847122404502,6.4614563,2.1737976,136,1970-01-06 02:48:58.168145937,0.43325806,0.27537537,-0.3059082,10.597667377772169,0.5975985004874431,-83.65379333496094,-33.330223083496094,127.76011657714844,26083376.0,50354.0,-0.02323796878435563,-0.19601786740790006,0.13562602661860002,-0.00016335834899015622,-0.011153831456476557,0.0052829214537494385,26.083376905997284
1627,C,442138218499941.0,-0.43446871224045047,5.8253174,2.349884,136,1970-01-06 02:48:58.218499941,1.015152,0.4703827,-0.6145325,10.107013121898268,1.2764966357650693,-83.33743286132812,-33.414520263671875,127.59161376953125,26133730.0,50354.0,-0.02680729696815564,-0.18412509855510004,0.1138927316432,-0.0012599896558509762,-0.009570859454050454,0.0062821337767573395,26.13373091001995
1627,C,442138268853945.0,-0.9562887122404495,6.185211,1.8775787,136,1970-01-06 02:48:58.268853945,0.8738251,0.24594116,-0.714386,10.630778810013858,1.1551643677711652,-83.13977813720703,-33.505889892578125,127.4930419921875,26184084.0,50354.0,-0.03501509967615562,-0.19108012647320005,0.10643482839790001,-0.0015565024803138247,-0.009446541950537513,0.0055471869791547754,26.184084913984407
1627,C,442138319207949.0,0.20574428775954967,5.5802765,1.4532471,136,1970-01-06 02:48:58.319207949,0.4201355,0.3551178,-0.6438751,9.285378375184,0.8468752178668946,-82.99823760986328,-33.62333297729492,127.40848541259766,26234438.0,50354.0,-0.01889645697515562,-0.19724952121250006,0.0838602011666,-0.0013573312618100632,-0.009776975539782871,0.004791057959345417,26.234438918007072
1627,C,442138369561952.0,1.3299049877595497,6.772476,0.9270477,136,1970-01-06 02:48:58.369561952,0.09118652,0.10598755,-0.49864197,9.197473515976817,0.5178727222302733,-82.95618438720703,-33.989234924316406,127.38069915771484,26284792.0,50354.0,0.038663041809744364,-0.18246395030750004,0.059928682179600005,0.0004976633063804408,-0.009560046072459043,0.0036201727160072783,26.284792920982
1627,C,442138419915956.0,1.4134622877595495,6.4843597,0.9907837,136,1970-01-06 02:48:58.419915956,0.070510864,-0.03265381,-0.13790894,8.937273467460072,0.15829380588470984,-82.90681457519531,-34.307308197021484,127.3555908203125,26335146.0,50354.0,0.06906975789574436,-0.15970184758110004,0.0482852411578,0.0027123886981850896,-0.008614708293441284,0.00272450194786572,26.335146925004665
1627,C,442138470269960.0,0.1085152877595501,6.003311,3.2702026,136,1970-01-06 02:48:58.470269960,-0.14805603,0.34231567,0.27038574,10.056117181173295,0.4606615398991513,-82.50086212158203,-34.377418518066406,127.10975646972656,26385500.0,50354.0,0.038318829418844375,-0.17906711478610005,0.1072788520751,0.002703722462819401,-0.008529186165518997,0.003916637175324723,26.385500928969122
1627,C,442138520623964.0,-0.39533001224044995,6.4291077,4.7857513,136,1970-01-06 02:48:58.520623964,0.20188904,-0.14241028,0.45646667,11.238950387283978,0.5190392019324638,-81.92341613769531,-34.42361068725586,126.79749298095703,26435854.0,50354.0,-0.007221134318255616,-0.18045819439010002,0.20282475134030004,0.0007829466695475232,-0.00905176870912919,0.007807478423189527,26.435854932991788
1627,C,442138570977968.0,-0.5878197122404503,5.6016235,1.7219238,136,1970-01-06 02:48:58.570977968,-0.13179016,-0.5399475,0.6611023,9.974499526170458,0.863694506231437,-81.85213470458984,-34.389827728271484,126.77936553955078,26486208.0,50354.0,-0.024752760613255625,-0.19057148057760004,0.16384373599270002,-0.0008050067526906585,-0.009341414126661785,0.009231612505582944,26.486208937014453
1627,C,442138621331972.0,-1.1381277122404496,5.7001038,1.7792816,136,1970-01-06 02:48:58.621331972,-0.46380615,-0.25946045,0.68370056,10.487650175634625,0.8659574617937873,-81.7981948852539,-34.32241439819336,126.75043487548828,26536562.0,50354.0,-0.04345417830615562,-0.20892561176790006,0.0881498483558,-0.0017172461011740168,-0.010058138293982657,0.0063444424731421865,26.53656294097891
1627,C,442138671685976.0,-1.1809287122404504,4.104965,1.4486084,136,1970-01-06 02:48:58.671685976,-0.79115295,-0.5321808,0.60398865,9.696538085461253,1.1286902513582568,-81.82322692871094,-34.06560134887695,126.76750183105469,26586916.0,50354.0,-0.05838688359915562,-0.24660698282240004,0.08126858653,-0.0025640524155900214,-0.011468944133999986,0.004265447935119787,26.586916945001576
1627,C,442138722039980.0,-0.37885051224044997,3.5353394,2.551941,136,1970-01-06 02:48:58.722039980,-0.44065857,-0.5388336,0.69851685,8.990482897265952,0.9861274834103994,-81.59664916992188,-33.774356842041016,126.65493774414062,26637270.0,50354.0,-0.03927056153475563,-0.30110925612120004,0.1007218322438,-0.0024587214961364835,-0.01378985174788302,0.004581972773467963,26.637270948966034
1627,C,442138772393984.0,0.9972176877595498,3.4615784,1.297409,136,1970-01-06 02:48:58.772393984,-0.32972717,-0.7270355,0.09867859,7.465831703194328,0.804386778248404,-81.56024169921875,-33.62220764160156,126.65605926513672,26687624.0,50354.0,0.015568630378044377,-0.31730780054940005,0.09691508495000001,-0.0005967435207325192,-0.015569886235795699,0.004975904664188303,26.6876249529887
1627,C,442138822747988.0,0.9645637877595501,3.1510315,0.37902832,136,1970-01-06 02:48:58.822747988,-0.42573547,-0.19567871,0.2437439,7.2505300465904226,0.5281590070713507,-81.726806640625,-33.41838073730469,126.74580383300781,26737978.0,50354.0,0.04939177220914438,-0.3269835205477,0.04220766240564,0.0016355080559376514,-0.01622132259126169,0.003502693410172949,26.737978957011364
1627,C,442138873101992.0,-0.22670511224045065,4.342453,0.4746704,136,1970-01-06 02:48:58.873101992,-0.33676147,-0.039886475,0.3461151,8.861752045336809,0.4845563754739963,-81.87030029296875,-33.30199432373047,126.81916046142578,26788332.0,50354.0,0.018577067873544368,-0.30480574074350003,0.02149357267344,0.0017112514867618548,-0.015906558231528544,0.0016038059955859974,26.788332960975822
1627,C,442138973810988.0,-2.2269797122404507,6.2828674,1.0930481,136,1970-01-06 02:48:58.973810988,-0.04118347,0.35430908,-0.32777405,11.617403958889971,0.484424225472973,-81.90225219726562,-33.30193328857422,126.81898498535156,26889041.0,100709.0,-0.12355407249432356,-0.4519155039182001,0.07894168120825,-0.005286064579177026,-0.038104319914317585,0.005057366991585559,26.88904195697978
1627,C,442139024164992.0,-0.9462787122404501,5.776184,2.8925934,136,1970-01-06 02:48:59.024164992,0.5682373,1.4607391,-0.6437378,10.620445070739953,1.6944175112790059,-81.55274200439453,-33.32582092285156,126.57839965820312,26939395.0,50354.0,-0.07989312735315564,-0.18985846290220007,0.1003464960455,-0.005122190150559984,-0.016157943162637217,0.004513938438717664,26.939395961002447
1627,C,442139074518996.0,1.1134438877595496,4.350113,1.6708832,136,1970-01-06 02:48:59.074518996,0.7709961,0.93066406,-0.36090088,7.892649781558852,1.2612771400353167,-81.326416015625,-33.343528747558594,126.43452453613281,26989749.0,50354.0,0.004208717624044368,-0.23851942043100002,0.1148946503582,-0.0019055063837498344,-0.01078526996867998,0.005419126343005956,26.989749964966904
1627,C,442139124873000.0,0.4341225877595498,5.996002,3.1076508,136,1970-01-06 02:48:59.124873000,0.10618591,-0.3119812,-0.20524597,9.762393709904774,0.38824428500263725,-80.97679901123047,-33.49068832397461,126.25647735595703,27040103.0,50354.0,0.03896308115414437,-0.23298506264500002,0.12030915051800002,0.0010869363778384577,-0.011871068370404454,0.005921726094660088,27.04010396898957
1627,C,442139175227004.0,0.4913734877595495,6.533844,2.3771973,136,1970-01-06 02:48:59.175227004,0.08177185,0.21868896,-0.11291504,9.860683770195205,0.25934784158829177,-80.74647521972656,-33.702457427978516,126.12155151367188,27090457.0,50354.0,0.023301214693344365,-0.17800526725800003,0.13809202061370002,0.0015676281765522237,-0.010347503535967834,0.006505766285582812,27.090457973012235
1627,C,442139225581008.0,0.48868798775954936,5.6075897,1.7306519,136,1970-01-06 02:48:59.225581008,0.4720459,0.51216125,-0.3260193,9.130645134490585,0.7690416514603501,-80.59403991699219,-33.820980072021484,126.0267333984375,27140811.0,50354.0,0.02467500776914435,-0.18778432373510004,0.10342331930840001,0.0012078973529380784,-0.00920948453243328,0.006080631713218713,27.140811976976693
1627,C,442139275935012.0,-0.25519321224045033,5.796936,2.8371735,136,1970-01-06 02:48:59.275935012,0.6927185,0.15789795,-0.5172882,10.076833522060811,0.8788502515876596,-80.2885971069336,-33.8886833190918,125.86587524414062,27191165.0,50354.0,0.005878697963244356,-0.20633745645110002,0.11500414009580001,0.0007692506492243505,-0.009922804059747959,0.005499348145419545,27.191165980999358
1627,C,442139326289016.0,0.23162328775954943,5.95372,2.3001099,136,1970-01-06 02:48:59.326289016,0.43928528,0.24784851,-0.6820526,9.660647478543401,0.8482901569042626,-80.06775665283203,-34.02979278564453,125.7398452758789,27241519.0,50354.0,-0.0005934199886556418,-0.19762293388800006,0.1293413841618,0.00013306744356622005,-0.010170510747567524,0.006151887264233596,27.241519985022023
1627,C,442139376643020.0,0.5298256877595495,6.5714417,0.8903961,136,1970-01-06 02:48:59.376643020,-0.036026,0.29566956,-0.49913025,9.60891766217166,0.581248112127391,-80.1148910522461,-34.279441833496094,125.74964904785156,27291873.0,50354.0,0.019171000856644357,-0.17812320387910005,0.08032736956200001,0.0004677277535133519,-0.009460160510562279,0.005278830212504113,27.29187398898648
1627,C,442139426997023.0,1.2126106877595495,6.4540405,0.5183258,136,1970-01-06 02:48:59.426997023,0.04774475,0.2802124,-0.24389648,9.0137844420071,0.3745451150698843,-80.21080017089844,-34.575584411621094,125.7920913696289,27342227.0,50354.0,0.04386932062644436,-0.16552663465060005,0.035467391276300005,0.0015871661739797248,-0.00865207198466226,0.0029153646936258795,27.342227992019616
1627,C,442139477351027.0,0.7845558877595495,5.793808,0.82540894,136,1970-01-06 02:48:59.477351027,-0.07923889,0.17318726,0.042816162,8.89530130904581,0.19520720387104046,-80.27290344238281,-34.72409439086914,125.81842803955078,27392581.0,50354.0,0.05028266287184436,-0.18510511831550006,0.03383120954898,0.002370464488536415,-0.008827855644427503,0.0017447308729780747,27.392581995984074
1627,C,442139527705031.0,-1.4601947122404502,6.264084,4.404068,136,1970-01-06 02:48:59.527705031,-0.22499084,0.028076172,0.3400879,11.77393744709564,0.4087406625777391,-79.86660766601562,-34.67030334472656,125.58195495605469,27442936.0,50355.0,-0.017010896503367873,-0.18989142417000002,0.13166515565684997,0.0008376998977423167,-0.009441475448428677,0.004166784734969784,27.44293600000674
1627,C,442139578059035.0,-1.08305871224045,6.2029877,4.220108,136,1970-01-06 02:48:59.578059035,-0.061050415,-0.25332642,0.47265625,11.387431807095062,0.5397271152218972,-79.47647857666016,-34.63385009765625,125.37206268310547,27493290.0,50354.0,-0.06403149146815562,-0.17958573580910003,0.21713087915199997,-0.002040404201959047,-0.009302326456793802,0.008781637768382415,27.493290003971197
1627,C,442139628413039.0,-0.3759207122404504,5.572571,2.2089996,136,1970-01-06 02:48:59.628413039,-0.46168518,-0.36608887,0.49423218,9.884579903862893,0.7690511776969474,-79.38543701171875,-34.607669830322266,125.32574462890625,27543644.0,50354.0,-0.03673272497015563,-0.19699595861010002,0.16186564204520001,-0.0025369406772673625,-0.0094811973203922,0.009541995414181903,27.543644007993862
1627,C,442139678767043.0,-0.945363712240451,4.6259003,1.1676483,136,1970-01-06 02:48:59.678767043,-0.8034363,-0.56040955,0.5140686,9.685524542410338,1.1062708878908694,-79.52037048339844,-34.43663024902344,125.40596771240234,27593998.0,50354.0,-0.03326597795515566,-0.23670228807990007,0.08501386417830001,-0.0017623573435505626,-0.010919220756914134,0.0062156853281890604,27.593998012016527
1627,C,442139729121047.0,-0.35179671224044995,5.553879,2.288086,136,1970-01-06 02:48:59.729121047,-0.79933167,-0.64863586,0.31170654,9.872891143893261,1.0755559328187911,-79.43907165527344,-34.42548370361328,125.36603546142578,27644352.0,50354.0,-0.03265860800715564,-0.23717289656390006,0.0870050224711,-0.0016597833007731115,-0.011930755523776957,0.004330919509171944,27.644352015980985
1627,C,442139779475051.0,2.14283228775955,4.3079224,2.5638885,136,1970-01-06 02:48:59.779475051,-0.41101074,-0.43598938,0.045806885,7.324975502920812,0.6009283140121916,-79.10888671875,-34.48930740356445,125.18562316894531,27694706.0,50354.0,0.04509290268484438,-0.2451786261522,0.12215816198650001,0.00031305823710016937,-0.01214416428742325,0.005266101495088996,27.69470602000365
1627,C,442139829829055.0,2.5345558877595495,2.7456207,0.8390198,136,1970-01-06 02:48:59.829829055,-0.26539612,-0.6124878,0.1894226,5.721467484192906,0.6938712611505498,-79.17764282226562,-34.340885162353516,125.24323272705078,27745060.0,50354.0,0.11776260209504437,-0.3158821453713001,0.08567502226910001,0.004100213043843259,-0.014125827044647163,0.005232616080003242,27.745060023968108
1627,C,442139880183059.0,0.6012062877595499,3.4311676,0.60723877,136,1970-01-06 02:48:59.880183059,-0.20054626,-0.40559387,0.4641266,7.714186077609281,0.6481810631367786,-79.36023712158203,-34.127777099609375,125.36034393310547,27795414.0,50354.0,0.07894908429304437,-0.33795620097090007,0.03641245201689,0.00495261012819291,-0.016461688045857573,0.0030737963400983706,27.795414027990773
1627,C,442139930537063.0,-0.6968127122404502,4.2657776,0.3130188,136,1970-01-06 02:48:59.930537063,0.19206238,0.3097992,0.353714,9.231121464542442,0.5079144572936514,-79.56755065917969,-33.95036315917969,125.47187805175781,27845768.0,50354.0,-0.0024070829491556265,-0.2996832106996001,0.02316932483989,0.0019270979678350873,-0.016053847467628186,0.00150009039592315,27.84576803201344
1627,C,442139980891066.0,-1.2836657122404498,5.681656,-1.5626373,136,1970-01-06 02:48:59.980891066,0.24472046,0.35792542,-0.008422852,10.563502379431325,0.4336699831214998,-80.05415344238281,-33.954158782958984,125.73580932617188,27896122.0,50354.0,-0.04986250529315562,-0.24302266425280006,-0.0314616449745,-0.0013159914231766702,-0.013663705813676577,-0.00020877574402907597,27.896122034988366
1627,C,442140031245070.0,-2.7877557122404495,7.5976563,1.097992,136,1970-01-06 02:49:00.031245070,-0.04508972,0.123931885,-0.6492462,12.82303508297539,0.6625049608748388,-80.1418685913086,-34.04598617553711,125.77388000488281,27946476.0,50354.0,-0.10250617720415561,-0.15913595422290006,-0.011698374718099999,-0.003836186319234805,-0.010125147537362702,-0.0010866398158005902,27.94647603901103
1627,C,442140081599074.0,0.5136665877595501,5.268509,0.86376953,136,1970-01-06 02:49:00.081599074,0.6105957,1.5166779,-0.43896484,8.779688269533919,1.692875982452089,-80.12566375732422,-34.1260871887207,125.71688079833984,27996830.0,50354.0,-0.05725474188705561,-0.16953775624190007,0.04939127004081,-0.004022300659959425,-0.008275018008372272,0.0009489940255398698,27.99683004297549
1627,C,442140131953078.0,2.2400002877595497,1.7946014,2.13562,136,1970-01-06 02:49:00.131953078,0.55610657,0.7593994,-0.25987244,5.939407061067456,0.9764607780085579,-79.72190856933594,-33.741458892822266,125.47428131103516,28047184.0,50354.0,0.06932907092494438,-0.31564126945920007,0.07551563019681,0.0003039953821869256,-0.0122153523300766,0.0031447810272825587,28.047184046998154
1627,C,442140182307082.0,-1.3355157122404497,8.275574,3.2622528,136,1970-01-06 02:49:00.182307082,-0.06794739,0.3279419,-0.09931946,12.52612478243163,0.34932376489170286,-79.48833465576172,-33.94195556640625,125.32815551757812,28097538.0,50354.0,0.022772208157844382,-0.23993239395420005,0.1359022434856,0.0023188339034673727,-0.013987678123759175,0.0053228678057020366,28.09753805102082
1627,C,442140232661086.0,0.8719122877595495,6.589859,3.462326,136,1970-01-06 02:49:00.232661086,0.14335632,0.39190674,-0.19213867,9.956306735886205,0.4594117933300569,-79.08478546142578,-34.16071319580078,125.08876037597656,28147892.0,50354.0,-0.011672143418155624,-0.11920219335900004,0.1693047204476,0.00027946632995114385,-0.00904193150478444,0.007684195730946177,28.147892054985277
1627,C,442140283015090.0,1.15964728775955,4.8843994,1.3983917,136,1970-01-06 02:49:00.283015090,0.45690918,-0.07130432,-0.3642273,8.112024090348243,0.5886525553195405,-79.02444458007812,-34.25099182128906,125.06771087646484,28198246.0,50354.0,0.05114857543284437,-0.20458179626320006,0.12237828953290002,0.0009938981288338186,-0.008151909506718133,0.007343703142279049,28.198246059007943
1627,C,442140333369094.0,0.19500228775955009,5.1909637,3.017929,136,1970-01-06 02:49:00.333369094,0.30184937,0.016082764,-0.600708,9.443373895871893,0.672474385185991,-78.71580505371094,-34.2708854675293,124.89707946777344,28248600.0,50354.0,0.034106012362844385,-0.23980178323130003,0.11118970626390001,0.002146454756932056,-0.01118824538093303,0.005880541430176035,28.2486000629724
1627,C,442140383723098.0,2.10462428775955,4.3901825,1.9158173,136,1970-01-06 02:49:00.383723098,0.23548889,0.42625427,-0.56900024,7.202581684964742,0.7489385776729107,-78.48681640625,-34.38317108154297,124.75270080566406,28298954.0,50354.0,0.05789769829184438,-0.2522446821226001,0.12421693059510001,0.002316377423153099,-0.012388253858215145,0.005926832896199045,28.298954066995066
1627,C,442140434077102.0,1.6501562877595495,4.7335205,2.0662842,136,1970-01-06 02:49:00.434077102,-0.1790924,0.41989136,-0.3226471,7.791311546555553,0.5590026771660577,-78.28759002685547,-34.47651672363281,124.6153564453125,28349308.0,50354.0,0.09453411054984437,-0.26376172956900007,0.10025736946550001,0.003837775651207198,-0.012991493427159417,0.005651589452625728,28.34930807101773
1627,C,442140484431106.0,1.2911322877595497,7.2343903,1.5341644,136,1970-01-06 02:49:00.484431106,-0.0010375977,0.65652466,-0.13095093,9.645539182031115,0.6694578790819984,-78.22007751464844,-34.82595443725586,124.54935455322266,28399662.0,50354.0,0.07405282246584437,-0.19215310978840003,0.0906484944022,0.004244513212535995,-0.011478567910501261,0.004806436934597084,28.39966207498219
1627,C,442140534785109.0,-0.36296611224044995,8.19603,1.960144,136,1970-01-06 02:49:00.534785109,0.04624939,0.2791748,-0.023635864,11.514569027828777,0.2839651899396097,-78.15985107421875,-35.08708190917969,124.50475311279297,28450016.0,50354.0,0.023368439801044374,-0.10497750810690003,0.08797620258680001,0.002452775120093458,-0.0074808575667499695,0.004497233996092054,28.450016078015324
1627,C,442140585139113.0,-2.3387807122404505,6.8626556,5.8266754,136,1970-01-06 02:49:00.585139113,-0.31240845,-0.1235199,0.09423828,13.323846484278686,0.3489083815914586,-77.69635009765625,-35.01860427856445,124.23529815673828,28500370.0,50354.0,-0.06802187979995564,-0.11433667264880003,0.19604875203380004,-0.001124239658852589,-0.0055216731288862606,0.007150896282482848,28.50037008197978
1627,C,442140635493117.0,-1.08864371224045,4.329773,3.9564667,136,1970-01-06 02:49:00.635493117,-0.038528442,-0.29341125,0.32659912,10.38669912475267,0.44072847384107633,-77.36839294433594,-34.76485824584961,124.06118774414062,28550724.0,50354.0,-0.08629226473515564,-0.21167742513780005,0.2463101686517,-0.003885167216960497,-0.00820805693997323,0.011137270546098836,28.550724086002447
1627,C,442140685847121.0,0.2162422877595498,5.4465637,1.3530426,136,1970-01-06 02:49:00.685847121,0.044433594,-0.7491913,0.52033997,9.182043557026315,0.9132445634390866,-77.44658660888672,-34.788490295410156,124.14175415039062,28601078.0,50354.0,-0.021964450664155626,-0.24733037090410007,0.1336775156461,-0.00272557932360846,-0.01155643928094692,0.009566949927565712,28.601078089966904
1627,C,442140736201125.0,0.3523812877595498,5.618759,2.8416443,136,1970-01-06 02:49:00.736201125,-0.22763062,-0.62376404,0.47738647,9.513113956840234,0.8177989474790041,-77.25830078125,-34.81562042236328,124.05704498291016,28651432.0,50354.0,0.014316235760844372,-0.21487757038210006,0.1056096320813,-0.00019255910662066745,-0.011637009337762662,0.00602453251833275,28.65143209398957
1627,C,442140786555129.0,-0.24440531224044992,4.292038,1.4506683,136,1970-01-06 02:49:00.786555129,-0.67626953,-0.27090454,0.43345642,8.958109639874221,0.8477111625065751,-77.36080932617188,-34.643531799316406,124.11090850830078,28701786.0,50354.0,0.002718511135644378,-0.24394506393100007,0.1080675543302,0.0004288838226128973,-0.011551777464100922,0.005379750522282336,28.701786098012235
1627,C,442140836909133.0,-0.4035392122404504,5.73349,2.3665314,136,1970-01-06 02:49:00.836909133,-0.8911438,-0.5240936,0.12568665,10.033940868752726,1.0414453935889403,-77.32275390625,-34.64993667602539,124.08612823486328,28752140.0,50354.0,-0.01631329929285563,-0.24105648154400006,0.0961056368469,-0.00034227598143410766,-0.012210883910424079,0.005140468434265847,28.752140101976693
1627,C,442140887263137.0,2.7312872877595495,4.6197205,1.3782806,136,1970-01-06 02:49:00.887263137,-0.21398926,-0.5345764,-0.060577393,6.7694701158936805,0.5789930495049004,-77.27330780029297,-34.86872100830078,124.07275390625,28802494.0,50354.0,0.05860571329734436,-0.23280641924150006,0.094283131724,0.0010647961073910128,-0.011930446253076536,0.00479341802630955,28.802494105999358
1627,C,442140937617141.0,1.5249886877595493,2.969284,1.1915894,136,1970-01-06 02:49:00.937617141,-0.19416809,-0.57670593,0.10133362,6.763231399096303,0.6168950311144655,-77.34198760986328,-34.650543212890625,124.13036346435547,28852848.0,50354.0,0.10716026023564436,-0.30240083370350007,0.06470161699,0.0041734899156400575,-0.01347491300739627,0.004002759018372378,28.852848110022023
1627,C,442140987971145.0,0.45928428775954977,3.5457764,0.85975647,136,1970-01-06 02:49:00.987971145,-0.052993774,-0.37594604,0.3536682,7.91532624518837,0.5188689244555744,-77.51358795166016,-34.44055938720703,124.24442291259766,28903202.0,50354.0,0.04995804070464436,-0.3294395243092001,0.051646734968990006,0.003955767462773649,-0.015907844693685752,0.002929302457271492,28.90320211398648
1627,C,442141038325148.0,-1.15445471224045,6.1670685,0.030303955,136,1970-01-06 02:49:01.038325148,0.28030396,0.29006958,0.205307,10.613634239521442,0.4526164330667392,-77.7922592163086,-34.46928405761719,124.40018463134766,28953556.0,50354.0,-0.017502305777155627,-0.24892890395270004,0.022409051320225002,0.0008171380382693839,-0.014561581918349862,0.0018645025314035664,28.953556117019616
1627,C,442141088679152.0,-2.25258371224045,8.020523,-1.5291901,136,1970-01-06 02:49:01.088679152,0.12387085,0.10134888,0.17988586,12.706692059740293,0.2407789558597605,-78.27068328857422,-34.617393493652344,124.67243194580078,29003910.0,50354.0,-0.08577900641315563,-0.13626820880450002,-0.03773745647266501,-0.0026003135970154665,-0.009698107707888025,-0.00038592325652298204,29.003910120984074
1627,C,442141139033156.0,-3.7926227122404503,6.857147,6.9941864,136,1970-01-06 02:49:01.139033156,0.27667236,1.3630676,-0.34432983,14.93625696970814,1.4328516701967298,-77.67851257324219,-34.48096466064453,124.28667449951172,29054264.0,50354.0,-0.15220016214915563,-0.11889410241000002,0.1375922118451,-0.005991601526893311,-0.0064242215094474685,0.0025140431760117964,29.05426412500674
1627,C,442141189387160.0,1.1976418877595494,3.1212463,2.2149353,136,1970-01-06 02:49:01.189387160,0.4331665,1.0424347,-0.43418884,7.359421725214091,1.209472310252238,-77.42523956298828,-34.26273727416992,124.11016082763672,29104618.0,50354.0,-0.06533383221795565,-0.24224319188590004,0.23185805704090004,-0.005476853376180761,-0.009092353658487876,0.009301649419742824,29.104618128971197
1627,C,442141239741164.0,-0.032323412240450544,3.9913483,3.1352386,136,1970-01-06 02:49:01.239741164,-0.075805664,0.06513977,-0.2625122,9.069141670042592,0.28089560957582405,-77.1534194946289,-34.08255386352539,123.95036315917969,29154972.0,50354.0,0.029339223258144354,-0.31439540575580005,0.1347013282803,-0.0009062362697811691,-0.014014489972825084,0.009228865644231853,29.154972132993862
1627,C,442141290095168.0,0.13756798775954948,7.555496,3.8511353,136,1970-01-06 02:49:01.290095168,-0.10569763,-0.24716187,-0.18348694,11.21965243884992,0.3254664900109955,-76.8376235961914,-34.31910705566406,123.77816772460938,29205326.0,50354.0,0.002649742677844354,-0.20275430105890005,0.17589593568030001,0.0008053861953703878,-0.013020278168473705,0.007819907314736026,29.205326137016527
1627,C,442141340449172.0,1.2433418877595495,5.2920074,3.575592,136,1970-01-06 02:49:01.340449172,0.53970337,0.6549072,-0.17137146,8.929206338698984,0.8657663342402085,-76.3868637084961,-34.397064208984375,123.51105499267578,29255680.0,50354.0,0.03476716793594436,-0.17000760689820005,0.1869827132321,0.0009420455585233585,-0.009385026556635909,0.009136195743667495,29.255680140980985
1627,C,442141390803176.0,0.09986328775954956,3.5328522,2.2604218,136,1970-01-06 02:49:01.390803176,0.21322632,-0.09844971,-0.45933533,8.491747113952998,0.5158941309280766,-76.28218841552734,-34.177677154541016,123.45760345458984,29306034.0,50354.0,0.03381787670404436,-0.2712857098508,0.14693331944260002,0.001726765668900996,-0.011110441835789575,0.008407003954650924,29.30603414500365
1627,C,442141441157180.0,1.5246222877595494,4.134186,3.1790466,136,1970-01-06 02:49:01.441157180,0.44351196,0.052597046,-0.5292053,7.918772881051935,0.6924792830540548,-75.88783264160156,-34.15596389770508,123.24127960205078,29356388.0,50354.0,0.04089967333484436,-0.30043617923860005,0.1369494959068,0.0018811637573291015,-0.014394242001603825,0.007147317642051845,29.356388148968108
1627,C,442141491511184.0,3.0711159877595495,4.6332703,0.64216614,136,1970-01-06 02:49:01.491511184,0.15977478,0.23968506,-0.4629364,6.4303481183603655,0.5452403311900286,-75.99044036865234,-34.47474670410156,123.28932189941406,29406742.0,50354.0,0.11570690256274437,-0.27273095273490006,0.09620667315498001,0.003942883761373591,-0.014430628881696814,0.005870172868468435,29.406742152990773
1627,C,442141541865188.0,2.01656578775955,5.018982,1.7867584,136,1970-01-06 02:49:01.541865188,-0.071746826,0.21226501,-0.30012512,7.633537168534964,0.3745385549798429,-75.89086151123047,-34.653717041015625,123.21930694580078,29457096.0,50354.0,0.12809256406224437,-0.25045444384290005,0.061153033143580005,0.006138139171217342,-0.013172238729639275,0.0039618453254788456,29.45709615701344
1627,C,442141592219191.0,-0.28932711224044994,8.47171,1.2725525,136,1970-01-06 02:49:01.592219191,0.24884033,0.1933136,0.059295654,11.567509993731917,0.32063629295941626,-75.97218322753906,-34.958778381347656,123.26567077636719,29507450.0,50354.0,0.043486688133544386,-0.15381404751600003,0.0770242705293,0.004319850832533374,-0.010178267806943028,0.0034788899745721,29.507450159988366
1627,C,442141642573195.0,-1.3139397122404501,8.146973,3.8139038,136,1970-01-06 02:49:01.642573195,0.08557129,0.06150818,0.16259766,12.582341555872636,0.19376196973774834,-75.74908447265625,-35.09300994873047,123.1392593383789,29557804.0,50354.0,-0.040365448839955624,-0.07506061810900007,0.12806171026510002,7.858344169468428e-05,-0.005762377456440627,0.00516344973846061,29.55780416401103
1627,C,442141692927199.0,-1.5313777122404497,7.6436157,6.7083435,136,1970-01-06 02:49:01.692927199,-0.07707214,-0.39302063,0.21310425,13.590295401697299,0.4536725159603996,-75.21633911132812,-35.116085052490234,122.84841918945312,29608158.0,50354.0,-0.07163655679615562,-0.09590954830010007,0.2649186202721,-0.002819874495900373,-0.004304515879681914,0.009894065781935087,29.60815816797549
1627,C,442141743281203.0,-1.5058337122404497,3.8832092,2.811081,136,1970-01-06 02:49:01.743281203,0.1362915,-0.308609,0.55493164,10.187785933539516,0.6494336093291905,-75.15228271484375,-34.77880859375,122.83363342285156,29658512.0,50354.0,-0.07646787203415562,-0.20325832949270006,0.2396705506365,-0.0037288252046607457,-0.007532149659189329,0.012704041555965823,29.658512171998154
1627,C,442141793635207.0,1.1715797877595495,6.5263214,2.2290955,136,1970-01-06 02:49:01.793635207,0.3944702,-0.9269409,0.6442871,9.348959170957505,1.1957976576357976,-75.069091796875,-34.99771499633789,122.84087371826172,29708866.0,50354.0,-0.008415511056655625,-0.23138844808380005,0.1268965237405,-0.002137108936077355,-0.010943101919043545,0.00922905923158973,29.70886617602082
1627,C,442141843989211.0,0.1435036877595497,5.2073975,2.704544,136,1970-01-06 02:49:01.843989211,-0.29829407,-0.43218994,0.57203674,9.39724495499681,0.7765265792902366,-74.96949768066406,-34.944881439208984,122.79837799072266,29759220.0,50354.0,0.033109856663144366,-0.19804935925470005,0.1242142416915,0.000621729539334567,-0.010811955675361418,0.006322215741281464,29.759220179985277
1627,C,442141894343215.0,-1.1182457122404506,2.7218323,1.6238556,136,1970-01-06 02:49:01.894343215,-1.3195496,-0.14352417,0.5620575,9.167148946027803,1.441429487536799,-75.17069244384766,-34.486881256103516,122.8868179321289,29809574.0,50354.0,-0.024541079950355642,-0.29383498132540004,0.1089761167292,0.00021573609129788173,-0.01238417204278518,0.0058710336539579645,29.809574184007943
1627,C,442141944697219.0,0.1030525877595494,5.305649,3.079239,136,1970-01-06 02:49:01.944697219,-0.37664795,-0.5354309,0.19927979,9.597070085009472,0.6842969834921506,-75.01213073730469,-34.46717834472656,122.80982971191406,29859928.0,50354.0,-0.02555951729505565,-0.29136130330990007,0.11840981274420001,-0.0012613827368477201,-0.01473348685826295,0.005724895546351793,29.8599281879724
1627,C,442141995051223.0,2.0158792877595495,3.690216,2.1805115,136,1970-01-06 02:49:01.995051223,-0.24816895,-0.16775513,-0.42567444,6.947520062014736,0.5205077715603611,-74.85325622558594,-34.43498992919922,122.71508026123047,29910282.0,50354.0,0.053348347829944354,-0.266980306895,0.13242473833850002,0.0006996393863768929,-0.01405736672012877,0.006315261492609139,29.910282191995066
1627,C,442142045405227.0,1.57357258775955,3.180191,1.3791199,136,1970-01-06 02:49:02.045405227,-0.31106567,-0.1585846,0.19799805,6.851549476510456,0.40139027668032945,-74.9296646118164,-34.25883865356445,122.7578353881836,29960636.0,50354.0,0.09037162986994438,-0.32049296296100005,0.08962083975780001,0.003618437878550099,-0.014790814515164516,0.005590441519730547,29.96063619601773
1627,C,442142095759231.0,0.3493292877595495,4.2251587,0.6504364,136,1970-01-06 02:49:02.095759231,-0.24191284,0.015335083,0.58140564,8.317001491381353,0.6299122995713705,-75.20169830322266,-34.14741516113281,122.90957641601562,30010990.0,50354.0,0.04841290051994437,-0.30702471060310005,0.05109813896510001,0.003494178121626229,-0.01579901246732335,0.0035428817273064537,30.01099019998219
1627,C,442142146113234.0,-1.3031207122404505,4.7010345,0.75354004,136,1970-01-06 02:49:02.146113234,0.34474182,0.732193,0.30706787,9.993677607962068,0.8655889258142397,-75.42520904541016,-33.98170852661133,123.01839447021484,30061344.0,50354.0,-0.024013606694155643,-0.26873443380360007,0.035347914829880006,0.0006143010206518828,-0.014495887978727489,0.002176452296396212,30.061344203015324
1627,C,442142196467238.0,-0.27608271224045033,6.522522,-1.7531891,136,1970-01-06 02:49:02.196467238,-0.13076782,-0.13371277,-0.19042969,10.287335566468307,0.266913458712972,-76.04885864257812,-34.194000244140625,123.36766052246094,30111698.0,50354.0,-0.03975960461815564,-0.21089371799950002,-0.02516816438362,-0.0016056181412100613,-0.012075597977946651,0.00025629557698548817,30.11169820697978
1627,C,442142246821242.0,-3.5420432122404497,7.167206,4.721924,136,1970-01-06 02:49:02.246821242,-0.2004242,-0.16362,-1.2037354,13.972461968708028,1.231227142958926,-75.81594848632812,-34.179813385009766,123.22571563720703,30162052.0,50354.0,-0.09612895640065562,-0.14880291814400004,0.07474383857729999,-0.003421266300770611,-0.009056082208184902,0.0012481667491742812,30.162052211002447
1627,C,442142297175246.0,2.9176125877595496,4.196823,-0.18521118,136,1970-01-06 02:49:02.297175246,0.8383026,1.743866,-0.025924683,6.204486359421195,1.9350689817966205,-76.07929229736328,-34.392799377441406,123.3274154663086,30212406.0,50354.0,-0.015721289832555625,-0.20735704186700005,0.11422081866914001,-0.0028160536494135596,-0.00896703931319695,0.004757563175493621,30.212406214966904
1627,C,442142347529250.0,1.1995492877595497,0.7572174,3.5921173,136,1970-01-06 02:49:02.347529250,0.20977783,-0.6791992,-0.1878357,7.27775241572225,0.7352554259810933,-75.6220474243164,-33.758140563964844,123.10248565673828,30262760.0,50354.0,0.10365778453994437,-0.3687413248492,0.08577567538324,0.002213977127247927,-0.01450442857881377,0.005035311730756772,30.26276021898957
1627,C,442142397883254.0,-3.08316571224045,8.824371,3.389923,136,1970-01-06 02:49:02.397883254,-0.24510193,0.40193176,0.10095215,14.17805127604404,0.4814721511946927,-75.54181671142578,-33.86751937866211,123.03589630126953,30313114.0,50354.0,-0.04742381071915563,-0.25223354885320004,0.1757868286331,0.0014158027588859982,-0.01563428439520533,0.006585359163619393,30.313114223012235
1627,C,442142448237258.0,3.39683028775955,4.77388,3.037384,136,1970-01-06 02:49:02.448237258,0.39131165,0.14962769,-0.5046387,6.979765374736604,0.6558761091686055,-75.03665924072266,-34.16322326660156,122.75294494628906,30363468.0,50354.0,0.007897133017844383,-0.15110603457300006,0.16182030833900002,-0.0009951631644859133,-0.010154880691921442,0.008499934887546561,30.363468226976693
1627,C,442142498591262.0,1.5764259877595501,5.051117,1.0497437,136,1970-01-06 02:49:02.498591262,0.57470703,0.16229248,0.021270752,7.8428419243389556,0.5975612640446306,-75.11575317382812,-34.310306549072266,122.80732727050781,30413822.0,50354.0,0.12521167324874438,-0.24610525053100005,0.10290161410290001,0.0033512804153739057,-0.01000058852506341,0.006664903841319717,30.413822230999358
1627,C,442142548945266.0,0.15300988775954938,6.093277,3.8999176,136,1970-01-06 02:49:02.548945266,0.285614,-0.2890625,-0.46987915,10.299251702445558,0.6212237129303521,-74.78897857666016,-34.402381896972656,122.63751220703125,30464176.0,50354.0,0.04354200703794437,-0.21288679226200008,0.12461762255010002,0.004248711408577963,-0.011556042661399365,0.0057282518212125825,30.464176235022023
