Subject-id_accel,Activity_accel,Timestamp_accel,accel_x,accel_y,accel_z,Segment_accel,DateTime,gyro_x,gyro_y,gyro_z,accel_magnitude,gyro_magnitude,Roll,Pitch,Yaw,Time_Difference,Difference_Microseconds,vx,vy,vz,dx,dy,dz,Time_diff
1632,C,5164054161446.0,1.5664978255485549,16.107367102947602,4.81928561661216,166,1970-01-01 01:26:04.054161446,0.67385864,-0.1491394,1.2898254,3.6277756968982393,1.4628662241709491,-104.69349670410156,12.031149864196777,-168.39100646972656,15005483.0,50354.0,0.07402198002597193,0.23959956171572355,0.23440987321592877,0.003738232481043073,0.008383156522481935,0.009455697723863635,15.005483672000082
1632,C,5164104515450.0,3.0833588255485544,15.827444502947603,4.29195712661216,166,1970-01-01 01:26:04.104515450,1.4007568,-1.1957855,1.6772766,3.049914808178841,2.4910398165553373,-104.33209991455078,12.300210952758789,-168.293701171875,15055837.0,50354.0,0.11706944090467193,0.3105535518016236,0.22939375854615873,0.00481110870477082,0.013851204939026251,0.011677184036874077,15.05583767600001
1632,C,5164154869454.0,5.462341425548555,6.953284102947604,3.3197433966121603,166,1970-01-01 01:26:04.154869454,1.3795624,-2.3227844,1.220993,11.894557373173132,2.9646827301460306,-104.0174560546875,11.923659324645996,-168.14720153808594,15106191.0,50354.0,0.21515509522187193,0.08008120411062361,0.19163978407321872,0.008364417146057995,0.009835011249602647,0.010600361502528065,15.106191679999938
1632,C,5164205223458.0,5.990585425548555,8.148032102947603,-3.2337844033878396,166,1970-01-01 01:26:04.205223458,0.49630737,-0.7685852,-0.035491943,13.197876146257968,0.9155893693098844,-104.5258560180664,11.45472240447998,-168.2184295654297,15156545.0,50354.0,0.288350339330072,-0.1132633618841764,0.002164189572408724,0.012676756325714291,-0.0008354271862647388,0.004879402644475962,15.156545683999866
1632,C,5164255577462.0,0.26129152554855484,14.385000702947604,1.8631545966121603,166,1970-01-01 01:26:04.255577462,-0.08502197,-0.5355072,-0.08665466,6.309420866034517,0.5490953712555192,-104.85134887695312,12.084989547729492,-168.25750732421875,15206899.0,50354.0,0.15740350599777195,0.0738449669540236,-0.03450834664519128,0.011222744563819127,-0.0009924369291564575,-0.0008143288426214465,15.206899687999794
1632,C,5164305931466.0,-1.6217040744514453,13.099859702947604,1.1006881966121602,166,1970-01-01 01:26:04.305931466,-0.21403503,-0.68614197,-0.05859375,8.657554216598184,0.7211345398756354,-105.15794372558594,12.792972564697266,-168.28814697265625,15257253.0,50354.0,-0.034251106743728076,0.19851713043922364,0.07462067000500872,0.0031006079560190625,0.006857260526069786,0.0010099079652301237,15.257253691999722
1632,C,5164356285470.0,2.866363625548555,4.317053102947604,6.14821929661216,166,1970-01-01 01:26:04.356285470,-0.5861511,-0.2489624,-0.29551697,14.545467488694909,0.7020581658259883,-104.6373519897461,12.603031158447266,-168.1517333984375,15307607.0,50354.0,0.03133679351797193,-0.054963586285976376,0.18250574395690872,-7.337366408486246e-05,0.003614247581146307,0.006473671724319195,15.30760769599965
1632,C,5164406639473.0,5.661514325548555,-0.10729389705239711,-8.99397730338784,166,1970-01-01 01:26:04.406639473,0.5101013,3.4930725,-0.95903015,23.17679875711489,3.6580729428384777,-105.16714477539062,12.123526573181152,-168.42384338378906,15357961.0,50354.0,0.21470638317477198,-0.38748009247317644,-0.07164764933659132,0.006194629059593213,-0.011139404500119191,0.0027910742482557312,15.357961699000043
1632,C,5164456993477.0,0.5703888255485547,6.929175102947603,11.42133619661216,166,1970-01-01 01:26:04.456993477,-1.2689972,-1.0681458,-0.15757751,14.134706513704797,1.6661692637074061,-104.2004165649414,12.27053165435791,-168.15383911132812,15408315.0,50354.0,0.15690062563517193,-0.3217146968791765,0.06111361485470869,0.009355949660807958,-0.01785539721152419,-0.00026521538615035894,15.408315702999971
1632,C,5164507347481.0,3.300857625548555,4.237906102947603,5.05698703661216,166,1970-01-01 01:26:04.507347481,0.8142853,0.4281311,-0.1865387,14.507399685769647,0.9386977549674815,-103.7447280883789,12.038215637207031,-168.0845947265625,15458669.0,50354.0,0.09746637189927193,-0.21231559647917644,0.4148747440428887,0.006404197896924694,-0.013445280695883252,0.01198395891196481,15.458669706999899
1632,C,5164557701485.0,3.0468750255485544,7.234137102947605,1.1638901966121602,166,1970-01-01 01:26:04.557701485,1.2336884,0.45606995,-0.08418274,11.979160914756513,1.3179808804764468,-103.74299621582031,11.850058555603027,-168.11778259277344,15509023.0,50354.0,0.15981686495667194,-0.2046375682051764,0.1566230261008887,0.0064776200543221,-0.010497629827257953,0.014388599358909886,15.509023710999827
1632,C,5164608055489.0,-0.272903274451445,10.853903102947605,0.9377548966121605,166,1970-01-01 01:26:04.608055489,0.5294342,-0.2946167,0.23622131,9.633604328547353,0.6503076805225708,-103.94743347167969,12.237427711486816,-168.1546173095703,15559377.0,50354.0,0.06984028677737193,-0.03806661173617634,0.052913118512108726,0.005782078109208023,-0.006110563138383439,0.0052754915129214364,15.559377714999755
1632,C,5164658409493.0,5.748230025548555,11.388922102947603,0.7484542966121603,166,1970-01-01 01:26:04.658409493,-0.03489685,0.00831604,0.42739868,8.371857794905411,0.4289015951555164,-104.26770782470703,11.686040878295898,-168.22605895996094,15609731.0,50354.0,0.13785230161237194,0.06653841020882363,0.04245368885780873,0.005229076297888581,0.0007168344701458408,0.002401050109152412,15.609731718999683
1632,C,5164708763497.0,4.067077704048555,13.364004602947603,2.1993514966121603,166,1970-01-01 01:26:04.708763497,-0.024383545,0.67601013,0.012237549,5.798020619523245,0.6765604265214684,-104.49042510986328,11.390140533447266,-168.30258178710938,15660085.0,50354.0,0.24712000270806642,0.12973523567432357,0.07421690645600873,0.009692447705875677,0.004941581582399998,0.0029374155782159826,15.66008572299961
1632,C,5164759117501.0,3.9379578305485547,12.069845702947603,1.5847274966121603,166,1970-01-01 01:26:04.759117501,-0.06387329,1.3886108,-0.13354492,7.230529928553321,1.396479142955551,-104.72896575927734,11.11077880859375,-168.41275024414062,15710439.0,50354.0,0.20154277965455142,0.14687884915152358,0.09527175681240872,0.011295982871543628,0.006964312813660354,0.004267216075108946,15.710439726999539
1632,C,5164809471505.0,3.4915772255485544,11.899878102947604,2.92397619661216,166,1970-01-01 01:26:04.809471505,-0.39074707,0.628006,0.020248413,7.0019349995345745,0.7399221627837643,-104.69886016845703,10.943532943725586,-168.4332733154297,15760793.0,50354.0,0.1870534041073569,0.11001653626102359,0.11351563288430871,0.009783686118573566,0.006467855118531701,0.005256640110394255,15.760793730999467
1632,C,5164859825509.0,5.5970002255485545,10.663992102947605,2.63097689661216,166,1970-01-01 01:26:04.859825509,-0.6274872,-0.06864929,0.16467285,8.390103636710712,0.6523573090787491,-104.67903137207031,10.42802906036377,-168.4224395751953,15811147.0,50354.0,0.22882311448627193,0.07462136017382362,0.13985705402810872,0.010470523108631793,0.004648628318540148,0.006379164138393934,15.811147734999395
1632,C,5164910179512.0,5.447082625548555,8.062262102947605,0.7610732966121603,166,1970-01-01 01:26:04.910179512,-1.0634003,-0.39907837,-0.22294617,11.351678649801254,1.157492435465397,-104.83822631835938,9.993934631347656,-168.41928100585938,15861501.0,50354.0,0.2780568739420719,-0.021998297858176353,0.08540164771480872,0.012761717468660413,0.0013248908399210513,0.005671338333781433,15.861501737999788
1632,C,5164960533516.0,2.3317414255485547,0.781408102947605,-4.563618803387839,166,1970-01-01 01:26:04.960533516,-0.95951843,0.7035217,-1.5119476,20.13824459303553,1.9239552866494365,-105.1854248046875,9.790502548217773,-168.48501586914062,15911855.0,50354.0,0.19584745313447194,-0.2708121152261764,-0.09573668822409126,0.011931489242806145,-0.00737208777022475,-0.0002602053149022064,15.911855741999716
1632,C,5165010887520.0,-1.827056774451445,3.320410102947603,1.3145401966121604,166,1970-01-01 01:26:05.010887520,-1.8520966,-0.016525269,-1.7666321,16.77363179476184,2.5595944751068465,-105.18573760986328,9.973525047302246,-168.44573974609375,15962209.0,50354.0,0.012706445460671931,-0.3901977230301764,-0.08180205208279126,0.005250761504929938,-0.016642244697780195,-0.004469892864706382,15.962209745999644
1632,C,5165061241524.0,0.8315430255485547,10.804220702947603,2.95798799661216,166,1970-01-01 01:26:05.061241524,-0.99160767,0.50205994,-0.6704712,8.669945891982502,1.2980298858597488,-105.13024139404297,10.2308988571167,-168.442626953125,16012563.0,50354.0,-0.02506404965612807,-0.13785337019997643,0.10756944232080873,-0.00031112740082899924,-0.013294742374255559,0.0006487455840225658,16.012563749999572
1632,C,5165111595528.0,1.6258545255485548,10.103766102947604,2.61115569661216,166,1970-01-01 01:26:05.111595528,0.10395813,0.5203247,-0.2807312,9.131373832239827,0.6002958377971872,-105.0519790649414,10.341934204101562,-168.45068359375,16062916.999999998,50353.99999999814,0.061869898143969634,0.03293118381202239,0.1402143307643035,0.0009266608473783526,-0.002641625886689421,0.00623845205496364,16.0629177539995
1632,C,5165161949532.0,0.41937272554855465,13.876196402947603,4.0477401966121604,166,1970-01-01 01:26:05.161949532,0.46749878,-0.28356934,0.6489868,6.067383011076678,0.8486168431416878,-104.81636047363281,11.020792007446289,-168.40603637695312,16113271.000000002,50354.000000003725,0.05149268650087573,0.11027431601093174,0.1676510219037211,0.002854129793603483,0.003605484869042783,0.007751125984123429,16.113271757999428
1632,C,5165212303536.0,1.4189607255485548,15.227957202947604,4.31035922661216,166,1970-01-01 01:26:05.212303536,1.5954132,-0.5345917,1.52211,4.375547025224358,2.268909521453672,-104.47883605957031,11.737711906433105,-168.34841918945312,16163625.0,50353.99999999814,0.046283721298270214,0.23928607533561472,0.21043186917851092,0.0024617166191590067,0.008800881972931674,0.009518992948777004,16.163625761999356
1632,C,5165262657540.0,4.527084425548555,13.626028502947605,2.3262893966121605,166,1970-01-01 01:26:05.262657540,1.7826996,-2.0800781,2.1055298,5.5268608140078115,3.4551408805760455,-104.57909393310547,11.460373878479004,-168.3138885498047,16213978.999999998,50353.99999999814,0.1497035787691664,0.232987598117315,0.16709090238691254,0.004934372253797669,0.01189043427652397,0.009504890819702315,16.213979765999284
1632,C,5165313011544.0,6.2300873255485545,3.9084381029476045,-8.833866803387838,166,1970-01-01 01:26:05.313011544,0.41944885,-0.74220276,0.47605896,20.000209398387675,0.9764396592284756,-105.21768188476562,11.088667869567871,-168.41357421875,16264333.0,50354.00000000186,0.27083331317738196,-0.052003934263378265,-0.1638412763703973,0.01058785732853864,0.004556625704850734,8.181583421780721e-05,16.26433376999921
1632,C,5165363365548.0,1.3082581255485546,12.036245802947604,1.7542831966121604,166,1970-01-01 01:26:05.363365548,0.19360352,-1.2091675,0.027877808,7.70459214690699,1.2248859286445923,-105.35540008544922,11.352928161621094,-168.38536071777344,16314687.0,50354.0,0.18979292342227194,-0.09202989330127637,-0.17824267646779127,0.011597186758869487,-0.00362633967659531,-0.008612647680607075,16.31468777400005
1632,C,5165413719552.0,-0.13716127445144544,14.346731702947604,1.1735031966121605,166,1970-01-01 01:26:05.413719552,-0.086242676,1.23172,0.16868591,6.881701330208465,1.246204996698444,-105.7964859008789,11.99337100982666,-168.53416442871094,16365041.000000002,50354.00000000186,0.029484705420073008,0.17077502466592995,0.07371287802221145,0.005520752861363923,0.0019825661723679566,-0.0026317467354644605,16.365041777999977
1632,C,5165464073555.0,3.2527924255485545,9.856436102947605,0.2512008966121604,166,1970-01-01 01:26:05.464073555,-0.138031,-1.0239105,0.512558,9.82926441498747,1.15332604771385,-106.0354995727539,11.854857444763184,-168.54075622558594,16415395.0,50353.99999999814,0.07844224549116902,0.11589395584901935,0.0358697749551074,0.00271727684309224,0.0072174649224246105,0.0027589624540098547,16.41539578099946
1632,C,5165514427559.0,4.835464525548555,5.701453102947603,6.62903899661216,166,1970-01-01 01:26:05.514427559,-0.44656372,0.28681946,-0.68125916,13.216312624283232,0.863596318738585,-105.42848205566406,11.470622062683105,-168.417724609375,16465748.999999998,50353.99999999814,0.2036380452577644,-0.10176822346317262,0.1732237997917023,0.007101935480185634,0.00035564356427844997,0.005264348931400233,16.46574978499939
1632,C,5165564781563.0,-3.264205874451445,-0.1819238970523962,-7.14258280338784,166,1970-01-01 01:26:05.564781563,0.08833313,0.9452057,-0.86924744,23.340870455459033,1.2871704118393341,-105.81549835205078,11.596572875976562,-168.52931213378906,16516103.000000002,50354.000000003725,0.03955957905867486,-0.3545040131832026,-0.012929492423192237,0.006122986587415444,-0.011487566102046638,0.004035729776617276,16.516103788999317
1632,C,5165615135567.0,-1.3341522744514451,7.191382102947603,10.26980119661216,166,1970-01-01 01:26:05.615135567,-1.3043976,-0.90335083,0.013519287,13.994796485492063,1.5867194434015226,-104.95630645751953,11.953583717346191,-168.29847717285156,16566457.0,50353.99999999814,-0.11577286311492378,-0.31699207075016467,0.07873397748620581,-0.0019188218526841078,-0.01690625690518976,0.0016567595204314315,16.566457792999245
1632,C,5165665489571.0,3.8725739255485547,6.909216102947603,3.91923069661216,166,1970-01-01 01:26:05.665489571,0.550766,1.3222046,0.03100586,11.815832275314628,1.4326651926990828,-104.62728118896484,11.670902252197266,-168.29969787597656,16616810.999999998,50353.99999999814,0.06390984190966956,-0.1384584389701713,0.3572372559756955,-0.0013057552848846374,-0.011466877483228475,0.010976447744869883,16.616811797000082
1632,C,5165715843575.0,4.467483585548555,7.973151102947604,4.37981723661216,166,1970-01-01 01:26:05.715843575,0.9886322,0.5693207,0.20736694,10.746721985248092,1.1595347058757204,-104.2231216430664,11.34021282196045,-168.2586212158203,16667165.0,50354.00000000186,0.2099776279568997,-0.1187758408571808,0.20894512981479646,0.0068956648288308695,-0.006476387463213483,0.014254773927047742,16.66716580100001
1632,C,5165766197579.0,4.734710765548555,11.153830102947603,-3.8639728033878393,166,1970-01-01 01:26:05.766197579,0.90696716,0.95840454,-0.08682251,11.247862890296755,1.3223716723575778,-104.98995208740234,11.004457473754883,-168.4606170654297,16717519.0,50354.0,0.23168364717757192,-0.0119091941791764,0.012987415295288726,0.011119705924060592,-0.0032902571271103656,0.005587595688236615,16.717519804999938
1632,C,5165816551583.0,0.17602542554855471,13.438620102947603,1.89612889661216,166,1970-01-01 01:26:05.816551583,-0.68013,0.16529846,-0.080581665,7.027186154184858,0.7045521999912737,-105.2525863647461,11.552206993103027,-168.51229858398438,16767873.000000002,50354.00000000186,0.12363760508325651,0.12569491883382822,-0.04954440604089311,0.00894592316817121,0.0028647831896302747,-0.0009203953560021155,16.767873808999866
1632,C,5165866905587.0,1.8924103255485547,13.515707502947603,4.00481723661216,166,1970-01-01 01:26:05.866905587,-0.21391296,1.8961792,0.026657104,5.648112447156742,1.9083932807894362,-105.03656768798828,11.807485580444336,-168.556396484375,16818227.0,50353.99999999814,0.052077006905369996,0.1851599061336167,0.1485681207961832,0.004423966786037486,0.00782639192820507,0.0024931200663938463,16.818227812999794
1632,C,5165917259591.0,5.887832725548555,10.443610102947604,3.6701919966121603,166,1970-01-01 01:26:05.917259591,-0.023086548,0.75523376,0.20613098,8.50231076528652,0.7831992095616889,-104.80474853515625,11.224512100219727,-168.54818725585938,16868581.0,50354.0,0.19588317929747193,0.10975453936362359,0.19323370746488874,0.006242893608028952,0.007425060994284019,0.00860554463012901,16.868581816999722
1632,C,5165967613595.0,9.952362125548554,10.094702102947604,2.9954940966121604,166,1970-01-01 01:26:05.967613595,-0.29200745,-0.007827759,-0.07420349,10.537060658550864,0.3013897519734947,-104.70767211914062,10.205511093139648,-168.52598571777344,16918935.0,50354.0,0.398808585766072,0.023623886407823615,0.16782197876910873,0.014972554569004846,0.0033580686256477264,0.009090299012313355,16.91893582099965
1632,C,5166017967598.0,2.3280640255485547,6.947348102947604,-4.029636803387839,166,1970-01-01 01:26:06.017967598,-0.9609375,-0.5182648,-0.70106506,14.599053536297841,1.2974943160484727,-105.26827239990234,10.110225677490234,-168.5829315185547,16969289.0,50354.0,0.3091842892061719,-0.06440150196617639,-0.02603661092849126,0.017825136613176185,-0.0010266580269126478,0.003569730206123226,16.969289824000043
1632,C,5166068321602.0,1.9337922255485545,-0.6556338970523967,-3.671101803387839,166,1970-01-01 01:26:06.068321602,-1.8661194,-0.39775085,-1.4587555,21.104771009163574,2.4017857861417062,-105.54241180419922,9.939316749572754,-168.5764617919922,17019643.0,50354.0,0.10730075483387193,-0.3350627114381764,-0.19388149590279125,0.010485843953796184,-0.01005731050088139,-0.005536878175691201,17.01964382799997
1632,C,5166118675606.0,-1.808319074451445,6.0555941029476035,0.6545669966121603,166,1970-01-01 01:26:06.118675606,-1.0926361,0.7984772,-1.9678955,14.456030908178722,2.3883115761690936,-105.62483978271484,10.180935859680176,-168.59336853027344,17069997.0,50354.0,0.0031590375251719246,-0.35751440189617645,-0.07594729683019127,0.0027810461922236473,-0.017437013982419,-0.006793479514638302,17.0699978319999
1632,C,5166169029610.0,3.011032125548555,10.467047102947603,0.9948531966121603,166,1970-01-01 01:26:06.169029610,0.11231995,1.2937927,-0.59043884,8.997081532703357,1.426580998584321,-105.80613708496094,10.050207138061523,-168.6796875,17120351.0,50354.0,0.030280706487471935,-0.07747866235917641,0.041527452204808725,0.0008419124350063344,-0.01095182037875702,-0.0008665884281332564,17.120351835999827
1632,C,5166219383614.0,0.8775177255485547,10.661703602947604,1.3789169966121602,166,1970-01-01 01:26:06.219383614,0.22608948,-0.025680542,0.19320679,9.182445055508543,0.2985042828942129,-105.91419982910156,10.31552791595459,-168.70213317871094,17170705.0,50354.0,0.09790201960107194,0.0384893565223236,0.05976441215480872,0.003227256494731269,-0.0009816337530544432,0.0025502252689820885,17.170705839999755
1632,C,5166269737618.0,0.36520392554855485,15.726751802947604,5.16572116661216,166,1970-01-01 01:26:06.269737618,0.65600586,-0.738266,1.3435211,4.807568011024877,1.6674619399721091,-105.41694641113281,11.331113815307617,-168.5978240966797,17221059.0,50354.0,0.03128800300967193,0.1709129417542236,0.16477435503549873,0.003252617199270698,0.00527212166370863,0.005653212541550371,17.221059843999683
1632,C,5166320091622.0,3.8002930255485547,14.916845802947604,3.6520797966121603,166,1970-01-01 01:26:06.320091622,1.8058472,-1.1468201,2.1709442,3.884797749910662,3.0478318803742264,-105.22718048095703,11.265615463256836,-168.55247497558594,17271413.0,50354.0,0.10487471673777193,0.27804465692362357,0.2220057748510987,0.0034281687950813945,0.011303405461912159,0.009737963330154864,17.27141384799961
1632,C,5166370445626.0,8.426406725548555,8.223898102947604,-2.0541428033878395,166,1970-01-01 01:26:06.370445626,1.2313538,-3.193573,1.6983185,13.084396196765214,3.820919577084251,-105.53120422363281,10.668249130249023,-168.4931182861328,17321767.0,50354.0,0.30783161963337197,0.08914530931872362,0.04023125967840873,0.010390707430816291,0.009244741780083575,0.0066023418183494085,17.32176785199954
1632,C,5166420799630.0,3.553466865548555,8.904532102947604,-0.8229568033878394,166,1970-01-01 01:26:06.420799630,-0.15802002,-2.0598907,0.012054443,11.141516677551122,2.0659780570624,-105.84008026123047,10.502436637878418,-168.45103454589844,17372121.0,50354.0,0.30161727740305194,-0.06222671270617638,-0.07243673679979128,0.015344094880686046,0.000677729506914102,-0.0008108372974850484,17.372121855999467
1632,C,5166471153634.0,0.41725172554855483,16.828497402947605,2.8258010966121603,166,1970-01-01 01:26:06.471153634,-0.05882263,0.15101624,-0.04373169,4.409018458549102,0.1678644311762042,-106.18834686279297,11.529162406921387,-168.5236053466797,17422475.0,50354.0,0.09997078196805194,0.15441128386992364,0.05042561077050873,0.010110782570786283,0.002320930948189665,-0.0005541741200392467,17.422475859999395
1632,C,5166521507637.0,1.2457277255485546,7.721747102947603,-1.4979904033878393,166,1970-01-01 01:26:06.521507637,-0.4263916,0.14224243,0.025863647,12.805020836878782,0.45023508712560983,-106.51226043701172,11.564016342163086,-168.59121704101562,17472829.0,50354.0,0.04186883364027193,0.12463230592492361,0.03343028982330873,0.0035710960021707702,0.007025480460264869,0.002111240009250542,17.472829862999788
1632,C,5166571861641.0,8.373062225548555,4.3993441029476035,6.44826819661216,166,1970-01-01 01:26:06.571861641,-0.7292023,0.18269348,-0.58657837,15.082150815492906,0.9535130235668821,-105.96903991699219,10.881353378295898,-168.47860717773438,17523183.0,50354.0,0.24217227459877194,-0.18829648670917642,0.12463314400000873,0.0071513029821344085,-0.0016028730796051334,0.003979563073369664,17.523183866999716
1632,C,5166622215645.0,-3.5917510744514454,0.21593310294760215,-8.54747480338784,166,1970-01-01 01:26:06.622215645,-0.038146973,0.4469452,-0.92637634,23.860893864530613,1.0292659164005666,-106.42503356933594,11.039545059204102,-168.5735321044922,17573537.0,50354.0,0.12037907085117193,-0.3772703657871765,-0.052851724738791274,0.009127955224393238,-0.014239276645300676,0.0018072407927396718,17.573537870999644
1632,C,5166672569649.0,-0.35499567445144553,9.576651102947604,13.19016619661216,166,1970-01-01 01:26:06.672569649,-0.93022156,-1.3270569,0.04815674,13.399989325272097,1.6213300830287063,-105.26209259033203,11.392451286315918,-168.276611328125,17623891.0,50354.0,-0.09936724289712809,-0.24692130744817645,0.11688904120720875,0.0005290147923989618,-0.015715273757046483,0.001612267516725347,17.623891874999572
1632,C,5166722923653.0,6.498031725548555,5.234305102947603,1.7699996966121603,166,1970-01-01 01:26:06.722923653,0.95510864,0.9182434,0.19441223,13.953619050111847,1.3391040179985207,-105.12187957763672,10.866822242736816,-168.30490112304688,17674245.0,50354.0,0.15466321865847193,-0.12057375560417641,0.37665209669370875,0.0013921867817433542,-0.009252423202469088,0.0124258852289314,17.6742458789995
1632,C,5166773277657.0,3.3444977255485546,8.465338102947603,1.9723159966121604,166,1970-01-01 01:26:06.773277657,0.9875946,0.8732605,-0.05795288,10.563864740819737,1.3195777851683106,-105.04007720947266,10.678990364074707,-168.33958435058594,17724599.0,50354.0,0.24780536399027192,-0.14855328300517642,0.09422028220830873,0.010132951505347425,-0.006775811451067677,0.011855153883616095,17.724599882999428
1632,C,5166823631661.0,-0.7667692744514456,11.806601102947603,0.2562971966121603,166,1970-01-01 01:26:06.823631661,0.09938049,-0.0024719238,0.19363403,9.407623765091001,0.21766196216600184,-105.3843765258789,11.191988945007324,-168.40817260742188,17774953.0,50354.0,0.06489946921327192,0.016917413386823576,0.05610979436580873,0.007872969585565623,-0.00331419628938127,0.0037848603379065553,17.774953886999356
1632,C,5166873985665.0,5.837875425548555,12.424749802947604,1.4866591966121603,166,1970-01-01 01:26:06.873985665,-0.31022644,0.5729065,0.33895874,7.1691426321221545,0.7344081489469675,-105.64555358886719,10.58718204498291,-168.4860076904297,17825307.0,50354.0,0.12767523956617194,0.1166035217577236,0.043882413112208724,0.004848453442940058,0.003361656584134264,0.0025175038076740456,17.825307890999284
1632,C,5166924339669.0,3.9917755795485546,12.679068102947603,2.6796523966121604,166,1970-01-01 01:26:06.924339669,0.0962677,1.3063354,-0.019927979,6.284655222134924,1.3100293018491893,-105.66778564453125,10.321355819702148,-168.55247497558594,17875661.0,50354.0,0.24748112335532993,0.1385696234167236,0.10489522698260872,0.009445311749274654,0.0064244942760570585,0.0037457746446672192,17.87566189499921
1632,C,5166974693673.0,4.6181336255485546,10.494772102947604,2.0449935966121604,166,1970-01-01 01:26:06.974693673,-0.039993286,0.9990082,0.015045166,8.57688204858235,0.9999215987327633,-105.69294738769531,9.961243629455566,-168.60406494140625,17926015.0,50354.0,0.21677168405672992,0.08997857486382359,0.11895241217140874,0.011688492932213431,0.005754157988109337,0.005635812010980698,17.92601589900005
1632,C,5167025047677.0,6.072937125548554,10.456381102947605,0.7932845966121604,166,1970-01-01 01:26:07.025047677,-0.2914734,0.7304077,-0.009735107,9.245921654485155,0.7864775415961675,-105.91394805908203,9.404627799987793,-168.6732177734375,17976369.0,50354.0,0.2691690883003719,0.03401798426482362,0.07145933007080874,0.012234530825634754,0.003121861369181951,0.00479399643443231,17.976369902999977
1632,C,5167075401680.0,4.973953325548555,8.342505102947603,-0.4046218033878395,166,1970-01-01 01:26:07.075401680,-0.76208496,0.2364502,-0.33525085,11.481158996729727,0.8654913724376252,-106.18235778808594,9.042644500732422,-168.71670532226562,18026723.0,50354.0,0.2781275608872719,-0.020169641994176386,0.009785363145008729,0.01377928773659731,0.0003486597133480855,0.0020454976410946364,18.02672390599946
1632,C,5167125755684.0,4.240829535548555,1.6520901029476036,-2.25294950338784,166,1970-01-01 01:26:07.125755684,-1.6525116,0.13801575,-1.3148041,18.326331916203554,2.116259142156138,-106.39534759521484,8.73964786529541,-168.72506713867188,18077077.0,50354.0,0.23200058809384194,-0.24183527650117642,-0.06690967279069128,0.012843496406897503,-0.006596497832957498,-0.0014382187439493496,18.07707790999939
1632,C,5167176109688.0,-0.2867888744514451,4.483649102947604,3.32183379661216,166,1970-01-01 01:26:07.176109688,-1.8834534,-0.25975037,-1.7088776,14.920279569966828,2.5563899578249907,-106.19774627685547,8.870218276977539,-168.6443634033203,18127431.0,50354.0,0.09955088172444193,-0.3389896940131764,0.026911299850508708,0.008347471355614934,-0.014623430282639864,-0.0010070390355149767,18.127431913999317
1632,C,5167226463692.0,-0.3212737744514449,11.813421702947604,3.4646560966121602,166,1970-01-01 01:26:07.226463692,-0.45080566,0.14115906,-0.6893158,8.231670016849947,0.8356481887958349,-106.04542541503906,9.40380573272705,-168.61390686035156,18177785.0,50354.0,-0.015309193311428061,-0.08315784831997639,0.17086345604170874,0.0021209529891744504,-0.010628408673321788,0.004979375029098359,18.177785917999245
1632,C,5167276817696.0,0.5548859255485548,12.159659102947604,2.0197097966121604,166,1970-01-01 01:26:07.276817696,0.6186218,0.2720337,0.16322327,7.816104958286397,0.695224497008285,-106.11262512207031,9.833514213562012,-168.6453094482422,18228139.0,50354.0,0.0058816531281719354,0.11010105545002362,0.13807988009370872,-0.00023735717919383948,0.0006783491259131992,0.007778266373881406,18.228139922000082
1632,C,5167327171700.0,0.9928589255485547,14.622000102947604,3.1945754966121602,166,1970-01-01 01:26:07.327171700,1.220459,-0.4960785,1.1699982,5.26319681725057,1.76196192831925,-106.06684112548828,10.521112442016602,-168.64016723632812,18278493.0,50354.0,0.03896757211607193,0.18081263382682358,0.13128006082750873,0.001129168943974328,0.007324333954923182,0.006781675232573493,18.27849392600001
1632,C,5167377525704.0,3.5438385655485547,13.350821102947604,4.45234226011216,166,1970-01-01 01:26:07.377525704,1.812149,-1.423233,1.8866425,5.386340371197526,2.978069188802747,-105.56353759765625,10.516648292541504,-168.52325439453125,18328847.0,50354.0,0.11422043273335195,0.21080251950082363,0.19252644836104824,0.0038568143980939455,0.009859694715330174,0.008152476481840299,18.328847929999938
1632,C,5167427879708.0,7.742309725548555,10.170370102947604,-0.55034330338784,166,1970-01-01 01:26:07.427879708,1.5845184,-2.9315643,1.5488892,10.554205207938173,3.674755169919445,-105.80911254882812,9.902730941772461,-168.46282958984375,18379201.0,50354.0,0.28415135552495197,0.09872383099082363,0.09824062773344822,0.010029806512979317,0.007792944926328203,0.0073206426748311385,18.379201933999866
1632,C,5167478233712.0,5.130981525548554,9.742468102947603,-3.6413928033878404,166,1970-01-01 01:26:07.478233712,-0.0975647,-2.4417572,0.1568451,12.119583158709142,2.448733852388197,-106.43317413330078,9.599059104919434,-168.45408630371094,18429555.0,50354.0,0.32411085382887195,0.0078763275098236,-0.10553533996029131,0.015314217644901226,0.0026838721905707956,-0.0001836589697352286,18.429555937999794
1632,C,5167528587716.0,-1.6304167744514455,13.985815502947604,2.8622238966121603,166,1970-01-01 01:26:07.528587716,-0.004470825,-0.60672,-0.00019836426,7.565421498695489,0.6067365046085165,-106.4619369506836,10.513239860534668,-168.4303741455078,18479909.0,50354.0,0.0881337187383719,0.1039377963456236,-0.0196171355658913,0.010379081603525499,0.0028151441963085943,-0.0031509638763227,18.479909941999722
1632,C,5167578941720.0,-1.2719115744514458,9.376486102947604,-2.56578520338784,166,1970-01-01 01:26:07.578941720,-0.12512207,0.36938477,0.045562744,12.832623934227382,0.39265328771047786,-106.93449401855469,10.872465133666992,-168.5349578857422,18530263.0,50354.0,-0.0730719208403281,0.09472346753162363,0.007463436979308714,0.000379210885679049,0.005001694640637454,-0.0003059936693143898,18.53026394599965
1632,C,5167629295723.0,6.8908081255485545,4.291586102947603,4.50713657161216,166,1970-01-01 01:26:07.629295723,-0.6419983,0.43574524,-0.35630798,14.69535041595368,0.8538097610107465,-106.5468521118164,10.324899673461914,-168.47299194335938,18580617.0,50354.0,0.1414669584669719,-0.14934814607217642,0.048877403397783716,0.0017219818623260114,-0.0013752855316154977,0.001418493338174056,18.580617949000043
1632,C,5167679649727.0,1.879257225548555,3.183508102947604,-7.03488580338784,166,1970-01-01 01:26:07.679649727,0.48138428,3.1543427,-1.5135651,19.430632725847484,3.5316409792067507,-107.0385971069336,10.125020027160645,-168.69212341308594,18630971.0,50354.0,0.22080393534457193,-0.3052687531781764,-0.06364114240841628,0.009120894293493241,-0.011445889672426135,-0.0003717066570706962,18.63097195299997
1632,C,5167730003731.0,-0.1583402744514455,10.923575102947604,13.52061019661216,166,1970-01-01 01:26:07.730003731,-0.8829956,-0.35765076,-0.22354126,12.686939632325954,0.9785530086154378,-105.8200454711914,10.49117374420166,-168.44625854492188,18681325.0,50354.0,0.043327526077771926,-0.1382951661251764,0.16329108304820875,0.006650037804230351,-0.011167608796300514,0.002508886555488055,18.6813259569999
1632,C,5167780357735.0,5.928665225548555,2.2868561029476027,1.0295974966121602,166,1970-01-01 01:26:07.780357735,0.83647156,0.9043274,0.90693665,16.8787529112404,1.5297146152772472,-105.68514251708984,10.10826587677002,-168.48468017578125,18731679.0,50354.0,0.14527947129377192,-0.16087017352917643,0.36633057909230876,0.00474855837282336,-0.007532085756477642,0.013334284587711812,18.731679960999827
1632,C,5167830711739.0,5.3213349255485545,10.718237402947604,2.1720381966121605,166,1970-01-01 01:26:07.830711739,0.40634155,0.21792603,0.34065247,8.403792506067456,0.5732794389519515,-105.67115020751953,9.661974906921387,-168.50070190429688,18782033.0,50354.0,0.2832412538041719,-0.16603996080207642,0.08060758184830873,0.010788866295790933,-0.008230616452057953,0.011252562078001927,18.782033964999755
1632,C,5167881065743.0,3.1023255255485545,11.428198102947604,-0.5005538033878398,166,1970-01-01 01:26:07.881065743,0.14968872,0.021774292,0.04359436,8.852937756781172,0.15742077661842882,-106.12145233154297,9.589993476867676,-168.57887268066406,18832387.0,50354.0,0.21208249917727195,0.06411160673192363,0.042082962568208725,0.012470766128813813,-0.0025662501704242367,0.00308897983677466,18.832387968999683
1632,C,5167931419747.0,1.6005097255485548,12.704580802947604,2.6476089966121603,166,1970-01-01 01:26:07.931419747,-0.026519775,0.5467987,0.09403992,6.735070631438807,0.5554598305380389,-106.13886260986328,9.881157875061035,-168.6087646484375,18882741.0,50354.0,0.11840328311687194,0.11412177451372361,0.05405640859980872,0.00832064054081966,0.004487381839621661,0.002420500947897175,18.88274197299961
1632,C,5167981773751.0,2.5550995255485547,13.082220502947603,2.6388046966121603,166,1970-01-01 01:26:07.981773751,0.023544312,1.3063202,0.1991272,6.0998684168579445,1.3216196280834487,-106.18830108642578,9.983236312866211,-168.68203735351562,18933095.0,50354.0,0.10462577411487194,0.1557650964785236,0.1330960375543087,0.005615202573923616,0.006794941750971809,0.004711937136822214,18.93309597699954
1632,C,5168032127755.0,6.506424025548554,10.578833102947604,1.4861861966121603,166,1970-01-01 01:26:08.032127755,-0.28749084,0.73384094,0.110946655,8.991054021064299,0.7959162446888983,-106.30062866210938,9.356420516967773,-168.73464965820312,18983449.0,50354.0,0.22814197844597192,0.10224514663562359,0.10385489571870873,0.008378093706224365,0.006495923890884885,0.0059657136470147604,18.983449980999467
1632,C,5168082481759.0,7.357788125548555,6.963995102947603,-1.3115888033878393,166,1970-01-01 01:26:08.082481759,-0.93844604,0.45739746,-0.38850403,13.48856966385927,1.1139249470823311,-106.58885955810547,8.763439178466797,-168.78868103027344,19033803.0,50354.0,0.34905926932817194,-0.05179341426017642,0.00439583856920873,0.01453219581520962,0.0012702232660166334,0.002725428737166898,19.033803984999395
1632,C,5168132835762.0,2.1360474255485546,2.1071531029476027,-0.8687028033878397,166,1970-01-01 01:26:08.132835762,-1.5158691,0.5926361,-1.4946594,17.53868548076481,2.2097699874345245,-106.69428253173828,8.621996879577637,-168.800048828125,19084157.0,50354.0,0.23902629766997197,-0.26508490162017645,-0.05489320178379127,0.014806230320312272,-0.007978045358919645,-0.0012713721136535447,19.084157987999788
1632,C,5168183189766.0,-0.006378274451445343,4.216055102947603,2.4862014966121606,166,1970-01-01 01:26:08.183189766,-1.0497437,0.7167053,-1.7458344,15.182408594776012,2.15952913269563,-106.52925109863281,8.703306198120117,-168.77645874023438,19134511.0,50354.0,0.05361868021717192,-0.33426978700017645,0.04072376459930873,0.007367922608264622,-0.015089952995394626,-0.0003567439199937169,19.134511991999716
1632,C,5168233543770.0,-0.7503356744514456,11.458593802947604,2.60033719661216,166,1970-01-01 01:26:08.233543770,-0.15885925,0.52394104,-0.7169037,8.89713846786261,0.9020539838504866,-106.49043273925781,9.245306968688965,-168.78395080566406,19184865.0,50354.0,-0.019051787091528084,-0.09882856449627642,0.12806378467930873,0.0008702906682243349,-0.010904117195626195,0.004249564128187752,19.184865995999644
1632,C,5168283897774.0,1.7901154255485547,12.568579102947604,3.7681991966121604,166,1970-01-01 01:26:08.283897774,0.50709534,0.06564331,0.6217041,6.584630436177986,0.8049662824952867,-106.22420501708984,9.549546241760254,-168.75637817382812,19235220.0,50355.0,0.026179054683247466,0.11146514583817656,0.1603438250404053,0.00017944677979051473,0.0003181575267356908,0.007261382593718099,19.235219999999572
1632,C,5168334251778.0,0.8805847255485548,14.013159102947604,3.44849704661216,166,1970-01-01 01:26:08.334251778,1.1324615,-1.1363373,1.6586456,5.760809120134516,2.3075607759608197,-106.07057189941406,10.227721214294434,-168.70843505859375,19285574.0,50354.0,0.06724021770417193,0.17577922280982367,0.18169476131565873,0.0023520170208980585,0.007231951469450703,0.008611505488686624,19.2855740039995
1632,C,5168384605782.0,4.212265085548554,11.153036602947605,2.0557510966121604,166,1970-01-01 01:26:08.384605782,1.4981384,-2.4810333,2.0635986,7.92719498565958,3.5578622912059723,-106.01569366455078,10.080374717712402,-168.6228485107422,19335928.0,50354.0,0.12822267969399193,0.14014010928732365,0.13858045550195872,0.004921169367793572,0.007953901024209878,0.008063569133817155,19.335928007999428
1632,C,5168434959786.0,8.343292325548553,7.340872102947603,-3.52211450338784,166,1970-01-01 01:26:08.434959786,1.0901947,-2.7780457,1.0577698,14.525948537073049,3.16621846134922,-106.39208984375,9.527541160583496,-168.57940673828125,19386282.0,50354.0,0.31611126893919195,-0.02784806051167638,-0.03691863149239129,0.01118699582473767,0.0028271769120244714,0.0025595397430888795,19.386282011999356
1632,C,5168485313790.0,3.9855805115485547,11.829229802947605,-0.1411941033878401,166,1970-01-01 01:26:08.485313790,-0.13557434,-1.9566956,0.14454651,8.267758730960747,1.9667058158959554,-106.81401062011719,9.348933219909668,-168.55691528320312,19436636.0,50354.0,0.31040403141959394,-0.010823544315276374,-0.0922311207927913,0.015773775717133152,-0.0009736349947281896,-0.003251603313284043,19.436636015999284
1632,C,5168535667794.0,-0.5415342744514451,12.530432102947604,4.240550266612161,166,1970-01-01 01:26:08.535667794,-0.15386963,-0.56025696,-0.08731079,7.710501033369636,0.5875260830935105,-106.51541137695312,10.016336441040039,-168.4777374267578,19486990.0,50354.0,0.08671075211139394,0.11983400780472364,0.10320949012149873,0.009998158904959682,0.002744556439273814,0.00027640240458886683,19.48699001999921
1632,C,5168586021798.0,3.4736786555485546,7.853125102947605,-0.1463974033878399,166,1970-01-01 01:26:08.586021798,-0.19786072,-0.75268555,-0.1186676,11.802031084840591,0.787252437905073,-106.67993927001953,9.844484329223633,-168.4672088623047,19537344.0,50354.0,0.07382259908288193,0.01972761977282362,0.10307848663739873,0.004041748183018284,0.0035137430975199072,0.005193712390858762,19.53734402400005
1632,C,5168636375802.0,3.7691193255485547,4.765997102947605,0.2817031966121606,166,1970-01-01 01:26:08.636375802,-0.60328674,0.06359863,-0.53240967,14.55544406453153,0.8071305551812628,-106.70724487304688,9.601693153381348,-168.46212768554688,19587698.0,50354.0,0.1823519247700819,-0.17575756022217637,0.003406593956008722,0.006449705987046072,-0.003928365810693355,0.0026809748741002193,19.587698027999977
1632,C,5168686729805.0,-3.0635985744514453,3.561850102947604,0.25402379661216035,166,1970-01-01 01:26:08.686729805,-0.35806274,0.58073425,-0.45796204,17.257666959540288,0.8216997170380015,-106.69954681396484,9.937074661254883,-168.478759765625,19638052.0,50354.0,0.01776289595037192,-0.28379899089717636,0.01348799850840873,0.005038290841278867,-0.011570255287531944,0.0004253551544766382,19.63805203099946
1632,C,5168737083809.0,1.4155732255485547,7.6006841029476035,5.64611359661216,166,1970-01-01 01:26:08.737083809,-0.42825317,-0.07058716,0.36636353,11.486019145708543,0.5679837681536114,-106.17044830322266,10.058813095092773,-168.38507080078125,19688406.0,50354.0,-0.04149233420932808,-0.2124300762981764,0.14854775914920873,-0.0005974360670457393,-0.012493559224777398,0.004079574270545835,19.68840603499939
1632,C,5168787437813.0,2.8180695255485544,9.278021102947603,2.0813857966121603,166,1970-01-01 01:26:08.787437813,0.4365387,0.70796204,0.45178223,9.803479250153488,0.9465112096654875,-106.10185241699219,10.001754760742188,-168.41661071777344,19738760.0,50354.0,0.10659042354437193,-0.06851403903117642,0.19455525222320874,0.001638974595188399,-0.007073329991647117,0.008638304517323355,19.738760038999317
1632,C,5168837791817.0,4.746734685548555,12.569845702947603,2.82934119661216,166,1970-01-01 01:26:08.837791817,0.53959656,0.10057068,0.453125,6.38633127588422,0.7117592112958538,-106.0410385131836,9.623785972595215,-168.421875,19789114.0,50354.0,0.19045907562279193,0.05659454257202358,0.12363737350840874,0.007478815240531685,-0.0003000971623520911,0.008011135738044933,19.789114042999245
1632,C,5168888145821.0,2.3699341255485544,12.028357102947604,1.5093337966121605,166,1970-01-01 01:26:08.888145821,0.6270294,-0.20343018,0.37609863,7.491302157246957,0.7589465633936747,-106.19677734375,9.732555389404297,-168.4487762451172,19839468.0,50354.0,0.17917637065699193,0.1258397520440236,0.10923482030440873,0.009306311630986119,0.00459314823554822,0.005863023223625306,19.839468047000082
1632,C,5168938499825.0,1.9680634255485545,10.115088102947604,0.18944859661216018,166,1970-01-01 01:26:08.938499825,0.09162903,-0.029922485,0.65774536,9.815957313534206,0.664770782186496,-106.44273376464844,9.8328218460083,-168.49896240234375,19889822.0,50354.0,0.10921776434397192,0.06403631994882363,0.04277024431420873,0.007260899136919267,0.004780509864563915,0.0038270315119029318,19.88982205100001
1632,C,5168988853829.0,6.652938925548554,10.291067602947605,1.9283248966121604,166,1970-01-01 01:26:08.988853829,-0.47392273,-0.739624,0.9786072,9.161053847399717,1.315035538408941,-106.46661376953125,9.256553649902344,-168.4775848388672,19940176.0,50354.0,0.2170509761935719,0.02029658220732364,0.053319183238908725,0.00821446808051374,0.0021232494775853196,0.002419243517504838,19.940176054999938
1632,C,5169039207833.0,8.535766725548555,7.702200102947604,3.03971409661216,166,1970-01-01 01:26:09.039207833,-0.749588,-1.2285309,0.22894287,11.965896070181689,1.4572526135583517,-106.27998352050781,8.545392990112305,-168.3877410888672,19990530.0,50354.0,0.38240604217767193,-0.04045269896867638,0.1250803177324087,0.015092529351532805,-0.0005074705517005779,0.004491564235954859,19.990530058999866
1632,C,5169089561837.0,2.055938725548555,2.5493221029476025,1.10233619661216,166,1970-01-01 01:26:09.089561837,-0.60147095,0.3820343,-1.6676636,16.625108542446664,1.8135102406204804,-106.193603515625,8.420364379882812,-168.36553955078125,20040884.0,50354.0,0.26666736814227193,-0.23536662542217643,0.10428440023250872,0.016341721251625228,-0.006944303130188502,0.005774715504202726,20.040884062999794
1632,C,5169139915841.0,-3.430343574451445,2.327170102947605,0.9933578966121601,166,1970-01-01 01:26:09.139915841,-0.521225,0.9420624,-1.9779968,18.3434804188663,2.252027621262448,-106.12273406982422,8.700154304504395,-168.36865234375,20091238.0,50354.0,-0.034603390880828075,-0.37069375573217644,0.05276329018510871,0.005842674755511372,-0.015258782216323144,0.003953989701644354,20.091238066999722
1632,C,5169190269845.0,0.33886722554855453,5.372641102947604,2.73563689661216,166,1970-01-01 01:26:09.190269845,-0.47399902,-0.05607605,-1.0177917,13.95381740656833,1.124152809422924,-105.92901611328125,8.823506355285645,-168.31890869140625,20141592.0,50354.0,-0.07783410003632808,-0.29961105326917636,0.09388490190900871,-0.002830838708821241,-0.01687626417622706,0.0036921615323535946,20.14159207099965
1632,C,5169240623848.0,1.6935730255485546,7.528174102947604,2.1687423966121604,166,1970-01-01 01:26:09.240623848,0.035064697,0.07199097,-0.9217682,11.65530381619844,0.925239886336772,-105.8155746459961,8.85141658782959,-168.2926788330078,20191946.0,50354.0,0.05117074820187192,-0.1686653755611764,0.12347755746550872,-0.0006713032091361029,-0.011789795648661791,0.005472534639672225,20.191946074000043
1632,C,5169290977852.0,1.7315522255485547,11.870047102947604,3.56757663661216,166,1970-01-01 01:26:09.290977852,-0.036590576,-1.5912476,-0.84729004,7.280598451084331,1.8031384324673947,-105.59898376464844,9.078821182250977,-168.17160034179688,20242300.0,50354.0,0.08623437844687193,-0.005080184699176386,0.14442330429948874,0.0034594488736354244,-0.0043743919706749025,0.006744939996657341,20.24230007799997
1632,C,5169341331856.0,1.9929810255485547,14.056845102947605,4.7019760466121605,166,1970-01-01 01:26:09.341331856,0.05281067,-2.6534424,-0.52767944,5.101431856278197,2.7059177977873463,-105.14580535888672,9.466642379760742,-167.96580505371094,20292654.0,50354.0,0.09377257366287194,0.1592921650678237,0.20820252790553873,0.004532035033267022,0.0038825950297414332,0.008878060577425977,20.2926540819999
1632,C,5169391685860.0,1.7330323255485545,13.189779802947605,2.77427219661216,166,1970-01-01 01:26:09.391685860,0.19078064,-2.502243,0.022659302,6.2204634478173455,2.509607684004601,-105.15408325195312,9.811245918273926,-167.8499298095703,20343008.0,50354.0,0.09380983814057192,0.19251907525572368,0.18822950201965874,0.0047227623819753066,0.008857551597625952,0.009980969217426696,20.343008085999827
1632,C,5169442039864.0,2.6830292255485544,8.672278102947605,-0.32204130338783976,166,1970-01-01 01:26:09.442039864,0.11175537,-2.1527557,0.25061035,11.196735027266318,2.1701732451888374,-105.38694763183594,9.787139892578125,-167.79136657714844,20393362.0,50354.0,0.1111831816719719,0.05695183189672366,0.06173981719870872,0.005161109259820416,0.0062809290293771676,0.006293477549960838,20.393362089999755
1632,C,5169492393868.0,5.899444625548554,6.285498102947605,-0.6408738033878398,166,1970-01-01 01:26:09.492393868,-0.3768921,-1.9521179,0.2195282,13.549773047230975,2.000251129518006,-105.56185150146484,9.392861366271973,-167.72743225097656,20443716.0,50354.0,0.21608094414907195,-0.11687726846417636,-0.024243313643291287,0.008239528895796423,-0.0015087427164587567,0.0009440494700147448,20.443716093999683
1632,C,5169542747872.0,6.054901225548555,6.785590102947603,0.005366596612160102,166,1970-01-01 01:26:09.542747872,-0.7162781,-1.9519196,-0.24020386,12.878860667163016,2.0930222970056174,-105.70256042480469,8.958842277526855,-167.64808654785156,20494070.0,50354.0,0.30097456549307194,-0.16437841224017638,-0.01600016494499129,0.013017906566260257,-0.00708117427309349,-0.0010132100604171904,20.49407009799961
1632,C,5169593101876.0,0.0800019255485549,6.4051271029476045,0.9648239966121603,166,1970-01-01 01:26:09.593101876,-0.45088196,-1.4781189,-0.43319702,13.393734321231365,1.6049266907019561,-105.71429443359375,9.165771484375,-167.57034301757812,20544424.0,50354.0,0.15445845663517194,-0.1613665129071764,0.024426488565608716,0.011466437198122797,-0.0082012799804349,0.00021214954979628493,20.54442410199954
1632,C,5169643455880.0,-2.258346274451445,10.880468802947604,7.749003596612161,166,1970-01-01 01:26:09.643455880,-0.2227478,-0.98023987,0.42778015,10.59473597481459,1.092466311552205,-104.9900894165039,9.899259567260742,-167.40777587890625,20594778.0,50354.0,-0.05484417567232807,-0.05826975187727638,0.21938803731460876,0.00250798875180152,-0.005529782238478168,0.006138518318086236,20.594778105999467
1632,C,5169693809884.0,-0.23944087445144557,11.155981502947604,8.55265349661216,166,1970-01-01 01:26:09.693809884,0.025741577,-1.8564453,1.4362946,9.619136355783123,2.3473376320137027,-104.07835388183594,10.462320327758789,-167.17681884765625,20645132.0,50354.0,-0.06288678704792808,0.061342509351523626,0.41042682063610875,-0.0029641124484078895,7.736281492912297e-05,0.015856848678625215,20.645132109999395
1632,C,5169744163887.0,3.5244293855485544,9.742148102947604,4.15345309661216,166,1970-01-01 01:26:09.744163887,0.15992737,-1.7443542,1.0206604,8.990608942154058,2.0273371675330467,-103.74853515625,10.36329174041748,-167.04766845703125,20695486.0,50354.0,0.08270615574389191,0.032683009087623636,0.3199016456976087,0.0004989922456582814,0.0023672804777424106,0.01838747979688401,20.695486112999788
1632,C,5169794517891.0,2.624176125548555,10.467749102947604,4.10399936661216,166,1970-01-01 01:26:09.794517891,0.7024994,-1.0808716,0.1207428,8.375605510905016,1.29474617066001,-103.4199447631836,10.374910354614258,-166.9446258544922,20745840.0,50354.0,0.15480344095289192,0.015355381952823622,0.20789788066659873,0.0059797791160349275,0.0012094625712253406,0.013288408675271653,20.745840116999716
1632,C,5169844871895.0,1.2441864255485546,9.593481102947603,2.2808639966121604,166,1970-01-01 01:26:09.844871895,0.90437317,-1.0011139,-0.074279785,9.785194070843978,1.3511614847414446,-103.36297607421875,10.541714668273926,-166.8936767578125,20796194.0,50354.0,0.09739376394897194,0.011612392893823585,0.16075170489589874,0.006349569027814227,0.0006789676673140368,0.009281490615707,20.796194120999644
1632,C,5169895225899.0,1.4044190255485547,9.543143102947603,3.64046789661216,166,1970-01-01 01:26:09.895225899,0.5224762,-1.1796417,0.040222168,9.579859350701032,1.290795778868195,-103.12189483642578,10.698803901672363,-166.79808044433594,20846548.0,50354.0,0.06668393944227193,-0.011666412368176433,0.14908137307570873,0.004130984338281347,-1.3600483057816434e-06,0.007800667404091161,20.846548124999572
1632,C,5169945579903.0,1.1970520255485546,9.921896102947604,4.62584994661216,166,1970-01-01 01:26:09.945579903,0.4654541,-0.87080383,0.15686035,9.247423327822288,0.999775974382062,-102.7473373413086,10.90721321105957,-166.69227600097656,20896902.0,50354.0,0.06549723665347193,-0.003397907913176396,0.2081210843388587,0.0033279254705625436,-0.0003792743917236202,0.008993286270326566,20.8969021289995
1632,C,5169995933907.0,1.2716980255485546,9.936774102947604,4.237345926612161,166,1970-01-01 01:26:09.995933907,0.47972107,-0.6949158,0.34332275,9.210690500739492,0.9115430789376591,-102.4417495727539,11.10444450378418,-166.60891723632812,20947256.0,50354.0,0.06215572003647192,0.006512539773823629,0.22314868250016873,0.003213918490582717,7.841708635551538e-05,0.010858078919706193,20.947256132999428
1632,C,5170046287911.0,1.8627167255485548,9.014273102947604,3.11818999661216,166,1970-01-01 01:26:10.046287911,0.431015,-0.657074,0.5695648,10.03154133373296,0.9705278116056438,-102.29869079589844,11.179277420043945,-166.55996704101562,20997610.0,50354.0,0.07891516018837193,-0.016338684497176396,0.18519032793901874,0.003551741551420894,-0.0002473928456998527,0.010280751265827424,20.997610136999356
1632,C,5170096641915.0,3.071792665548555,8.531439102947603,2.8502914966121606,166,1970-01-01 01:26:10.096641915,-0.047164917,-0.3843994,0.4353943,10.351374127310216,0.5827140161249487,-102.21133422851562,11.063203811645508,-166.52877807617188,21047964.0,50354.0,0.12423614293965193,-0.051720803792176424,0.15026845855490872,0.0051147403588542575,-0.0017135337366610361,0.008445845867557613,21.047964140999284
1632,C,5170146995919.0,3.240188665548555,6.163443102947603,2.05126499661216,166,1970-01-01 01:26:10.146995919,-0.52098083,-0.06677246,0.010894775,12.800209125919785,0.5253553871088038,-102.20021057128906,10.880572319030762,-166.51856994628906,21098318.0,50354.0,0.15891675397303195,-0.12349615070217643,0.12340648782990875,0.007128940485570642,-0.004411437263304322,0.00689031412513055,21.09831814499921
1632,C,5170197349923.0,4.180633615548555,4.172186102947604,-1.3257034033878394,166,1970-01-01 01:26:10.197349923,-2.1085815,-0.1375122,-0.68722534,15.641351523296583,2.222004548876803,-102.54158020019531,10.57103157043457,-166.54847717285156,21148672.0,50354.0,0.18683404257118194,-0.23324906348317642,0.01826746423260872,0.008704967804593674,-0.00898177425754463,0.003566925091078003,21.14867214900005
1632,C,5170247703927.0,1.6074830255485546,5.072119102947603,6.278346296612161,166,1970-01-01 01:26:10.247703927,-3.2892456,-0.07218933,-1.088089,13.980744834475907,3.465297330447448,-102.20740509033203,10.522942543029785,-166.4420623779297,21199026.0,50354.0,0.14572741267290193,-0.2607253278311764,0.12469269012270874,0.0083728997586803,-0.012436793250121462,0.0035993078062038276,21.199026152999977
1632,C,5170298057930.0,0.34358222554855455,8.841528102947604,6.3892471966121605,166,1970-01-01 01:26:10.298057930,-1.9845428,0.78474426,-0.8731079,10.726820628059194,2.3057647502894127,-101.76934814453125,10.734781265258789,-166.37176513671875,21249380.0,50354.0,0.04912196982687192,-0.1431653042971764,0.3189320013789087,0.004905722903196807,-0.010168754445095539,0.011169138857936222,21.24938015599946
1632,C,5170348411934.0,1.5485993255485546,9.984991102947603,5.25704499661216,166,1970-01-01 01:26:10.348411934,-0.8887329,0.76924133,-1.1577454,9.118819122117237,1.6498341742562308,-101.40594482421875,10.81303882598877,-166.32093811035156,21299734.0,50354.0,0.04763945491197192,-0.01947392595317639,0.2932186985488087,0.0024361623906498714,-0.004094767900013133,0.015412118172080142,21.29973415999939
1632,C,5170398765938.0,3.324264595548555,9.528433102947604,4.849513276612161,166,1970-01-01 01:26:10.398765938,0.21330261,0.24752808,-1.7089081,9.222451978652499,1.7398663879927412,-101.04380798339844,10.579339027404785,-166.2510528564453,21350088.0,50354.0,0.12268409494146193,-0.002179718768176404,0.25445281764496874,0.004288236014659904,-0.0005451738131494994,0.013788725763210738,21.350088163999317
1632,C,5170449119942.0,2.6006012255485547,10.057104602947604,5.227671846612161,166,1970-01-01 01:26:10.449119942,0.050201416,-1.421463,-1.7964478,8.813004340074565,2.2913537353848805,-100.62310791015625,10.488845825195312,-166.089111328125,21400442.0,50354.0,0.14917034677776192,-0.0003641171786763942,0.25371328984741875,0.006844479279164899,-6.404615763391291e-05,0.012794098088335842,21.400442167999245
1632,C,5170499473946.0,1.1227570255485548,10.843130602947603,5.186381566612161,166,1970-01-01 01:26:10.499473946,-0.0022125244,-2.8471832,-1.1601105,8.433451755192689,3.074461488104333,-100.21725463867188,10.713438034057617,-165.8663330078125,21450796.0,50354.0,0.09374299068787192,0.03273602177882359,0.26219462278474875,0.006115829097372264,0.000815027442117906,0.012989013516340082,21.450796172000082
1632,C,5170549827950.0,0.2350922255485548,12.823874102947604,4.17583774661216,166,1970-01-01 01:26:10.549827950,0.21888733,-2.8843842,-0.27676392,7.027898304967748,2.905887496765478,-100.01495361328125,11.270304679870605,-165.68792724609375,21501150.0,50354.0,0.03418657059487193,0.10239497748032361,0.23571259564904873,0.0032208825644156423,0.0034021931683475494,0.01253581003850772,21.50115017600001
1632,C,5170600181954.0,1.7116700255485546,10.508993602947603,0.9371139966121604,166,1970-01-01 01:26:10.600181954,0.33055115,-2.2796478,0.2665558,9.223887350381432,2.318859665724686,-100.2966537475586,11.397783279418945,-165.63870239257812,21551504.0,50354.0,0.049013633195871924,0.0939824102313236,0.12872878603915872,0.0020947315308395584,0.004944193490416142,0.009175540666764,21.551504179999938
1632,C,5170650535958.0,6.3531189255485545,8.005545102947604,0.12792519661216062,166,1970-01-01 01:26:10.650535958,-0.28382874,-2.4145508,0.37342834,11.76686808506098,2.4596875908427442,-100.57666015625,10.892629623413086,-165.5768585205078,21601858.0,50354.0,0.2030471914217719,-0.027328659001676407,0.026814491767808733,0.006346135381398419,0.0016781414947088277,0.00391611310534602,21.601858183999866
1632,C,5170700889962.0,6.567520225548554,5.565771102947604,0.8012039966121605,166,1970-01-01 01:26:10.700889962,-0.6219177,-2.46669,-0.5937042,13.868357489970379,2.612245367259923,-100.70606231689453,10.36690902709961,-165.47044372558594,21652212.0,50354.0,0.32530293190717197,-0.1517841718841764,0.023392685697808734,0.01330227105505282,-0.004509523743213117,0.001264066107051851,21.652212187999794
1632,C,5170751243966.0,1.9790192255485546,12.442465102947605,5.14199374661216,166,1970-01-01 01:26:10.751243966,-0.18222046,-1.6976929,-0.8895111,6.644149536404426,1.9252520551284271,-100.29132080078125,10.546351432800293,-165.30337524414062,21702566.0,50354.0,0.21517622376027193,-0.040075837044176374,0.14963188958115872,0.013607643702239235,-0.0048304594447891374,0.004356239731798564,21.702566191999722
1632,C,5170801597970.0,-4.630691274451446,3.4699461029476044,-2.4824722033878395,166,1970-01-01 01:26:10.801597970,-0.2525177,-0.42318726,-0.7853241,18.862739384785034,0.9271389258791843,-100.61475372314453,10.934792518615723,-165.33396911621094,21752920.0,50354.0,-0.0667611471752281,-0.09284242306917637,0.06695877389375872,0.0037366463831816485,-0.003346483034873882,0.005453103134307997,21.75292019599965
1632,C,5170851951973.0,-7.0127712744514445,11.218145802947603,2.62977149661216,166,1970-01-01 01:26:10.851951973,-0.3065796,-1.7171326,0.18399048,13.49442077365597,1.7539634870343084,-100.6564712524414,11.958922386169434,-165.25814819335938,21803274.0,50354.0,-0.2931474565937281,-0.1236671100852764,0.003708554305508722,-0.00906141891709101,-0.005451060516229658,0.0017791913220729565,21.803274199000043
1632,C,5170902305977.0,2.4244690255485546,5.823218102947603,5.53844759661216,166,1970-01-01 01:26:10.902305977,0.018203735,-3.2356873,1.4281311,13.039029504997243,3.536885935132267,-100.23571014404297,11.950559616088867,-165.02854919433594,21853628.0,50354.0,-0.11551968572062807,-0.06441878094127643,0.2056512521101087,-0.010289012642048546,-0.00473543847837552,0.0052710518461260005,21.85362820299997
1632,C,5170952659981.0,3.989105295548555,9.347342102947604,4.51906894661216,166,1970-01-01 01:26:10.952659981,0.8152313,-1.6260223,0.2902069,9.365379949289329,1.841947512119873,-99.90650939941406,11.698518753051758,-164.89378356933594,21903982.0,50354.0,0.16147456068226193,-0.11152000569617643,0.2532180940087587,0.0011570058869090558,-0.004429610831171151,0.011552953527234726,21.9039822069999
1632,C,5171003013985.0,0.6584320255485547,10.024222102947604,2.7814285966121606,166,1970-01-01 01:26:11.003013985,1.2728271,-0.7090149,-0.14927673,9.477097089031073,1.464607284235577,-99.85659790039062,11.93009090423584,-164.86102294921875,21954336.0,50354.0,0.11701104713326194,-0.00575132798817639,0.18380462664575872,0.007011432147971446,-0.0029525403681709512,0.011002921037918785,21.954336210999827
1632,C,5171053367989.0,1.2443543255485547,9.210303102947604,2.12465979661216,166,1970-01-01 01:26:11.053367989,0.9504852,-1.0998077,0.3245697,10.177551330174852,1.4894108172550715,-99.89215850830078,12.059712409973145,-164.8279266357422,22004690.0,50354.0,0.04790645196157193,-0.009201558891176383,0.12352058747620874,0.004152127874710632,-0.0003764688329614648,0.007737526915948775,22.004690214999755
1632,C,5171103721993.0,2.3824311255485546,9.463660102947603,3.3435775966121604,166,1970-01-01 01:26:11.103721993,0.6324158,-1.321228,0.4915619,9.463426295432598,1.545065135716048,-99.76862335205078,12.049843788146973,-164.74923706054688,22055044.0,50354.0,0.09131157730227193,-0.023314828365176406,0.13767381284920874,0.003505092322775797,-0.0008186650819531941,0.006576091416993036,22.055044218999683
1632,C,5171154075997.0,3.0666657255485545,8.511877102947604,0.6561538966121603,166,1970-01-01 01:26:11.154075997,0.41445923,-0.6281891,0.23899841,10.924503495084107,0.7896317107826477,-100.0093765258789,11.901902198791504,-164.77523803710938,22105398.0,50354.0,0.13719191142007192,-0.04089909976717639,0.10070123980490872,0.005753032335562452,-0.0016167140685882464,0.006001568700672716,22.10539822299961
1632,C,5171204430001.0,3.3298035255485545,8.870734102947603,-1.05472260338784,166,1970-01-01 01:26:11.204430001,-0.2610016,-0.22045898,-0.025726318,11.294602046373546,0.3426161708136928,-100.49925231933594,11.714686393737793,-164.86195373535156,22155752.0,50354.0,0.16104390633487192,-0.055827197669176404,-0.01003476433049129,0.0075086831836162216,-0.0024352779905550547,0.0022827098530194077,22.15575222699954
1632,C,5171254784005.0,3.8325195955485545,8.118842102947603,-1.6510818033878394,166,1970-01-01 01:26:11.254784005,-1.9181213,-0.16738892,-0.574646,12.221139917425393,2.009334814650972,-101.07754516601562,11.439692497253418,-164.94534301757812,22206106.0,50354.0,0.1803258092198619,-0.06572263986417644,-0.06812403754939128,0.008594665328521534,-0.0030602602595772247,-0.0019678041549298034,22.206106230999467
1632,C,5171305138009.0,-2.2930602744514452,2.7025971029476032,4.480387914612161,166,1970-01-01 01:26:11.305138009,-2.824936,1.6070709,-1.4565887,17.22504490787059,3.5615433343833542,-100.96746063232422,11.611835479736328,-164.9589080810547,22256460.0,50354.0,0.038758967327261924,-0.22101782511317644,0.07123343996229474,0.005515897419126937,-0.007219264686734814,7.828542454967039e-05,22.256460234999395
1632,C,5171355492012.0,-2.248763974451445,7.606604102947603,12.16408849661216,166,1970-01-01 01:26:11.355492012,-2.0468445,1.2059631,-0.94641113,14.92808528639093,2.5572667895097956,-100.12925720214844,11.963919639587402,-164.8162384033203,22306814.0,50354.0,-0.11434950911462807,-0.23391444123917643,0.4190579826053948,-0.0019031430705805177,-0.011453829669953189,0.01234406714598672,22.306814237999788
1632,C,5171405846016.0,4.7225647655485545,7.124274102947604,2.0049851966121603,166,1970-01-01 01:26:11.405846016,-0.24353027,0.61135864,-1.3215485,11.859009220619706,1.476332217680415,-100.18937683105469,11.519187927246094,-164.84400939941406,22357168.0,50354.0,0.062282882517451926,-0.1225898794101764,0.3567347683743088,-0.001310881457837104,-0.008975709280988757,0.019532134091416,22.357168241999716
1632,C,5171456200020.0,2.0218507255485547,10.810766702947603,2.16909339661216,166,1970-01-01 01:26:11.456200020,-0.5990143,-1.1785889,-1.1993561,8.470402304014632,1.7850336079230862,-100.34964752197266,11.532651901245117,-164.80284118652344,22407522.0,50354.0,0.16980414881935194,-0.041918677629976406,0.10509077674160873,0.005843255187966711,-0.004141831940599928,0.011627381749383455,22.407522245999644
1632,C,5171506554024.0,0.7729950255485547,14.903326502947603,5.55288239661216,166,1970-01-01 01:26:11.506554024,-0.5474243,-1.8981323,-0.49061584,5.154662529868826,2.0355057098894824,-99.8503189086914,12.223374366760254,-164.59878540039062,22457876.0,50354.0,0.07036583147537193,0.1539345246448236,0.19441618454600873,0.006046759593880263,0.002820222980292808,0.007540686764338345,22.457876249999572
1632,C,5171556908028.0,-0.8302152744514455,11.419104102947603,1.9472915966121604,166,1970-01-01 01:26:11.556908028,0.2548828,-1.8457947,0.13276672,9.128880942336982,1.8680338107816699,-100.01184844970703,12.743243217468262,-164.54864501953125,22508230.0,50354.0,-0.0014406342066280815,0.1692506353646236,0.18883188062740874,0.0017353296916351637,0.008136832773557853,0.009649036536871132,22.5082302539995
1632,C,5171607262032.0,1.1690064255485546,11.495215102947604,2.77204439661216,166,1970-01-01 01:26:11.607262032,0.28782654,-2.7026062,0.46429443,7.952053137323073,2.7572619946490096,-100.03942108154297,13.004137992858887,-164.43209838867188,22558584.0,50354.0,0.008529744811171917,0.08344461464682361,0.11881872230140873,0.00017848253769060015,0.006362108309538207,0.007745719229938838,22.558584257999428
1632,C,5171657616036.0,2.6567231255485546,10.021094102947604,1.3045151966121602,166,1970-01-01 01:26:11.657616036,0.8166504,-1.9902954,0.4951172,9.34526383225977,2.2075630674608506,-100.22412872314453,12.941906929016113,-164.3914794921875,22608938.0,50354.0,0.09632039290797192,0.04824691687682362,0.10263554087860872,0.0026398119173548845,0.0033155976891708666,0.0055755539840833,22.608938261999356
1632,C,5171707970040.0,3.7405701255485546,9.590643102947604,1.4629012966121602,166,1970-01-01 01:26:11.707970040,0.25231934,-2.0387726,0.08984375,9.600021461668039,2.056290510424745,-100.38917541503906,12.69373607635498,-164.3339385986328,22659292.0,50354.0,0.16106465218287191,0.0002955076328236209,0.06967524504990871,0.006480183280252175,0.0012221526218793887,0.0043382686573222844,22.659292265999284
1632,C,5171758324044.0,2.5372620255485545,11.841208102947604,2.1883804966121603,166,1970-01-01 01:26:11.758324044,-0.3725891,-1.2354431,-0.2702942,7.389212832205618,1.318408603328293,-100.58718872070312,12.674946784973145,-164.31166076660156,22709646.0,50354.0,0.15805698006817193,0.04612051781082363,0.09192832170800871,0.008034525335184532,0.001168616272594707,0.004068693000264087,22.70964626999921
1632,C,5171808678048.0,0.03991702554855436,11.891607802947604,0.9923507966121603,166,1970-01-01 01:26:11.808678048,0.3506775,-0.47691345,-0.5058136,8.635982314001943,0.7786324843866408,-100.9266586303711,13.038260459899902,-164.3636474609375,22760000.0,50354.0,0.06488563696947192,0.10405190606272363,0.08008127176950873,0.0056130262691567595,0.0037808911158642997,0.004330685534983457,22.76000027400005
1632,C,5171859032052.0,2.7804871255485546,12.454260302947603,4.697352636612161,166,1970-01-01 01:26:11.859032052,0.19891357,-1.0656433,-0.18461609,6.393084664052072,1.099656924614183,-100.57305145263672,13.010698318481445,-164.23353576660156,22810354.0,50354.0,0.07100931531217192,0.1194867213021236,0.14324966333828873,0.003421427213594947,0.005628032021164759,0.005622802953209017,22.810354277999977
1632,C,5171909386055.0,0.3779907255485546,11.903723102947604,1.8993789966121604,166,1970-01-01 01:26:11.909386055,0.41516113,-0.60409546,-0.04348755,8.147392854038907,0.7342896265510572,-100.77054595947266,13.36191177368164,-164.25393676757812,22860708.0,50354.0,0.07952099685707192,0.11979174821022358,0.16608591232968875,0.0037899016694850525,0.006024314026912365,0.00778814178859267,22.86070828099946
1632,C,5171959740059.0,-0.2929839744514453,9.075034102947605,0.9922744966121604,166,1970-01-01 01:26:11.959740059,1.1053162,-0.5652771,-0.26106262,11.123121167759027,1.2686275234788635,-100.91799926757812,13.599165916442871,-164.27169799804688,22911062.0,50354.0,0.0021402149723719214,0.034712970172823626,0.07280315999890873,0.002055984330229908,0.003889965294729979,0.006014510174017098,22.91106228499939
1632,C,5172010094063.0,-0.4987486744514449,5.704047102947603,-0.4491165033878399,166,1970-01-01 01:26:12.010094063,0.19863892,1.5440979,-0.58621216,14.625598490623496,1.6635325190254149,-101.16053009033203,13.674276351928711,-164.3994903564453,22961416.0,50354.0,-0.01993345290142807,-0.12137627247917639,0.013675088795408716,-0.00044798035133984665,-0.0021819219621670434,0.0021772628698945302,22.961416288999317
1632,C,5172060448067.0,2.9748230255485546,5.406821102947603,3.50370334661216,166,1970-01-01 01:26:12.060448067,-0.8576813,0.5106964,-0.5312042,13.38238140047487,1.1307545832055204,-101.02574920654297,13.421518325805664,-164.3771209716797,23011770.0,50354.0,0.062340123937571934,-0.21373087118017642,0.07690533295185871,0.0010676727566769943,-0.008436992555911526,0.002280543278330952,23.011770292999245
1632,C,5172110802071.0,1.2617187255485547,7.982367102947604,6.34168549661216,166,1970-01-01 01:26:12.110802071,-0.13522339,0.10215759,-0.27653503,11.251394911351476,0.3243349521941801,-100.51996612548828,13.45286750793457,-164.2603302001953,23062124.0,50354.0,0.10666341166737192,-0.1563696085401764,0.24787735490585872,0.004255002015925671,-0.009318019777919323,0.008177053732193752,23.062124297000082
1632,C,5172161156075.0,2.653869725548555,9.503134102947604,4.44095920341216,166,1970-01-01 01:26:12.161156075,-0.008483887,0.62371826,-0.13189697,9.316107118013118,0.6375682354785542,-100.26139831542969,13.3274507522583,-164.22898864746094,23112478.0,50354.0,0.09858277043327193,-0.05323673613917639,0.27147464561251233,0.00516748312674791,-0.005277258939992066,0.01307572531705103,23.11247830100001
1632,C,5172211512517.0,2.5518341255485546,11.031027102947604,2.1633560966121603,166,1970-01-01 01:26:12.211512517,0.12287903,0.4963379,0.06452942,8.152250043072439,0.5153781262681676,-100.41834259033203,13.261905670166016,-164.2908172607422,23162834.0,50356.0,0.131069211562923,0.0235203108420295,0.16628345062401234,0.005782177602700196,-0.0007482001561315644,0.011021873347043219,23.16283474299962
1632,C,5172261866521.0,3.8224335355485546,9.350623102947603,0.2196456966121607,166,1970-01-01 01:26:12.261866521,-0.092437744,0.46533203,0.07316589,10.271117828558285,0.4800332093920404,-100.780029296875,12.974637031555176,-164.394775390625,23213188.0,50354.0,0.16048493690344193,0.019679607233823594,0.059996836148008735,0.007340458795937671,0.0010876443373957533,0.005697058780059175,23.21318874699955
1632,C,5172312220525.0,2.8241883255485547,13.377585102947604,2.0432998966121603,166,1970-01-01 01:26:12.312220525,-0.19447327,0.22665405,0.17022705,5.977401611242903,0.3437574139965535,-101.1259765625,12.963796615600586,-164.4826202392578,23263542.0,50354.0,0.16734199859684193,0.0787588979998236,0.05697418120060873,0.008253698755090647,0.0024783862462675354,0.002944979303786142,23.263542750999477
1632,C,5172362574529.0,1.9485932255485547,10.532919102947604,1.3989364966121602,166,1970-01-01 01:26:12.362574529,0.0073242188,1.0245819,0.22723389,8.978262661945223,1.0495031942558215,-101.36764526367188,12.985315322875977,-164.58810424804688,23313896.0,50354.0,0.12016432111197194,0.10852556439182362,0.08666518567220872,0.007238546611308807,0.004715260909634502,0.003616408339756925,23.313896754999405
1632,C,5172412928533.0,4.787429875548555,11.115820402947604,2.4326431966121604,166,1970-01-01 01:26:12.412928533,-0.35317993,0.6998749,0.3330536,7.890055873214132,0.8517544476419098,-101.48112487792969,12.546568870544434,-164.6458282470703,23364250.0,50354.0,0.16959285361632195,0.0515811145399236,0.09646768193630872,0.007295216388134255,0.0040310058554646,0.004610736207779644,23.364250758999333
1632,C,5172463282536.0,6.435348625548555,9.318014602947605,1.0881149966121604,166,1970-01-01 01:26:12.463282536,-0.46936035,0.48786926,0.1408844,10.252056428486545,0.6914940109418375,-101.7119140625,11.925251007080078,-164.71434020996094,23414604.0,50354.0,0.28255589432212197,0.020993463943423617,0.08864212903080873,0.011383749026846204,0.0018272101624752333,0.0046605097107191166,23.414604761999726
1632,C,5172513636540.0,4.204422065548554,0.6936101029476021,-3.1502121033878394,166,1970-01-01 01:26:12.513636540,-0.90219116,1.9771271,-0.98349,19.551940364089894,2.38542093535639,-102.05718994140625,11.55604076385498,-164.8602294921875,23464958.0,50354.0,0.2678775066897519,-0.24140652477967645,-0.05191741885729127,0.013858261737275949,-0.005549339632674338,0.0009246180280386491,23.464958765999654
1632,C,5172563990544.0,-0.7040252744514452,0.7491521029476047,-4.06526680338784,166,1970-01-01 01:26:12.563990544,-1.0824738,1.608902,-1.7552643,20.437911251740772,2.615581758642794,-102.45005798339844,11.508718490600586,-164.98703002929688,23515312.0,50354.0,0.08812949000945192,-0.45714477594217645,-0.18166411243589128,0.008963188155895856,-0.01758742609827409,-0.005880882213368457,23.515312769999582
1632,C,5172614344548.0,-0.005981274451444918,10.972998102947603,1.6697646966121602,166,1970-01-01 01:26:12.614344548,-0.8771057,0.68984985,-0.93284607,9.171462241147387,1.454444572622813,-102.6640396118164,11.824226379394531,-165.04470825195312,23565666.0,50354.0,-0.017875834881728066,-0.1983406242661764,-0.0603115565422913,0.0017687762751507038,-0.0165031559210457,-0.006092221417863703,23.56566677399951
1632,C,5172664698552.0,1.2252961255485548,11.114630102947604,1.2734634966121603,166,1970-01-01 01:26:12.664698552,-0.4676361,0.075042725,0.036605835,8.705852266529087,0.4750314934345752,-102.92761993408203,12.008716583251953,-165.09832763671875,23616020.0,50354.0,0.03069869000607194,0.0626310153398236,0.07410165622080872,0.0003228410234656057,-0.003416760823938785,0.00034719333960603316,23.616020777999438
1632,C,5172715052556.0,-0.15978997445144572,15.341040102947604,2.9681655966121605,166,1970-01-01 01:26:12.715052556,0.34103394,-0.4178772,0.8594818,5.599706755004646,1.0147090553666127,-103.08638000488281,12.919329643249512,-165.12562561035156,23666374.0,50354.0,0.026826248366171916,0.17260520877382357,0.10679149568010872,0.0014483053733979837,0.005922542414509295,0.0045543468854093985,23.666374781999366
1632,C,5172765406560.0,1.1051941255485547,14.420431602947604,3.2487136966121604,166,1970-01-01 01:26:12.765406560,1.1652985,-1.4113007,1.7201996,5.346199552347524,2.5117278761368436,-103.06810760498047,13.524881362915039,-165.08645629882812,23716728.0,50354.0,0.023802440312171914,0.25583537313932364,0.15652236996550872,0.0012746784948546627,0.010786848530827307,0.006629453195359711,23.716728785999294
1632,C,5172815760564.0,4.760894825548554,11.664145102947604,3.9583694966121605,166,1970-01-01 01:26:12.815760564,1.8883057,-2.056656,2.220749,7.098708598293939,3.567528337657529,-102.72265625,13.189841270446777,-164.95574951171875,23767082.0,50354.0,0.14769052152177192,0.16326218772432358,0.18145273355580874,0.004317678300093204,0.010551619289864048,0.00850919918135621,23.767082789999222
1632,C,5172866114568.0,4.1525879555485545,5.841132102947604,-6.44479780338784,166,1970-01-01 01:26:12.866114568,1.5003967,-1.4428558,0.36442566,16.855912302537767,2.1132508555850547,-103.3107681274414,12.925725936889648,-165.0411376953125,23817436.0,50354.0,0.2244147559796819,-0.052738835787176384,-0.0626008054796913,0.009368494571654104,0.002782646431721555,0.002992334993172409,23.81743679400006
1632,C,5172916468572.0,1.0173187255485545,12.061270102947603,-0.2305498033878397,166,1970-01-01 01:26:12.916468572,0.12658691,-0.11253357,-0.04333496,8.678179356869101,0.17483125841363323,-103.81367492675781,13.135730743408203,-165.15011596679688,23867790.0,50354.0,0.13016274050998192,-0.04274041966217641,-0.1680652266957913,0.008927197629120268,-0.0024038812144483554,-0.005807478692082126,23.867790797999987
1632,C,5172966822575.0,-1.2835232744514453,12.286062702947603,-0.40118880338784013,166,1970-01-01 01:26:12.966822575,0.27766418,0.9486084,0.1852417,9.659294778989052,1.0056191032515853,-104.29436492919922,13.655564308166504,-165.3116455078125,23918144.0,50354.0,-0.006702231927728082,0.11952359805402359,-0.015905282902791293,0.0031083652245754052,0.0019331700823715364,-0.004631825520163514,23.91814480099947
1632,C,5173017176579.0,4.633850165548555,11.136419802947604,2.5842086966121602,166,1970-01-01 01:26:13.017176579,0.4003296,-0.25079346,0.3155365,7.820249463475467,0.5680884007328275,-104.25862121582031,13.23505687713623,-165.30003356933594,23968498.0,50354.0,0.08435118013715194,0.0962386420509236,0.05496189185170871,0.0019549675690686647,0.005432245919122255,0.0009833282435068938,23.9684988049994
1632,C,5173067530583.0,1.4138489255485545,0.12149710294760396,4.36390231661216,166,1970-01-01 01:26:13.067530583,-0.084243774,0.5978699,-0.5987549,18.77851133266004,0.8503251501971367,-103.91498565673828,13.080215454101562,-165.24188232421875,24018852.0,50354.0,0.15226292001655195,-0.21002862606027642,0.17493259097994873,0.005957233199569803,-0.002864890427403476,0.00578805339425264,24.018852808999327
1632,C,5173117884587.0,-1.336318874451445,7.926428102947604,7.28998869661216,166,1970-01-01 01:26:13.117884587,-0.5796814,0.25737,-0.9506836,12.393953378760678,1.142833824190954,-103.30733489990234,13.382137298583984,-165.09727478027344,24069206.0,50354.0,0.0019519740964719268,-0.2908465870911764,0.29341001403994876,0.0038826683890836027,-0.012610535241514127,0.01179146176658596,24.069206812999255
1632,C,5173168238591.0,-1.5276792744514456,8.890036102947604,10.92425079661216,166,1970-01-01 01:26:13.168238591,-1.9752502,-0.24589539,-0.61357117,13.030243636752036,2.082918019528964,-102.43150329589844,13.745935440063477,-164.85047912597656,24119560.0,50354.0,-0.07210688139492807,-0.07008108068817638,0.45857990772090873,-0.0017662901010532307,-0.009087075891680766,0.01893285026017311,24.119560817000092
1632,C,5173218592595.0,0.6862336255485548,10.071051102947603,5.40413974661216,166,1970-01-01 01:26:13.218592595,0.98757935,0.70755005,-0.18988037,9.327404520460165,1.2296318964278545,-101.94662475585938,13.932086944580078,-164.77781677246094,24169914.0,50354.0,-0.02118507710242808,-0.016085907417176394,0.41109988870675873,-0.002348811639087936,-0.002169426259528467,0.021895928234659384,24.16991482100002
1632,C,5173268946599.0,3.690857005548555,7.2091131029476045,0.40858019661216005,166,1970-01-01 01:26:13.268946599,0.93507385,0.9745636,0.008956909,12.194229967483965,1.3506359767226759,-102.1003646850586,13.622841835021973,-164.87203979492188,24220268.0,50354.0,0.11020201081913193,-0.0584065057881764,0.14634685001055872,0.002241179340185453,-0.0018754954872711675,0.014034836540685902,24.22026882499995
1632,C,5173319300603.0,2.8715973255485547,11.234182802947604,-0.20383140338783967,166,1970-01-01 01:26:13.319300603,0.6390991,0.8758087,0.30944824,8.882104811745513,1.1274957879547034,-102.57241821289062,13.500140190124512,-165.03501892089844,24270622.0,50354.0,0.16522291269403194,-0.02912233897727637,0.005154960367008714,0.006934373299290928,-0.0022037137246598043,0.0038143610798760156,24.270622828999876
1632,C,5173369654607.0,3.8082428655485545,11.126776102947604,1.3318282966121604,166,1970-01-01 01:26:13.369654607,0.24720764,0.383667,0.3656006,8.200907027415338,0.5847869551244536,-102.81329345703125,13.227422714233398,-165.11566162109375,24320976.0,50354.0,0.16817833649125194,0.06951266237372361,0.028399577780708726,0.008394043250737894,0.0010169071721523523,0.0008448026069450819,24.320976832999804
1632,C,5173420008611.0,3.593887395548555,12.209295702947603,1.4208328966121604,166,1970-01-01 01:26:13.420008611,-0.056854248,0.58929443,0.0710907,7.1842990001554625,0.5962836727356875,-103.13005828857422,12.995278358459473,-165.21560668945312,24371330.0,50354.0,0.18636343358364194,0.0940630798570236,0.06930375086180873,0.008926298145175603,0.004118346462143523,0.0024598767052326624,24.371330836999732
1632,C,5173470362615.0,3.091857975548555,12.518164102947605,2.1879226966121603,166,1970-01-01 01:26:13.470362615,-0.2667694,0.5166321,0.18577576,6.661360208949581,0.6103992730421193,-103.32281494140625,12.885381698608398,-165.2823486328125,24421684.0,50354.0,0.16832701120811194,0.1290940555330236,0.09085763957060873,0.008930041328521987,0.00561842719771522,0.004032383326916974,24.42168484099966
1632,C,5173520716618.0,5.3620301255485545,9.014151102947604,2.7764694966121604,166,1970-01-01 01:26:13.520716618,-0.40014648,0.3071289,0.23997498,9.924782795602,0.558599460881946,-103.25556945800781,12.394671440124512,-165.28042602539062,24472038.0,50354.0,0.21284354072132197,0.04864989993882364,0.12498850224880871,0.009596730985927358,0.004475059566914698,0.0054343583125874735,24.472038844000053
1632,C,5173571070622.0,4.108520575548555,11.043738102947604,0.36817479661216,166,1970-01-01 01:26:13.571070622,-0.5386963,0.01171875,-0.039123535,8.681905799084554,0.540242245410472,-103.65437316894531,12.087616920471191,-165.35931396484375,24522392.0,50354.0,0.23844005500152196,0.011528276536823612,0.07917270937050871,0.011361967089514043,0.001515105949127371,0.005140166824939556,24.52239284799998
1632,C,5173621424626.0,4.568786685548555,8.318274102947603,-0.07512360338783974,166,1970-01-01 01:26:13.621424626,-1.1880035,-0.61021423,0.011520386,11.342958961509986,1.3356071435120178,-103.9567642211914,11.737574577331543,-165.3804473876953,24572746.0,50354.0,0.21846856491264194,-0.005991818692176418,0.007378149891808712,0.011503588323578904,0.00013939139915468242,0.002179090983647366,24.57274685199991
1632,C,5173671778630.0,3.788696355548555,2.290869102947603,-0.8481948033878393,166,1970-01-01 01:26:13.671778630,-1.5034637,0.46191406,-0.9586029,17.253510521851688,1.8419248670702568,-104.13323974609375,11.41703987121582,-165.41119384765625,24623100.0,50354.0,0.21041635052570196,-0.22636280150517643,-0.02324638752739127,0.010798035515991185,-0.005849992272708753,-0.0003995146189510621,24.623100855999837
1632,C,5173722132634.0,-2.0410918744514452,1.5918331029476036,-1.09312880338784,166,1970-01-01 01:26:13.722132634,-1.9563904,0.32312012,-1.3761597,18.999007940638812,2.4136456925292626,-104.32195281982422,11.529497146606445,-165.42825317382812,24673454.0,50354.0,0.043999438020581934,-0.39571440656217644,-0.048876704447791276,0.0064054263082297894,-0.015662037867511743,-0.001815843086659171,24.673454859999765
1632,C,5173772486638.0,-1.469558674451445,9.567511102947604,1.4029952966121604,166,1970-01-01 01:26:13.772486638,-1.4649353,0.5024414,-0.8587189,11.110624334485086,1.7708418740354148,-104.48761749267578,11.93281364440918,-165.46075439453125,24723808.0,50354.0,-0.08838764886972808,-0.21251039092817642,0.007801508699908717,-0.0011175619845489526,-0.015313275726414615,-0.0010341502033444391,24.723808863999693
1632,C,5173822840642.0,2.431778025548555,11.826529102947603,1.5824386966121602,166,1970-01-01 01:26:13.822840642,-0.44989014,0.49661255,-0.020385742,7.630841539730342,0.6704034168794284,-104.71524810791016,11.938549041748047,-165.5264434814453,24774162.0,50354.0,0.024225796602571934,0.0451685502638236,0.07516427164740873,-0.0016154029545301905,-0.004213165522406411,0.0020888294518044115,24.77416286799962
1632,C,5173873194646.0,1.4052124255485547,13.256262102947604,3.4555160966121603,166,1970-01-01 01:26:13.873194646,0.38812256,-0.024490356,0.35353088,6.147802624631869,0.5255691983283788,-104.59282684326172,12.295364379882812,-165.50799560546875,24824516.0,50354.0,0.09660390858727193,0.1380402341908236,0.12684058782900873,0.003042129487564699,0.0046126475662146525,0.005085876347037762,24.82451687199955
1632,C,5173923548650.0,1.631347725548555,15.128363102947604,4.895274396612161,166,1970-01-01 01:26:13.923548650,1.3685608,-0.27433777,1.0335236,4.3546884877751975,1.7367760094791076,-104.07052612304688,12.894937515258789,-165.40841674804688,24874870.0,50354.0,0.07645147492417194,0.22117050880882363,0.2102478522479087,0.004357015390667622,0.00904384887650212,0.00848687565581655,24.874870875999477
1632,C,5173973902654.0,2.922760125548555,14.309500102947604,3.3051101966121603,166,1970-01-01 01:26:13.973902654,2.2983704,-0.733963,1.4293671,4.686962262793052,2.804335658855332,-103.96060180664062,13.00273609161377,-165.39166259765625,24925224.0,50354.0,0.11465877336707193,0.24768788193482363,0.20646108290360873,0.004811582721228647,0.011804447703752809,0.010491480860309755,24.925224879999405
1632,C,5174024256658.0,5.703964325548554,9.685553102947603,-0.3646133033878396,166,1970-01-01 01:26:14.024256658,1.9044495,-1.3329468,1.2307129,10.355887103713686,2.630271718265415,-104.20613098144531,12.548611640930176,-165.41883850097656,24975578.0,50354.0,0.21719504150527194,0.1106542545648236,0.07403289028070872,0.008355083497041003,0.00902197997065162,0.007061996762861561,24.975578883999333
1632,C,5174074610661.0,1.7793427255485548,6.658499102947603,-4.6279798033878405,166,1970-01-01 01:26:14.074610661,0.24325562,-1.1380615,-0.08091736,15.254807503754154,1.1665782843826658,-104.74230194091797,12.483868598937988,-165.4828643798828,25025932.0,50354.0,0.1884072216254719,-0.08197499761217643,-0.1256985166492913,0.01021184817884274,0.0007220576522967979,-0.0013007854750818036,25.025932886999726
1632,C,5174124964665.0,1.2373352255485548,14.193579102947604,2.9718429966121604,166,1970-01-01 01:26:14.124964665,0.513443,-0.09559631,0.22091675,5.527379840247175,0.5670684078355791,-104.78768920898438,12.944952011108398,-165.49664306640625,25076286.0,50354.0,0.07595090077477193,0.0315235729898236,-0.0416965563841913,0.006655744447670938,-0.0012702155177169772,-0.004214505753763992,25.076286890999654
1632,C,5174175318669.0,1.6322022255485549,9.878119102947604,0.7624618966121601,166,1970-01-01 01:26:14.175318669,0.19372559,-0.42163086,0.22332764,9.87228368492981,0.5149538048341398,-104.96749877929688,12.996664047241211,-165.52206420898438,25126640.0,50354.0,0.07224634440627194,0.11258394572982362,0.09401859429670872,0.003731162041923142,0.003628194998804558,0.0013173119485234512,25.126640894999582
1632,C,5174225672673.0,2.2762757255485546,2.578192102947604,2.8489639966121603,166,1970-01-01 01:26:14.225672673,-0.23886108,-0.1894226,-0.6951294,16.310171207768214,0.7590391423858762,-104.73833465576172,12.802315711975098,-165.45057678222656,25176994.0,50354.0,0.09840374937477193,-0.1798566527691764,0.09092486971370872,0.004296457411125342,-0.001693724945129785,0.00465632159339028,25.17699489899951
1632,C,5174276026677.0,1.0736237255485546,5.474417102947603,5.910670496612161,166,1970-01-01 01:26:14.276026677,-0.8870392,1.3481903,-1.1371918,13.650546768962293,1.974249431388539,-104.27873992919922,12.746831893920898,-165.38858032226562,25227348.0,50354.0,0.08434041848027192,-0.29072865802317643,0.22054131763590876,0.004600949914086439,-0.011847926369819068,0.00784178419890132,25.227348902999438
1632,C,5174326380681.0,-2.5359192744514454,7.284628102947604,13.34362319661216,166,1970-01-01 01:26:14.326380681,-1.36586,-0.9192505,-0.30052185,15.919355729455637,1.673591468572206,-103.2781982421875,13.144015312194824,-165.102294921875,25277702.0,50354.0,-0.03681621503472808,-0.17223471885117642,0.48476535231430873,0.0011965168701484573,-0.011656028939565582,0.017757506029336626,25.277702906999366
1632,C,5174376734685.0,0.7912293255485547,5.182104602947604,4.24268649661216,166,1970-01-01 01:26:14.376734685,0.617157,0.7923126,0.22180176,13.92127560165231,1.028512537360074,-102.94876098632812,13.164270401000977,-165.0743865966797,25328056.0,50354.0,-0.04392605884352808,-0.17959427066367642,0.44277051914630877,-0.0020328482294328554,-0.00885799846901545,0.023352570635763965,25.328056910999294
1632,C,5174427088689.0,4.867675825548555,9.980154102947603,2.60140539661216,166,1970-01-01 01:26:14.427088689,0.44543457,0.82214355,0.24139404,8.959379012664465,0.9657137544351374,-102.90912628173828,12.716691970825195,-165.11221313476562,25378410.0,50354.0,0.14247425498917193,-0.11172901256167642,0.17231370159570872,0.002481147934358876,-0.007334646301764709,0.015485975425621776,25.378410914999222
1632,C,5174477442693.0,3.1953278255485547,11.831778102947604,-0.06570880338783969,166,1970-01-01 01:26:14.477442693,0.35491943,0.08406067,0.17050171,8.269312180865805,0.4026224424262735,-103.3991470336914,12.576053619384766,-165.22926330566406,25428764.0,50354.0,0.20300224292367192,0.055689817147823596,0.06384123312760873,0.008698061787951671,-0.0014108988229345725,0.005945672791528964,25.42876491900006
1632,C,5174527796697.0,2.1801300255485545,11.575964402947605,1.5195114966121603,166,1970-01-01 01:26:14.527796697,-0.07940674,0.24890137,0.049850464,7.936669626193109,0.26597441814264733,-103.62530517578125,12.60772705078125,-165.29006958007812,25479118.0,50354.0,0.13533790231707193,0.09586753307092365,0.03660239040730872,0.008518389836726209,0.0038157594064573996,0.002528869109738617,25.479118922999987
1632,C,5174578150700.0,3.0213623255485547,12.957831102947605,3.8869735966121604,166,1970-01-01 01:26:14.578150700,-0.23060608,0.19740295,0.27575684,5.873712677846586,0.4101084290873019,-103.43500518798828,12.561993598937988,-165.25863647460938,25529472.0,50354.0,0.13095797292357192,0.12421816945192367,0.13611907519210872,0.006704531250933691,0.005541097732417727,0.004348608339396534,25.52947292599947
1632,C,5174628504704.0,4.8934021655485544,10.406332102947603,3.1894027966121605,166,1970-01-01 01:26:14.628504704,0.015838623,0.2850952,0.28256226,8.440169492788183,0.401710798731978,-103.31392669677734,12.125922203063965,-165.24964904785156,25579826.0,50354.0,0.19927002559235193,0.09477033703482363,0.17816192845220874,0.008314150318635416,0.005513473627816836,0.00791265282875298,25.5798269299994
1632,C,5174678858708.0,5.728057925548555,11.562231502947604,1.2405654966121604,166,1970-01-01 01:26:14.678858708,-0.43702698,-0.27119446,0.010269165,8.007632335140187,0.5144360719588092,-103.60061645507812,11.549094200134277,-165.2910919189453,25630180.0,50354.0,0.26741650071355194,0.059633325905623605,0.11153331171850873,0.011749766672803743,0.0038874210218516397,0.007293657061778154,25.630180933999327
1632,C,5174729212712.0,3.660034245548555,6.457175102947604,-1.0793045033878395,166,1970-01-01 01:26:14.729212712,-1.0002441,-0.24137878,-0.5339966,13.445977769566428,1.159268883318559,-103.91654205322266,11.28620433807373,-165.3259735107422,25680534.0,50354.0,0.23636399659171195,-0.03979459988337639,0.004060068026408729,0.012683681580654629,0.0004994796050621181,0.002910294521837787,25.680534937999255
1632,C,5174779566716.0,1.6788483255485547,1.0663361029476022,-0.3772628033878398,166,1970-01-01 01:26:14.779566716,-1.3867188,0.6253662,-1.487381,18.44586430633493,2.1275277092289255,-104.02241516113281,11.110116958618164,-165.34519958496094,25730888.0,50354.0,0.13441704649251193,-0.30404975836917647,-0.036671995082691276,0.009335154321731506,-0.008656969407724525,-0.0008210704874960258,25.730888942000092
1632,C,5174829920720.0,0.9712067255485546,4.435034102947604,0.6623489966121605,166,1970-01-01 01:26:14.829920720,-1.077301,0.44854736,-1.7478027,15.088189870468069,2.1015676189195673,-104.0961685180664,11.03775691986084,-165.34954833984375,25781242.0,50354.0,0.06672043602147193,-0.35496120232617645,0.0071776150868087234,0.005064038397254572,-0.016591918957426902,-0.0007425800051563351,25.78124294600002
1632,C,5174880274724.0,1.7636109255485546,10.641241102947603,2.37398839661216,166,1970-01-01 01:26:14.880274724,-0.1943512,0.67549133,-1.041275,8.64222646458914,1.256309894680293,-104.11605072021484,11.088698387145996,-165.37120056152344,25831596.0,50354.0,0.06885450400167192,-0.11389381914117641,0.07644586654920872,0.003413370264962693,-0.011804362875483544,0.0021053883971500114,25.83159694999995
1632,C,5174930628728.0,1.4715577255485548,12.215979102947603,2.56100009661216,166,1970-01-01 01:26:14.930628728,0.33995056,0.0063476563,-0.05656433,7.241538822533123,0.34468275183589536,-104.14673614501953,11.331764221191406,-165.38006591796875,25881950.0,50354.0,0.08145184112867193,0.08200703312382358,0.12424820529390873,0.0037842628513466673,-0.0008028136115588922,0.005052874646794168,25.881950953999876
1632,C,5174980982732.0,-0.2343138744514457,14.173040902947605,4.3471786866121604,166,1970-01-01 01:26:14.980982732,0.91719055,-0.90448,1.1113434,6.251104718936647,1.701295602807714,-103.85527801513672,12.162758827209473,-165.30006408691406,25932304.0,50354.0,0.031150088439071917,0.17092715668842362,0.17392721722523874,0.002834978780727087,0.006368124096902948,0.0075071626127645764,25.932304957999804
1632,C,5175031336736.0,1.4031525255485549,14.167990102947604,4.53621982661216,166,1970-01-01 01:26:15.031336736,1.7206116,-1.3859711,1.9144592,5.266109754503618,2.9234524447225767,-103.42955017089844,12.727548599243164,-165.18307495117188,25982658.0,50354.0,0.02942785071867192,0.2200729376354236,0.22365732436744876,0.0015251707741745165,0.009844209374791501,0.010009986003679094,25.982658961999732
1632,C,5175081690740.0,3.7506714555485545,9.340384102947604,-0.2854048033878396,166,1970-01-01 01:26:15.081690740,0.9174957,-2.0925293,1.532898,10.499720943143426,2.7514093678115183,-103.702880859375,12.56100845336914,-165.17111206054688,26033012.0,50354.0,0.12975782637208194,0.09840113738182363,0.10702276983971873,0.00400781779211391,0.008018221786709233,0.008325532731853857,26.03301296599966
1632,C,5175132044743.0,3.671432565548555,6.602515102947605,-1.5653274033878395,166,1970-01-01 01:26:15.132044743,-0.018829346,-1.0895386,0.13287354,13.521988721200133,1.0977724184879485,-104.01393127441406,12.316985130310059,-165.1877899169922,26083366.0,50354.0,0.18686631293916192,-0.09207482669317636,-0.046595884769991276,0.007971645955439187,0.00015927752420807223,0.0015213676854005282,26.083366969000053
1632,C,5175182398747.0,0.8535462255485546,13.519018602947604,2.9575149966121606,166,1970-01-01 01:26:15.182398747,0.61203,1.237442,-0.36888123,6.281819489780914,1.428956537516209,-104.03765106201172,12.736493110656738,-165.2537384033203,26133720.0,50354.0,0.11392539102345194,0.013130654113323627,0.03505110703460873,0.007573032730666729,-0.001987577433042952,-0.0002906628690437264,26.13372097299998
1632,C,5175232752751.0,1.1326447255485546,10.771246402947604,1.6552993966121603,166,1970-01-01 01:26:15.232752751,0.05757141,1.2935028,0.1859436,8.910127798435425,1.3080668879068027,-104.17724609375,12.89220142364502,-165.34873962402344,26184074.0,50354.0,0.05000632957577192,0.11808680205342362,0.11613682797820873,0.0041273089295266584,0.0033036618939101953,0.0038064586398177057,26.18407497699991
1632,C,5175283106755.0,4.976654125548555,4.822485102947605,3.83466649661216,166,1970-01-01 01:26:15.283106755,-0.048233032,-0.59243774,0.33625793,13.932738309220044,0.6829189532002355,-103.8775405883789,12.511650085449219,-165.25831604003906,26234428.0,50354.0,0.15381381717407192,-0.10086582187607639,0.13822087129370875,0.005131579834720818,0.00043357261792507126,0.006403963794569067,26.234428980999837
1632,C,5175333460759.0,1.1200409255485546,4.152060102947603,1.8506423966121601,166,1970-01-01 01:26:15.333460759,0.01713562,-1.568924,-0.48443604,15.078214062726975,1.6421006132693774,-103.76321411132812,12.47608470916748,-165.15374755859375,26284782.0,50354.0,0.15349649130147192,-0.2675170753511764,0.1431390220047087,0.007737151636488768,-0.009274776203490544,0.007083798033574258,26.284782984999765
1632,C,5175383814763.0,-1.3178862744514452,6.144751102947604,-0.6561628033878399,166,1970-01-01 01:26:15.383814763,-0.43443298,-0.71144104,-0.44284058,14.589307237565807,0.9439216846765934,-103.97318267822266,12.694230079650879,-165.1559295654297,26335136.0,50354.0,-0.004981152349328078,-0.23422638426917644,0.03007341271860871,0.0037391706887981253,-0.012632395082861623,0.004360969469028963,26.335136988999693
1632,C,5175434168767.0,3.0540772255485544,6.849875102947603,5.59244849661216,166,1970-01-01 01:26:15.434168767,-0.20256042,0.09378052,0.017471313,11.960791168326573,0.22389898717946619,-103.49566650390625,12.515774726867676,-165.0541534423828,26385490.0,50354.0,0.043712079575771924,-0.16630349601417643,0.12428086489830872,0.0009751285547801768,-0.010084140795893976,0.003886177647561131,26.38549099299962
1632,C,5175484522771.0,1.8406220255485546,7.860556102947603,3.2189285966121606,166,1970-01-01 01:26:15.484522771,0.65852356,0.44630432,0.046218872,11.143686103622233,0.7968544467182751,-103.29043579101562,12.489776611328125,-165.03855895996094,26435844.0,50354.0,0.12323384304487191,-0.12310467352917642,0.22184404107610875,0.00420319749381995,-0.007286429484592996,0.008714386757717909,26.43584499699955
1632,C,5175534876775.0,2.4423981255485545,10.111105102947604,1.6309158966121604,166,1970-01-01 01:26:15.534876775,0.49502563,0.32365417,0.23428345,9.191660022659358,0.6361533864243657,-103.39031982421875,12.440094947814941,-165.08348083496094,26486199.0,50355.0,0.10783573985424745,-0.040997499988573445,0.12210695972815533,0.0058177544234425775,-0.0041316824737431465,0.00865982632274936,26.486199000999477
1632,C,5175585230779.0,3.1697846255485547,12.488226402947603,1.0055648966121602,166,1970-01-01 01:26:15.585230779,-0.029586792,0.43807983,0.14974976,7.163855978193321,0.46391195967956866,-103.785400390625,12.321268081665039,-165.19036865234375,26536553.0,50354.0,0.14129792512437192,0.07551416932392362,0.06637867693100873,0.006272438283166701,0.0008690261838561113,0.004745502874167774,26.536553004999405
1632,C,5175635584783.0,2.7410737255485547,12.666632102947604,2.0553542966121605,166,1970-01-01 01:26:15.635584783,-0.35614014,0.8135376,0.022994995,6.631375159164304,0.88837379279672,-104.0051498413086,12.294645309448242,-165.27227783203125,26586907.0,50354.0,0.14881768070557194,0.1398546726029236,0.07706476252780872,0.007304240607980498,0.005422341333192233,0.0036114754752546467,26.586907008999333
1632,C,5175685938786.0,3.258712825548555,12.867865102947604,3.31194619661216,166,1970-01-01 01:26:15.685938786,-0.25187683,1.2847137,-0.03302002,6.005930911634067,1.3095883132417374,-103.95285034179688,12.16306209564209,-165.31903076171875,26637261.0,50354.0,0.15105662599697195,0.14941283615282364,0.13513252451790872,0.007549935419849948,0.007282888067943449,0.005342491095950029,26.637261011999726
1632,C,5175736292790.0,5.9237519255485545,11.290274102947603,2.57543489661216,166,1970-01-01 01:26:15.736292790,-0.17129517,0.8788147,-0.076828,7.875189122585256,0.8986433407005355,-103.97361755371094,11.524598121643066,-165.3622589111328,26687615.0,50354.0,0.23118691503837194,0.11476027078682359,0.1482265937841087,0.009623745632646853,0.006651086313419499,0.007134132521489893,26.687615015999654
1632,C,5175786646794.0,5.640472525548555,9.835745102947604,0.9183151966121601,166,1970-01-01 01:26:15.786646794,-0.8723297,-0.5238495,-0.1856842,9.678442441592441,1.0343384486143692,-104.20361328125,11.013283729553223,-165.3713836669922,26737969.0,50354.0,0.2911524790052719,0.03842058554682357,0.08796214609710871,0.01315093892383682,0.003856634419912235,0.0059465239039894115,26.737969019999582
1632,C,5175837000798.0,2.1143799255485547,4.7231051029476045,2.0887863966121603,166,1970-01-01 01:26:15.837000798,-1.3049622,-0.7991028,-0.74794006,14.318182301920892,1.703204615349983,-104.1419677734375,10.907927513122559,-165.3001708984375,26788323.0,50354.0,0.19524392016127193,-0.12692102836617639,0.07570979681260871,0.012246002141816075,-0.002228175648862846,0.004120768506637956,26.78832302399951
1632,C,5175887354802.0,-0.3369902744514457,0.3613801029476029,0.6960555966121604,166,1970-01-01 01:26:15.887354802,-1.637619,-0.00541687,-1.6465607,19.238357027864815,2.3222806614244726,-104.15514373779297,10.886235237121582,-165.26715087890625,26838677.0,50354.0,0.04474933924567192,-0.3654571159711764,0.07011396686340872,0.006042310292088625,-0.012396604539981534,0.003671404898071091,26.838677027999438
1632,C,5175937708806.0,-1.1245422744514455,7.648474102947604,1.1512405966121602,166,1970-01-01 01:26:15.937708806,-1.6877136,0.55548096,-1.2575989,12.65384168131657,2.176807590447234,-104.29745483398438,11.148543357849121,-165.28976440429688,26889031.0,50354.0,-0.03679700498372809,-0.29180510065817644,0.046509376256808725,0.00020021591971295971,-0.01654789082807722,0.0029362259097377146,26.889031031999366
1632,C,5175988062810.0,0.6471863255485548,10.553488102947604,2.5373336966121602,166,1970-01-01 01:26:15.988062810,-0.63145447,0.9798889,-0.2979126,9.046794209105611,1.2031911407855989,-104.30994415283203,11.396188735961914,-165.32907104492188,26939385.0,50354.0,-0.012018390725528079,-0.03519839754217637,0.09286723498050872,-0.0012290252177719427,-0.008232967074190283,0.0035090849411219417,26.939385035999294
1632,C,5176038416814.0,1.4262543255485545,12.151632802947603,3.0402023966121603,166,1970-01-01 01:26:16.038416814,0.25675964,0.38694763,0.41792297,7.207414587361358,0.6247508222877081,-104.2479248046875,11.662104606628418,-165.3426513671875,26989739.0,50354.0,0.052203015272671925,0.07817762904772359,0.14042562621910873,0.0010117282922234407,0.0010820881116151624,0.005873614366422769,26.989739039999222
1632,C,5176088770818.0,2.5034485255485546,15.370810102947605,4.429484593612161,166,1970-01-01 01:26:16.088770818,1.2997284,-0.2724762,1.2843933,3.6872378854314456,1.8474856812484068,-103.86034393310547,12.066254615783691,-165.27865600585938,27040093.0,50354.0,0.09893812868207193,0.1994633450417236,0.18806430935287774,0.003805280581348586,0.006990166804650013,0.008270391107895904,27.04009304400006
1632,C,5176139124822.0,4.0631256776985545,14.042410402947603,4.16399692661216,166,1970-01-01 01:26:16.139124822,2.1794739,-1.0050201,1.7367249,4.677755246036925,2.962496457460368,-103.47892761230469,11.8677978515625,-165.1949920654297,27090447.0,50354.0,0.16532663871515246,0.24706745267692362,0.21635808423468775,0.006653394048759919,0.011242305894162382,0.010182142603354137,27.090447047999987
1632,C,5176189478825.0,2.897186325548555,7.390082102947604,-2.6541030033878394,166,1970-01-01 01:26:16.189478825,1.6552582,-1.7664642,0.92993164,13.411016580177753,2.5932698150446996,-103.84508514404297,11.77721881866455,-165.2135772705078,27140801.0,50354.0,0.1752397753057525,0.04613666382092358,0.03801459930501873,0.008574440605804324,0.0073820000410663,0.006404341053479191,27.14080105099947
1632,C,5176239832829.0,2.3854828255485545,8.348379602947604,-2.0165908033878397,166,1970-01-01 01:26:16.239832829,0.66755676,-0.8621826,0.3161316,12.324428506271675,1.1353105531452694,-104.25340270996094,11.718185424804688,-165.26625061035156,27191155.0,50354.0,0.13300176121717192,-0.09722194963067639,-0.11759405797319128,0.007760597165037669,-0.0012861742408321465,-0.0020035720308885802,27.1911550549994
1632,C,5176290186833.0,0.4496460255485548,12.928076102947603,1.0788528966121604,166,1970-01-01 01:26:16.290186833,0.369339,-0.11029053,0.25746155,7.602538070975914,0.4635318194655933,-104.58761596679688,12.152206420898438,-165.3369903564453,27241509.0,50354.0,0.07138003908407192,0.0422081253073236,-0.023609427278891277,0.0051457205861844164,-0.001385083054989053,-0.003555080148191683,27.241509058999327
1632,C,5176340540837.0,2.5280610255485545,11.140509102947604,0.9410201966121603,166,1970-01-01 01:26:16.340540837,0.08218384,0.47981262,0.21665955,8.480475147375747,0.532837399658294,-104.84442138671875,12.118023872375488,-165.41720581054688,27291863.0,50354.0,0.07496973042547192,0.1125055697288236,0.050854344868108727,0.0036846481469417856,0.0038952266999250783,0.0006859452901437278,27.291863062999255
1632,C,5176390894841.0,4.106475897548554,6.600623102947603,4.85511325661216,166,1970-01-01 01:26:16.390894841,-0.11227417,-0.41049194,-0.28678894,12.118697535358969,0.5131832208485348,-104.42176055908203,11.816126823425293,-165.30538940429688,27342217.0,50354.0,0.16703773611281592,-0.046800714452176415,0.14592925195182874,0.006093021985034473,0.0016542511413001463,0.004954420617135566,27.342217067000092
1632,C,5176441248845.0,0.9717865255485547,1.4103301029476043,-5.006596803387839,166,1970-01-01 01:26:16.441248845,0.58732605,1.4362335,-1.0610046,19.95294785095624,1.879747141706036,-104.75881958007812,11.68277645111084,-165.43519592285156,27392571.0,50354.0,0.12785541302631592,-0.2917774311351764,-0.0038139012571712645,0.007424524815875922,-0.008524381971452782,0.0035780381844393912,27.39257107100002
1632,C,5176491602849.0,0.3809967255485547,7.388251102947605,7.56370089661216,166,1970-01-01 01:26:16.491602849,-1.5841675,-0.3348236,-0.3811493,12.310561391531854,1.6634206623893129,-104.1314468383789,11.848006248474121,-165.27061462402344,27442925.0,50354.0,0.034059023912871925,-0.2719473209791764,0.06438020975510875,0.004076519778817933,-0.01419289808398306,0.001524877949052572,27.44292507499995
1632,C,5176541956853.0,0.1578064255485545,5.665198102947604,14.21354219661216,166,1970-01-01 01:26:16.541956853,0.82774353,-0.5171814,-0.086624146,16.763536229009972,0.9798671821390132,-102.9782943725586,11.994071960449219,-165.01531982421875,27493279.0,50354.0,0.01356544693517192,-0.16482250934317638,0.5482856493581088,0.0011990413025412,-0.010996554018025876,0.015425088334893478,27.493279078999876
1632,C,5176592310857.0,0.8723145255485547,6.3348751029476045,0.15076759661216066,166,1970-01-01 01:26:16.592310857,1.5928497,1.3581543,-0.2697296,13.48189394205596,2.110570379427026,-103.06400299072266,12.009621620178223,-165.11146545410156,27543633.0,50354.0,0.02593535518577192,-0.19134335689517637,0.3616502276640087,0.000994511694999003,-0.008967188014283008,0.022909455575785855,27.543633082999804
1632,C,5176642664861.0,0.6461640255485546,11.041449102947603,1.2370101966121605,166,1970-01-01 01:26:16.642664861,-0.015090942,-0.639801,0.36564636,8.986837222625349,0.7370687326923433,-103.28488159179688,12.29546070098877,-165.13137817382812,27593987.0,50354.0,0.038230734480971924,-0.055985485468176416,0.034940081500008734,0.0016155096395396096,-0.006226998264182134,0.009984954213822467,27.593987086999732
1632,C,5176693018865.0,5.038559025548555,11.734915102947603,2.4721786966121604,166,1970-01-01 01:26:16.693018865,-0.13085938,-0.5092926,0.44102478,7.314410962767798,0.6862987587944428,-103.34937286376953,11.83404541015625,-165.1241912841797,27644341.0,50354.0,0.1431242722574719,0.07997132161182356,0.09338624876470873,0.004565975004653801,0.0006038913965886043,0.0032308720170747918,27.64434109099966
1632,C,5176743372868.0,3.425521925548555,12.724905502947603,-0.13687580338783967,166,1970-01-01 01:26:16.743372868,-0.306015,0.9214783,-0.060455322,7.5623440144745855,0.9728423734367319,-103.96754455566406,11.670408248901367,-165.2901611328125,27694695.0,50354.0,0.21310016610577193,0.1223557033946236,0.058795920942708725,0.00896866268467139,0.005093987508587321,0.0038314904867236496,27.694695094000053
1632,C,5176793726872.0,1.4711762255485548,13.302664102947604,3.14184119661216,166,1970-01-01 01:26:16.793726872,-0.59262085,0.86839294,0.038864136,6.136798333420632,1.0520533214450647,-103.994873046875,11.991573333740234,-165.3314971923828,27745049.0,50354.0,0.12328416935017193,0.16182691996762358,0.07565601370520872,0.008469148413774299,0.007154865908391298,0.0033850963586306176,27.74504909799998
1632,C,5176844080876.0,1.7854004255485547,11.331976402947603,4.78394626661216,166,1970-01-01 01:26:16.844080876,-0.4013672,1.0970001,-0.036590576,7.731211036678668,1.1686931671263685,-103.62455749511719,12.116726875305176,-165.30160522460938,27795403.0,50354.0,0.08199083034467193,0.12675714401692362,0.19954755096159874,0.005168208667317084,0.007265680978938945,0.0069288001476162115,27.79540310199991
1632,C,5176894434880.0,5.654388525548555,10.233527102947605,2.3460189966121603,166,1970-01-01 01:26:16.894434880,0.0068511963,0.65141296,0.11022949,8.876872647657995,0.6607089554504032,-103.63715362548828,11.56751537322998,-165.33648681640625,27845757.0,50354.0,0.18731156642177194,0.04948548176792362,0.17951113543219874,0.0067802264433887574,0.004437260589385099,0.009543560547336639,27.845757105999837
1632,C,5176944788884.0,5.099258525548555,8.645041102947603,-0.5825548033878398,166,1970-01-01 01:26:16.944788884,-0.43814087,0.43527222,-0.45925903,11.297500122686234,0.7696415945780388,-103.98605346679688,11.132257461547852,-165.4161834716797,27896111.0,50354.0,0.27074457180547196,-0.018163488280176384,0.04439873799280872,0.01153247939214732,0.0007885938300410122,0.005637378883221413,27.896111109999765
1632,C,5176995142888.0,2.2724915255485545,1.9516051029476031,-2.09703520338784,166,1970-01-01 01:26:16.995142888,-1.1006927,0.16638184,-1.264389,18.07859917298586,1.6846028849067294,-104.22454833984375,10.93506145477295,-165.44412231445312,27946465.0,50354.0,0.18559855103647194,-0.22667743847417643,-0.06746403760059129,0.011489350803791622,-0.006164360012894342,-0.0005807150482251419,27.946465113999693
1632,C,5177045496892.0,0.14294442554855458,1.5988531029476043,0.6787063966121605,166,1970-01-01 01:26:17.045496892,-1.5821991,0.25561523,-1.7098389,17.9545541344539,2.3435533281327254,-104.25647735595703,10.891069412231445,-165.42669677734375,27996819.0,50354.0,0.06081343094077192,-0.4040793137501764,-0.03570926436819128,0.006203914470241069,-0.015880562750752534,-0.002597594223668039,27.99681911799962
1632,C,5177095850896.0,-0.06726067445144501,8.744543102947604,2.2494308966121603,166,1970-01-01 01:26:17.095850896,-1.0587158,0.9571991,-1.1875458,11.009195381752557,1.8567106100057946,-104.27149963378906,11.098666191101074,-165.45074462890625,28047173.0,50354.0,0.0019054898013719276,-0.23305351372417638,0.07372171263150873,0.0015790742675249557,-0.016041093197321783,0.0009570394099255434,28.04717312199955
1632,C,5177146204900.0,2.5529480255485546,10.268912102947604,1.6546584966121602,166,1970-01-01 01:26:17.146204900,-0.12258911,0.89141846,-0.473938,9.017655713471132,1.0169917347566615,-104.38475036621094,11.02881145477295,-165.50796508789062,28097527.0,50354.0,0.06258215043857193,-0.014767438281176362,0.09829325865320873,0.0016236053183210665,-0.006239388108638766,0.004330820932035332,28.097527125999477
1632,C,5177196558904.0,1.4349977255485546,12.285711802947603,2.85299229661216,166,1970-01-01 01:26:17.196558904,0.27095032,-0.080963135,0.5019226,7.121673824319582,0.5761036378360153,-104.3592529296875,11.318218231201172,-165.50787353515625,28147881.0,50354.0,0.10040451017537193,0.0743885660787236,0.1134891240210087,0.004103515154277265,0.001501081134558847,0.005332045048588773,28.147881129999405
1632,C,5177246912908.0,1.6121369255485547,15.060690402947603,3.7494461466121605,166,1970-01-01 01:26:17.246912908,1.0529175,-0.37789917,1.5089417,4.4512366918473605,1.8783897621345333,-104.22843170166016,11.935046195983887,-165.49224853515625,28198235.0,50354.0,0.07671770911067192,0.19503116833782358,0.16622959268505874,0.004459406114964726,0.006783180653405409,0.007042478130508661,28.198235133999333
1632,C,5177297266911.0,3.9555969915485547,14.254339702947604,3.7779495566121604,166,1970-01-01 01:26:17.297266911,1.4795837,-1.3201904,2.0933075,4.507737906550902,2.883401967661481,-103.99870300292969,11.791282653808594,-165.42288208007812,28248589.0,50354.0,0.14017883683075394,0.2445953129761236,0.18951724162007874,0.00546080433716728,0.01106847592004125,0.008956638047300448,28.248589136999726
1632,C,5177347620915.0,3.6461334855485545,6.927374102947605,-2.3207595033878397,166,1970-01-01 01:26:17.347620915,1.1057587,-1.6431274,1.0406189,13.592071600139237,2.237288012369811,-104.3284683227539,11.623129844665527,-165.4353790283203,28298943.0,50354.0,0.19138876822187392,0.03982280849102363,0.03668767397002873,0.008347877592410012,0.007160795044178366,0.005695161159812136,28.298943140999654
1632,C,5177397974919.0,3.6718750655485546,8.520590102947605,-1.7442215033878394,166,1970-01-01 01:26:17.397974919,-0.10336304,-1.1876373,0.3322754,11.92681461884915,1.2375674591045498,-104.74772644042969,11.423842430114746,-165.4657745361328,28349297.0,50354.0,0.18424550129097192,-0.10453580518817636,-0.10234402680759128,0.009457344003524921,-0.0016292791178442142,-0.0016530299953913124,28.349297144999582
1632,C,5177448328923.0,0.4057617255485546,13.789084102947605,1.1913558966121602,166,1970-01-01 01:26:17.448328923,-0.1608429,-0.38363647,0.07978821,6.939413344503892,0.4235723527916748,-105.15030670166016,11.94383430480957,-165.5285186767578,28399651.0,50354.0,0.10266266148945194,0.06822146748182366,-0.013919497381791275,0.007223486814322732,-0.000914286080432842,-0.0029271667485160843,28.39965114899951
1632,C,5177498682927.0,2.6257325255485546,12.018103102947604,1.0906478966121602,166,1970-01-01 01:26:17.498682927,-0.42721558,0.10974121,0.12696838,7.621318473487663,0.4589959199021543,-105.45787811279297,11.927238464355469,-165.59451293945312,28450005.0,50354.0,0.07632393075987193,0.1562783522828236,0.05745400950200872,0.004506345433061228,0.005652231962214525,0.0010960684116507148,28.450005152999438
1632,C,5177549036931.0,2.941497825548555,1.9156251029476046,4.5047256866121606,166,1970-01-01 01:26:17.549036931,-0.77285767,0.30793762,-0.8579254,16.833976963278044,1.1950608971321308,-105.10269927978516,11.690526962280273,-165.5171661376953,28500359.0,50354.0,0.14016615854957193,-0.14265972496017637,0.14087472070483872,0.005450570978543868,0.0003428761801022895,0.004993322440417798,28.500359156999366
1632,C,5177599390935.0,8.141998325548554,-0.6742648970523959,-4.496693803387839,166,1970-01-01 01:26:17.599390935,-0.025054932,3.1495972,-1.3064728,21.732772253241116,3.409906369536443,-105.37117004394531,11.041674613952637,-165.70204162597656,28550713.0,50354.0,0.2790491825961719,-0.4622154740961764,0.00020221872393873323,0.010554584644026394,-0.015228942886641795,0.0035518941039983307,28.550713160999294
1632,C,5177649744939.0,-1.7816772744514457,7.253058102947604,8.33628389661216,166,1970-01-01 01:26:17.649744939,-0.6738281,-0.82714844,-0.64494324,13.440890826048284,1.2466638010970486,-104.65643310546875,11.427242279052734,-165.50881958007812,28601067.0,50354.0,0.16013380310347192,-0.3278349234551764,0.09666935977710873,0.011057310030959933,-0.019891098859150413,0.002438935731920872,28.601067164999222
1632,C,5177700098943.0,5.313736025548555,5.025519102947603,3.5445816366121603,166,1970-01-01 01:26:17.700098943,0.16668701,-0.06355286,0.09236145,13.772678057131168,0.20088345567274124,-104.37245178222656,11.027351379394531,-165.45330810546875,28651421.0,50354.0,0.08892664317637192,-0.18433146168717643,0.29912455152998874,0.006270594855987629,-0.012894813078729018,0.009964903304978793,28.65142116900006
1632,C,5177750452947.0,3.8677216255485547,8.011298102947604,2.09630889661216,166,1970-01-01 01:26:17.750452947,0.5143738,-0.5407257,0.17608643,10.955916669655009,0.7667927487900983,-104.29060363769531,10.793828964233398,-165.41917419433594,28701775.0,50354.0,0.23116155928167192,-0.1652412532071764,0.14202070095498873,0.00805886067328617,-0.008801192242895122,0.01110671402181428,28.701775172999987
1632,C,5177800806950.0,0.4799500255485545,9.741293102947603,0.4776565966121602,166,1970-01-01 01:26:17.800806950,0.42111206,-0.3085327,0.26379395,10.440415325584489,0.5849060113414257,-104.49432373046875,11.044736862182617,-165.45021057128906,28752129.0,50354.0,0.10946132915967191,-0.0465122112091764,0.06480472922290871,0.008575862462287713,-0.005331316973610514,0.005207243855588925,28.75212917599947
1632,C,5177851160954.0,4.354141305548555,11.526724102947604,1.5177261966121605,166,1970-01-01 01:26:17.851160954,-0.28515625,-1.3384705,0.5623169,7.761886963943619,1.4795329203197616,-104.69086456298828,10.764180183410645,-165.42799377441406,28802483.0,50354.0,0.12170791744303194,0.0419956691928236,0.050237752585008726,0.005820148121716275,-0.00011371297834571461,0.0028964245644779374,28.8024831799994
1632,C,5177901514958.0,2.0970002255485545,13.384832902947604,1.8127395966121602,166,1970-01-01 01:26:17.901514958,-0.05305481,0.033569336,0.11643982,6.256196194764918,0.13228735716329582,-104.97144317626953,10.962576866149902,-165.48341369628906,28852837.0,50354.0,0.16242039032843192,0.13372907073742363,0.08385113727600872,0.007153498404762146,0.004424221777223835,0.0033759559800308364,28.852837183999327
1632,C,5177951868962.0,2.6615754255485546,12.222708102947603,2.5799514966121606,166,1970-01-01 01:26:17.951868962,-0.13179016,0.70059204,0.10386658,6.894247257366172,0.7204069122552084,-105.01009368896484,10.97767162322998,-165.5240478515625,28903191.0,50354.0,0.11980665916767193,0.1512518599054236,0.11059478365410873,0.007105630425163407,0.007174964890794965,0.004895564951257567,28.903191187999255
1632,C,5178002222966.0,4.433593825548555,11.230276602947605,1.2015181966121604,166,1970-01-01 01:26:18.002222966,-0.12135315,1.0173187,0.1111145,8.16056713467502,1.0305388670471687,-105.2381591796875,10.63621997833252,-165.6153106689453,28953545.0,50354.0,0.17863507623487193,0.09700659594032363,0.09520606246630874,0.007513867572229847,0.006250403142828378,0.005181447902773751,28.953545192000092
1632,C,5178052576970.0,6.645813025548555,10.048224102947604,1.4419967966121603,166,1970-01-01 01:26:18.052576970,-0.794281,-0.09184265,0.104019165,9.52445898912831,0.8063109611107365,-105.37110137939453,10.006746292114258,-165.6287841796875,29003899.0,50354.0,0.27894622629007193,0.042259612272323624,0.06655577698440873,0.011520524453670513,0.00350630532416982,0.004072677831850714,29.00389919600002
1632,C,5178102930974.0,6.407058725548555,9.745398102947604,1.0709487966121602,166,1970-01-01 01:26:18.102930974,-1.610611,-1.0939941,-0.2787323,9.861007309631333,1.9668712665599395,-105.5700912475586,9.431764602661133,-165.59280395507812,29054253.0,50354.0,0.32863215207737195,0.004874826277823607,0.06326843120060872,0.015297000832157135,0.001186703759377057,0.0032685840894741843,29.05425319999995
1632,C,5178153284978.0,1.4075013255485547,1.1369231029476055,1.2891036966121603,166,1970-01-01 01:26:18.153284978,-1.2228546,0.17321777,-1.5269165,18.051519181569585,1.9638869026899648,-105.49382781982422,9.332575798034668,-165.55836486816406,29104607.0,50354.0,0.19674717840647193,-0.21948499899917637,0.059419041621908725,0.013227475403591739,-0.005403240318605499,0.003088902503252522,29.104607203999876
1632,C,5178203638982.0,-0.7392729744514455,3.2235171029476035,-3.10992880338784,166,1970-01-01 01:26:18.203638982,-0.70080566,1.0674133,-1.9633179,17.886823530452585,2.3420326433603216,-105.78765106201172,9.383000373840332,-165.62535095214844,29154961.0,50354.0,0.01682398519557192,-0.3836863969361764,-0.045842913713291286,0.005377081186008659,-0.015186046235464377,0.00034180617235526125,29.154961207999804
1632,C,5178253992986.0,0.6824799255485545,9.402640102947604,-0.81374050338784,166,1970-01-01 01:26:18.253992986,-0.15516663,0.9503174,-1.3651581,11.2107607765229,1.6705796843622656,-106.12659454345703,9.513895034790039,-165.7064971923828,29205315.0,50354.0,-0.0014298785922280852,-0.1755804400271764,-0.09878622213669129,0.00038757742195238775,-0.014080661154226334,-0.0036413277532950116,29.205315211999732
1632,C,5178304346990.0,1.7639771255485548,8.402686102947603,-0.19997080338783935,166,1970-01-01 01:26:18.304346990,-0.65953064,-1.0286102,-0.44554138,11.536300230614396,1.3005870712624947,-106.35077667236328,9.558634757995605,-165.68336486816406,29255669.0,50354.0,0.061594449175471924,-0.0451845021141764,-0.02552220957069128,0.0015147633935743302,-0.00555819894829284,-0.003129713385096771,29.25566921599966
1632,C,5178354700993.0,-0.892379674451445,13.209616102947603,3.2613937966121602,166,1970-01-01 01:26:18.354700993,-0.26194763,-1.6347198,0.369812,7.497798670891272,1.6963744576946025,-106.26959228515625,10.354796409606934,-165.59495544433594,29306023.0,50354.0,0.021944209026271935,0.050663732637823575,0.07707744670040872,0.0021032527975453053,0.00013795058689386496,0.0012980062052148963,29.306023219000053
1632,C,5178405054997.0,0.2987671255485549,15.674398902947605,5.17925569661216,166,1970-01-01 01:26:18.405054997,0.62353516,-1.125824,1.0388641,4.893221566372879,1.6539390535932803,-105.76446533203125,11.361227989196777,-165.46653747558594,29356377.0,50354.0,-0.014945383143728064,0.23374364580342363,0.21251023229090873,0.00017620943924480706,0.007160524567015281,0.0072909489939644,29.35637722299998
1632,C,5178455409001.0,2.206771925548555,15.104971402947603,4.60358737661216,166,1970-01-01 01:26:18.455409001,1.8625183,-1.244339,1.4902344,4.059950698771891,2.690381484418009,-105.2526626586914,11.853127479553223,-165.34304809570312,29406731.0,50354.0,0.06308195668947193,0.2814630061915237,0.24630264005456873,0.0012119345121611935,0.012971357877276789,0.011551531687042087,29.40673122699991
1632,C,5178505763005.0,4.528625555548555,9.597571102947605,1.2109023966121604,166,1970-01-01 01:26:18.505763005,2.1906128,-1.7748108,1.4535522,9.680424208864801,3.171994926453275,-105.23760986328125,11.586054801940918,-165.29742431640625,29457085.0,50354.0,0.16957710238158194,0.1284667126709236,0.1463914090204687,0.005857657130231924,0.010320800531799837,0.009886858073562219,29.457085230999837
1632,C,5178556117009.0,3.918792795548555,7.958762102947604,-1.7580612033878396,166,1970-01-01 01:26:18.556117009,-0.0140686035,-1.622345,0.33450317,12.411911900032045,1.6565305899286886,-105.59445190429688,11.36156940460205,-165.2958984375,29507439.0,50354.0,0.21268065182557194,-0.051453398875176366,-0.013775817278191275,0.009624103477673514,0.0019389642014355285,0.003338862753295319,29.507439234999765
1632,C,5178606471013.0,-0.6186675744514449,15.391745102947604,1.04430699661216,166,1970-01-01 01:26:18.606471013,0.92759705,1.6581879,-0.17576599,6.66805875683218,1.9081187285165964,-106.08638763427734,12.142001152038574,-165.48121643066406,29557793.0,50354.0,0.08308725269156195,0.09442651992282364,-0.017970189663991283,0.00744654853202788,0.0010819342686166154,-0.0007992692167833303,29.557793238999693
1632,C,5178656825017.0,4.018600531548555,12.474066102947603,-1.7391708033878395,166,1970-01-01 01:26:18.656825017,-0.08126831,0.69989014,0.4083252,8.779630477565872,0.814358775500403,-106.80030822753906,11.893403053283691,-165.6674041748047,29608147.0,50354.0,0.08560011206083394,0.20810832873082366,-0.01749458606319128,0.004247041782371072,0.0076169198845528795,-0.0008928966584832756,29.60814724299962
1632,C,5178707179021.0,3.3735504855485545,-0.11922589705239517,9.19919899661216,166,1970-01-01 01:26:18.707179021,-0.7228699,-1.5974121,-0.6246338,19.435921195907202,1.8612989264636832,-106.06604766845703,11.681869506835938,-165.4263153076172,29658501.0,50354.0,0.18611218615745395,-0.1824113881361764,0.18782112982080876,0.006840900532241835,0.0006469718733514338,0.004288311392185535,29.65850124699955
1632,C,5178757533025.0,1.3442841255485547,-0.6742648970523959,-14.42847180338784,166,1970-01-01 01:26:18.757533025,0.68006897,3.3953705,-1.5346832,27.188121645507223,3.787649292184976,-106.74723815917969,11.445332527160645,-165.7086944580078,29708855.0,50354.0,0.11878092200359192,-0.5134469177231764,-0.1316574014561913,0.007676293784170652,-0.017519624566620928,0.0014140341890359742,29.708855250999477
1632,C,5178807887029.0,1.5768433255485546,12.969870102947603,19.44604019661216,166,1970-01-01 01:26:18.807887029,-2.0429993,-1.6404572,-0.6647186,16.25948539272381,2.703108725526646,-105.39015197753906,11.626877784729004,-165.3306427001953,29759209.0,50354.0,0.07354522583627192,-0.18390274773117643,0.1263273194362087,0.004842195424164252,-0.01755717252714424,-0.00013419547501710154,29.759209254999405
1632,C,5178858241033.0,0.6665192255485546,-0.3914728970523953,-0.16850730338783926,166,1970-01-01 01:26:18.858241033,1.2590027,1.5421143,0.27548218,19.942609276770717,2.009749920853172,-105.29718780517578,11.574365615844727,-165.4010467529297,29809563.0,50354.0,0.05648113894897192,-0.1767828935471764,0.4853504456527087,0.0032736737861980844,-0.00908098239046509,0.015400211091643674,29.809563258999333
1632,C,5178908595036.0,2.9081574255485547,9.404120102947603,6.20582129661216,166,1970-01-01 01:26:18.908595036,0.96055603,0.8145447,0.3354187,9.5443100457722,1.3033252316199286,-104.6209716796875,11.492768287658691,-165.31829833984375,29859917.0,50354.0,0.08999963404467193,-0.2665577812971764,0.15200145440740873,0.0036879464216609714,-0.011161988170556272,0.01604660878781358,29.859917261999726
