Subject-id_accel,Activity_accel,Timestamp_accel,accel_x,accel_y,accel_z,Segment_accel,DateTime,gyro_x,gyro_y,gyro_z,accel_magnitude,gyro_magnitude,Roll,Pitch,Yaw,Time_Difference,Difference_Microseconds,vx,vy,vz,dx,dy,dz,Time_diff
1609,C,43329429328432.0,3.062851,6.442898700252172,4.331206807986383,47,1970-01-01 12:02:09.429328432,-0.4527893,-0.47358704,0.33616638,11.689693615214258,0.7364174561298475,-95.96764373779297,-25.53397560119629,-105.70471954345703,15005499.0,50354.0,0.1648471930224,-0.2768321324425022,0.18602226395594634,0.009777863163807868,-0.017039613880229506,0.00728942136880114,15.005499804996361
1609,C,43329479682436.0,3.4680176,8.585994700252172,3.7188869079863824,47,1970-01-01 12:02:09.479682436,0.2892456,0.13983154,0.8970947,9.69949004909261,0.9528875995972566,-95.50788879394531,-25.400882720947266,-105.90665435791016,15055853.0,50354.0,0.16442767874220002,-0.11508675085550216,0.2026772094870463,0.008290153446417335,-0.009867341724793857,0.009786286642874226,15.055853808997199
1609,C,43329530036440.0,3.6510315,11.195751700252172,2.9951473079863824,47,1970-01-01 12:02:09.530036440,1.0852051,0.25579834,1.0291748,7.333791547119233,1.5173343958296752,-95.08828735351562,-25.47984504699707,-106.07958984375,15106207.0,50354.0,0.1792362991907,0.004575829125497844,0.1690392394555463,0.008652427972416625,-0.0027823334763963188,0.009358705035027655,15.106207812998036
1609,C,43329580390444.0,3.846344,11.194241000252173,2.9141688679863824,47,1970-01-01 12:02:09.580390444,-0.92575073,2.5457458,0.017227173,7.423199520570251,2.7088988293774916,-94.74764251708984,-25.647907257080078,-106.36101531982422,15156561.0,50354.0,0.18876142296350001,0.07024364622059788,0.1487788533624663,0.009265078650676294,0.001883729930788652,0.008001706122879104,15.156561816998874
1609,C,43329630744448.0,6.513611,11.539867700252174,-0.7383274920136176,47,1970-01-01 12:02:09.630744448,-0.8263092,4.709015,-0.4192047,9.206694263402044,4.799306381627634,-95.05377197265625,-26.189239501953125,-106.45507049560547,15206915.0,50354.0,0.260832587035,0.07890745475259792,0.05478115832286631,0.011319428389732236,0.0037551772692021503,0.005125030414201619,15.206915820999711
1609,C,43329681098452.0,3.8648987,12.021801400252173,-0.24908489201361728,47,1970-01-01 12:02:09.681098452,-0.037872314,0.5930939,-0.42077637,7.029041843676211,0.7281809115427988,-95.4295654296875,-26.41382598876953,-106.3142318725586,15257269.0,50354.0,0.26129973871690004,0.0997429429433979,-0.024860081592653693,0.013145725565455589,0.004497881062792087,0.000753322948836563,15.257269825000549
1609,C,43329731452456.0,2.1981812,10.626415700252172,2.6039424079863824,47,1970-01-01 12:02:09.731452456,-0.39105225,-2.1926422,-0.0013427734,7.216838881554901,2.227241226830023,-95.21418762207031,-26.198373794555664,-106.32061004638672,15307623.0,50354.0,0.1526501626423,0.07674496193939787,0.05928824767964631,0.010422016666520581,0.0044434359812341485,0.0008667979375722132,15.307623829001386
1609,C,43329781806459.0,4.477783,9.931774700252173,2.3646693579863824,47,1970-01-01 12:02:09.781806459,-0.15727234,-0.29640198,-0.072402954,8.776683424479424,0.34326507312122817,-95.02828216552734,-26.318235397338867,-106.39280700683594,15357977.0,50354.0,0.1680807506634,0.02412435971349788,0.1250947384318963,0.00807504220429761,0.0025395869112549564,0.004642210441330308,15.357977831998141
1609,C,43329832160463.0,5.146408,11.372402700252174,1.2015987079863826,47,1970-01-01 12:02:09.832160463,-0.20378113,0.13230896,-0.59417725,8.012279635685266,0.6419338083150948,-95.0772933959961,-26.686616897583008,-106.37901306152344,15408331.0,50354.0,0.242308256807,0.04290607441249791,0.08978793109699632,0.010332364041082261,0.0016876252399901962,0.00541010097072893,15.408331835998979
1609,C,43329882514467.0,4.619034,10.673550100252172,1.0706935079863826,47,1970-01-01 12:02:09.882514467,-0.3323059,0.25273132,-1.414444,8.26236231444531,1.4747719011493787,-95.1427001953125,-26.940662384033203,-106.36264038085938,15458685.0,50354.0,0.245864533234,0.06158175365829787,0.05720950112154631,0.012290726334862258,0.002630690047338426,0.0037009543509662476,15.458685839999816
1609,C,43329932868471.0,9.489365,1.5684777002521724,1.4549403579863827,47,1970-01-01 12:02:09.932868471,-0.031188965,1.1672821,-1.5568695,18.522831654779353,1.946114819980679,-95.03651428222656,-27.12116050720215,-106.45718383789062,15509039.0,50354.0,0.355207161623,-0.18525166606670218,0.06358788384359632,0.01513318206141469,-0.0031136373847063955,0.003041315761267396,15.509039844000654
1609,C,43329983222475.0,4.9839783,4.201458700252173,-1.6179661920136172,47,1970-01-01 12:02:09.983222475,-0.3978424,2.6150055,-1.6132202,14.612721832514154,3.0982271953418863,-95.25563049316406,-27.043315887451172,-106.47612762451172,15559393.0,50354.0,0.3643953642641,-0.34819951124450216,-0.0041045014233036855,0.018117432794259515,-0.01343070029116419,0.0014976131191957076,15.559393848001491
1609,C,43330033576479.0,0.77659607,11.178066700252172,-0.7760013920136173,47,1970-01-01 12:02:10.033576479,-0.14294434,-0.43894958,-0.77449036,6.896626735958463,0.9016347020013935,-95.77059936523438,-26.60748291015625,-106.2243423461914,15609747.0,50354.0,0.14503398091349,-0.10625888899150214,-0.060272921863053684,0.012825902623536183,-0.011441899142741881,-0.0016208303860806197,15.609747851995053
1609,C,43330083930483.0,0.17010498,9.445125700252172,2.1159663579863826,47,1970-01-01 12:02:10.083930483,0.4694519,-1.4961548,0.5647583,8.027004191947356,1.6666781961121169,-95.58814239501953,-25.962411880493164,-106.23063659667969,15660101.000000002,50354.00000000186,0.02383509233585088,0.025760915067498783,0.03373629794829756,0.0042516166571988125,-0.0020266974894847076,-0.0006681125803018397,15.66010185599589
1609,C,43330134284487.0,1.729126,9.151012700252172,0.5164638079863826,47,1970-01-01 12:02:10.134284487,0.8430176,-0.28697205,1.4287567,8.614169089478857,1.6835609104472142,-95.66193389892578,-25.535686492919922,-106.17355346679688,15710455.0,50353.99999999814,0.047816938383458234,-0.02527422349050123,0.06627669428869386,0.001803983177419979,1.2253433834066984e-05,0.0025180271055506398,15.710455859996728
1609,C,43330184638491.0,2.8766174,10.441250300252172,-0.5268406920136173,47,1970-01-01 12:02:10.184638491,0.37202454,-0.67878723,1.890686,7.984685501168845,2.0429997338642227,-96.00513458251953,-25.34379768371582,-105.99602508544922,15760809.0,50354.0,0.1159588015818,-0.00019479443630216424,-0.0002612588091536878,0.004123381805105307,-0.000641233464343129,0.001662070619068383,15.760809863997565
1609,C,43330234992495.0,4.8902893,11.131039100252172,0.3255611079863827,47,1970-01-01 12:02:10.234992495,-0.1435852,-1.0904541,1.9761047,8.166574468671865,2.2615695079364553,-96.21693420410156,-25.52890968322754,-105.86846923828125,15811163.0,50354.0,0.1955474099859,0.049656330236497834,-0.005067616087053685,0.007842791888639983,0.0012452930868415263,-0.00013416508326181303,15.811163867998403
1609,C,43330285346499.0,5.9460754,10.878399300252173,2.5047145079863826,47,1970-01-01 12:02:10.285346499,0.31611633,-0.8717346,1.3042603,8.893847668400714,1.600295496802362,-95.99085235595703,-25.872909545898438,-105.92699432373047,15861517.0,50354.0,0.27282715405190006,0.06066243060949787,0.07125784918334632,0.011792266398779694,0.002777495441819634,0.00166647149866536,15.86151787199924
1609,C,43330335700502.0,5.4289856,12.161053100252172,1.3553004679863827,47,1970-01-01 12:02:10.335700502,1.2158356,1.077713,0.9797363,7.614949712725475,1.8972624315402573,-95.9074935913086,-26.310321807861328,-105.98994445800781,15911871.0,50354.0,0.286389910797,0.08659509308749787,0.09718359705006632,0.014079408041700759,0.003707502674119262,0.00424085029181863,15.911871874995995
1609,C,43330386054506.0,7.5962067,9.909954700252172,-5.498917192013618,47,1970-01-01 12:02:10.386054506,-0.4337921,1.9874878,0.10662842,13.046494430977575,2.037069699623198,-96.69339752197266,-26.658161163330078,-105.7381820678711,15962225.0,50354.0,0.32793526653710003,0.06221256339329782,-0.1043238382608337,0.015466864989740639,0.0037465303672169934,-0.00017976985296349037,15.962225878996833
1609,C,43330436408510.0,6.4230194,8.749172700252172,-1.3015751920136174,47,1970-01-01 12:02:10.436408510,0.51335144,0.3052826,-0.788208,11.305150659178159,0.9889383287530288,-96.97577667236328,-26.91231346130371,-105.60883331298828,16012578.999999998,50353.99999999814,0.35296205551968696,-0.023688349437501286,-0.17121599675264737,0.017142951877423093,0.0009699241347650537,-0.006937266426134156,16.01257988299767
1609,C,43330486762514.0,5.8523407,-0.2784612997478284,-0.025741992013617487,47,1970-01-01 12:02:10.486762514,0.8492737,-1.649353,-0.7383728,18.790363623364172,1.9967036655198813,-96.95976257324219,-26.720712661743164,-105.51985931396484,16062933.000000002,50354.000000003725,0.30905674123772287,-0.28020209906952287,-0.033417864742256165,0.01666764724596254,-0.007651049822061913,-0.0051520667308575675,16.062933886998508
1609,C,43330537116518.0,6.0859222,-0.04773329974782925,3.5615077079863826,47,1970-01-01 12:02:10.537116518,0.54989624,-4.205948,-0.38861084,18.613862856613533,4.259507346916501,-96.7172622680664,-26.538175582885742,-105.42762756347656,16113287.0,50353.99999999814,0.30056964503328887,-0.5016818014314837,0.08901997343104301,0.015348563527144695,-0.019685490962913114,0.0013998942904575346,16.113287890999345
1609,C,43330587470522.0,1.054718,9.264751700252173,3.4635768079863825,47,1970-01-01 12:02:10.587470522,-0.12683105,-2.983612,-0.6687317,8.409890814417569,3.0602661270505527,-96.33019256591797,-26.108064651489258,-105.46605682373047,16163640.999999998,50353.99999999814,0.17977989831539334,-0.2614123277304925,0.17687055285863976,0.012093760452889324,-0.01921242088991036,0.006694325780395096,16.163641895000183
1609,C,43330637824526.0,1.7194061,9.781292400252173,3.3099818079863823,47,1970-01-01 12:02:10.637824526,-0.31428528,-1.07724,0.40454102,7.9948923804984835,1.1928431127718846,-95.93183135986328,-25.767717361450195,-105.60115051269531,16213995.0,50354.00000000186,0.06984412246570258,-0.013946947681602623,0.1705378852743526,0.006284783971205884,-0.006932720477050576,0.008746702246874672,16.21399589900102
1609,C,43330688178530.0,1.638855,10.680340200252171,2.8292079079863828,47,1970-01-01 12:02:10.688178530,-0.10359192,0.52394104,0.28286743,7.039194742363878,0.604367009556588,-95.56697082519531,-25.466981887817383,-105.78592681884766,16264349.0,50354.0,0.0845509397147,0.021693323982897854,0.15456637947904633,0.003887204480515996,0.00019503051613771005,0.008185150073696325,16.26434990299458
1609,C,43330738532534.0,2.4211884,11.236858700252172,2.3930964879863827,47,1970-01-01 12:02:10.738532534,0.3100586,1.131424,0.42282104,6.700583658822753,1.2470101182735613,-95.27474212646484,-25.352243423461914,-105.95736694335938,16314703.000000002,50354.00000000186,0.10221971268180377,0.05834011671799999,0.13148195777741117,0.004702324715386949,0.0020150019365265796,0.007201838987106097,16.31470390699542
1609,C,43330788886538.0,5.996887,10.950588700252172,-2.9702611920136173,47,1970-01-01 12:02:10.788886538,-2.4484406,5.7613525,-0.58461,10.128300559397365,6.287273880871154,-95.93533325195312,-25.754013061523438,-105.98161315917969,16365057.0,50353.99999999814,0.21194188434579214,0.06514416320249544,-0.014531275753293146,0.00790964652836349,0.0031089637155581984,0.0029444673213211104,16.365057910996256
1609,C,43330839240542.0,0.46092224,8.987819700252173,2.9300990479863827,47,1970-01-01 12:02:10.839240542,-1.6428375,2.1805725,-0.793396,8.550356985054002,2.8431125007601263,-95.62324523925781,-25.267070770263672,-106.24569702148438,16415410.999999998,50353.99999999814,0.16258826323547398,0.008520108299497547,-0.0010111623001736484,0.009429545525653189,0.001854645363605609,-0.00039131196287211904,16.415411914997094
1609,C,43330889594545.0,2.8757172,10.586361400252173,3.4961696079863827,47,1970-01-01 12:02:10.889594545,0.41362,-2.7778473,0.5626831,7.618808583457138,2.8642851459906886,-95.2051010131836,-25.17683219909668,-106.29254913330078,16465765.000000002,50354.000000003725,0.08400657118088621,-0.0006500424326021755,0.16179416595143828,0.0062085181461011595,0.00019814464833083938,0.004048033682928189,16.465765918001125
1609,C,43330939948549.0,9.278,10.324108700252172,-0.5383761920136172,47,1970-01-01 12:02:10.939948549,1.0293884,2.7671661,0.4736023,11.969909997545722,2.9901752192152653,-95.32887268066406,-25.796974182128906,-106.34404754638672,16516119.0,50353.99999999814,0.3059941379443887,0.03299370572039662,0.07446836483394355,0.009819047853646682,0.0008143164105967707,0.005948381737583338,16.516119921994687
1609,C,43330990302553.0,6.172882,11.703289700252173,-1.1304631920136174,47,1970-01-01 12:02:10.990302553,-1.4608612,0.30363464,-0.9571686,8.98810168986583,1.7727044787835704,-95.84564971923828,-26.313087463378906,-106.15843963623047,16566472.999999998,50353.99999999814,0.3890068561139856,0.06111460952949557,-0.042016369171652135,0.017498040027407045,0.002369365053046448,0.0008170438947894807,16.566473925995524
1609,C,43331040656557.0,5.3012085,10.431713700252171,1.8706508079863826,47,1970-01-01 12:02:11.040656557,-0.30737305,0.20037842,-1.5239258,8.810434444408815,1.567475533133975,-95.74259185791016,-26.657411575317383,-106.21318817138672,16616827.0,50354.00000000186,0.2888831765185107,0.06382378061450018,0.018635703607347,0.017067237351588993,0.0031455738486554975,-0.0005886550169125321,16.61682792999636
1609,C,43331091010561.0,7.6642303,3.399395700252173,-0.09602399201361744,47,1970-01-01 12:02:11.091010561,0.15037537,0.598526,-1.7579346,16.1503966043623,1.863110351658161,-95.78617095947266,-26.79021644592285,-106.20896911621094,16667181.0,50354.0,0.3264308526676,-0.14524335862350218,0.04467977934574631,0.015491761312818712,-0.0020499007155326435,0.0015940939143100302,16.6671819339972
1609,C,43331141364565.0,12.815887,-0.5714752997478278,0.5005794079863826,47,1970-01-01 12:02:11.141364565,-0.45191956,2.947937,-1.2997894,22.175793696330704,3.253308520419168,-95.70967864990234,-27.08182716369629,-106.37886810302734,16717535.000000002,50354.00000000186,0.5156279132621191,-0.4222706480765177,0.010185491707946684,0.021200513549813324,-0.01428830014668693,0.0013813429293188797,16.717535937998036
1609,C,43331191718569.0,0.13667297,12.569225700252172,-1.3070224920136175,47,1970-01-01 12:02:11.191718569,0.37953186,-0.8863678,-0.58006287,5.880634184979518,1.125240082286681,-96.46222686767578,-26.55718421936035,-105.98884582519531,16767889.0,50353.99999999814,0.3261066023646779,-0.1914018381664951,-0.020303817526552942,0.021192349899935084,-0.01545043218613976,-0.00025474908913504036,16.767889941998874
1609,C,43331242072573.0,-0.023956299,9.727550700252173,2.1066127179863825,47,1970-01-01 12:02:11.242072573,0.8491516,-2.0149994,0.5414734,7.7426782229209286,2.252659420482928,-96.25493621826172,-25.88033676147461,-105.97461700439453,16818243.0,50354.0,0.0028378676257670003,0.06789673943549787,0.020131283119316303,0.008281834920949431,-0.003109487870750317,-4.343898770996854e-06,16.81824394599971
1609,C,43331292426577.0,3.2616577,8.071621700252173,0.3012386079863827,47,1970-01-01 12:02:11.292426577,1.009964,-0.025177002,1.4708862,10.081335411991605,1.7844235416728138,-96.29703521728516,-25.633628845214844,-105.94036865234375,16868597.0,50354.0,0.08151560817297701,-0.045339436472502104,0.06062247283401631,0.002123767460184978,0.0005679252166993445,0.0020331373136370555,16.86859795000055
1609,C,43331342780581.0,3.5975952,10.280483700252173,-0.9411167920136172,47,1970-01-01 12:02:11.342780581,0.51527405,-0.592041,1.560379,8.53967578758914,1.7466546641867713,-96.66761779785156,-25.554933547973633,-105.75031280517578,16918951.0,50354.0,0.17269541026330001,-0.031418242331502116,-0.016110213039253685,0.006400270811170147,-0.0019325280792484145,0.0011206851648527388,16.918951954001386
1609,C,43331393134584.0,3.9755096,10.458706300252173,-0.24588059201361756,47,1970-01-01 12:02:11.393134584,0.454422,-2.5476532,1.7364655,8.350519417901372,3.116464120480852,-96.95906829833984,-25.534591674804688,-105.5097885131836,16969305.0,50354.0,0.1906680595496,0.028681386642697877,-0.029885033137653692,0.009148402079479385,-6.890581567702433e-05,-0.0011580223129959973,16.96930595699814
1609,C,43331443488588.0,5.0265045,11.308865000252172,2.6390834079863827,47,1970-01-01 12:02:11.443488588,0.6385498,-2.7530823,1.3625336,7.980680631329981,3.1374680570138542,-96.7022933959961,-25.79786491394043,-105.49140167236328,17019659.0,50354.0,0.22664370899570002,0.05457294263279787,0.06025366729774632,0.01050665839666502,0.002096094248169157,0.000764591102248652,17.01965996099898
1609,C,43331493842592.0,4.3192444,11.922573700252173,2.0021510499863826,47,1970-01-01 12:02:11.493842592,0.92333984,1.0503998,0.5864563,7.029667455157267,1.516518114557474,-96.46878051757812,-26.07920265197754,-105.62350463867188,17070013.0,50354.0,0.2352979200553,0.09142873216259786,0.11685235994838032,0.011630304394617028,0.0036758841663236783,0.004458998447975731,17.070013964999816
1609,C,43331544196596.0,4.403412,10.479061700252172,-1.4786228920136175,47,1970-01-01 12:02:11.544196596,0.5528259,2.5278168,0.16934204,8.94131697532581,2.5930967927527138,-96.8453598022461,-26.202194213867188,-105.55908203125,17120367.0,50354.0,0.21961032018280002,0.07053677447849786,0.013180868433280308,0.011453224764474646,0.004077805560702867,0.00327384659096507,17.120367969000654
1609,C,43331594550600.0,3.4193268,10.433880300252174,-1.1981051920136172,47,1970-01-01 12:02:11.594550600,-0.6437988,0.40904236,-0.1821289,8.428625972571046,0.7841960745700144,-97.29985809326172,-26.182268142700195,-105.38993072509766,17170721.0,50354.0,0.1969530947676,0.03305594074669788,-0.06739198297155369,0.010487817098206223,0.0026081537912247535,-0.001364873230730109,17.17072197300149
1609,C,43331644904604.0,4.7579346,9.655483700252173,2.413146537986383,47,1970-01-01 12:02:11.644904604,0.41651917,-0.33236694,-0.1477356,9.15979290484793,0.5529754147245721,-97.03301239013672,-26.32440185546875,-105.48314666748047,17221075.0,50354.0,0.20587891026779997,0.012320717440697898,0.030591095967556322,0.010142101390776264,0.0011424481231840635,-0.0009265359320996416,17.221075976995053
1609,C,43331695258608.0,7.736313,2.9724087002521724,-0.5424808920136173,47,1970-01-01 12:02:11.695258608,1.0526733,0.5940399,-0.5177307,16.618125179304034,1.3149332899608974,-97.03385925292969,-26.389854431152344,-105.48300170898438,17271429.0,50354.0,0.3145676718252,-0.17553675303250213,0.047097748968656324,0.013103283597355462,-0.004109290128094855,0.001955972048959026,17.27142998099589
1609,C,43331745612612.0,6.168396,0.1263697002521731,1.0518947079863827,47,1970-01-01 12:02:11.745612612,-0.53108215,-2.796646,-0.83047485,18.427984963077506,2.9652935058518484,-97.02410125732422,-26.24504852294922,-105.3702621459961,17321783.0,50354.0,0.350078858493,-0.4154512562105022,0.012825511644746317,0.016733805693821324,-0.01487930510871112,0.0015086879324636383,17.321783984996728
1609,C,43331795966616.0,3.026001,7.395916700252172,4.195113807986383,47,1970-01-01 12:02:11.795966616,-0.44013977,-2.4166107,-0.40983582,10.755747273737981,2.490320399435626,-96.59220123291016,-26.039230346679688,-105.46047973632812,17372137.0,50354.0,0.23148733326900003,-0.30408059529450215,0.13210393340664633,0.014642092009991878,-0.018115653425341497,0.0036488886380589133,17.372137988997565
1609,C,43331846320620.0,0.85383606,10.445019200252172,2.881194607986383,47,1970-01-01 12:02:11.846320620,-0.4940338,-0.9299164,-0.06283569,7.137119670597503,1.0548754573262078,-96.2524642944336,-25.585464477539062,-105.5774154663086,17422491.0,50354.0,0.09768265765962,-0.04428795683300215,0.17816021698894632,0.008287512861609867,-0.008770875036914176,0.007811520514509836,17.422491992998403
1609,C,43331896674624.0,3.1985474,9.331020700252173,3.1319423079863826,47,1970-01-01 12:02:11.896674624,-0.34251404,0.35247803,0.5806885,8.823993467387824,0.7607599905765632,-95.88780975341797,-25.468318939208984,-105.76062774658203,17472845.0,50354.0,0.10202685837242,0.004432156574997875,0.15139274813344633,0.005028086485138672,-0.0010034494830957737,0.00829715500288648,17.47284599699924
1609,C,43331947028627.0,2.3717346,9.796200200252173,2.7639003079863826,47,1970-01-01 12:02:11.947028627,0.18991089,1.1390076,0.26010132,8.072360878245945,1.18366260212279,-95.5361557006836,-25.264728546142578,-105.95954132080078,17523200.0,50355.0,0.140245775055,-0.011903395777551862,0.1484425774636543,0.006099819228118867,-0.000188107125022303,0.007549103910221001,17.523199999995995
1609,C,43331997382631.0,4.638397,9.927105400252174,-4.619431192013618,47,1970-01-01 12:02:11.997382631,0.4950714,1.9578094,0.40647888,11.020358832341927,2.0599365081750394,-96.29911804199219,-25.34615707397461,-105.71273803710938,17573554.0,50354.0,0.17649408329320002,0.0031044651038978975,-0.046716701067153706,0.007974559413632632,-0.00022153067757058588,0.0025611523900346956,17.573554003996833
1609,C,43332047736635.0,5.8629,11.122707700252173,-11.086106192013618,47,1970-01-01 12:02:12.047736635,-0.4872589,3.3284302,-0.1690979,15.633041634291198,3.368154232170145,-97.48961639404297,-25.55152702331543,-105.3602294921875,17623908.0,50354.0,0.26439115456900003,0.0365019444313979,-0.39541831471765376,0.011100167633656611,0.0009971705728701423,-0.011131633292414098,17.62390800799767
1609,C,43332098090639.0,2.5459137,9.902157300252172,2.0055079839863827,47,1970-01-01 12:02:12.098090639,-1.7911835,1.4963989,-0.67941284,7.9833894849506395,2.43087428834778,-97.33758544921875,-25.426958084106445,-105.52721405029297,17674262.0,50354.0,0.2117087025249,0.03587382611769786,-0.22862222108350175,0.01198676610205312,0.001822204775114584,-0.015711468569865692,17.674262011998508
1609,C,43332148444643.0,3.269638,10.464336700252172,4.237472107986383,47,1970-01-01 12:02:12.148444643,-0.2453003,-3.1072083,0.33581543,8.063138084248992,3.134914298636418,-96.79852294921875,-25.4071102142334,-105.62663269042969,17724616.0,50354.0,0.14641814515090001,0.019298019450697847,0.15717950977559833,0.009016559643933619,0.0013890615558754989,-0.0017987131425990844,17.724616015999345
1609,C,43332198798647.0,5.780304,10.246227700252174,3.130004407986383,47,1970-01-01 12:02:12.198798647,1.0354462,0.5343323,0.28952026,9.326424349675472,1.2006172666042236,-96.3863754272461,-25.733911514282227,-105.80783081054688,17774970.0,50354.0,0.22785038973400001,0.027960679911497883,0.18549095624264633,0.009422958902797129,0.001189832273842002,0.008627414322941347,17.774970020000183
1609,C,43332249152651.0,6.8553925,11.754665700252172,-0.6130069920136172,47,1970-01-01 12:02:12.249152651,0.34484863,4.8704987,-0.6848755,9.283074194605646,4.930490098845632,-96.58028411865234,-26.34862518310547,-105.92980194091797,17825324.0,50354.0,0.31812893078050003,0.06044729314449788,0.06337044394194633,0.013746121352593569,0.0022258475376308053,0.00626558347244749,17.82532402400102
1609,C,43332299506655.0,5.950165,11.186153700252174,-1.2398227920136173,47,1970-01-01 12:02:12.299506655,-0.4005127,1.8265381,-1.2116699,9.219558758730777,2.2281821739209096,-96.98332214355469,-26.791879653930664,-105.83348083496094,17875678.0,50354.0,0.3224055211775,0.08411181004649787,-0.046648695472453684,0.01612673589694657,0.0036395645410397,0.0004210034612164162,17.87567802799458
1609,C,43332349860659.0,7.943207,5.952541700252173,0.5909725079863826,47,1970-01-01 12:02:12.349860659,0.18946838,-0.35960388,-1.3394318,14.054821611675193,1.3997466786465753,-96.98035430908203,-27.046146392822266,-105.8073501586914,17926032.0,50354.0,0.349793426844,-0.06196826590150211,-0.01633610360095369,0.016923952914337306,0.0005575080109385583,-0.0015857682862711775,17.92603203199542
1609,C,43332400214663.0,8.330307,2.2672387002521717,0.9648433079863826,47,1970-01-01 12:02:12.400214663,-0.4104004,0.14447021,-1.5762329,17.361660421731365,1.6351789764242977,-96.92081451416016,-27.166852951049805,-105.8416748046875,17976386.0,50354.0,0.409718261978,-0.2865197888565022,0.03917077479874632,0.019122225789471495,-0.008773883754642275,0.000574908516746825,17.976386035996256
1609,C,43332450550736.0,4.194412,5.551738700252173,-0.17448469201361738,47,1970-01-01 12:02:12.450550736,-0.30163574,0.029327393,-1.1834412,12.809517665682195,1.2216289491834107,-97.02237701416016,-27.026004791259766,-105.79724884033203,18026722.0,50336.0,0.315222127792,-0.2965047767841067,0.019891745646802555,0.018245299729731358,-0.014673562268042844,0.001486485514573574,18.026722108996182
1609,C,43332500904739.0,1.7196808,8.767879700252173,0.8760372079863825,47,1970-01-01 12:02:12.500904739,0.19425964,-0.85466003,-0.2281189,8.932811298188325,0.9056593217925494,-97.03388214111328,-26.639036178588867,-105.74860382080078,18077076.0,50354.0,0.1488991144256,-0.13294416753050212,0.017662987694646307,0.011685180515312515,-0.010812236071008906,0.000945515521337658,18.077076112000213
1609,C,43332551258743.0,2.4048157,9.060680700252172,1.5041957279863827,47,1970-01-01 12:02:12.551258743,0.48919678,-0.5107727,0.68803406,8.755919384984802,0.9867082184454238,-96.9114761352539,-26.337387084960938,-105.7733383178711,18127430.0,50354.0,0.10384244838049998,-0.04459953479650213,0.05992712462898632,0.00636327432676918,-0.004470017793486987,0.0019534862579720985,18.12743011600105
1609,C,43332601612747.0,2.7192383,10.718334700252171,0.10436970798638256,47,1970-01-01 12:02:12.601612747,0.30342102,-0.08479309,1.1301422,7.505855882817529,1.1732329588408386,-97.11036682128906,-26.159626007080078,-105.68098449707031,18177784.0,50354.0,0.12900830755800002,0.0045070707384978256,0.04049885198148631,0.005862483482263615,-0.0010094079675883744,0.00252842481312187,18.177784119994612
1609,C,43332651966751.0,3.2849274,10.722149300252173,-0.7401584920136173,47,1970-01-01 12:02:12.651966751,0.3242798,-1.6139526,1.5589905,7.968761278492612,2.26725643958178,-97.49419403076172,-26.044719696044922,-105.44173431396484,18228138.0,50354.0,0.1511668798289,0.04633786568069785,-0.016007254215453688,0.007053970692839983,0.0012801229642260897,0.0006166249569554033,18.22813812399545
1609,C,43332702320755.0,4.920929,10.573650700252173,0.9644008079863826,47,1970-01-01 12:02:12.702320755,0.6790314,-3.1225739,1.5289764,8.527072581131288,3.5425019738744155,-97.54447937011719,-26.177579879760742,-105.27458953857422,18278492.0,50354.0,0.2065988465828,0.042695156612697904,0.005645748789246313,0.009007467693867371,0.002241584402280825,-0.0002608716221156231,18.278492127996287
1609,C,43332752674759.0,4.242798,12.512127400252172,0.20228530798638267,47,1970-01-01 12:02:12.752674759,0.90940857,-1.3348389,0.95402527,6.752450523561704,1.8758952667836304,-97.78321838378906,-26.44770622253418,-105.09494018554688,18328846.0,50354.0,0.230715154679,0.08776143523639789,0.029373656341846313,0.011010254609768339,0.003284505612984685,0.0008816835629855191,18.328846131997125
1609,C,43332803028763.0,3.153244,12.575832700252173,0.3961025079863827,47,1970-01-01 12:02:12.803028763,0.84132385,-0.039367676,0.25253296,6.0226812813623205,0.8792886502047124,-97.97254180908203,-26.570566177368164,-104.99149322509766,18379200.0,50354.0,0.186210149434,0.13817037145039787,0.015065610042746314,0.010496928381653002,0.005688285096953457,0.0011188474097648885,18.379200135997962
1609,C,43332853382767.0,4.7873535,10.189983700252172,-1.4902501920136173,47,1970-01-01 12:02:12.853382767,0.26966858,0.9987488,-0.203125,9.363764683389915,1.0542675534064665,-98.34425354003906,-26.716365814208984,-104.86172485351562,18429554.0,50354.0,0.1999204232575,0.07970575951549787,-0.027547356240753686,0.009721609428653896,0.005485467349328358,-0.00031425292402723163,18.4295541399988
1609,C,43332903736771.0,5.368103,8.151302700252172,1.5513453879863826,47,1970-01-01 12:02:12.903736771,-0.74887085,1.9112854,-0.6055603,10.760067337545527,2.1402155749290706,-98.1922378540039,-26.84320640563965,-105.027587890625,18479908.0,50354.0,0.2556839283005,-0.031690632294502155,0.0015381937490063107,0.011470750759175767,0.001208876858043009,-0.0006548326840547237,18.479908143999637
1609,C,43332954090775.0,5.039963,3.580028700252173,-2.0742801920136174,47,1970-01-01 12:02:12.954090775,0.39530945,1.3800201,-0.3202057,15.310970308077865,1.470801389710998,-98.34830474853516,-26.684663772583008,-105.00727844238281,18530262.0,50354.0,0.262043877682,-0.19810946932950216,-0.01316592956099369,0.013034832971221403,-0.0057856771585875575,-0.0002927515045384063,18.530262148000475
1609,C,43333004444778.0,6.6604614,1.2928587002521716,1.2974238779863825,47,1970-01-01 12:02:13.004444778,-0.21865845,-2.0370483,-0.50183105,17.505087877985527,2.109315456974939,-98.25509643554688,-26.59014320373535,-104.96067810058594,18580616.0,50354.0,0.2945815851188,-0.37078451391750217,-0.019558911418263693,0.014014159276935743,-0.01432304381620983,-0.0008239133213347632,18.58061615099723
1609,C,43333054798782.0,2.4661407,8.280132700252173,3.8107601079863826,47,1970-01-01 12:02:13.054798782,-0.6592102,-2.684555,-0.5912323,9.695193961817154,2.8268267135380496,-97.83393096923828,-26.34209632873535,-105.04057312011719,18630970.0,50354.0,0.2297804610717,-0.25244999550950215,0.1286087482148363,0.013201863236938218,-0.01569117524384369,0.002745547741027309,18.630970154998067
1609,C,43333105152786.0,3.5757904,8.206280200252172,3.7800899079863823,47,1970-01-01 12:02:13.105152786,0.015945435,-1.414444,0.4222107,10.097038271549279,1.4762005152511732,-97.37886047363281,-26.203800201416016,-105.18143463134766,18681324.0,50354.0,0.15211769930469998,-0.07839078240400216,0.1911148308521463,0.009615049983796623,-0.008329578265528298,0.008049680550169422,18.681324158998905
1609,C,43333155506790.0,3.5157318,9.177212200252173,3.2235103079863827,47,1970-01-01 12:02:13.155506790,1.0796356,-0.51693726,0.5574341,9.096459382659154,1.3204430829863427,-96.92625427246094,-26.108707427978516,-105.33733367919922,18731678.0,50354.0,0.1785432544294,-0.05580501183250215,0.17632964263754633,0.008325050832163436,-0.003378647511492469,0.009251149509049993,18.731678162999742
1609,C,43333205860794.0,3.5343628,12.122784100252172,-0.8714756920136175,47,1970-01-01 12:02:13.205860794,-0.5324707,3.199768,0.46264648,6.999109698974353,3.2765961096294554,-97.36376190185547,-26.245933532714844,-105.3011703491211,18782032.0,50354.0,0.1775002317442,0.042800806857797864,0.05921717552634631,0.008964106851392727,-0.00032740686864812986,0.0059303622409123255,18.78203216700058
1609,C,43333256214798.0,1.9439392,10.030193700252173,0.8651576079863825,47,1970-01-01 12:02:13.256214798,-0.8844452,3.5291138,-0.110183716,7.763231268518843,3.639921424485019,-97.34626007080078,-25.982498168945312,-105.48475646972656,18832386.0,50354.0,0.137927209454,0.06427632208329787,-0.00015907040155369544,0.007941516687047082,0.0026958808753499673,0.0014869059127269038,18.832386171001417
1609,C,43333306568802.0,2.2698517,10.157330000252173,1.0577540779863828,47,1970-01-01 12:02:13.306568802,0.09869385,-0.37800598,0.15539551,7.706356766862951,0.42044828632275694,-97.33811950683594,-25.75196075439453,-105.47016143798828,18882740.0,50354.0,0.10609061348929999,0.014792084207597901,0.048413147517736316,0.006143636728243464,0.0019907052651858825,0.00121489289955413,18.88274017499498
1609,C,43333356922806.0,5.4620667,10.390804700252172,1.4950557079863827,47,1970-01-01 12:02:13.356922806,0.25317383,-2.69281,0.4414673,8.951408737985954,2.7404773418633037,-97.30703735351562,-26.00811004638672,-105.3604965209961,18933094.0,50354.0,0.1946665095568,0.023871187354597867,0.06427209198143632,0.007572162086931661,0.0009734251881214029,0.0028370762748706696,18.933094178995816
1609,C,43333407276810.0,5.4065247,9.881893700252173,2.8288417079863826,47,1970-01-01 12:02:13.407276810,0.11306763,-1.5354462,0.007019043,9.357974654527137,1.5396196247816838,-97.02407836914062,-26.244131088256836,-105.41423034667969,18983448.0,50354.0,0.2736385256778,0.016936527629497846,0.10886276524194631,0.011790515872101524,0.001027415840154578,0.0043590163003131045,18.983448182996653
1609,C,43333457630814.0,6.6099243,12.350246700252171,-1.6945499920136176,47,1970-01-01 12:02:13.457630814,-0.55578613,0.08508301,-0.8687744,9.116840504634176,1.034846026704648,-97.57789611816406,-26.834381103515625,-105.17809295654297,19033802.0,50354.0,0.30253813647300004,0.06626939886349784,0.028558062533046307,0.014506399822970693,0.0020948756113141525,0.0034598441808909894,19.03380218699749
1609,C,43333507984818.0,5.517273,7.947902700252172,0.6538844079863826,47,1970-01-01 12:02:13.507984818,-1.0930634,1.0420685,-1.9944305,11.078912522970095,2.5016889044087915,-97.61621856689453,-27.015907287597656,-105.21975708007812,19084156.0,50354.0,0.30532644642210005,0.01757730745649781,-0.026200837409053695,0.015304206603549936,0.0021110085250185305,5.9347856946762004e-05,19.08415619099833
1609,C,43333558338821.0,7.6886597,1.0455137002521724,2.5599055679863825,47,1970-01-01 12:02:13.558338821,0.5779114,-2.6876984,-1.5345306,18.144130841972142,3.1484104621139983,-97.413330078125,-27.0341739654541,-105.17108917236328,19134510.0,50354.0,0.3324857675879,-0.2670419552845022,0.0809135902250663,0.01605819811212977,-0.006280771438365667,0.0013775029776487496,19.134510193995084
1609,C,43333608692825.0,7.90596,1.5513577002521721,3.7172847079863827,47,1970-01-01 12:02:13.608692825,2.0483093,-3.8166504,-0.9994507,17.860777839086644,4.44536758502794,-97.0674057006836,-27.057035446166992,-105.10753631591797,19184864.0,50354.0,0.3926257401869,-0.42808776874950216,0.15804081957816632,0.01825613243124614,-0.01750128106200413,0.006016155175615988,19.18486419799592
1609,C,43333659046829.0,2.8913574,10.860241400252171,2.6150203079863825,47,1970-01-01 12:02:13.659046829,2.522461,-4.12175,-0.8127289,7.244340403825258,4.90022048727567,-96.71968078613281,-26.99896812438965,-105.0215835571289,19235218.0,50354.0,0.2718440601798,-0.1809823694466022,0.15942844338714632,0.016729356163832407,-0.015334558869363319,0.007992923633677677,19.23521820199676
1609,C,43333709400833.0,1.7102966,11.125835700252171,2.3809962679863825,47,1970-01-01 12:02:13.709400833,2.6916962,-4.3249817,-0.16851807,6.583772229253632,5.096969048203634,-96.40760803222656,-26.696773529052734,-104.90919494628906,19285572.0,50354.0,0.11585584275800001,0.060074263159397796,0.12578470933326633,0.009761120456264991,-0.0030441033919929457,0.007180811546041829,19.285572205997596
1609,C,43333759754837.0,2.308319,9.445659700252172,2.7992549079863824,47,1970-01-01 12:02:13.759754837,2.9219666,-4.018585,0.33428955,8.392096866039168,4.979825671344305,-96.027587890625,-26.405902862548828,-104.83670806884766,19335926.0,50354.0,0.10117668496120001,0.024459339698497812,0.13042318385746632,0.005464227950386299,0.0021283025191532376,0.006450546126863077,19.335926209998433
1609,C,43333810108841.0,4.060318,8.546962700252173,2.6215663079863827,47,1970-01-01 12:02:13.810108841,3.1093445,-3.39505,0.6634369,9.825481825579457,4.651294039561664,-95.69192504882812,-26.31484603881836,-104.76853942871094,19386280.0,50354.0,0.160343173749,-0.04046894582250214,0.13648001575454632,0.006584285482746706,-0.00040307385338405705,0.006719821856631642,19.38628021399927
1609,C,43333860462845.0,4.3695526,9.228908700252173,2.2559810079863825,47,1970-01-01 12:02:13.860462845,2.5369263,-4.428787,0.46658325,9.331735336959895,5.125216997570079,-95.47958374023438,-26.315349578857422,-104.6109848022461,19436634.0,50354.0,0.2122388520962,-0.045926085749502105,0.12280200877424631,0.009380497664704602,-0.002175167709888351,0.0065279435315614125,19.43663421800011
1609,C,43333910816849.0,4.0133514,9.066845700252172,3.0634303079863825,47,1970-01-01 12:02:13.910816849,1.9700623,-5.3218384,-0.10910034,9.37817076963622,5.6758270151392,-95.18553161621094,-26.286149978637695,-104.459716796875,19486988.0,50354.0,0.211056374008,-0.03283699145850215,0.13392681870224632,0.010657303907625443,-0.0019830179948659233,0.0064636616893756545,19.486988222000946
1609,C,43333961170853.0,5.023224,1.2402917002521718,5.475356607986383,47,1970-01-01 12:02:13.961170853,1.035492,-5.159485,-0.17274475,17.351246684087442,5.265203689881481,-94.80223846435547,-26.064306259155273,-104.37480926513672,19537342.0,50354.0,0.22751385884580003,-0.23396640166750218,0.2149810381834463,0.011041882752560125,-0.006717309028733411,0.008784453112811083,19.537342225994507
1609,C,43334011524857.0,1.0055084,8.658504700252173,4.105376807986382,47,1970-01-01 12:02:14.011524857,0.1622467,-2.2109222,-0.7819519,9.127072927015021,2.3507338726506966,-94.34546661376953,-25.642553329467773,-104.46854400634766,19587696.0,50354.0,0.1517853956348,-0.24424720302450215,0.24121412521394633,0.009549617330058068,-0.012039983925330594,0.011485625628856156,19.587696229995345
1609,C,43334061878861.0,-0.43092346,9.203060700252172,3.517959107986383,47,1970-01-01 12:02:14.061878861,0.4389801,-0.3840332,-0.46609497,8.425194269326024,0.7466120464856906,-93.92132568359375,-25.000198364257812,-104.6216049194336,19638050.0,50354.0,0.014466325034380003,-0.043768567911502146,0.1919327283564463,0.004185719571287945,-0.00725137306485578,0.010905338332341776,19.638050233996182
1609,C,43334112232864.0,0.76579285,7.224529700252173,2.959304407986383,47,1970-01-01 12:02:14.112232864,1.5543976,-0.20602417,-0.20739746,10.322691406971472,1.5816483692415328,-93.58729553222656,-24.51062774658203,-104.7186508178711,19688404.0,50354.0,0.00843100663203,-0.07987175648650216,0.16307806354164633,0.0005764861193652046,-0.0031128924473685544,0.00893810670761828,19.688404237000213
1609,C,43334162586868.0,0.59654236,6.305675700252172,1.8411860879863826,47,1970-01-01 12:02:14.162586868,2.6171417,-1.4425201,-0.045837402,11.179170277157198,2.9887114253813483,-93.4053955078125,-23.985464096069336,-104.67344665527344,19738758.0,50354.0,0.034299513582169996,-0.15281921863150216,0.12086194921710632,0.0010758263074329135,-0.005858460680545995,0.007148757701227116,19.73875824100105
1609,C,43334212940872.0,0.85401917,7.789089700252173,-2.6743931920136177,47,1970-01-01 12:02:14.212940872,3.3658447,-7.8033447,1.2773438,10.758116458592205,8.593759726390692,-93.99209594726562,-23.461536407470703,-104.01661682128906,19789112.0,50354.0,0.03652078764081,-0.13860529151150214,-0.0209776552580937,0.0017830427238909674,-0.0073371948918704195,0.002514786869006061,19.789112244994612
1609,C,43334263294876.0,4.9676056,8.122951700252173,-1.3615421920136173,47,1970-01-01 12:02:14.263294876,2.4835052,-4.0402985,1.5068359,11.087542744999965,4.976179707070284,-94.32573699951172,-23.46870231628418,-103.6542739868164,19839466.0,50354.0,0.14657104683429,-0.09285173365950211,-0.1016127451636537,0.004609703116579594,-0.005827393522730374,-0.0030864585114183346,19.83946624899545
1609,C,43334313648880.0,3.9903107,8.616482200252172,2.459945237986383,47,1970-01-01 12:02:14.313648880,-0.41667175,0.9376221,-0.21098328,9.723557567196126,1.0475039351219788,-94.1364974975586,-23.5062198638916,-103.78016662597656,19889820.0,50354.0,0.22553345868510002,-0.07202047268700215,0.027654493488456323,0.009368475135461683,-0.004150987539185938,-0.0018620469024264448,19.889820252996287
1609,C,43334364002884.0,3.0370789,8.280178700252172,3.1264491079863825,47,1970-01-01 12:02:14.364002884,-0.76353455,2.041153,-0.19470215,9.749336190370752,2.1879669800221677,-93.83570098876953,-23.399900436401367,-104.0077896118164,19940174.0,50354.0,0.17692858795920002,-0.06806196850800218,0.14064865044855632,0.010132786948363543,-0.0035268556219666247,0.004237368254902168,19.940174256997125
1609,C,43334414356888.0,4.974365,7.913967700252172,1.3876338379863826,47,1970-01-01 12:02:14.414356888,0.21307373,0.60440063,0.528656,10.786133170223835,0.8307693436186183,-93.79884338378906,-23.47705841064453,-104.04750061035156,19990528.0,50354.0,0.2017041230703,-0.08574917607450216,0.11365106633075632,0.009532835765589723,-0.003872503187153712,0.006402503969352755,19.990528260997962
1609,C,43334464710892.0,6.472183,8.908046700252173,0.29818680798638253,47,1970-01-01 12:02:14.464710892,0.6757355,-1.1850433,0.5833893,10.856988764286578,1.4836742109336638,-93.94485473632812,-23.772417068481445,-103.9230728149414,20040882.0,50354.0,0.28818973899600003,-0.06994134343850214,0.04244390640365631,0.012334057765243238,-0.00391982020977891,0.003930003128534307,20.0408822649988
1609,C,43334515064896.0,5.2856445,8.602993700252172,3.1895290079863825,47,1970-01-01 12:02:14.515064896,0.5220947,-2.848648,0.5189514,10.396588265279899,2.942225154408488,-93.7013931274414,-23.91681671142578,-103.882568359375,20091236.0,50354.0,0.29602682296750005,-0.05259373583650213,0.08781022109874631,0.014708820380555042,-0.0030850656909067824,0.003279408168127991,20.091236268999637
1609,C,43334565418900.0,4.5744476,6.998684700252172,3.7625118079863826,47,1970-01-01 12:02:14.565418900,0.35972595,-1.9659119,0.1461792,11.569503073754325,2.003891393308942,-93.38923645019531,-23.902307510375977,-103.91256713867188,20141590.0,50354.0,0.2482475388017,-0.10066574291050218,0.17503153162374632,0.01370319560626315,-0.0038586138964133276,0.006617566808294198,20.141590273000475
1609,C,43334615772903.0,4.9302826,5.367717700252172,4.080016607986383,47,1970-01-01 12:02:14.615772903,-0.35983276,0.19114685,-0.05807495,13.240229648372955,0.4115694756072692,-93.06602478027344,-23.86907386779785,-104.05929565429688,20191944.0,50354.0,0.23930059224540004,-0.1821202867625022,0.1974513379289463,0.012274999295372839,-0.007119703869077231,0.009378001206728142,20.19194427599723
1609,C,43334666126907.0,6.5907288,2.2194177002521727,4.745177807986383,47,1970-01-01 12:02:14.666126907,-0.52874756,1.6089172,-0.24290466,16.847099532687977,1.7109036245538523,-92.7211685180664,-23.87860107421875,-104.2824478149414,20242298.0,50354.0,0.2900645040178,-0.3024478920215022,0.22219191981094633,0.013327825028618588,-0.012199973037244878,0.010565358300117277,20.242298279998067
1609,C,43334716480911.0,3.879898,7.858227200252172,1.9438777347863827,47,1970-01-01 12:02:14.716480911,-0.813797,1.1944427,-0.894516,10.36388541588179,1.6997405081506678,-92.66724395751953,-23.87935447692871,-104.37333679199219,20292652.0,50354.0,0.2636189709436,-0.23974433434000217,0.16841035140038993,0.013940088849103166,-0.013650773683103596,0.009834193382287814,20.292652283998905
1609,C,43334766834915.0,3.9930878,8.507778700252173,-1.1802677920136173,47,1970-01-01 12:02:14.766834915,-4.0086517,0.01927185,-1.3565826,10.295214702309865,4.232017982799467,-93.28010559082031,-23.942005157470703,-104.20404815673828,20343006.0,50354.0,0.1982181634866,-0.08142226944300217,0.019225407529189914,0.011627673533549147,-0.008086011583444701,0.004724105502570032,20.343006287999742
1609,C,43334817188919.0,3.6139069,7.950405700252173,2.093169727986383,47,1970-01-01 12:02:14.817188919,-1.0500183,2.4293213,-1.0084686,10.182153908406752,2.832163365018787,-93.17314147949219,-23.92181396484375,-104.37696075439453,20393360.0,50354.0,0.1915213055619,-0.07910149134850214,0.022984132041986318,0.009812470612234085,-0.004041506725447705,0.0010627095777835042,20.39336029200058
1609,C,43334867542923.0,5.2507935,8.560772700252173,-6.428406192013618,47,1970-01-01 12:02:14.867542923,0.35769653,-0.8069763,-0.93022156,13.30387659719449,1.282368787449447,-94.10179901123047,-24.07113265991211,-103.95284271240234,20443714.0,50354.0,0.22318656197080003,-0.07776726141050214,-0.10914824845481372,0.01044109998087079,-0.003949484588213451,-0.0021693539589257554,20.443714296001417
1609,C,43334917896927.0,9.104446,9.783504700252173,-3.2873691920136174,47,1970-01-01 12:02:14.917896927,-0.7429352,-2.714798,-0.97828674,13.011651599024775,2.9797862067374683,-94.76741027832031,-24.662309646606445,-103.56656646728516,20494068.0,50354.0,0.3614218648915,-0.03161532788750212,-0.24461407684365372,0.01471868636311213,-0.0027539254507558536,-0.008906674064039515,20.49406829999498
1609,C,43334968250931.0,8.914825,9.140804700252172,3.9737087079863826,47,1970-01-01 12:02:14.968250931,-0.5195465,2.4970093,-2.816925,12.367250202836678,3.8000066402012695,-94.39261627197266,-25.357664108276367,-103.83830261230469,20544422.0,50354.0,0.453671185967,-0.017011862223502136,0.01727996999364631,0.020521597741464455,-0.0012242867654247542,-0.005723590808162636,20.544422303995816
1609,C,43335018604935.0,5.8268127,10.075542700252171,-1.5443729920136173,47,1970-01-01 12:02:15.018604935,0.5576477,1.2410126,-2.2715607,10.03825788108788,2.647842752970527,-94.80036163330078,-25.759767532348633,-103.698486328125,20594776.0,50354.0,0.3711502123729,-0.009659221497502184,0.06116338532104632,0.020766528346003663,-0.0006714978748437258,0.0019749683567580165,20.594776307996653
1609,C,43335068958939.0,2.312271,10.665783400252172,1.5148921379863827,47,1970-01-01 12:02:15.068958939,0.8309021,-1.9199066,-1.5950012,7.1976373327182674,2.630678330870084,-94.7765121459961,-25.656261444091797,-103.5986099243164,20645130.0,50354.0,0.20491771031490003,0.028735167232397822,-0.0007422394618436871,0.014503662089510743,0.0004802750857674675,0.0015212231892971447,20.64513031199749
1609,C,43335119312943.0,0.701355,13.099758700252172,1.3310237079863825,47,1970-01-01 12:02:15.119312943,0.661438,-0.90237427,-0.6222992,4.466718300117639,1.2802483529857296,-94.85326385498047,-25.274654388427734,-103.5084228515625,20695484.0,50354.0,0.075874061802,0.10487585346439784,0.07165162325405632,0.0070694944465871925,0.003363924668083225,0.0017852855557365373,20.69548431599833
1609,C,43335169666946.0,0.1459198,13.357235400252172,0.5581813079863827,47,1970-01-01 12:02:15.169666946,0.88131714,-0.14671326,0.30555725,4.3405452364383885,0.9442509809077085,-95.1868667602539,-24.70823097229004,-103.34322357177734,20745838.0,50354.0,0.021331837639599997,0.1726385404683978,0.04756451468714631,0.002447352930241163,0.006986979896045996,0.0030015047049456586,20.745838318995084
1609,C,43335220020950.0,1.0691681,9.919582700252173,2.4296565479863825,47,1970-01-01 12:02:15.220020950,0.9562988,1.2098083,1.9069366,7.639747576905508,2.452458096288271,-94.8678970336914,-24.214675903320312,-103.51788330078125,20796192.0,50354.0,0.0305922680583,0.09257124931639786,0.07522479369982632,0.0013072932091560284,0.0066771868774118,0.00309146641725881,20.79619232299592
1609,C,43335270374954.0,5.9108887,4.213741700252173,2.0970149379863825,47,1970-01-01 12:02:15.270374954,0.63887024,2.1499023,2.8968353,14.513782662988922,3.6635897475603127,-94.64425659179688,-24.07709503173828,-103.70515441894531,20846546.0,50354.0,0.17573689005360002,-0.13763449156850213,0.11396800800233631,0.005194749213783307,-0.0011345572501812293,0.004763307168455349,20.84654632699676
1609,C,43335320728958.0,10.576569,2.856884700252172,0.31269790798638253,47,1970-01-01 12:02:15.320728958,0.026245117,2.5727234,1.9729614,18.111288305832055,3.242247859890398,-94.62006378173828,-24.27871322631836,-103.83888244628906,20896900.0,50354.0,0.41510472251290004,-0.31545203911450215,0.060669340323056306,0.014875619279586772,-0.011407359583006,0.00439684451878841,20.896900330997596
1609,C,43335371082962.0,3.2814026,11.749966100252173,0.08796650798638272,47,1970-01-01 12:02:15.371082962,-0.28660583,0.85523987,1.3098907,6.848998796036747,1.5904061691826072,-94.93136596679688,-24.339256286621094,-103.7602767944336,20947254.0,50354.0,0.3489021509732,-0.12571251739570213,0.01008752800094631,0.01923540105375954,-0.011107200039257413,0.001781445673793414,20.947254334998433
1609,C,43335421436966.0,4.729126,10.301998700252172,2.630065507986383,47,1970-01-01 12:02:15.421436966,-0.36941528,-2.0761719,1.3067322,8.613664752646883,2.4808277751516585,-94.75656127929688,-24.496484756469727,-103.75105285644531,20997608.0,50354.0,0.20168107856220002,0.06173311778229787,0.06843189206614632,0.013862033970012769,-0.0016108093440666792,0.001976883439029191,20.99760833899927
1609,C,43335471790970.0,6.159439,7.717159700252173,3.0920101079863826,47,1970-01-01 12:02:15.471790970,-0.1497345,-1.535965,0.8317566,11.590832120549553,1.753119489184582,-94.53181457519531,-24.648225784301758,-103.7811050415039,21047962.0,50354.0,0.274141401005,-0.039800848950502135,0.14406469778334632,0.011979782568063396,0.0005521887323781213,0.005350026642640677,21.04796234300011
1609,C,43335522144974.0,3.1772919,10.546764700252172,2.1749720979863825,47,1970-01-01 12:02:15.522144974,0.044265747,-1.1171417,0.38624573,7.61964257585267,1.1828570489199406,-94.3934555053711,-24.627901077270508,-103.78865051269531,21098316.0,50354.0,0.23507087386929998,-0.03363837536850213,0.1326068109997763,0.012820437444510252,-0.0018489793506795704,0.006965758576632679,21.098316347000946
1609,C,43335572498978.0,2.722229,9.519009100252173,2.4342189079863825,47,1970-01-01 12:02:15.572498978,0.18788147,-1.2588501,0.06958008,8.41699684864774,1.2746938489583204,-94.20709228515625,-24.48128318786621,-103.80537414550781,21148670.0,50354.0,0.14853223769930002,0.011726786975297873,0.1160456019573763,0.009657975539962643,-0.0005516680609757036,0.006260321801022232,21.148670350994507
1609,C,43335622852982.0,2.6008606,8.894924700252172,2.3283687079863826,47,1970-01-01 12:02:15.622852982,0.25123596,-0.8942566,0.015655518,8.967645454748931,0.9290099404659402,-94.0370864868164,-24.291179656982422,-103.82982635498047,21199024.0,50354.0,0.13401942685919999,-0.029861588704702128,0.11990766840734632,0.007113803258589355,-0.00045657990314121094,0.005940595487972622,21.199024354995345
1609,C,43335673206986.0,2.242691,9.701900700252173,1.9866481209863827,47,1970-01-01 12:02:15.673206986,0.33317566,-0.8265381,0.11578369,8.083995683642566,0.8986529441547843,-93.92414093017578,-24.08021354675293,-103.8320541381836,21249378.0,50354.0,0.1219460986332,-0.02525692689150214,0.10863917870304732,0.006444444035322155,-0.001387718867165635,0.0057541239696983805,21.249378358996182
1609,C,43335723560989.0,2.6385498,9.157696200252172,1.3260646079863827,47,1970-01-01 12:02:15.723560989,0.31680298,-0.6266022,0.2579193,8.741334440755573,0.7480085631155637,-93.93013763427734,-23.902767181396484,-103.79541015625,21299732.0,50354.0,0.12289499962160003,-0.01864112883600215,0.0834041683773473,0.0061643643307611,-0.0011052213490513755,0.004835075349443095,21.299732362000213
1609,C,43335773914993.0,3.5561829,8.402767700252172,1.0827785079863825,47,1970-01-01 12:02:15.773914993,0.17303467,-0.29440308,0.4022827,9.776125186632171,0.5276793924863707,-93.96526336669922,-23.817609786987305,-103.76554870605469,21350086.0,50354.0,0.1559647851879,-0.05134940037700218,0.060647443130846315,0.0070208528021487825,-0.0017621515539958102,0.003626787422941791,21.35008636600105
1609,C,43335824268997.0,4.791687,7.341030700252173,1.9490199466863827,47,1970-01-01 12:02:15.824268997,0.35386658,-0.77937317,0.58569336,11.20379674921347,1.0371503297520734,-93.86507415771484,-23.82454490661621,-103.76514434814453,21400440.0,50354.0,0.2101743204723,-0.09708758767050217,0.07633158969329622,0.009218284263206856,-0.0037371980480720175,0.0034487211094134367,21.400440369994612
1609,C,43335874623001.0,5.286865,7.073757700252173,2.1279597679863826,47,1970-01-01 12:02:15.874623001,0.7961273,-1.087143,0.58795166,11.663405547697227,1.4701652066183057,-93.72943878173828,-23.871646881103516,-103.75609588623047,21450794.0,50354.0,0.25374770370399996,-0.13054807244050212,0.10264611827631621,0.011680164802686705,-0.005731183014614755,0.004506121753550933,21.45079437399545
1609,C,43335924977005.0,5.58609,5.744488200252173,1.3682857079863826,47,1970-01-01 12:02:15.924977005,0.64356995,-0.8755646,0.26715088,12.999453599358116,1.1190018954411725,-93.69339752197266,-23.894994735717773,-103.71852111816406,21501148.0,50354.0,0.27374838803500007,-0.17074422296300212,0.08802497234856632,0.013280769101712804,-0.007585636121374026,0.004800526048662668,21.501148377996287
1609,C,43335975331009.0,4.5342407,4.047497700252173,-0.48776289201361744,47,1970-01-01 12:02:15.975331009,0.19952393,-1.5894165,-0.1385498,14.373191807114173,1.607871467560431,-93.88858032226562,-23.762720108032227,-103.56269836425781,21551502.0,50354.0,0.2547995660339,-0.24693637098300214,0.02216892293774631,0.013307251839592698,-0.01051594431377855,0.0027743517016234932,21.551502381997125
1609,C,43336025685013.0,4.60849,6.111385700252173,-3.908035692013618,47,1970-01-01 12:02:16.025685013,-0.6989136,-0.9664459,-0.7187195,13.581324779804186,1.3924997729163262,-94.52963256835938,-23.740251541137695,-103.2722396850586,21601856.0,50354.0,0.2301865308339,-0.23769899262550215,-0.11067302095005371,0.012210494960840602,-0.012201664549571313,-0.0022282676756558636,21.601856385997962
1609,C,43336076039017.0,3.4395142,9.521679400252172,0.5037532079863827,47,1970-01-01 12:02:16.076039017,-1.8218384,1.064682,-1.5763397,8.77793274861098,2.633911495596359,-94.7440185546875,-23.808879852294922,-103.26535034179688,21652210.0,50354.0,0.2026246017434,-0.09987551996460216,-0.08570962010035371,0.010896885884898682,-0.008499113503481056,-0.004944325753726108,21.6522103899988
1609,C,43336126393021.0,2.082901,10.735561700252173,2.4209132579863826,47,1970-01-01 12:02:16.126393021,-1.335434,1.0274811,-1.6989899,7.063925034378212,2.392836822584277,-94.56240844726562,-23.737985610961914,-103.40592956542969,21702564.0,50354.0,0.13903784749040002,0.016547359187397855,0.07363432761379632,0.008602035484359383,-0.002097953103887673,-0.0003040196389340555,21.702564393999637
1609,C,43336176747025.0,4.8975677,7.598018700252172,3.6306148079863827,47,1970-01-01 12:02:16.176747025,-1.975357,0.5482788,-1.59198,11.147231163283163,2.5955818693268835,-94.30513763427734,-23.89324951171875,-103.56878662109375,21752918.0,50354.0,0.1757472604599,-0.03188464625650213,0.15235932211699632,0.007925344662864703,-0.0003861468765388383,0.0056898421192721664,21.752918398000475
1609,C,43336227101028.0,4.857361,6.678905700252173,-0.4279941920136172,47,1970-01-01 12:02:16.227101028,-0.75653076,0.76286316,-1.6518555,12.067666341581168,1.970514040698927,-94.53073120117188,-23.979719161987305,-103.52168273925781,21803272.0,50354.0,0.24559983987990003,-0.13401907436850213,0.08063237924834633,0.010608255945255147,-0.0041769579741757325,0.005866032065275232,21.80327240099723
1609,C,43336277455032.0,3.0043488,6.510341700252173,1.6759181379863826,47,1970-01-01 12:02:16.277455032,-0.5862427,0.9442749,-2.1922913,11.365631092263792,2.457941564425198,-94.46034240722656,-23.878034591674805,-103.59724426269531,21853626.0,50354.0,0.1979342676346,-0.16140351819750212,0.031418981187756316,0.011166858224892568,-0.007437854613034289,0.0028211171016997564,21.853626404998067
1609,C,43336327809036.0,2.6459656,9.707211000252173,-0.29319809201361724,47,1970-01-01 12:02:16.327809036,0.022521973,0.677948,-1.856308,8.499254179442609,1.9763603216103618,-94.7469711303711,-23.841022491455078,-103.50514221191406,21903980.0,50354.0,0.1422579656488,-0.08515987565940213,0.034812742597456314,0.008565019857376161,-0.006207726567135278,0.0016675161097402986,21.903980408998905
1609,C,43336378163040.0,0.84417725,11.676464700252172,0.16401630798638256,47,1970-01-01 12:02:16.378163040,0.3545227,-0.19294739,-0.8507385,6.117477602963808,0.9416321126137065,-95.06523895263672,-23.502819061279297,-103.35820007324219,21954334.0,50354.0,0.08787132653445,0.044907603111597846,-0.0032524097764536877,0.005793965189297686,-0.0010134314659360683,0.0007945944994343831,21.954334412999742
1609,C,43336428517044.0,-0.21716309,13.736889300252173,2.3296504379863827,47,1970-01-01 12:02:16.428517044,0.34355164,-0.111968994,0.4912567,3.75785624216304,0.6098343465720438,-94.75387573242188,-22.84185028076172,-103.47073364257812,22004688.0,50354.0,0.015786335506320002,0.14636281367069787,0.06278304766335632,0.0026097889572004665,0.00481561528332786,0.0014988028700785477,22.00468841700058
1609,C,43336478871048.0,-1.6772003,12.086742700252174,2.8725734079863825,47,1970-01-01 12:02:16.478871048,0.5579529,0.9330597,1.7639618,5.71318700524151,2.0720697561235095,-94.33324432373047,-21.855165481567383,-103.66942596435547,22055042.0,50354.0,-0.04769438707003001,0.1566923828766979,0.13097638977005632,-0.0008033490142195268,0.007630020683473784,0.00487828135626103,22.055042421001417
1609,C,43336529225052.0,5.5740356,4.149044700252173,6.078628107986383,47,1970-01-01 12:02:16.529225052,0.5473175,1.4595947,4.0031586,15.019403682669676,4.295957624421859,-93.7442398071289,-21.692672729492188,-103.95932006835938,22105396.0,50354.0,0.09811062234810002,-0.08470078061750211,0.22536440056764634,0.0012693295555959686,0.0018125325700797726,0.008971592078332341,22.10539642499498
1609,C,43336579579056.0,12.933594,-1.0673402997478263,1.1288600079863826,47,1970-01-01 12:02:16.579579056,0.34384155,4.343399,1.5621033,22.616718689614476,4.628553619067008,-93.61092376708984,-21.955530166625977,-104.2086181640625,22155750.0,50354.0,0.4659665904392001,-0.41588112830850216,0.18146292829584632,0.014201771986345854,-0.01260315072103001,0.010242691658796155,22.155750428995816
1609,C,43336629933060.0,5.9480133,10.808422700252173,-2.9986728920136176,47,1970-01-01 12:02:16.629933060,0.28231812,3.1310883,1.5466309,10.20549405500211,3.503638766213211,-94.2156753540039,-22.296960830688477,-104.12499237060547,22206104.0,50354.0,0.4753822269921,-0.24821796840250213,-0.0470762789811537,0.02370033917646784,-0.016720022957892957,0.0033834526697960167,22.206104432996653
1609,C,43336680287064.0,3.8172913,12.425320100252172,1.0933223079863827,47,1970-01-01 12:02:16.680287064,-0.7020874,-0.3226776,1.0549469,6.381722876237694,1.3076545845903382,-94.37167358398438,-22.60220718383789,-104.06743621826172,22256458.0,50354.0,0.24586107391420003,0.09148674248829786,-0.047971011654053694,0.018158742586917916,-0.003946022074841921,-0.0023930056363226167,22.25645843699749
1609,C,43336730641068.0,6.9613953,8.245495700252173,3.5311733079863825,47,1970-01-01 12:02:16.730641068,-0.5305176,-1.3419342,0.67193604,11.663930412161816,1.5917708261211103,-94.1203384399414,-22.92441177368164,-104.11548614501953,22306812.0,50354.0,0.2713749925282,0.026959929409297853,0.11643092612334632,0.013022452444820308,0.002982131858365767,0.0017236152665933806,22.30681244099833
1609,C,43336780995071.0,4.307266,10.655910700252171,2.3124232679863828,47,1970-01-01 12:02:16.780995071,-0.24331665,-1.2761841,0.4410553,8.068458131230193,1.371998041878385,-93.99322509765625,-23.134075164794922,-104.11279296875,22357166.0,50354.0,0.28371108555010005,-0.017588491054502168,0.14712423099326633,0.013975402187777361,0.00023594470345869099,0.0066355281907249574,22.357166443995084
1609,C,43336831349075.0,4.5222473,8.363048700252172,2.6757503079863825,47,1970-01-01 12:02:16.831349075,-0.1622467,-2.1591492,0.09567261,10.19296493303482,2.1673491891768943,-93.83854675292969,-23.20754623413086,-104.07811737060547,22407520.0,50354.0,0.2223006563541,-0.014628859173502188,0.12558724612226632,0.012739857625922045,-0.0008111362266904657,0.0068660568593377665,22.40752044799592
1609,C,43336881703079.0,3.4145966,8.398113700252173,3.1696315079863826,47,1970-01-01 12:02:16.881703079,0.02947998,-2.2239838,-0.29464722,9.769132311176067,2.2436109279768113,-93.59292602539062,-23.15680503845215,-104.07134246826172,22457874.0,50354.0,0.1998259188703,-0.07147341424250214,0.1471691779807463,0.010627880784424719,-0.002167796937794741,0.006867188489641548,22.45787445199676
1609,C,43336932057083.0,1.752655,9.881771700252173,2.737472107986383,47,1970-01-01 12:02:16.932057083,0.12513733,-1.1833801,-0.36401367,7.826956437752321,1.2444090020497311,-93.36017608642578,-22.924766540527344,-104.10462951660156,22508228.0,50354.0,0.1300958935332,-0.03323652527150211,0.14872314773934633,0.008306441470882919,-0.0026362821471440853,0.0074496810846547724,22.508228455997596
1609,C,43336982411087.0,2.3600311,9.530926200252171,2.7376094079863824,47,1970-01-01 12:02:16.982411087,0.28871155,-0.6738739,-0.019180298,8.319015190160494,0.7333677631556907,-93.1248779296875,-22.76958465576172,-104.15933227539062,22558582.0,50354.0,0.10354509793970001,-0.004715704959002154,0.1378461273276463,0.005882379242313204,-0.0009555233005134059,0.007214954638361674,22.558582459998433
1609,C,43337032765091.0,1.7762756,8.735424700252173,2.8043971479863825,47,1970-01-01 12:02:17.032765091,0.7116394,0.41018677,0.044906616,8.953408292698786,0.8226180316987736,-92.84933471679688,-22.49322509765625,-104.27058410644531,22608936.0,50354.0,0.10413979378590002,-0.033577283378002164,0.13953109905972633,0.005228882518975433,-0.0009641025673607579,0.006983526428754881,22.60893646399927
1609,C,43337083119095.0,3.405014,8.922802700252172,-1.6974643920136174,47,1970-01-01 12:02:17.083119095,0.13394165,1.7306519,0.13842773,9.893085457624828,1.741338163887556,-93.30980682373047,-22.46294593811035,-104.17214965820312,22659290.0,50354.0,0.1304493282592,-0.04888800873750216,0.02786924599712631,0.005906250325729483,-0.0020762286595920527,0.004214638487496379,22.65929046800011
1609,C,43337133473099.0,4.357544,9.498409700252171,2.4494777079863828,47,1970-01-01 12:02:17.133473099,-0.29244995,-0.17529297,0.14926147,9.097618352811631,0.3722010008221154,-93.1631088256836,-22.612049102783203,-104.22627258300781,22709644.0,50354.0,0.19543792276600003,-0.02967833539250219,0.018933439256246312,0.008204863319061461,-0.0019780648461611198,0.0011783512066241627,22.709644472000946
1609,C,43337183827103.0,3.3141632,8.425228700252173,0.9090724079863826,47,1970-01-01 12:02:17.183827103,0.65408325,-0.58073425,0.25012207,9.686694078994256,0.9097462376699944,-93.22753143310547,-22.53371810913086,-104.16284942626953,22759998.0,50354.0,0.19315057217440001,-0.04220575599050215,0.08455821626984632,0.009783492537114453,-0.0018098257687499003,0.0026056094111804344,22.759998475994507
1609,C,43337234181107.0,3.8392944,6.923336700252172,2.2449336379863825,47,1970-01-01 12:02:17.234181107,0.25756836,-1.3682404,0.26034546,11.22635652288283,1.4164049600336273,-93.11898803710938,-22.45537567138672,-104.13701629638672,22810352.0,50354.0,0.1801026019952,-0.10703836891150215,0.07940841021945631,0.00939739516606802,-0.003757519332657762,0.004128187755121172,22.810352479995345
1609,C,43337284535111.0,3.7878723,5.995983700252172,3.077270107986383,47,1970-01-01 12:02:17.284535111,0.37542725,-2.1420593,-0.049087524,12.134778788880562,2.1752639494487798,-92.92009735107422,-22.351552963256836,-104.10669708251953,22860706.0,50354.0,0.19202917600590003,-0.1681994702765022,0.1339971237123563,0.009369161774733696,-0.0069296630772363865,0.005372911127801246,22.860706483996182
1609,C,43337334889114.0,3.8684692,4.558483700252172,3.5910945079863827,47,1970-01-01 12:02:17.334889114,0.54444885,-1.4685974,0.25115967,13.577542193221369,1.5862799416835576,-92.6601333618164,-22.198781967163086,-104.12765502929688,22911060.0,50354.0,0.19276370994550002,-0.2277393742575022,0.16788941593634632,0.009687930489598399,-0.00996855228883263,0.0076005974087353856,22.911060487000213
1609,C,43337385243118.0,6.9924316,1.2161827002521726,-5.525345192013617,47,1970-01-01 12:02:17.385243118,1.9076691,0.8513794,0.27096558,19.204224815963244,2.106530470556718,-93.08734893798828,-22.202295303344727,-103.97013092041016,22961414.0,50354.0,0.2734448994416,-0.3480804240345022,-0.048698629471753685,0.011737734158539018,-0.014497415061597794,0.003000866430819049,22.96141449100105
1609,C,43337435597122.0,4.9316864,8.884594700252173,-0.7494205920136172,47,1970-01-01 12:02:17.435597122,-1.7380676,-1.1395264,-0.7151184,10.259227358033183,2.1979066687385247,-93.5346450805664,-22.411880493164062,-103.77873229980469,23011768.0,50354.0,0.300213518886,-0.23916192738750217,-0.1579797781444537,0.014442997998233986,-0.014785000681751804,-0.005203542268553254,23.011768494994612
1609,C,43337485951126.0,3.785324,11.572659000252173,0.47018390798638254,47,1970-01-01 12:02:17.485951126,-2.1410828,3.130249,-1.3289795,7.15942876318764,4.018567016969742,-93.8184814453125,-22.732351303100586,-103.85123443603516,23062122.0,50354.0,0.2194681708408,0.02158307641759788,-0.007030341993753688,0.013084025902251644,-0.00547798273086928,-0.004154459794719647,23.06212249899545
1609,C,43337536305130.0,4.1384735,9.683025700252173,1.6934199679863826,47,1970-01-01 12:02:17.536305130,-1.1480408,-0.83003235,-1.2550354,8.820546508027817,1.8926344696650546,-93.84756469726562,-22.923524856567383,-103.820068359375,23112476.0,50354.0,0.19949744965750002,0.0416851737045979,0.054473054785366314,0.0105482974272857,0.0015929047333265232,0.0011944651799544312,23.112476502996287
1609,C,43337586659134.0,7.817795,6.117016700252172,-2.430405192013618,47,1970-01-01 12:02:17.586659134,-0.59077454,-1.1182098,-1.433136,14.460193024828161,1.9113572424913798,-94.29132080078125,-23.25543785095215,-103.60176849365234,23162830.0,50354.0,0.3010229720245,-0.09567153248250213,-0.0185550769853337,0.012601602656687716,-0.0013592145549512949,0.0009043069270714212,23.162830506997125
1609,C,43337637013138.0,4.754471,7.491543700252173,0.9261623079863825,47,1970-01-01 12:02:17.637013138,-1.0375671,1.7311249,-2.065796,11.098519815162302,2.8880533270731723,-94.34688568115234,-23.417863845825195,-103.67243957519531,23213184.0,50354.0,0.316531941082,-0.15084647479650215,-0.0378723230911537,0.015548180047282352,-0.006206583869263491,-0.0014206726517257235,23.213184510997962
1609,C,43337687367142.0,4.4691467,6.663280700252173,0.14982560798638267,47,1970-01-01 12:02:17.687367142,-0.3988495,1.2731323,-2.2121735,11.82960309018763,2.583342480403206,-94.4708251953125,-23.50452995300293,-103.68157196044922,23263538.0,50354.0,0.23222302283289997,-0.13709318606850213,0.027090147760446312,0.013816003726485438,-0.0072494568415982135,-0.00027146282830121997,23.2635385149988
1609,C,43337737721146.0,1.664505,10.056072700252173,0.2737422079863827,47,1970-01-01 12:02:17.737721146,0.0599823,0.45558167,-1.7569427,7.778138783978682,1.8160396981995104,-94.67877197265625,-23.322561264038086,-103.6122817993164,23313892.0,50354.0,0.1544269488509,-0.07252603943550212,0.010664166902746314,0.009734686337083033,-0.005277583240514315,0.0009505403802752007,23.313892518999637
1609,C,43337788075150.0,0.1793518,12.550487900252172,1.2483668679863826,47,1970-01-01 12:02:17.788075150,-0.05532837,-0.22943115,-0.76768494,4.96997852948203,0.8031438527561442,-94.7786865234375,-22.841552734375,-103.56082153320312,23364246.0,50354.0,0.0464227826536,0.07569617623889786,0.03832214020576632,0.005056793690088796,7.981453429909462e-05,0.0012333282540710228,23.364246523000475
1609,C,43337838429153.0,-0.68637085,13.500454400252172,1.6424403579863827,47,1970-01-01 12:02:17.838429153,0.26696777,0.6900177,0.7432709,4.038106578015867,1.0487363097170197,-94.73796081542969,-22.035091400146484,-103.60572814941406,23414600.0,50354.0,-0.012765218621850002,0.1624153742997978,0.07278185352831631,0.0008473964896273698,0.005994934507912741,0.002797265250242999,23.41460052599723
1609,C,43337888783157.0,0.62768555,10.001293700252173,3.9373012079863825,47,1970-01-01 12:02:17.888783157,0.36180115,0.8694,2.2049713,7.75441391695919,2.3976352654156994,-94.18179321289062,-21.530864715576172,-103.85393524169922,23464954.0,50354.0,-0.0014775197980999987,0.09823431192639788,0.1404811534064963,-0.0003585894251990812,0.006562377150116929,0.005369322725597777,23.464954529998067
1609,C,43337939137161.0,8.813812,3.1303987002521723,3.9174648079863825,47,1970-01-01 12:02:17.939137161,0.46102905,1.2090149,3.548172,16.94588074250943,3.7767432206796787,-93.85564422607422,-21.611745834350586,-104.03349304199219,23515308.0,50354.0,0.23770858381635004,-0.16285258043250214,0.19775944398414633,0.005947589498787482,-0.001626894146178187,0.00851588352050421,23.515308533998905
1609,C,43337989491165.0,15.2715,1.4372827002521724,-3.3135991920136174,47,1970-01-01 12:02:17.989491165,1.3785095,5.1431885,2.2894592,22.75622909850136,5.796058990088622,-93.96356964111328,-22.0296573638916,-104.21369934082031,23565662.0,50354.0,0.606395900224,-0.3784686853795022,0.015203524613346307,0.021252018594683897,-0.013628845509348834,0.005361768660379073,23.565662537999742
1609,C,43338039845169.0,3.532135,12.184154900252173,-0.0395206920136173,47,1970-01-01 12:02:18.039845169,0.44081116,3.2658691,1.5208282,6.658005194925916,3.629481212381543,-94.24777221679688,-22.233137130737305,-104.25422668457031,23616016.0,50354.0,0.473419118395,-0.15052226553210216,-0.08442149932015369,0.027186502723770566,-0.013318405171101463,-0.0017427009491932895,23.61601654200058
1609,C,43338090199173.0,5.5552826,10.530239700252173,0.07176160798638254,47,1970-01-01 12:02:18.090199173,0.019683838,-0.11160278,1.27742,9.082975331839737,1.2824369342708977,-94.47798919677734,-22.55866050720215,-104.1653823852539,23666370.0,50354.0,0.22879391291520002,0.07841111285689788,0.0008117295414463105,0.017679617489296907,-0.0018155424909036182,-0.0021050431737185157,23.666370546001417
1609,C,43338140553177.0,5.102066,8.407055700252172,1.7906184579863826,47,1970-01-01 12:02:18.140553177,-0.69441223,-0.89286804,0.16708374,10.400153614282432,1.143389110582833,-94.44804382324219,-22.717844009399414,-104.14972686767578,23716724.0,50354.0,0.26832006570219996,-0.016684913701502144,0.04688914292099631,0.01251583863965028,0.0015540805161353985,0.001200964865986918,23.71672454999498
1609,C,43338190907181.0,2.9102325,10.084164100252172,1.8978877449863827,47,1970-01-01 12:02:18.190907181,-0.77467346,-1.8041077,-0.13580322,7.93720598172573,1.9680869079870509,-94.42132568359375,-22.688739776611328,-104.09154510498047,23767078.0,50354.0,0.20172563933450002,-0.027915759082702152,0.09286552067224531,0.011834340715708996,-0.0011229111386879115,0.0035186031652870444,23.767078553995816
1609,C,43338241261185.0,3.0138397,8.935680700252172,2.7511745079863825,47,1970-01-01 12:02:18.241261185,-0.6255493,-2.6091766,-0.20401001,9.085434634246893,2.6908613009403233,-94.25718688964844,-22.613731384277344,-104.04609680175781,23817432.0,50354.0,0.14915036577940002,-0.014606567457702153,0.11704944034309532,0.008834005180752662,-0.0010705846153077592,0.005285028973483231,23.817432557996653
1609,C,43338291615189.0,2.8805695,9.522259200252172,3.1159816079863827,47,1970-01-01 12:02:18.291615189,-0.08131409,-2.9417572,-0.12763977,8.533247828105424,2.9456475206429604,-94.00255584716797,-22.549758911132812,-104.00959014892578,23867786.0,50354.0,0.1484035404284,-0.028753647125002155,0.14771738953184632,0.007491514696593782,-0.0010916801225487464,0.006666034475761406,23.86778656199749
1609,C,43338341969193.0,2.5178986,9.942257400252172,2.9697261079863826,47,1970-01-01 12:02:18.341969193,0.40014648,-2.4150696,-0.08718872,8.002391275234256,2.4495469481509815,-93.7323989868164,-22.451522827148438,-103.99378204345703,23918140.0,50354.0,0.1359172313537,-0.0034110655491021514,0.15321986316504632,0.0071583440711579325,-0.0008098109709959242,0.007576697211149667,23.91814056599833
1609,C,43338392323196.0,2.437851,9.376476700252173,2.3992763079863826,47,1970-01-01 12:02:18.392323196,0.7363434,-0.4046936,-0.020339966,8.463552279008104,0.8404714312940096,-93.52421569824219,-22.312467575073242,-104.04026794433594,23968494.0,50354.0,0.12477090767920003,-0.007081431551602133,0.13517537382694633,0.006563345276431325,-0.0002641695995044318,0.007260926881747399,23.968494568995084
1609,C,43338442677200.0,2.463089,9.032863700252172,-0.40544169201361746,47,1970-01-01 12:02:18.442677200,0.5055847,1.9204407,-0.032440186,9.096143098943104,1.9861421743566834,-93.77017974853516,-22.166786193847656,-104.02615356445312,24018848.0,50354.0,0.12339096638000001,-0.029977236736502152,0.05019877412634631,0.006247971503188479,-0.0009330260914896017,0.00466716492302005,24.01884857299592
1609,C,43338493031204.0,3.1105194,8.675152700252173,-1.1627659920136175,47,1970-01-01 12:02:18.493031204,-0.13179016,0.5194702,0.16459656,9.830638974246067,0.5606335367463305,-94.162353515625,-22.08602523803711,-103.9054183959961,24069202.0,50354.0,0.14032673868679998,-0.047634471084502146,-0.039482764860753694,0.006639620660466823,-0.0019540299678094254,0.0002697969652798253,24.06920257699676
1609,C,43338543385208.0,4.533478,8.575588700252172,2.3388972679863826,47,1970-01-01 12:02:18.543385208,0.33195496,-0.8472748,0.44612122,9.989619316672817,1.0134558821763926,-94.00115203857422,-22.18639373779297,-103.9222640991211,24119556.0,50354.0,0.1924529225398,-0.05914728375950212,0.02961145713516631,0.008378393530702109,-0.0026884442417074955,-0.0002485299146071136,24.119556580997596
1609,C,43338593739212.0,4.745285,6.719509700252173,2.7197871579863824,47,1970-01-01 12:02:18.593739212,0.63986206,-1.1348724,0.38572693,11.77545971191991,1.3587288488276197,-93.79132080078125,-22.207605361938477,-103.93830108642578,24169910.0,50354.0,0.233611416051,-0.10838450757050214,0.1273624977927163,0.010727021852700573,-0.004217947910315517,0.0039521332632193006,24.169910584998433
1609,C,43338644093216.0,4.3244324,3.3511777002521725,3.1772304079863827,47,1970-01-01 12:02:18.644093216,0.8834381,-1.0729675,0.1300354,14.816286320842092,1.3959338586913854,-93.54286193847656,-22.07282829284668,-103.966064453125,24220264.0,50354.0,0.2283482749798,-0.23991950331750214,0.14846921125849633,0.011630759141082454,-0.008769250082127283,0.006944614938782381,24.22026458899927
1609,C,43338694447220.0,3.1315918,1.916057700252173,-0.1276401920136172,47,1970-01-01 12:02:18.694447220,1.1615143,-1.3477783,0.15438843,15.999071910416466,1.7859052613095816,-93.61829376220703,-21.794174194335938,-103.85419464111328,24270618.0,50354.0,0.18772032128340002,-0.36085601432150216,0.07677953286754631,0.010475359048118587,-0.015125725207597212,0.005671087630861375,24.27061859300011
1609,C,43338744801224.0,4.0464478,6.061184700252172,-3.083694892013618,47,1970-01-01 12:02:18.744801224,0.40856934,-1.5949707,0.2582245,13.105886773456962,1.6665954313650255,-94.13471984863281,-21.710922241210938,-103.58206939697266,24320972.0,50354.0,0.1807215030092,-0.2926261680825022,-0.0808517834105537,0.009276259810214791,-0.01645272090638562,-0.00010252705192129703,24.320972597000946
1609,C,43338795155228.0,4.0649567,10.534862900252172,-0.6521000920136173,47,1970-01-01 12:02:18.795155228,-1.6919098,0.33566284,-0.674469,8.445803576103446,1.85206283517971,-94.59544372558594,-21.94019317626953,-103.45536041259766,24371326.0,50354.0,0.2042208310965,-0.07563050956210218,-0.0940561103128537,0.00969169314577921,-0.009271598373058205,-0.004403656040274228,24.371326600994507
1609,C,43338845509232.0,3.9348907,10.233837700252172,-2.026153992013618,47,1970-01-01 12:02:18.845509232,-2.2963104,2.206543,-1.2990417,9.141930933616472,3.439386980602219,-95.23905181884766,-22.144338607788086,-103.35391235351562,24421680.0,50354.0,0.20141215798980003,0.029424375018897834,-0.06743040307355369,0.010212621766225775,-0.001163331849394256,-0.004065745947529579,24.421680604995345
1609,C,43338895863236.0,4.615402,7.632854700252173,-2.2180637920136173,47,1970-01-01 12:02:18.895863236,-1.4056244,0.7475891,-1.4371185,11.634130007167856,2.1447561631468552,-95.72860717773438,-22.27293586730957,-103.22376251220703,24472034.0,50354.0,0.2152707193079,-0.04363948543250215,-0.10685667114845371,0.010490824801724195,-0.00035789383488331593,-0.00438802566768748,24.472034608996182
1609,C,43338946217239.0,3.8309174,6.5951347002521725,0.9509578079863826,47,1970-01-01 12:02:18.946217239,-1.3632965,0.67048645,-1.7880707,11.571024915120171,2.346343166449516,-95.77356719970703,-22.291833877563477,-103.25514221191406,24522388.0,50354.0,0.21265298353380002,-0.13525111086350214,-0.03190192735985369,0.010773835066445482,-0.0045039285429445,-0.003493525234643656,24.522388612000213
1609,C,43338996571243.0,5.0048065,7.475429700252173,0.6737666079863827,47,1970-01-01 12:02:18.996571243,-0.95088196,1.2684021,-2.0791168,11.248060979779657,2.6145261630322407,-95.83489227294922,-22.50493621826172,-103.29851531982422,24572742.0,50354.0,0.2224570206303,-0.13921460008850214,0.04090568662094631,0.010954764574839548,-0.0069102232046386125,0.0002266876469165289,24.57274261600105
1609,C,43339046925247.0,4.387726,8.823925700252172,1.0148616079863826,47,1970-01-01 12:02:19.046925247,-0.48779297,0.49279785,-2.0784607,9.738631574993194,2.191070647877547,-95.86054992675781,-22.717588424682617,-103.3108901977539,24623096.0,50354.0,0.2364757907525,-0.08310032908150215,0.04251459259354631,0.011554551392184757,-0.005597222971713198,0.002100272369783281,24.623096619994612
1609,C,43339097279251.0,2.0355682,10.817028700252173,1.0185237079863825,47,1970-01-01 12:02:19.097279251,-0.19647217,0.16804504,-1.6190643,7.017060591509243,1.6395760600190528,-95.92345428466797,-22.653202056884766,-103.29049682617188,24673450.0,50354.0,0.1617192780734,0.0010311089414978595,0.051194542100246314,0.010025357247829684,-0.0020662567554648884,0.0023593148841856175,24.67345062399545
1609,C,43339147633255.0,1.10495,12.546734300252172,0.48153640798638264,47,1970-01-01 12:02:19.147633255,0.0031738281,-0.11767578,-0.82458496,5.251597198343636,0.8329453875504795,-96.20648956298828,-22.44135284423828,-103.17259216308594,24723804.0,50354.0,0.07906882672140002,0.09476026106369788,0.03776701353984631,0.0060623221144186805,0.0024117393226208133,0.0022397850863506118,24.723804627996287
1609,C,43339197987259.0,1.741394,13.576656700252173,1.2491298079863826,47,1970-01-01 12:02:19.197987259,0.1708374,0.037704468,-0.15098572,4.319676354724391,0.2310924745417761,-96.29395294189453,-22.483505249023438,-103.13687896728516,24774158.0,50354.0,0.071662402888,0.16423941521969787,0.043572983319546316,0.0037949601678758647,0.0065208348497870555,0.0020478971009289283,24.774158631997125
1609,C,43339248341263.0,2.8814392,12.187313700252172,1.5809016579863826,47,1970-01-01 12:02:19.248341263,0.40827942,0.6156769,0.5920868,6.026944775081896,0.9467401484691491,-96.20299530029297,-22.60947036743164,-103.19519805908203,24824512.0,50354.0,0.11638907147640001,0.15519028277349786,0.07125170221879631,0.004734571970072499,0.00804228150637469,0.0028909411077988525,24.824512635997962
1609,C,43339298695267.0,2.4906616,9.053966700252172,2.1120753679863826,47,1970-01-01 12:02:19.298695267,0.4606781,1.276001,1.9952698,8.776999728261105,2.412779401149771,-95.9591293334961,-22.368425369262695,-103.34814453125,24874866.0,50354.0,0.13525338184160002,0.041322516643497835,0.09297808258291632,0.006335602047187288,0.004947602750921701,0.004134813291952719,24.8748666399988
1609,C,43339349049271.0,9.092331,3.1521117002521724,3.6992183079863823,47,1970-01-01 12:02:19.349049271,0.40777588,1.998764,2.587143,17.050324450705514,3.2946392212888465,-95.59809112548828,-22.506423950195312,-103.58251190185547,24925220.0,50354.0,0.29162500469020003,-0.18615676411050217,0.14631094087996632,0.01074751713771113,-0.003646491848476768,0.006024579743724997,24.925220643999637
1609,C,43339399403275.0,9.980759,3.9814267002521717,-1.5540011920136172,47,1970-01-01 12:02:19.399403275,0.26707458,3.590332,2.0290985,17.138916748166935,4.13268114233465,-95.70220947265625,-22.75335693359375,-103.71154022216797,24975574.0,50354.0,0.48020318693,-0.31386810369050216,0.054010131328846314,0.019432318380421778,-0.012589126096625885,0.005043483635001276,24.975574648000475
1609,C,43339449757278.0,3.1028442,11.022625400252172,-0.39738519201361755,47,1970-01-01 12:02:19.449757278,-0.6335144,0.81658936,1.3578186,7.52677853568692,1.7064085174361179,-96.0623550415039,-22.744953155517578,-103.62821197509766,25025928.0,50354.0,0.3294058777664,-0.11571218026560218,-0.04913005499065369,0.020383527421861267,-0.01081554280916284,0.0001228656819666757,25.02592865099723
1609,C,43339500111282.0,4.5094757,7.927990700252172,2.9512019079863827,47,1970-01-01 12:02:19.500111282,-0.98683167,-0.6099243,1.9326935,10.60061003059481,2.2541403154168838,-95.82560729980469,-22.717344284057617,-103.72021484375,25076282.0,50354.0,0.19165537812230002,-0.016349538437602156,0.0642974434580463,0.013118759239509802,-0.0033249178917905756,0.00038186933944354387,25.076282654998067
1609,C,43339550465286.0,7.1712646,7.139049700252173,3.183303407986383,47,1970-01-01 12:02:19.550465286,-0.066986084,-1.0721741,1.4868774,12.63577361239044,1.834352430366429,-95.5672607421875,-22.94333267211914,-103.77951049804688,25126636.0,50354.0,0.2940859985331,-0.11412632383650215,0.15444844034024632,0.012229510640053008,-0.003284990784475124,0.005507365116389613,25.126636658998905
1609,C,43339600819290.0,4.670227,11.879299700252172,2.2034602579863827,47,1970-01-01 12:02:19.600819290,0.56225586,-1.2944336,0.6928711,7.2881884340286165,1.5721833093276718,-95.39364624023438,-23.32358741760254,-103.78055572509766,25176990.0,50354.0,0.2981332340132,-0.014644217143502143,0.13562254881819633,0.014910303617818197,-0.003242055910253568,0.0073031172940421114,25.176990662999742
1609,C,43339651173294.0,3.8199768,10.536709300252173,1.9371486089863825,47,1970-01-01 12:02:19.651173294,0.62805176,-1.1657715,0.24282837,7.914630478997205,1.346268108783761,-95.25940704345703,-23.446353912353516,-103.76917266845703,25227344.0,50354.0,0.2137578610726,0.07089865860569788,0.10424810944377332,0.012887882100975188,0.0014163180726937024,0.006039223563061609,25.22734466700058
1609,C,43339701527298.0,4.057312,9.106457200252173,1.8946376219863825,47,1970-01-01 12:02:19.701527298,0.27278137,-0.6836395,-0.15982056,9.294467524578772,0.7532033279122181,-95.14006805419922,-23.513948440551758,-103.77936553955078,25277698.0,50354.0,0.1983265001176,0.0010868029831978916,0.09647288193720131,0.010375047961685665,0.001812377966423629,0.005053552399998798,25.277698671001417
1609,C,43339751881302.0,3.2423553,10.418514700252173,2.0596461679863824,47,1970-01-01 12:02:19.751881302,-0.07475281,-0.5076294,-0.4792328,7.760684624712576,0.7020966222273798,-95.005126953125,-23.56797218322754,-103.80962371826172,25328052.0,50354.0,0.1837837236121,-0.0018889824610021264,0.0995570029801443,0.009620389102842658,-2.019647271267722e-05,0.004935444412564011,25.32805267499498
1609,C,43339802235306.0,3.008484,10.148846100252172,2.2949672079863825,47,1970-01-01 12:02:19.802235306,0.114974976,-1.2995453,-0.6730652,7.921601196815939,1.468010216350462,-94.83368682861328,-23.56948471069336,-103.81385803222656,25378406.0,50354.0,0.1573773810561,0.024355242874297845,0.1096361009668663,0.008589413132231272,0.0005656330384255463,0.005266854778073886,25.378406678995816
1609,C,43339852589310.0,2.5009155,8.577678700252173,2.5375667079863824,47,1970-01-01 12:02:19.852589310,0.5029907,-2.3874817,-0.69625854,9.254964875295174,2.5372907729789884,-94.63516998291016,-23.403793334960938,-103.77120208740234,25428760.0,50354.0,0.13871015121150002,-0.021991485097702143,0.12166870640244631,0.007454595799901365,5.9512329541349994e-05,0.005823561135137184,25.428760682996653
1609,C,43339902943314.0,1.5189056,7.472423700252172,1.7123103479863826,47,1970-01-01 12:02:19.902943314,0.80747986,-1.9758606,-0.40205383,10.113398570432455,2.172025809504954,-94.54875183105469,-23.05176544189453,-103.69738006591797,25479114.0,50354.0,0.1012070358347,-0.08937577186250215,0.1069991546382263,0.006040395018262178,-0.0028038934284870635,0.005757170737421015,25.47911468699749
1609,C,43339953297318.0,1.5032501,8.221767700252173,1.0644832079863826,47,1970-01-01 12:02:19.953297318,0.3616333,-0.4901123,-0.06956482,9.409159792016244,0.6130481012627087,-94.56455993652344,-22.710256576538086,-103.66143035888672,25529468.0,50354.0,0.0760888140589,-0.09833654310950217,0.06991133135872632,0.0044637776127711675,-0.004726032954050153,0.004454075305945277,25.52946869099833
1609,C,43340003651321.0,1.7914429,7.870739700252173,1.9013514879863826,47,1970-01-01 12:02:20.003651321,-0.100997925,0.5377197,0.09158325,9.763562321597334,0.5547346647749338,-94.44364929199219,-22.408126831054688,-103.73480987548828,25579822.0,50354.0,0.08295048566100001,-0.08830814117750213,0.07467082014050631,0.004004132449047923,-0.004699153216293908,0.0036401448282961804,25.579822693995084
1609,C,43340054005325.0,3.1417084,6.048031700252173,2.6609645079863826,47,1970-01-01 12:02:20.054005325,0.25749207,0.43840027,0.30773926,11.866437490710615,0.5943066674658003,-94.21259307861328,-22.223526000976562,-103.83895874023438,25630176.0,50354.0,0.12420195028010002,-0.14303629244950214,0.11486542983060632,0.005215476879689076,-0.005824558805427087,0.0047719541655227024,25.63017669799592
1609,C,43340104359329.0,6.3560944,2.9760707002521727,1.3088527079863828,47,1970-01-01 12:02:20.104359329,1.3127899,0.39689636,0.77104187,15.837643572955459,1.5733561603833877,-94.095458984375,-22.222658157348633,-103.8793716430664,25680530.0,50354.0,0.23912618109560002,-0.26626937386250216,0.09994808804654631,0.009147512363646,-0.010305088760737331,0.005408359939593072,25.68053070199676
1609,C,43340154713333.0,8.20993,3.8892327002521725,-1.7584231920136173,47,1970-01-01 12:02:20.154713333,0.2314148,-1.4654388,0.6966858,16.294066672103437,1.639034712910657,-94.37164306640625,-22.39129066467285,-103.70480346679688,25730884.0,50354.0,0.3667287963188,-0.32062145628550215,-0.011318836076353684,0.01525361076636235,-0.014776150430636304,0.00223141867685354,25.730884705997596
1609,C,43340205067337.0,7.873947,8.250545700252172,-6.7086031920136175,47,1970-01-01 12:02:20.205067337,-0.9036255,0.44728088,-0.37898254,14.893422040228565,1.077138336282149,-95.23452758789062,-22.749147415161133,-103.41011047363281,25781238.0,50354.0,0.40494377122900005,-0.18782599921050216,-0.21317432327065372,0.019428400233150962,-0.012801181587022903,-0.005652064272879605,25.781238709998433
1609,C,43340255421341.0,4.512024,10.434231200252173,2.1002498079863825,47,1970-01-01 12:02:20.255421341,-2.6575317,0.9610138,-1.3546753,8.358439448762864,3.133874188400903,-95.20116424560547,-23.070777893066406,-103.51290130615234,25831592.0,50354.0,0.31184159186700006,-0.023042571976002162,-0.1160245131496537,0.018046505086667997,-0.005309038016762619,-0.008288239104554082,25.83159271399927
1609,C,43340305775345.0,1.9425049,9.719372200252172,2.9670101079863826,47,1970-01-01 12:02:20.305775345,-1.3508759,1.697586,-1.4931183,8.054243683890968,2.63364124025876,-94.90303802490234,-22.938793182373047,-103.72744750976562,25881946.0,50354.0,0.16250567411530004,0.013938072814497852,0.1275784029044463,0.01194264111563637,-0.00022922397538919403,0.0002908922823564133,25.88194671800011
1609,C,43340356129349.0,3.7509613,6.557186700252172,-2.111786192013618,47,1970-01-01 12:02:20.356129349,-2.057785,-0.50349426,-1.3664703,12.2296526826447,2.5209574881104277,-95.41400909423828,-22.896446228027344,-103.54008483886719,25932300.0,50354.0,0.14334439851740002,-0.08367427656200216,0.021531972532446302,0.007700387278673489,-0.001755748401750916,0.0037541519223746453,25.932300722000946
1609,C,43340406483353.0,2.8664246,9.076183700252173,2.3877406479863827,47,1970-01-01 12:02:20.406483353,-1.5365448,1.2676849,-1.3798676,8.879453517702878,2.423227088331758,-95.25074768066406,-22.875152587890625,-103.68560791015625,25982654.0,50354.0,0.16660592480430003,-0.09986783342650214,0.0069477053380263025,0.007803619290270442,-0.004621039703180572,0.0007170328497448889,25.982654725994507
1609,C,43340456837357.0,4.2392883,10.380230400252174,2.7270656079863826,47,1970-01-01 12:02:20.456837357,0.088897705,0.24951172,-1.1539001,8.296369228316228,1.1839106136662663,-94.97481536865234,-23.13895034790039,-103.79829406738281,26033008.0,50354.0,0.17890053368330003,-0.003615062191602099,0.12877547710662632,0.008698816105342308,-0.0026053888629770107,0.003417102564409019,26.033008729995345
1609,C,43340507191361.0,6.5432434,10.282757200252172,-0.2200016920136172,47,1970-01-01 12:02:20.507191361,-0.41807556,1.9678802,-2.2626953,9.95618412095036,3.0277268166172857,-95.1980972290039,-23.71051788330078,-103.79885864257812,26083362.0,50354.0,0.27147180061090004,0.026762838817897885,0.06312034821244633,0.011339024260525077,0.0005827915721202491,0.004831361194058292,26.083362733996182
1609,C,43340557545364.0,2.8067932,11.071178700252172,-1.1319278920136175,47,1970-01-01 12:02:20.557545364,0.23860168,0.31166077,-1.380539,7.632601641526481,1.4352529838940644,-95.69108581542969,-23.760377883911133,-103.60408782958984,26133716.0,50354.0,0.2354058714782,0.044158844166997856,-0.03403753113705369,0.012761659150187272,0.00178559521251072,0.0007322180855071606,26.133716737000213
1609,C,43340607899368.0,0.29748535,11.687466100252173,2.5866542079863826,47,1970-01-01 12:02:20.607899368,0.38275146,0.025115967,-0.24031067,5.8243474532616055,0.4526352947421639,-95.34695434570312,-23.275386810302734,-103.73377227783203,26184070.0,50354.0,0.07815642105335001,0.07952520014229789,0.03662564445724631,0.007894557839066835,0.0031139931835751393,6.516092906248956e-05,26.18407074100105
1609,C,43340658253372.0,-0.4118042,12.781643300252172,1.2393794479863827,47,1970-01-01 12:02:20.658253372,0.7544861,0.73683167,0.669281,4.757148967005226,1.2490425300882269,-95.37847137451172,-22.56859588623047,-103.74314880371094,26234424.0,50354.0,-0.002878205686450001,0.12258956737649788,0.09632804935642632,0.0018952796282924417,0.005088643501820721,0.0033473751491468356,26.234424744994612
1609,C,43340708607376.0,1.2103119,8.425106700252172,3.1493221079863827,47,1970-01-01 12:02:20.708607376,0.7236328,1.1545868,2.3108368,9.203421334097126,2.6826631961922316,-94.97014617919922,-22.1012020111084,-103.947509765625,26284778.0,50354.0,0.0201040283629,0.04045314476269785,0.11049433907472633,0.0004336945375249817,0.004104926363528531,0.00520716727353113,26.28477874899545
1609,C,43340758961380.0,9.051117,2.5303157002521726,3.8174434079863824,47,1970-01-01 12:02:20.758961380,-0.23718262,0.48695374,4.049225,17.566599779150724,4.085291010534629,-94.68669128417969,-22.133485794067383,-104.09742736816406,26335132.0,50354.0,0.2583519954153,-0.21764453022250216,0.17540225539564633,0.007010687310663742,-0.004461147511721494,0.007198018558980572,26.335132752996287
1609,C,43340809315384.0,15.336304,-0.7534672997478289,0.9058376079863826,47,1970-01-01 12:02:20.809315384,0.9218292,3.9366302,1.9655914,23.83937549696223,4.49559517275284,-94.52700805664062,-22.491849899291992,-104.32982635498047,26385486.0,50354.0,0.614002098517,-0.44873348782050226,0.1189180461391463,0.02196325902293352,-0.016777399360268723,0.007410102231741474,26.385486756997125
1609,C,43340859669388.0,3.3858185,11.992565700252172,-1.0540165920136173,47,1970-01-01 12:02:20.859669388,0.010894775,2.4661102,1.2964172,7.101371439458691,2.786129173445155,-95.0316162109375,-22.6281795501709,-104.25431823730469,26435840.0,50354.0,0.47136687818250006,-0.2105024195705022,-0.003730702280853689,0.027326334726363314,-0.01659758244038332,0.002900071756320233,26.435840760997962
1609,C,43340910023392.0,5.1587067,10.375622200252172,1.8470759779863826,47,1970-01-01 12:02:20.910023392,-0.8464508,-0.85972595,1.2059937,8.770957789867136,1.7058805557141838,-94.99635314941406,-22.89748764038086,-104.24961853027344,26486194.0,50354.0,0.21512551096039997,0.06969466677099784,0.01996685616063631,0.017283818881450794,-0.0035451167922331216,0.0004087776462312871,26.4861947649988
1609,C,43340960377396.0,5.638199,9.276897700252173,2.5705409379863826,47,1970-01-01 12:02:20.960377396,-0.32147217,-1.457901,0.4066162,9.964191263296982,1.5473061804271153,-94.833251953125,-23.16415786743164,-104.2544174194336,26536548.0,50354.0,0.2718336948089,0.0013222935349978514,0.11122234109344631,0.012260171923653666,0.0017879940096240537,0.0033029504192660384,26.536548768999637
1609,C,43341010731400.0,3.2378082,11.225018000252174,1.9621730229863825,47,1970-01-01 12:02:21.010731400,-0.30352783,-2.187851,-0.14190674,7.0330866502494525,2.213359135938616,-94.77452850341797,-23.27001953125,-104.18274688720703,26586902.0,50354.0,0.22347123327440002,0.022707531591597895,0.11412013939541132,0.012470292174353246,0.0006049989072123011,0.005673447631267969,26.586902773000475
1609,C,43341061085403.0,3.198471,9.846981700252172,2.8735499779863827,47,1970-01-01 12:02:21.061085403,-0.16479492,-2.856247,-0.43728638,8.317666401543345,2.89422246359887,-94.55194091796875,-23.27454376220703,-104.14154815673828,26637256.0,50354.0,0.1620462014184,0.037060536459597886,0.12174899799549131,0.009706172453260628,0.0015047806493249563,0.005938477272090756,26.63725677599723
1609,C,43341111439407.0,2.5668182,9.435009700252172,3.2048335079863826,47,1970-01-01 12:02:21.111439407,0.44821167,-3.0398102,-0.5311432,8.527473264545762,3.1182451558616213,-94.24906921386719,-23.160228729248047,-104.11097717285156,26687610.0,50354.0,0.1451526861884,-0.008006502509502167,0.1530354610263363,0.007734346393276405,0.0007314934127615599,0.006918248324792555,26.687610779998067
1609,C,43341161793411.0,2.0854492,9.463817700252173,3.027389107986383,47,1970-01-01 12:02:21.161793411,0.82951355,-2.5235748,-0.25608826,8.342654748670192,2.668726980741655,-93.94927215576172,-22.959264755249023,-104.09553527832031,26737964.0,50354.0,0.11713013632979999,-0.017653422537502142,0.15690866880234633,0.006603494622540722,-0.0006460399329084275,0.007803463356696743,26.737964783998905
1609,C,43341212147415.0,2.169876,8.159633700252172,2.8223415079863825,47,1970-01-01 12:02:21.212147415,1.1824188,-2.3465881,-0.10423279,9.59876615733724,2.6297251575338123,-93.69391632080078,-22.71755027770996,-104.06346893310547,26788318.0,50354.0,0.1071363225604,-0.04976356408950213,0.14727866771834633,0.005646356635478565,-0.0016973574723080866,0.007658524571581479,26.788318787999742
1609,C,43341262501419.0,1.5056763,7.938625700252173,0.8601375079863827,47,1970-01-01 12:02:21.262501419,1.0461273,-1.2364197,0.017211914,9.708588344229389,1.619695110919621,-93.74162292480469,-22.371747970581055,-103.96812438964844,26838672.0,50354.0,0.0925393802571,-0.08816332307350215,0.09271377418514631,0.005027235169836198,-0.0034725852381029586,0.006042289709804235,26.83867279200058
1609,C,43341312855423.0,0.28892517,7.161632700252172,-2.8943181920136176,47,1970-01-01 12:02:21.312855423,0.5349121,0.22471619,-0.009567261,11.389068042437737,0.5802756700548182,-94.27345275878906,-21.898256301879883,-103.76789855957031,26889026.0,50354.0,0.04518268121019,-0.11328999425050217,-0.0512145670817537,0.0034674283415619604,-0.005071990170266457,0.001044825537242116,26.889026796001417
1609,C,43341363209427.0,3.9015045,6.784542700252173,2.8434444079863828,47,1970-01-01 12:02:21.363209427,0.097457886,-0.03956604,0.31326294,11.409605214593835,0.3304499669273916,-94.03974914550781,-21.841081619262695,-103.85238647460938,26939380.0,50354.0,0.10550244780159002,-0.14234634194150217,-0.0012808492604536922,0.003793799493129586,-0.006436156036306093,-0.0013216770972477555,26.93938079999498
1609,C,43341413563431.0,5.024292,4.540722700252173,3.4732509079863827,47,1970-01-01 12:02:21.413563431,0.30870056,-0.8048096,0.49217224,13.953938295779926,0.9925966158632072,-93.77020263671875,-21.803936004638672,-103.91119384765625,26989734.0,50354.0,0.22472477848050001,-0.20833299301150213,0.15903543797024633,0.00831413087610418,-0.00882905361611179,0.00397178727994645,26.989734803995816
1609,C,43341463917435.0,6.1159363,3.924862700252172,-0.6768039920136173,47,1970-01-01 12:02:21.463917435,0.8685303,0.023605347,0.2190857,15.089580217412939,0.8960472299882246,-93.9022445678711,-21.849477767944336,-103.84772491455078,27040088.0,50354.0,0.2804775279091,-0.28033115637150213,0.07040614400344633,0.012719478467970962,-0.0123030972890159,0.00577665070935166,27.040088807996653
1609,C,43341514271439.0,6.4619293,4.169780700252172,-9.313629192013618,47,1970-01-01 12:02:21.514271439,0.015960693,-0.0309906,-0.09562683,18.582688818505208,0.10178237384365305,-94.76005554199219,-21.91162872314453,-103.52601623535156,27090442.0,50354.0,0.3166729222112,-0.2896703631055022,-0.2515291362742537,0.015034456882678795,-0.014350928255872537,-0.004560133576402118,27.09044281199749
1609,C,43341564625443.0,5.4090576,9.569241000252173,-4.497803192013618,47,1970-01-01 12:02:21.564625443,-2.0493927,-0.20684814,-0.8470764,11.538441416902035,2.2271809579088333,-95.64080047607422,-22.184345245361328,-103.2208023071289,27140796.0,50354.0,0.2988758371813,-0.14756185064640215,-0.3477304331326537,0.015497671115224973,-0.011008195445631697,-0.015087558178957709,27.14079681599833
1609,C,43341614979446.0,2.7045593,9.574718700252173,-0.1995395920136176,47,1970-01-01 12:02:21.614979446,-2.311615,2.4039154,-1.1601257,8.614809523153617,3.5310430184837243,-95.9533920288086,-22.163957595825195,-103.25194549560547,27191150.0,50354.0,0.20427653269130003,-0.011481726620402099,-0.1182649992734537,0.012667867216282451,-0.00400424014484633,-0.011732367001688566,27.191150818995084
1609,C,43341665333450.0,1.1836853,7.420070700252172,0.18087720798638252,47,1970-01-01 12:02:21.665333450,-2.6277008,1.9716492,-1.411438,10.270112050958716,3.5755236385773315,-96.15471649169922,-21.86188507080078,-103.3100814819336,27241504.0,50354.0,0.09789433429420001,-0.06559138726350214,-0.0004698628426536976,0.007607755918093935,-0.0019404697882550572,-0.002989387623497236,27.24150482299592
1609,C,43341715687454.0,1.9266663,7.464992700252173,-1.2150730920136172,47,1970-01-01 12:02:21.715687454,-1.9295044,0.18096924,-1.1467896,10.665499691316507,2.251857784611119,-96.54865264892578,-21.645343780517578,-103.2026596069336,27291858.0,50354.0,0.0783093222332,-0.11870795876550215,-0.02603794977215369,0.00443627946039035,-0.0046401046349722405,-0.0006673871982030056,27.29185882699676
1609,C,43341766041458.0,3.6126862,9.374996700252172,0.33222920798638267,47,1970-01-01 12:02:21.766041458,-0.96162415,0.07966614,-1.1220856,9.00828627251418,1.4799134412029245,-96.713623046875,-21.7530460357666,-103.15713500976562,27342212.0,50354.0,0.1394642778925,-0.06948878686350214,-0.022227360468153688,0.005482885930364749,-0.0047382294647014414,-0.001215175715920219,27.342212830997596
1609,C,43341816395462.0,5.406143,9.311275700252173,-0.5947269920136173,47,1970-01-01 12:02:21.816395462,-0.98526,1.3653107,-1.5718231,10.109625808759592,2.3033537359311747,-96.97886657714844,-22.109481811523438,-103.13075256347656,27392566.0,50354.0,0.22706706276840002,-0.023004919772502144,-0.0066089067084536875,0.009228159563819479,-0.00232871405197468,-0.0007260106987054439,27.392566834998433
1609,C,43341866749466.0,3.6698456,10.099972200252171,0.11244160798638259,47,1970-01-01 12:02:21.866749466,-0.7203369,0.70666504,-1.4092865,8.432804196399028,1.7333058493359046,-97.17320251464844,-22.27937889099121,-103.09544372558594,27442920.0,50354.0,0.22850616498220003,-0.004752211609002159,-0.01214249911365369,0.011469967155076859,-0.0006988412967921339,-0.00047210414438319745,27.44292083899927
1609,C,43341917103470.0,1.2689514,11.832882400252172,-0.24356119201361737,47,1970-01-01 12:02:21.917103470,-0.073532104,-0.13905334,-0.66674805,6.176543177545062,0.6850516505071899,-97.548095703125,-22.067829132080078,-102.94511413574219,27493274.0,50354.0,0.124344092069,0.05873428027689783,-0.00330119776705369,0.008883710921778065,0.0013591065428516093,-0.0003888259563655697,27.49327484300011
1609,C,43341967457474.0,-0.5558624,13.740902400252173,0.5308223079863825,47,1970-01-01 12:02:21.967457474,0.210495,0.07572937,0.27163696,4.024555952333437,0.35189447359064685,-97.88314819335938,-21.35226821899414,-102.82235717773438,27543628.0,50354.0,0.017953441753,0.15040197992229787,0.007232373116846309,0.003582625009036494,0.00526542362303515,9.897520178172877e-05,27.543628847000946
1609,C,43342017811478.0,-1.3534241,12.929546700252173,1.8728938479863826,47,1970-01-01 12:02:22.017811478,0.57759094,1.588623,1.7484283,4.736911870982728,2.431940757983215,-97.64137268066406,-20.39904022216797,-102.98246765136719,27593982.0,50354.0,-0.0480701062105,0.1780126970033979,0.06051836165892631,-0.0007582472610464776,0.008268496320958243,0.0017057602494496274,27.593982850994507
1609,C,43342068165482.0,7.194107,4.581432700252172,3.6097408079863826,47,1970-01-01 12:02:22.068165482,1.7524414,3.2443848,3.1085815,14.852931656661895,4.82289980541243,-97.1395263671875,-20.4936580657959,-103.29729461669922,27644336.0,50354.0,0.1470508733733,-0.052595271633502146,0.13803629273342632,0.0024920387748578157,0.0031576345185378657,0.004999010533636263,27.644336854995345
1609,C,43342118519486.0,12.230728,1.687877700252173,0.07224990798638253,47,1970-01-01 12:02:22.118519486,1.8267517,4.3676147,2.7842865,20.05282960173809,5.492297447807359,-96.95176696777344,-20.803241729736328,-103.55070495605469,27694690.0,50354.0,0.489059070795,-0.33562677204650215,0.09270148025604633,0.01601534006432529,-0.009774266393731468,0.005809284910555953,27.694690858996182
1609,C,43342168873489.0,5.9716644,9.682751100252172,-2.3935398920136173,47,1970-01-01 12:02:22.168873489,0.26815796,2.2628937,2.0119019,10.72758072211074,3.039793717381931,-97.37174987792969,-21.07093620300293,-103.51224517822266,27745044.0,50354.0,0.45828163345480005,-0.20719087868970215,-0.0584431179278537,0.023851196910897217,-0.013666519992585419,0.0008625227883369059,27.745044862000213
1609,C,43342219227493.0,7.6660004,8.938534200252173,1.5985103079863827,47,1970-01-01 12:02:22.219227493,-0.36590576,-0.6356659,1.6692657,11.473692015470114,1.8232954063509506,-97.29714965820312,-21.49544334411621,-103.5264663696289,27795398.0,50354.0,0.34335548666960003,-0.024641099989202137,-0.020016459837053687,0.020182817773372025,-0.005836833727198774,-0.0019753767893870735,27.79539886600105
1609,C,43342269581497.0,7.606552,8.196666700252173,2.3588557579863827,47,1970-01-01 12:02:22.269581497,-0.3720398,-0.7188263,0.97377014,11.999954433688393,1.2662358184443172,-97.1229248046875,-21.88739585876465,-103.57027435302734,27845752.0,50354.0,0.3845170517748,-0.06205624692800212,0.09963460544299632,0.01832564690041466,-0.002182779103334452,0.0020045460519208178,27.845752869994612
1609,C,43342319935501.0,3.3572845,11.506054400252172,1.9136500739863826,47,1970-01-01 12:02:22.319935501,-0.51600647,-1.0548248,0.19168091,6.842692778602471,1.1898149465506513,-97.00890350341797,-22.061492919921875,-103.57508850097656,27896106.0,50354.0,0.2760365115605,0.002586209147397853,0.10756887933157831,0.01663075706409285,-0.0014972771412022738,0.005216762136169465,27.89610687399545
1609,C,43342370289505.0,3.3048096,9.825359700252172,2.6282802079863825,47,1970-01-01 12:02:22.370289505,-0.31655884,-1.6512451,0.011520386,8.35516095686085,1.681354394156611,-96.75948333740234,-22.092790603637695,-103.5988998413086,27946460.0,50354.0,0.16773154315570002,0.043591812808397815,0.11435217870922831,0.01117274831358977,0.0011626240587810676,0.0055873064782933895,27.946460877996287
1609,C,43342420643509.0,3.5515137,9.618816700252172,2.9968410079863825,47,1970-01-01 12:02:22.420643509,0.2844391,-1.9718933,0.042999268,8.679936925783904,1.99276634988707,-96.43384552001953,-22.145919799804688,-103.62567901611328,27996814.0,50354.0,0.1726216517241,-0.003923170764502188,0.14162367685454633,0.008569072387488724,0.0009987374007391604,0.006444704115529156,27.996814881997125
1609,C,43342470997591.0,2.977234,10.641384700252171,2.582900557986383,47,1970-01-01 12:02:22.470997591,0.85112,-2.253601,-0.060806274,7.475472395979071,2.409734451046165,-96.14710998535156,-22.179889678955078,-103.61377716064453,28047168.0,50354.0,0.1643742808429,0.016621890660497806,0.14048115340649633,0.00848454659423936,0.00031971567082148173,0.0071025533114822716,28.047168963996228
1609,C,43342521351595.0,2.5319977,9.111171700252173,2.0915065179863825,47,1970-01-01 12:02:22.521351595,0.90371704,-1.2505798,-0.29109192,8.733691514367797,1.5701556707676114,-95.94328308105469,-22.058719635009766,-103.61445617675781,28097522.0,50354.0,0.1387059265109,0.0038409124954978478,0.11768754695176632,0.007630650380546624,0.0005151919950585026,0.00649991336891998,28.097522967997065
1609,C,43342571705599.0,1.9098511,7.906460700252172,1.6581111379863827,47,1970-01-01 12:02:22.571705599,0.44000244,-0.28256226,-0.52911377,9.755013641549693,0.7439119299929757,-95.81623840332031,-21.81736183166504,-103.63809967041016,28147876.0,50354.0,0.11183242723760001,-0.06501626905250214,0.09440412372442632,0.0063078041323259846,-0.0015402119520356973,0.0053398319926145025,28.147876971997903
1609,C,43342622059603.0,2.045456,5.795864700252173,2.7049098379863827,47,1970-01-01 12:02:22.622059603,0.41918945,-0.96009827,-0.24577332,11.874942265248343,1.0760636634847018,-95.56303405761719,-21.53658103942871,-103.6783447265625,28198230.0,50354.0,0.0995827668567,-0.14848575339150216,0.10984777911206632,0.0053228003417121915,-0.005375340419072696,0.005142450157714375,28.19823097599874
1609,C,43342672413606.0,2.410736,4.420574700252173,3.3689723079863825,47,1970-01-01 12:02:22.672413606,1.0041962,-1.6019897,0.074295044,13.345153331237908,1.892168269621783,-95.23477935791016,-21.259492874145508,-103.70585632324219,28248584.0,50354.0,0.112193545984,-0.23624990521350214,0.15292213078915634,0.0053318922283903045,-0.009686489676698194,0.006615758021583084,28.248584978995495
1609,C,43342722767610.0,2.9345703,4.220394700252173,-0.6139377920136175,47,1970-01-01 12:02:22.722767610,1.9002686,-1.7498169,0.62812805,13.807941945092846,2.6584628609157535,-95.32096099853516,-20.998825073242188,-103.56180572509766,28298938.0,50354.0,0.1345787767151,-0.2759155134035021,0.06936350400864631,0.006212986768595241,-0.012894788744520318,0.005596485427304278,28.298938982996333
1609,C,43342773121614.0,4.6325226,6.174312700252173,-1.9766697920136174,47,1970-01-01 12:02:22.773121614,0.9683075,-2.5176544,0.51026917,12.821054399302637,2.745282812070206,-95.66134643554688,-20.97945213317871,-103.3077163696289,28349292.0,50354.0,0.1905166979433,-0.23176165177750213,-0.0652237271430537,0.008184928765474537,-0.012781787987762144,0.00010422716214502513,28.34929298699717
1609,C,43342823475618.0,5.233383,6.432094700252172,-5.0309147920136175,47,1970-01-01 12:02:22.823475618,-0.8694,-0.3569336,-0.33270264,14.06488273149701,0.9969699100133009,-96.350830078125,-21.064956665039062,-103.05784606933594,28399646.0,50354.0,0.2483939052912,-0.17607768087750214,-0.1764299570720537,0.011050452257635008,-0.010268170878255043,-0.006084114807483759,28.399646990998008
1609,C,43342873829622.0,3.8065186,8.099849700252172,-3.9738771920136173,47,1970-01-01 12:02:22.873829622,-2.1975098,0.6012268,-0.99334717,11.716070154663422,2.485409742131323,-97.08613586425781,-21.112789154052734,-102.85549926757812,28450000.0,50354.0,0.22759760258320003,-0.1275984358285022,-0.22671364778185374,0.01198403819375377,-0.007645653590307072,-0.010149946539406828,28.450000994998845
1609,C,43342924183626.0,1.1439819,7.842785700252172,2.4851527579863824,47,1970-01-01 12:02:22.924183626,-2.3046112,1.4376068,-0.9139862,9.708578100629547,2.86588849545165,-96.90371704101562,-20.820125579833984,-103.0235824584961,28500354.0,50354.0,0.12463875108850002,-0.09208146852150219,-0.037481615075503696,0.008868254676392393,-0.005530880951820061,-0.006651644132959689,28.500354998999683
1609,C,43342974537630.0,0.5167694,6.868603200252172,4.082000307986383,47,1970-01-01 12:02:22.974537630,-1.9773712,2.4309692,-0.78067017,10.825919758974056,3.22940459346083,-96.47901153564453,-20.45359230041504,-103.31681823730469,28550709.0,50355.0,0.041813565855749996,-0.1230830059575519,0.1653444963185293,0.004190853209863854,-0.005417303556196383,0.0032192676924962765,28.55070900300052
1609,C,43343024891634.0,2.3672333,6.668102700252172,-4.564651892013617,47,1970-01-01 12:02:23.024891634,-3.2517548,-0.6223602,-1.540451,12.829540335240267,3.651606602752832,-97.28095245361328,-20.3252010345459,-103.0571060180664,28601063.0,50354.0,0.0726105359779,-0.15265555554300217,-0.01215171893105368,0.002880855611865806,-0.006942269762899451,0.0038569345562844736,28.601063007001358
1609,C,43343075245638.0,3.55896,8.922298700252172,1.9624629399863827,47,1970-01-01 12:02:23.075245638,-1.4006958,-0.42773438,-1.1158295,9.257613261817575,1.8411900762935571,-97.179443359375,-20.438718795776367,-103.09026336669922,28651417.0,50354.0,0.1492037687141,-0.10094966393950217,-0.0655153112451897,0.005584618749230484,-0.006385018610911013,-0.0019554228187472797,28.65141701099492
1609,C,43343125599642.0,3.3858643,9.071254700252172,-1.4331974920136175,47,1970-01-01 12:02:23.125599642,-1.6465454,1.5077362,-2.12117,9.663010986351955,3.07956853665438,-97.60293579101562,-20.570350646972656,-103.0283432006836,28701771.0,50354.0,0.17484984140110002,-0.04044550603550215,0.01332531618361031,0.008158697741870391,-0.003559906194460684,-0.0013139875056653843,28.701771014995757
1609,C,43343175953646.0,3.0167236,11.243359000252173,-1.2226108920136174,47,1970-01-01 12:02:23.175953646,-1.3016968,0.09312439,-1.4338531,7.607343391273326,1.9388195954040495,-98.13575744628906,-20.737173080444336,-102.85871887207031,28752125.0,50354.0,0.16119795555830002,0.017991829137597875,-0.06686528768465369,0.008460675384046814,-0.000565316223258536,-0.0013479758624817693,28.752125018996594
1609,C,43343226307649.0,1.6073151,12.722683400252173,0.027862107986382556,47,1970-01-01 12:02:23.226307649,-0.98635864,-0.3439026,-0.842926,5.363994868757556,1.3422729254758174,-98.54317474365234,-20.707534790039062,-102.71051788330078,28802479.0,50354.0,0.1164194223499,0.1099238495174979,-0.030080190135453693,0.006989572723594752,0.0032205330414993463,-0.002440796295076844,28.802479022000625
1609,C,43343276661653.0,0.68836975,14.323421900252173,0.3184810079863827,47,1970-01-01 12:02:23.276661653,-0.43562317,0.3548584,-0.47486877,3.6059940739720218,0.735657786618698,-99.04276275634766,-20.518062591552734,-102.55546569824219,28852833.0,50354.0,0.057798457468450005,0.18747059315079792,0.00871988063084631,0.004386283560186599,0.007487499883059685,-0.0005377885123975002,28.852833026001463
1609,C,43343327015657.0,0.81944275,14.420086300252173,2.3373103479863824,47,1970-01-01 12:02:23.327015657,0.09941101,0.92715454,0.5567322,3.1811575922529483,1.0860243240686056,-98.60177612304688,-20.37737274169922,-102.75474548339844,28903187.0,50354.0,0.0379621953125,0.23020610596409793,0.0668648589693263,0.0024109659550659783,0.010515846253615733,0.0019029969889135458,28.903187029995024
1609,C,43343377369661.0,2.0630035,11.661495700252171,3.327010707986383,47,1970-01-01 12:02:23.377369661,0.99754333,3.0927734,2.9008331,6.316097518130611,4.356050122878599,-97.94647979736328,-20.256616592407227,-103.12857818603516,28953541.0,50354.0,0.07257134923625001,0.16318679002669784,0.1426106112262263,0.002782903051103879,0.009904452942360266,0.005273963913113429,28.95354103399586
1609,C,43343427723665.0,15.50383,-0.7985572997478272,4.985503807986382,47,1970-01-01 12:02:23.427723665,1.2947083,7.5143585,4.1395874,24.151836018628003,8.676291666999784,-97.38130187988281,-20.600799560546875,-103.67937469482422,29003895.0,50354.0,0.44228016702950007,-0.21997299989050217,0.20928417796864632,0.012962416625022791,-0.001429706405741002,0.008859655107559308,29.0038950379967
1609,C,43343478077669.0,5.01532,4.385586200252172,-3.8856815920136176,47,1970-01-01 12:02:23.478077669,-0.50453186,2.7258453,0.20285034,15.175144148782694,2.7795563059102193,-97.7685775756836,-20.595603942871094,-103.67973327636719,29054249.0,50354.0,0.51661063955,-0.4031585733720022,0.0276902239315463,0.024141993837252074,-0.015688583620030075,0.0059663045166411495,29.054249041997537
1609,C,43343528431673.0,1.5948334,12.340771200252172,3.0461574079863825,47,1970-01-01 12:02:23.528431673,-0.91178894,-1.4160919,1.5001678,5.482176959468471,2.255477503436639,-97.33845520019531,-20.448131561279297,-103.7903823852539,29104603.0,50354.0,0.1664238321518,-0.07234969972750216,-0.0211367003812537,0.01719675889403622,-0.011971871791826223,0.00016499806242571674,29.104603045998374
1609,C,43343578785677.0,5.8703613,6.024456700252172,4.738692807986383,47,1970-01-01 12:02:23.578785677,-0.331604,-0.7580414,1.614151,13.162212499144577,1.8138554043062418,-96.87309265136719,-20.543346405029297,-103.9335708618164,29154957.0,50354.0,0.1879512069619,-0.031087857149002168,0.19599917388754634,0.008922100359765628,-0.0026042473694797494,0.00440251249546793,29.15495704999921
1609,C,43343629139681.0,2.8655243,9.478283400252172,2.072188887986383,47,1970-01-01 12:02:23.629139681,0.203125,0.6990509,0.5242157,8.48945613822447,0.8970696887880562,-96.65336608886719,-20.505279541015625,-104.04246520996094,29205311.0,50354.0,0.2199433917512,-0.10315671248960218,0.17147756845950635,0.01026956231179972,-0.0033798755297911416,0.009251961942071747,29.20531105400005
1609,C,43343679493685.0,2.64563,9.522137100252174,1.1527858079863826,47,1970-01-01 12:02:23.679493685,-0.04396057,1.3938904,0.40274048,8.412331552496797,1.4515725518063214,-96.60414123535156,-20.43903350830078,-104.12748718261719,29255665.0,50354.0,0.13875433181110003,-0.015095613058802127,0.08119518792050631,0.009030932586128028,-0.002977238800332175,0.006361541987379578,29.255665058000886
1609,C,43343729847689.0,2.775238,7.481609700252173,2.0492854479863825,47,1970-01-01 12:02:23.729847689,-0.64456177,0.8840637,0.2492981,10.365829383951983,1.1221310278513972,-96.4346694946289,-20.31279754638672,-104.24021911621094,29306019.0,50354.0,0.13648119363600003,-0.0653658668037021,0.08061854801162631,0.0069296048241816385,-0.002025778678498269,0.004073984429563303,29.306019061994448
1609,C,43343780201692.0,2.6591644,8.438167700252173,2.5165553479863827,47,1970-01-01 12:02:23.780201692,-0.613739,0.7977905,0.33973694,9.43114953054042,1.0623400728635881,-96.19393920898438,-20.20916175842285,-104.37319946289062,29356373.0,50354.0,0.1368219492248,-0.09265696438750212,0.1149541737202063,0.006880953227806363,-0.003978540820900949,0.00492393441504235,29.35637306499848
1609,C,43343830555696.0,3.668335,8.149196700252173,2.8976588579863827,47,1970-01-01 12:02:23.830555696,-0.21733093,0.3975525,0.5809326,10.060677396540285,0.7367247852038609,-95.89976501464844,-20.221637725830078,-104.50008392333984,29406727.0,50354.0,0.1593074523938,-0.07584912648850214,0.13631367106377631,0.007455649944551493,-0.00424247784998516,0.006326170528126331,29.406727068999317
1609,C,43343880909700.0,3.0691223,9.883205700252173,2.9429469079863826,47,1970-01-01 12:02:23.880909700,0.28527832,0.1377716,0.47644043,8.24354491010652,0.5721540150756327,-95.55339813232422,-20.251733779907227,-104.62370300292969,29457081.0,50354.0,0.16962896244210002,-0.03946740476250213,0.14704893136989633,0.008281632116323455,-0.002903324307306535,0.007134220241472576,29.457081073000154
1609,C,43343931263704.0,3.8122253,10.121822700252173,3.008590307986383,47,1970-01-01 12:02:23.931263704,0.44332886,0.5203705,0.5845337,8.345190772569094,0.8994473757896232,-95.19607543945312,-20.410322189331055,-104.76713562011719,29507435.0,50354.0,0.1732516885252,0.01019740003949787,0.14984185248654633,0.008632706149403714,-0.0007369309089110782,0.007474819265153657,29.50743507700099
1609,C,43343981617708.0,5.734604,9.378383700252172,3.2893520079863827,47,1970-01-01 12:02:23.981617708,0.45054626,0.99853516,0.40748596,10.007418660673972,1.1688067443993189,-94.836669921875,-20.76726531982422,-104.9339828491211,29557789.0,50354.0,0.24036052128610003,-0.0025125034545021487,0.15856329368924632,0.010413514606419101,0.0001934826413204373,0.007764716365267931,29.557789080994553
1609,C,43344031971712.0,5.2498474,10.051815700252172,2.7378841079863827,47,1970-01-01 12:02:24.031971712,0.37120056,1.4354401,-0.1360321,9.121391053235108,1.488886452575459,-94.55220031738281,-21.142812728881836,-105.09548950195312,29608143.0,50354.0,0.27655553289780005,-0.004275069693502158,0.15174772369184633,0.013014395496188052,-0.00017089072914730445,0.00781270048460377,29.60814308499539
1609,C,43344082325716.0,4.6092987,9.914669700252173,1.3547664079863826,47,1970-01-01 12:02:24.082325716,-0.1395874,2.5919647,-0.63375854,8.868540001467865,2.671968475732411,-94.50743865966797,-21.437593460083008,-105.23240661621094,29658497.0,50354.0,0.24822372135970003,0.009227002928497855,0.10304066204064632,0.01321236728444108,0.00012467482305748666,0.0064148071875869675,29.658497088996228
1609,C,43344132679720.0,4.762085,8.822368700252172,1.3784633079863826,47,1970-01-01 12:02:24.132679720,-1.6418915,4.778244,-1.1357269,9.886893215986975,5.178542170600898,-94.47889709472656,-21.696353912353516,-105.49042510986328,29708851.0,50354.0,0.23594332741489998,-0.021726784190502158,0.06881452455904631,0.012189873786998106,-0.00031470699283348236,0.004326798033020461,29.708851092997065
1609,C,43344183033724.0,4.4272003,7.489574700252172,2.7674403579863824,47,1970-01-01 12:02:24.183033724,-1.6878357,2.5071564,-0.8220062,10.947985225265153,3.132142518643411,-94.2890396118164,-21.806917190551758,-105.70513153076172,29759205.0,50354.0,0.2313586359981,-0.08278340100550217,0.10438141659819632,0.011765261532849102,-0.002631252932679801,0.004360554210515898,29.759205096997903
1609,C,43344233387728.0,5.3702393,5.801006700252172,3.8139339079863825,47,1970-01-01 12:02:24.233387728,0.4894867,-2.2390442,-0.41378784,12.979613456161616,2.3289775730054583,-93.9842529296875,-21.898181915283203,-105.70440673828125,29809559.0,50354.0,0.24667013680920002,-0.1588522320795022,0.16569925989439632,0.012035330412969393,-0.006083660334181155,0.006799821192054006,29.80955910099874
1609,C,43344283741731.0,5.6450195,0.516002700252173,3.183135507986383,47,1970-01-01 12:02:24.283741731,1.4704285,-2.6947327,-0.52830505,17.91062855012982,3.1149398908995085,-93.7573013305664,-21.83232307434082,-105.63506317138672,29859913.0,50354.0,0.2773311708076,-0.33442585432350214,0.1761652166859463,0.013192780921868173,-0.01241926238136844,0.008607121926863286,29.859913103995495
1609,C,43344334095735.0,3.935852,-0.32072829974782735,2.816863577986383,47,1970-01-01 12:02:24.334095735,0.26315308,-2.1204376,-0.5413666,18.240345144265664,2.204219352651366,-93.61483764648438,-21.62262535095215,-105.58307647705078,29910267.0,50354.0,0.24121760175550003,-0.48855277641850214,0.15106197698753632,0.01305550244682117,-0.020720132986191443,0.008238599055117273,29.910267107996333
1609,C,43344384449739.0,0.32388306,7.820995700252173,2.0397181879863826,47,1970-01-01 12:02:24.384449739,-1.9694672,0.40342712,-0.28726196,9.653383653778219,2.0307816048729554,-93.59345245361328,-21.156789779663086,-105.64503479003906,29960621.0,50354.0,0.10724734960562002,-0.30463496765750214,0.12227415912189632,0.00877330208041892,-0.019970087832601558,0.006881783898827186,29.96062111199717
1609,C,43344434803743.0,-0.63648987,11.036617700252172,-2.6633304920136176,47,1970-01-01 12:02:24.434803743,-1.370224,-1.8602295,0.12625122,7.9365745153209835,2.3138511130575665,-94.50560760498047,-20.59770393371582,-105.25849914550781,30010975.0,50354.0,-0.007870501655370002,-0.018691067415502142,-0.015700686978493698,0.002502010900843445,-0.008140379585033029,0.002683200308154448,30.010975115998008
1609,C,43344485157747.0,-1.8150787,10.214336700252172,1.0746760779863826,47,1970-01-01 12:02:24.485157747,-1.1723022,-3.2545776,0.7570343,7.5279637396568395,3.5411394682959174,-94.68211364746094,-19.734975814819336,-105.0691909790039,30061329.0,50354.0,-0.06172314188689001,0.041566078941497844,-0.0399975521819637,-0.0017521591634634805,0.0005759241651899939,-0.001402314567342836,30.061329119998845
1609,C,43344535511751.0,-3.0999146,8.162487700252173,-1.5205387920136173,47,1970-01-01 12:02:24.535511751,-2.4138947,0.61001587,1.7149506,10.40214266082833,3.023253635535779,-95.18101501464844,-18.805461883544922,-104.98050689697266,30111683.0,50354.0,-0.1237447863141,-0.030795892068502136,-0.011225485551063688,-0.004669526028316326,0.00027116099490141293,-0.0012896424210044307,30.111683123999683
1609,C,43344585865755.0,-1.9931183,9.471020200252173,6.180770407986382,47,1970-01-01 12:02:24.585865755,-1.772522,4.7977905,2.7647247,9.267832978183028,5.814149171561075,-94.38263702392578,-18.01667022705078,-105.49919891357422,30162037.0,50354.0,-0.1282272893233,-0.04951037158900211,0.1173306513953463,-0.00634390094832282,-0.0020218708001049847,0.0026714097604615037,30.16203712800052
1609,C,43344636219759.0,0.02645874,9.147274700252172,5.288848407986382,47,1970-01-01 12:02:24.636219759,-0.20401001,4.4400177,2.5557556,8.968804843369364,5.12711068218981,-93.65367889404297,-17.510332107543945,-105.94454193115234,30212391.0,50354.0,-0.049514587742119996,-0.024716389290002132,0.28877059292974633,-0.004475007238876079,-0.0018688071586506897,0.010224411028372859,30.212391132001358
1609,C,43344686573763.0,0.2897644,9.492626700252172,3.4321285079863824,47,1970-01-01 12:02:24.686573763,0.483963,3.0691376,1.2747498,8.118880249900712,3.358394385074927,-93.21244812011719,-17.086769104003906,-106.21839141845703,30262745.0,50354.0,0.00796154999578,-0.02417240243950216,0.2195680358134463,-0.0010461808313396023,-0.0012308731093737296,0.012798441655867361,30.26274513599492
