Subject-id_accel,Activity_accel,Timestamp_accel,accel_x,accel_y,accel_z,Segment_accel,DateTime,gyro_x,gyro_y,gyro_z,accel_magnitude,gyro_magnitude,Roll,Pitch,Yaw,Time_Difference,Difference_Microseconds,vx,vy,vz,dx,dy,dz,Time_diff
1613,C,177276492919617.0,-1.098220169615657,7.611766,6.030994,67,1970-01-03 01:14:36.492919617,-0.61838603,0.52411014,0.6064018,10.513276264181448,1.0123318941894603,83.35948944091797,1.0586130619049072,-69.29850006103516,15000270.0,39943.0,-0.05558108071920819,-0.0005711449570000468,0.24978973167925,-0.0016817536836545492,0.0028550991423530294,0.00984800063119203,15.00027035700623
1613,C,177276533050298.0,0.8111553303843424,6.351817,3.570952,67,1970-01-03 01:14:36.533050298,0.088150635,0.6327671,0.39920786,7.588267916310365,0.753346967060393,83.36450958251953,1.0424433946609497,-69.26475524902344,15040401.0,40131.0,-0.005760099531595944,-0.11309752531350004,0.192667847463,-0.0012308414523225105,-0.0022808187033127193,0.008878132554278818,15.040401038015261
1613,C,177276572872221.0,1.6239868303843426,5.5509567,3.6230257,67,1970-01-03 01:14:36.572872221,0.5222459,0.8679242,0.07856325,6.755889499816837,1.0159750888988432,83.39141845703125,1.0435450077056885,-69.22119903564453,15080222.0,39821.0,0.0484848979919849,-0.15325562424615002,0.14323569299585,0.0008506720997455743,-0.005303224384307413,0.006688007442305933,15.080222960998071
1613,C,177276612632952.0,0.3658340303843426,5.8424506,3.4691982,67,1970-01-03 01:14:36.612632952,1.0799118,0.8516789,-0.12117383,7.262127598519283,1.3806699611280457,83.44618225097656,1.0544443130493164,-69.17958068847656,15119983.0,39761.0,0.03955863362251184,-0.16315116617235,0.14099695724395,0.0017503494302620022,-0.00629032519691499,0.005650687203092345,15.119983692013193
1613,C,177276652554775.0,0.24432833038434243,5.847239,4.736928,67,1970-01-03 01:14:36.652554775,1.8330538,0.43116578,-0.32517198,7.989694799978736,1.9109492353578021,83.53819274902344,1.0730427503585815,-69.15999603271484,15159905.0,39922.0,0.012179450883303721,-0.15789770589440003,0.1638024850782,0.0010327439048205846,-0.0064084565353243975,0.006084101668192436,15.159905514999991
1613,C,177276690728525.0,2.2632387303843426,7.5668745,4.3478703,67,1970-01-03 01:14:36.690728525,2.6439865,-0.40932786,-0.5219796,8.7524038619818,2.7259267436911414,83.6699447631836,1.0966947078704834,-69.1832504272461,15198079.0,38174.0,0.04786193248889189,-0.11807001562550003,0.1734015451521,0.0011460098844250975,-0.005267395900650332,0.0064362133250057355,15.198079265013803
1613,C,177276731829097.0,1.9065027303843425,11.924321,0.6727707,67,1970-01-03 01:14:36.731829097,2.0506341,0.3304983,-0.2548645,11.986959509869896,2.0926741867156364,83.8499984741211,1.2060203552246094,-69.16658020019531,15239179.0,41100.0,0.08568818701879648,-0.002235932475000031,0.10317417255,0.0027444549558829955,-0.0024722872334652763,0.005683630998778154,15.239179836993571
1613,C,177276771780451.0,0.2634818303843427,7.49445,1.5275006,67,1970-01-03 01:14:36.771780451,1.0221212,1.2953615,0.19680761,8.099635970494313,1.6617540126401387,83.90248107910156,1.2031443119049072,-69.10111999511719,15279131.0,39952.0,0.043347611585915255,-0.0036202305040000373,0.0439526194888,0.0025776191129277216,-0.00011698271166850538,0.002939004797767069,15.27913119099685
1613,C,177276812117691.0,0.08271963038434249,5.263054,1.9129672,67,1970-01-03 01:14:36.812117691,0.4530037,0.6487461,0.19068234,6.281680277527955,0.8139063885157651,83.92581939697266,1.1971015930175781,-69.0678482055664,15319468.0,40337.0,0.006982364161513227,-0.13800288057600002,0.0693890748243,0.0010150801158620112,-0.002856325715816981,0.002285931961753757,15.319468431000132
1613,C,177276851993004.0,1.1876436303843425,5.2289367,2.6791117,67,1970-01-03 01:14:36.851993004,-0.033289514,-0.2647182,0.048469532,6.127898289760203,0.2711700807351269,83.92389678955078,1.1932928562164307,-69.08075714111328,15359343.0,39875.0,0.025327867511575657,-0.18159093541875002,0.09155457306874999,0.0006441852439822097,-0.006371901706395329,0.0032088139798676844,15.359343743999489
1613,C,177276891959930.0,0.9200916303843427,5.4737434,1.6537948,67,1970-01-03 01:14:36.891959930,0.34647727,-0.7004114,-0.02743056,6.060686524913629,0.7819047662589905,83.94048309326172,1.1909531354904175,-69.11572265625,15399310.0,39967.0,0.042119927583571026,-0.17779959222165004,0.08658663704275,0.0013478430132838639,-0.0071818806091019345,0.0035598848722631603,15.399310670007253
1613,C,177276931821963.0,0.2377441303843426,8.780136,1.8561049,67,1970-01-03 01:14:36.931821963,0.793622,-0.9387643,0.104928546,9.368982851758206,1.2337440129962796,83.97920989990234,1.180794358253479,-69.16185760498047,15439172.0,39862.0,0.023076824547880667,-0.10655352967860002,0.06995581092070001,0.0012994364667319638,-0.005667442072593885,0.0031200475303595223,15.439172703016084
1613,C,177276970354827.0,0.9649828303843426,7.4046674,3.0190883,67,1970-01-03 01:14:36.970354827,0.7454188,-1.3907027,0.3054646,8.234116632897281,1.6071751021696081,84.01510620117188,1.1583319902420044,-69.22943115234375,15477705.0,38533.0,0.023172338989649873,-0.0657988852939,0.0939279097878,0.0008910595092958322,-0.003320627803067672,0.003157465705030315,15.477705566998338
1613,C,177277011680137.0,1.0553640303843426,13.042414,-0.22026655,67,1970-01-03 01:14:37.011680137,0.08868326,-0.94994956,0.32304144,13.178123658678757,1.0072857881980142,84.19022369384766,1.312523603439331,-69.27129364013672,15519030.0,41325.0,0.04174541701063296,0.01750281942750001,0.057830654409375,0.001341363133355844,-0.00099791746096449,0.003135711332724128,15.519030877010664
1613,C,177277051042485.0,-0.4481947696156574,16.489466,3.8313212,67,1970-01-03 01:14:37.051042485,-0.7547399,0.2330266,0.44048685,17.26226479896517,0.9044127254647032,84.15279388427734,1.2917920351028442,-69.25745391845703,15558393.0,39363.0,0.011950001805818877,0.19547429622,0.071070972093975,0.001056806385435997,0.004191709101616272,0.0025369773620256835,15.558393225015607
1613,C,177277090960450.0,2.6343400103843426,15.850214,1.9111716,67,1970-01-03 01:14:37.090960450,-0.42690474,-1.5254587,0.53769225,15.967735694756355,1.672837367513716,84.10413360595703,1.251378059387207,-69.33116912841797,15598311.0,39918.0,0.04363327286050219,0.2542712731199999,0.1146144137952,0.0011093865790651023,0.008976471818457059,0.003706094616962044,15.59831118999864
1613,C,177277131387745.0,2.8043283403843424,12.912528,-0.9032126,67,1970-01-03 01:14:37.131387745,0.1949434,-1.401888,0.43303,12.944677370471425,1.480137789074909,84.35865783691406,1.2057385444641113,-69.3934097290039,15638738.0,40427.0,0.1099345227082628,0.18521108541699996,0.0203743792465,0.003104142635729231,0.008883476654287648,0.002728595968148403,15.638738484994974
1613,C,177277170791962.0,2.5708936703843426,9.974843,0.7942764,67,1970-01-03 01:14:37.170791962,0.5885586,-0.72251564,0.033289514,10.012815988585505,0.9324903578165974,84.41453552246094,1.2216222286224365,-69.42862701416016,15678142.0,39404.0,0.10590262405616463,0.06476778344199997,-0.0021462610124000007,0.00425242346555275,0.004925083674260017,0.00035913038544823815,15.678142702003242
1613,C,177277211041962.0,2.7331008403843424,9.341577,0.7428011,67,1970-01-03 01:14:37.211041962,0.42237735,-0.54168695,-0.21837921,9.373106367915158,0.7207751778145173,84.4610366821289,1.2292414903640747,-69.45609283447266,15718392.0,40250.0,0.1067428895292198,-0.005707047500000048,0.030933684687500004,0.004279490960905861,0.0011885973108327484,0.0005793469014613875,15.718392701994162
1613,C,177277250850973.0,4.034948030384342,9.025542,1.411382,67,1970-01-03 01:14:37.250850973,0.43862265,-0.4034689,-0.2860235,9.201951513281161,0.6610494874912789,84.39947509765625,1.0389251708984375,-69.47924041748047,15758201.0,39809.0,0.13471462874821527,-0.02453987986450005,0.04287793751395,0.004806091172553205,-0.0006020499657266921,0.0014691834341087615,15.758201713004382
1613,C,177277290709359.0,3.6973656303843425,8.418612,1.340753,67,1970-01-03 01:14:37.290709359,0.096939065,-0.5153217,-0.15952335,8.559281424317021,0.5480888030321243,84.31804656982422,0.8899154663085938,-69.50711059570312,15798060.0,39859.0,0.1541011451022895,-0.042964932857000045,0.0548486744825,0.005755953964953635,-0.0013453371651331362,0.0019476425137832502,15.798060099012218
1613,C,177277330657639.0,2.7420791003843425,6.8067155,1.3587095,67,1970-01-03 01:14:37.330657639,-0.2910835,-0.56485647,-0.17603496,6.9435107919546475,0.6593790585204481,84.16312408447266,0.9122222065925598,-69.53829193115234,15838008.0,39948.0,0.1286214690523737,-0.08737970851500003,0.053919063975,0.005647101495125243,-0.0026035038667643296,0.002172526807950105,15.838008379010716
1613,C,177277369208576.0,3.782359730384343,7.109582,0.9068039,67,1970-01-03 01:14:37.369208576,-0.30812773,-1.1632688,-0.12596752,7.217822936257277,1.209960666775306,84.11134338378906,0.720544159412384,-69.59727478027344,15876559.0,38551.0,0.12576182068248182,-0.10955620753875003,0.043668903541700006,0.004903365101284208,-0.0037960382498940593,0.0018810568678681511,15.876559316006023
1613,C,177277410175088.0,5.131492430384343,8.886678,-0.17477672,67,1970-01-03 01:14:37.410175088,-0.5006743,-0.60240704,0.06364955,9.157255512595535,0.7858881992607181,84.08594512939453,0.7142820954322815,-69.62691497802734,15917525.0,40966.0,0.182582433809025,-0.07381540642000005,0.01499411272794,0.006315815364749534,-0.003756000768717078,0.0012015945622510361,15.91752582800109
1613,C,177277450722847.0,5.141667830384343,8.565855,0.88645315,67,1970-01-03 01:14:37.450722847,-0.89642006,0.64102286,0.3552657,8.891363020338947,1.15788295980616,84.04154205322266,0.699930727481842,-69.59319305419922,15958073.0,40548.0,0.20827805112682435,-0.043537745958000015,0.01442852794182,0.00792430547158941,-0.0023792178113115734,0.0005965146169387142,15.958073587011313
1613,C,177277490524931.0,3.3567903803843424,5.6802435,3.8151605,67,1970-01-03 01:14:37.490524931,-0.7917578,0.5344964,-0.044208474,6.8559294526840855,0.9563060203968229,84.00227355957031,0.7049103379249573,-69.56684112548828,15997875.0,39802.0,0.1691278168525076,-0.10654799375150001,0.09356681324865,0.007510754178656685,-0.0029868563059587596,0.0021492152850315434,15.997875671018846
1613,C,177277530383889.0,4.818450430384343,9.291298,3.0753522,67,1970-01-03 01:14:37.530383889,-0.4575311,0.2130529,-0.30626354,9.967782452909262,0.5903588752605924,83.97949981689453,0.7212562561035156,-69.5578384399414,16037734.0,39859.0,0.1629284617382145,-0.09224286367575005,0.13732447285465,0.006617715604173795,-0.00396180239309638,0.004601547886395717,16.037734629004262
1613,C,177277570325868.0,5.0099866303843426,8.705916,2.9239187,67,1970-01-03 01:14:37.570325868,-0.52144694,0.3470099,-0.025033714,9.416660771016536,0.6268568168010997,83.95365142822266,0.7243266701698303,-69.54071807861328,16077676.0,39942.0,0.1962837165406114,-0.03200923920600004,0.11981143914390001,0.007173826412406431,-0.002481438746651431,0.0051352612985230426,16.077676607994363
1613,C,177277610190295.0,2.5511415303843425,11.066,3.016694,67,1970-01-03 01:14:37.610190295,-1.1201255,0.67937243,0.007989483,11.47603785613624,1.3100732293398574,83.66912078857422,0.7568564414978027,-69.50987243652344,16117541.0,39865.0,0.1507121870645218,0.0034267156699999903,0.11841126264275001,0.006916495848609317,-0.0005697211503813209,0.004748374003362401,16.117541034996975
1613,C,177277650090088.0,1.3797783303843425,16.538548,3.8067808,67,1970-01-03 01:14:37.650090088,-1.9885824,0.9009474,0.221575,17.041558064417256,2.1943704472539545,83.40557861328125,0.8623848557472229,-69.46629333496094,16157440.000000002,39899.00000000186,0.07841988576240855,0.1596867303260074,0.13612491052260636,0.004571070286861061,0.003254031690897501,0.005077869386562514,16.157440828013932
1613,C,177277691452795.0,-0.45657436961565745,12.734758,5.1666875,67,1970-01-03 01:14:37.691452795,-2.4386566,1.0135992,0.45912898,14.15378614810121,2.68052770387475,83.2844467163086,0.845456063747406,-69.41329956054688,16198803.000000002,41363.0,0.019093242714637557,0.20005847803899993,0.18558478464645,0.002016717766598029,0.007440070526800899,0.006653439060638838,16.198803534993203
1613,C,177277729898056.0,-0.14532816961565764,11.320983,6.8079123,67,1970-01-03 01:14:37.729898056,-1.5427692,0.29134983,0.28842035,13.563287025452397,1.5963106922537953,83.2075424194336,0.8328444957733154,-69.39712524414062,16237248.000000002,38445.0,-0.011570071560373955,0.08565048137249996,0.2301817446555,0.0001446141575128321,0.005492040472287556,0.007992072109506735,16.237248796009226
1613,C,177277769799670.0,1.3767855303843426,8.63828,4.542998,67,1970-01-03 01:14:37.769799670,-0.6396913,0.18668759,0.25566345,9.882689127120699,0.7137373573112175,83.17571258544922,0.8212609887123108,-69.38633728027344,16277149.999999998,39901.999999996275,0.024568805804693738,0.0071676561129993014,0.22646201139527883,0.00025933774690839977,0.0018518146609730229,0.009110499576968238,16.277150409994647
1613,C,177277809755399.0,1.7125723303843425,6.241085,3.229778,67,1970-01-03 01:14:37.809755399,-0.038083203,0.7238472,0.11531488,7.131751742403773,0.7339636372791186,83.17434692382812,0.8198384642601013,-69.3497314453125,16317105.999999998,39956.0,0.061719191342436794,-0.09430884603000003,0.155284518928,0.0017238616070053738,-0.0017409066921618406,0.007626532182798464,16.317106139002135
1613,C,177277849612430.0,0.8147466303843425,5.3378725,3.7325604,67,1970-01-03 01:14:37.849612430,0.34487936,0.75101143,-0.32597092,6.8479358246070365,0.8883788502830878,83.19208526611328,0.8404763340950012,-69.31436920166016,16356963.0,39857.00000000186,0.0503656759096811,-0.1598473454612575,0.1387489608044065,0.002233683277033936,-0.0050649516621337634,0.005859646200847536,16.356963169993833
1613,C,177277889735088.0,0.6663062303843423,6.815095,3.5470097,67,1970-01-03 01:14:37.889735088,0.74248934,0.39468047,-0.52464277,8.009107137274631,0.9911171119127796,83.22945404052734,0.868857204914093,-69.29786682128906,16397085.0,40122.0,0.029711401439880585,-0.1493949189825,0.1460354557761,0.0016064262487095568,-0.006203709067006219,0.00571306018102154,16.39708582800813
1613,C,177277928498109.0,0.8350973303843428,6.3488245,4.039018,67,1970-01-03 01:14:37.928498109,1.2799152,0.12676647,-0.6631271,7.810566058570563,1.447062613663179,83.2934799194336,0.9025272727012634,-69.29545593261719,16435848.0,38763.0,0.02909945311303827,-0.12474089421075002,0.14702859586755002,0.0011398425775173968,-0.005313163263404975,0.005680020916931402,16.435848849010654
1613,C,177277970369668.0,2.0980388303843425,6.389526,4.1659107,67,1970-01-03 01:14:37.970369668,2.179531,-0.49721217,-0.82611257,7.67274808435638,2.3832828829723747,83.4020004272461,0.9406771063804626,-69.324951171875,16477720.000000002,41872.00000000186,0.06140813866185593,-0.14365549393200644,0.17177838726320765,0.0018948669413992696,-0.005619146782157,0.00667454299882584,16.477720408001915
1613,C,177278009221652.0,1.6455348303843425,9.615712,2.2655134,67,1970-01-03 01:14:38.009221652,2.1102889,-0.07057377,-0.80533993,9.961993103279461,2.2598389989836947,83.34260559082031,1.1415982246398926,-69.33589172363281,16516572.0,38851.99999999814,0.07272266193408898,-0.06983184661199668,0.12493684456659403,0.0026056249323767005,-0.004147205077407606,0.005763990093525451,16.516572391992668
1613,C,177278049183213.0,1.2612653303843426,8.381501,1.3736732,67,1970-01-03 01:14:38.049183213,1.0823087,0.7486146,0.054594804,8.655477943457628,1.3171167503500396,83.39746856689453,1.1432104110717773,-69.29837799072266,16556533.000000002,39961.00000000186,0.05807932061224142,-0.032024485653501515,0.0727127678613034,0.0026134890122670768,-0.0020351404468308817,0.003949138081115788,16.556533953000326
1613,C,177278089038055.0,-0.7085640696156577,5.1439424,2.6677392,67,1970-01-03 01:14:38.089038055,0.5888249,1.3062805,0.05965481,6.8416071513305425,1.4340997886815254,83.42821502685547,1.1477363109588623,-69.23314666748047,16596388.000000002,39855.0,0.01101395437396797,-0.12105072664650003,0.08053524560100002,0.0013768562372876876,-0.003050406293108281,0.0030538497882700516,16.596388795005623
1613,C,177278128457640.0,0.46399623038434257,6.8557963,5.020641,67,1970-01-03 01:14:38.128457640,-0.09827065,0.33156356,-0.023169503,8.847834132976898,0.34659535605741043,83.42362213134766,1.1507848501205444,-69.21680450439453,16635808.0,39419.99999999814,-0.004820432111248992,-0.14980115022299295,0.15153797374199285,0.0001220743237981853,-0.005338490493097454,0.004574163153250173,16.635808380000526
1613,C,177278168854879.0,-1.3214797696156575,7.5926123,3.019687,67,1970-01-03 01:14:38.168854879,0.0314253,-1.0239855,-0.05566007,9.210395068078451,1.0259785071251468,83.42416381835938,1.1476833820343018,-69.26799011230469,16676205.0,40397.0,-0.017319881267163717,-0.10405441889290004,0.16240256510800002,-0.00044720111977386914,-0.005127501712787365,0.006341127973961581,16.676205619005486
1613,C,177278208795189.0,0.49990923038434243,7.61416,2.7335799,67,1970-01-03 01:14:38.208795189,0.49881008,-1.0402308,-0.123836994,8.446746846145786,1.1602703194778372,83.44806671142578,1.1478866338729858,-69.32038116455078,16716145.0,39940.0,-0.016406763668449363,-0.08773275716900003,0.11489273999300001,-0.0006735210993641933,-0.003829989905956145,0.005537587242866971,16.716145929007325
1613,C,177278248652534.0,-0.05255286961565764,7.5441294,3.378817,67,1970-01-03 01:14:38.248652534,0.62584287,-0.9155948,0.07376956,8.787429523985125,1.1115012747178792,83.47845458984375,1.1390106678009033,-69.36544799804688,16756003.0,39858.0,0.008915364913759119,-0.08851885054740002,0.1218139578201,-0.00014929608578222186,-0.0035125182901801365,0.00471732778071727,16.75600327400025
1613,C,177278288601755.0,0.5543773303843427,12.056602,-1.5424645,67,1970-01-03 01:14:38.288601755,-0.36112466,-1.2215921,0.13209279,12.384621873445086,1.2806821557328383,83.45922088623047,1.1254979372024536,-69.42539978027344,16795952.0,39949.0,0.010023692691624099,1.4609349299987665e-05,0.036680223011250006,0.0003782982061387271,-0.001767827965811449,0.0031658420150158005,16.795952495012898
1613,C,177278328456596.0,-0.5116409696156574,17.64407,5.7598505,67,1970-01-03 01:14:38.328456596,-0.42903525,-0.3435478,0.48043427,18.87659669087855,0.7300091947488301,83.43748474121094,1.0996716022491455,-69.4397201538086,16835807.0,39855.0,0.0008516288292179754,0.20128114128,0.08404195951499999,0.00021671796960658044,0.0040113210706653754,0.002405691292291847,16.83580733599956
1613,C,177278368360241.0,1.6120158303843426,17.850569,4.853047,67,1970-01-03 01:14:38.368360241,-1.2178636,-1.5725967,0.61226076,18.545319356044832,2.081133193068533,83.1602783203125,1.1346590518951416,-69.51854705810547,16875710.0,39903.0,0.021954129034626423,0.31712189000849994,0.21174322447125,0.0004550090780204915,0.010342918078752508,0.005901358098301667,16.87571098099579
1613,C,177278406614519.0,2.3865401303843425,10.5362835,-0.078410104,67,1970-01-03 01:14:38.406614519,0.3054646,-1.4719292,-0.027696876,10.550520982481311,1.5035462442525536,83.35504913330078,1.1728954315185547,-69.58816528320312,16913965.0,38255.0,0.07648237913960301,0.16807052119374996,0.09132686722824,0.0018828443101025734,0.009280517845271034,0.0057969731789819946,16.913965259009274
1613,C,177278448164460.0,5.098572030384343,12.533646,1.6101006,67,1970-01-03 01:14:38.448164460,1.2863069,-0.6378271,-0.083090626,12.821563876078432,1.4381630306092184,83.41870880126953,1.1733512878417969,-69.62032318115234,16955515.0,41550.0,0.15550320513996943,0.07208778536249993,0.0318208700544,0.004819500513408117,0.004989288818706091,0.002558394242046846,16.955515200010268
1613,C,177278488116851.0,3.2107440703843424,9.754577,0.47644615,67,1970-01-03 01:14:38.488116851,1.1574098,0.22796659,0.13156016,9.770273829990028,1.1869601033697357,83.57133483886719,1.0975230932235718,-69.60639953613281,16995467.0,39952.0,0.16598689842895525,0.053699942647999946,0.041680857878,0.006422086308892841,0.0025127356547377452,0.0014682705171776226,16.99546759101213
1613,C,177278527975617.0,2.7199327303843424,7.6788034,1.270124,67,1970-01-03 01:14:38.527975617,0.96326536,0.15020229,-0.16165388,7.785940750881833,0.9882170098800304,83.54559326171875,1.1174283027648926,-69.60126495361328,17035326.0,39859.0,0.1181954233009195,-0.043179645318200045,0.034808269804425,0.0056636115809155394,0.0002096642656342471,0.001524390070146889,17.035326356999576
1613,C,177278568058631.0,2.9713239103843425,7.9433627,-0.046088383,67,1970-01-03 01:14:38.568058631,0.593086,0.022370555,-0.108124346,7.943610081355162,0.6032763208720658,83.74455261230469,1.0875235795974731,-69.5975112915039,17075409.0,40083.0,0.11406131996596561,-0.07972175810685005,0.0245315098181055,0.0046547735201832785,-0.0024631284767431417,0.001189258193304945,17.075409370998386
1613,C,177278607785081.0,1.8693925303843426,7.3962874,2.9317,67,1970-01-03 01:14:38.607785081,-0.12863068,-0.23622239,-0.11797804,8.026352423698778,0.2937102097251917,83.73788452148438,1.0921006202697754,-69.60989379882812,17115135.0,39726.0,0.09615115066298839,-0.08462333006370003,0.057316903548471,0.004175450304102913,-0.0032643864863316358,0.0016257550347003088,17.115135821019066
1613,C,177278647736501.0,3.4250251303843426,8.59279,0.9876082,67,1970-01-03 01:14:38.647736501,-0.4250405,-0.90174633,-0.123836994,8.663580246856961,1.0045603373574306,83.70845031738281,0.9840428829193115,-69.65550994873047,17155087.0,39952.0,0.10576128719151526,-0.0721317898576,0.07829210060320001,0.0040334028585815645,-0.0031313402755478894,0.0027089254669337803,17.15508724100073
1613,C,177278687594091.0,4.631702830384342,6.9012866,1.9734207,67,1970-01-03 01:14:38.687594091,-0.6876282,-0.77924097,0.14966966,7.377122248268903,1.0499762082477375,83.67341613769531,0.972324013710022,-69.69341278076172,17194944.0,39857.0,0.16055850316617873,-0.08182489447690001,0.05900886443365,0.005307353942143304,-0.0030681257837600834,0.0027362022817368653,17.194944831018802
1613,C,177278727486233.0,3.8589741803843425,6.196194,0.04249708,67,1970-01-03 01:14:38.727486233,-0.8604674,-0.299073,0.17736652,6.265764133779419,0.9280666399610916,83.63018035888672,0.9618569612503052,-69.7072982788086,17234836.0,39892.0,0.1693550436567922,-0.1296992519524,0.04020949603988,0.0065804556049309775,-0.0042190606246788175,0.0019790094180050294,17.23483697301708
1613,C,177278767443734.0,4.172016030384342,8.462306,0.3890578,67,1970-01-03 01:14:38.767443734,-0.7094661,0.2580603,0.3320962,8.561980389861535,0.8247576319984798,83.59494018554688,0.9467926621437073,-69.692626953125,17274794.0,39958.0,0.16045115342094757,-0.09872622850000003,0.00862203494752,0.006589198011416162,-0.0045637126739585,0.0009756051575972646,17.274794474011287
1613,C,177278807299097.0,4.090613130384343,7.385514,2.2535424,67,1970-01-03 01:14:38.807299097,-0.71532506,0.6841661,0.31132352,7.808586158816553,1.03763940169907,83.55976104736328,0.9351490139961243,-69.6568832397461,17314649.0,39855.0,0.164653542601218,-0.07477156695000003,0.05266041548550001,0.006478523829981705,-0.003457377318829876,0.0012212060310040063,17.314649837004254
1613,C,177278847311281.0,4.643075230384342,9.240421,3.7152026,67,1970-01-03 01:14:38.847311281,-0.53982276,0.3158509,0.25220135,10.10577845557631,0.6743707616635304,83.53304290771484,0.9243934750556946,-69.6397705078125,17354662.0,40013.0,0.1747305361897187,-0.05950063142250004,0.1194136968425,0.006789887572330875,-0.0026863167367394227,0.0034426007282901323,17.35466202101088
1613,C,177278887113424.0,5.207508330384343,8.765771,2.6210523,67,1970-01-03 01:14:38.887113424,-0.4577974,0.5592638,0.25007084,9.428735109346245,0.7647809375602307,83.5106201171875,0.9151237607002258,-69.61056518554688,17394464.0,39802.0,0.19603646344285758,-0.03171837300800002,0.12609780876489998,0.007378634059687901,-0.0018153494071713816,0.004885924473092867,17.39446416401188
1613,C,177278927012274.0,3.668036630384343,9.050681,3.3225534,67,1970-01-03 01:14:38.927012274,-1.102815,0.9819075,0.020506341,9.669571799621151,1.47674092948034,83.45626068115234,0.9196783304214478,-69.5616683959961,17434363.0,39899.0,0.17706268419485488,-0.035580890825999995,0.11857196191214998,0.007443141445798544,-0.001342586663856383,0.004881039590121808,17.43436301400652
1613,C,177278965436753.0,2.1908141303843425,17.266983,3.2231941,67,1970-01-03 01:14:38.965436753,-2.0887172,0.97738016,0.03089267,17.58073789332874,2.3062883331875907,83.25203704833984,0.9610013961791992,-69.5146255493164,17472787.0,38424.0,0.11256024081588799,0.129059760768,0.12575690097,0.005564235635306392,0.001795916049325704,0.004694046113691866,17.47278749299585
1613,C,177279006868994.0,0.26707313038434277,16.58284,5.4264584,67,1970-01-03 01:14:39.006868994,-3.2522523,1.8434402,0.6317018,17.649984872287973,3.791367030235212,83.09101104736328,0.9405985474586487,-69.41934204101562,17514219.0,41432.0,0.05091759249408408,0.29519933326799996,0.17918620118999998,0.003386606794849381,0.008788951392049774,0.006317201304346559,17.514219734002836
1613,C,177279046730398.0,-1.9709066696156574,11.584944,6.6708446,67,1970-01-03 01:14:39.046730398,-2.2218754,1.396828,0.5800365,14.237924129995475,2.687806000447467,82.98109436035156,0.9202760457992554,-69.34648132324219,17554081.0,39862.0,-0.033959106270419336,0.170764502904,0.241111346093,0.00033799958892386195,0.009287125218744132,0.008376950414897472,17.55408113799058
1613,C,177279086637951.0,0.6232107303843426,7.8715367,5.2085857,67,1970-01-03 01:14:39.086637951,-0.7978831,0.19201392,0.6745787,9.716291505212808,1.0623291435487714,82.94140625,0.8879754543304443,-69.33282470703125,17593988.0,39907.0,-0.02689125092345204,-0.0028637123525500244,0.23703621249104997,-0.0012141776022679123,0.0033502084242683565,0.009540717310206842,17.593988690990955
1613,C,177279126574306.0,2.1483170603843424,7.252037,2.9191303,67,1970-01-03 01:14:39.126574306,0.012250541,0.8929579,0.7603325,7.856370527082626,1.172872285239724,82.9427719116211,0.8557349443435669,-69.2838363647461,17633925.0,39937.0,0.05534325268996449,-0.08938751857155003,0.16229829694599998,0.0005681437972746039,-0.0018421187047078919,0.007974111151693731,17.633925046015065
1613,C,177279165987899.0,1.1918335303843426,5.168483,4.028843,67,1970-01-03 01:14:39.165987899,0.43862265,1.6668725,0.3651194,6.779523446687303,1.7618643354712735,82.9659652709961,0.8478384017944336,-69.19886779785156,17673338.0,39413.0,0.06582267761698309,-0.14148242262000002,0.13692023583645,0.0023877564055938623,-0.004549638496091281,0.00589655001627735,17.67333863899694
1613,C,177279206345920.0,0.8321047303843425,5.720945,4.0258503,67,1970-01-03 01:14:39.206345920,1.1587414,0.5699165,0.029827405,7.302939537998621,1.2916563486993142,83.02432250976562,0.8498330116271973,-69.17041015625,17713696.0,40358.0,0.0408410501640513,-0.175770632388,0.1625356561007,0.0021523673628934927,-0.006401849397006432,0.00604272044339975,17.71369666000828
1613,C,177279244886962.0,0.7884104303843427,6.254852,3.903746,67,1970-01-03 01:14:39.244886962,1.9142802,0.170176,-0.03781689,7.67748583455606,1.9222015170780904,83.12017059326172,0.8527361750602722,-69.16219329833984,17752237.0,38541.0,0.031228137405592948,-0.14692220391150002,0.15280728549915,0.0013888092790608293,-0.006218452301909515,0.006076816156099909,17.75223770199227
1613,C,177279286256232.0,1.2738348303843425,7.08145,4.0037036,67,1970-01-03 01:14:39.286256232,2.7023096,-0.37736994,-0.39601207,8.301540528071701,2.7571200201393933,83.25495910644531,0.8701568245887756,-69.18327331542969,17793606.0,41369.0,0.04265651209636987,-0.12956146128100005,0.1635616412512,0.00152826703262335,-0.005718926372674268,0.006543933065367615,17.793606972001726
1613,C,177279326059773.0,1.1427523303843425,9.380483,-0.4261679,67,1970-01-03 01:14:39.326059773,2.559564,0.26498455,-0.85061365,9.558511521771036,2.7101897098544643,83.38306427001953,0.9139384627342224,-69.17505645751953,17833410.0,39804.0,0.04809491767361837,-0.06245380943400002,0.0712001155014,0.0018061349552823058,-0.0038214879177699314,0.004672228482890246,17.83341051300522
1613,C,177279366006285.0,1.2229581303843426,10.910975,1.9674352,67,1970-01-03 01:14:39.366006285,0.50147325,1.937716,-0.42264366,11.217404545547234,2.045689707766004,83.32079315185547,1.141406774520874,-69.0827865600586,17873357.0,39947.0,0.04725151788816334,0.01381083636299998,0.03078450241655,0.0019044020306932471,-0.0009715704226336194,0.0020369897659841744,17.873357025004225
1613,C,177279407843369.0,-0.7013814696156575,5.9501896,4.357447,67,1970-01-03 01:14:39.407843369,-0.1419465,-0.103064336,-0.005060006,8.220128523030892,0.17548979992606675,83.3135986328125,1.14106023311615,-69.08793640136719,17915194.0,41837.0,0.01091060137828974,-0.05729232831490002,0.13230704830069998,0.0012166642918752988,-0.000909567589395821,0.0034116306036787937,17.91519410899491
1613,C,177279445881441.0,1.5144521303843426,6.953959,2.4241292,67,1970-01-03 01:14:39.445881441,0.34141725,-1.4769892,0.099069595,7.498960190851378,1.5191700432037443,83.3292236328125,1.1275508403778076,-69.16072082519531,17953232.0,38038.0,0.015463790897159622,-0.12734839777660004,0.1289787977478,0.0005016145666867715,-0.00351168196953424,0.0049693955059964216,17.953232180996565
1613,C,177279485667325.0,1.8580201303843427,7.9565306,0.74758947,67,1970-01-03 01:14:39.485667325,0.5006743,-1.1448929,0.25672874,8.06299548512562,1.2756818385055453,83.38539123535156,1.2704423666000366,-69.21539306640625,17993018.0,39786.0,0.06708859068347145,-0.09328843038720003,0.06309499950231,0.0016422145267834941,-0.004389128422662475,0.003820924048696438,17.99301806499716
1613,C,177279525616128.0,1.4917072303843426,6.7253127,2.8389246,67,1970-01-03 01:14:39.525616128,0.69801456,-0.6498113,0.041012682,7.440069659752562,0.9545475848089066,83.4195785522461,1.2646710872650146,-69.24742889404297,18032966.0,39948.0,0.06690745430399371,-0.09823526192580002,0.07163703203418,0.0026764370025796286,-0.0038254942302598624,0.002691137597909851,18.03296686799149
1613,C,177279565466650.0,1.6604985303843425,8.301296,3.5003228,67,1970-01-03 01:14:39.565466650,0.8109326,-0.9078716,-0.23808661,9.097935571347861,1.2403740394294829,83.45909881591797,1.271311640739441,-69.29391479492188,18072817.0,39851.0,0.06280927588619642,-0.09112710834815001,0.12631267406869998,0.0025846707074046334,-0.003773139908893591,0.003944246868952935,18.072817389998818
1613,C,177279605605867.0,1.9681533803843425,8.189367,0.4225766,67,1970-01-03 01:14:39.605605867,1.1571435,-0.96299905,0.10892329,8.256342793337222,1.5093748815312837,83.60489654541016,1.3955985307693481,-69.33900451660156,18112956.0,40139.0,0.07282522952317212,-0.0624028389215,0.07873062950830001,0.002722116706313322,-0.003081269276728241,0.004115116581138601,18.112956607015803
1613,C,177279645288366.0,0.6950366303843425,10.9582615,0.36272156,67,1970-01-03 01:14:39.645288366,0.26498455,-0.2066613,0.11371698,11.189498679122632,0.3547636624525022,83.61791229248047,1.3887970447540283,-69.34864044189453,18152639.0,39683.0,0.052841684598666866,-0.00897572911725,0.01558149344164,0.0024934200765484686,-0.0014162578577408584,0.001871293987511235,18.152639106003335
1613,C,177279684724306.0,-1.7895461696156572,15.158888,0.6757634,67,1970-01-03 01:14:39.684724306,-0.30919302,-0.34860778,0.16271915,15.890613120218255,0.4935638050647264,83.60205841064453,1.3787708282470703,-69.36505889892578,18192075.0,39436.0,-0.021581539094563063,0.12850515384099997,0.02047684644128,0.0006163875490499187,0.0023568811967029017,0.0007109983458114164,18.192075046012178
1613,C,177279754947900.0,5.103360430384343,19.612701,3.674501,67,1970-01-03 01:14:39.754947900,-0.03089267,-1.438906,0.7251788,20.072084956275244,1.6116107240475812,83.49436950683594,1.1453453302383423,-69.43482208251953,18262298.0,70223.0,0.11635298941697969,0.5326972471735,0.15274430848059997,0.0033275677779955313,0.02321580810322061,0.006082054581039588,18.26229864000925
1613,C,177279763246024.0,2.3584082903843426,10.056246,-1.3742718,67,1970-01-03 01:14:39.763246024,-0.5970807,-0.7954862,0.5864281,10.16573085929226,1.1546434831464385,83.46380615234375,1.1116915941238403,-69.47102355957031,18270596.0,8298.0,0.030958878422469274,0.041776061102999994,0.009543650950799999,0.0006111969396658738,0.0023834897560391986,0.0006733327436808785,18.270596763992216
1613,C,177279803025764.0,0.9601945303843427,9.369708,0.91937345,67,1970-01-03 01:14:39.803025764,-0.38802257,-0.65460503,-0.32650355,9.618325669181313,0.82805424236176,83.44373321533203,1.1241778135299683,-69.50540924072266,18310376.0,39780.0,0.06600701010508915,-0.0034617749400000473,-0.009047928181500001,0.0019286515228131372,0.000762071151782069,9.85992588137695e-06,18.310376503999578
1613,C,177279844088421.0,2.5158270503843427,8.596381,0.56802434,67,1970-01-03 01:14:39.844088421,0.012516857,-0.43729106,-0.4032026,8.625020971932386,0.5949390552920879,83.51319122314453,1.1822597980499268,-69.5280532836914,18351439.0,41063.0,0.07136793708555227,-0.03354664369650006,0.030538507725385005,0.0028205137282446544,-0.0007598383472353019,0.00044123383390527493,18.351439160993323
1613,C,177279884454982.0,4.2354624303843424,7.4908586,0.6171055,67,1970-01-03 01:14:39.884454982,0.39947417,-0.107858025,-0.33529198,7.628963124469246,0.5325726972971953,83.53300476074219,1.1983091831207275,-69.53529357910156,18391805.0,40366.0,0.13626127559035436,-0.07089804315320004,0.02391947556072,0.004190580399437823,-0.002108007114687497,0.0010991254766634572,18.391805721999845
1613,C,177279923215659.0,3.1538817903843426,7.4256167,0.60214174,67,1970-01-03 01:14:39.923215659,0.16298546,-0.3834952,-0.1555286,7.453389013421325,0.44477182241280927,83.58649444580078,1.1307189464569092,-69.55429077148438,18430566.0,38761.0,0.14320918567060748,-0.09076905044835001,0.02362962113482,0.005416277274468071,-0.003133189107544841,0.0009215252685079129,18.430566399008967
1613,C,177279964315242.0,3.0371644563843425,8.181585,1.9093759,67,1970-01-03 01:14:39.964315242,-0.5685849,-0.53795856,0.17550232,8.402129877652042,0.8021778263643704,83.38990020751953,1.0724108219146729,-69.5832748413086,18471665.0,41099.0,0.1272229048479731,-0.08205000866585002,0.051610431743179995,0.0055572442441115715,-0.0035513452552672535,0.0015461454666164608,18.471665982011473
1613,C,177280004601700.0,2.9120674183843427,6.3003416,1.8800468,67,1970-01-03 01:14:40.004601700,-1.1459582,-0.72304827,0.2394182,6.574888677747434,1.3759869444832944,83.33195495605469,1.05634343624115,-69.6177978515625,18511952.0,40287.0,0.11983835226940302,-0.10309591153290003,0.07633223615745001,0.004976678432743867,-0.0037294868435235216,0.0025772131308563406,18.511952439992456
1613,C,177280044368523.0,4.834611430384342,5.813122,1.3443443,67,1970-01-03 01:14:40.044368523,-0.55074173,-0.7366304,-0.15925704,6.263518494059362,0.9334364489118231,83.30371856689453,1.0599658489227295,-69.65530395507812,18551719.0,39767.0,0.15403108888949213,-0.1488585465094,0.06411218043684999,0.005445483033282891,-0.005009736466484073,0.0027925265573527642,18.551719262992265
1613,C,177280084229930.0,7.221630830384343,10.546458,1.3461399,67,1970-01-03 01:14:40.084229930,-0.3720436,-0.0628506,0.036218993,11.465951123153804,0.3790494079605639,83.28506469726562,1.0577985048294067,-69.6582260131836,18591580.0,39861.0,0.24028693637825027,-0.06458319081000004,0.053622695348100005,0.00785895540259874,-0.004254000545644302,0.002346514941831946,18.591580670006806
1613,C,177280123667222.0,4.7957055303843426,8.485051,2.0901382,67,1970-01-03 01:14:40.123667222,-0.7528756,1.0516824,0.44181845,8.935882958511371,1.3667703107345879,83.24842071533203,1.0420266389846802,-69.60340118408203,18631017.0,39437.0,0.2369638470298173,-0.011209789783500032,0.06775824971485,0.00941066957263198,-0.001494523887832931,0.0023934501652237796,18.63101796200499
1613,C,177280163749043.0,3.3232715603843426,6.2392898,3.845088,67,1970-01-03 01:14:40.163749043,-1.3140037,1.091896,0.19148129,7.339552137641152,1.7191590045280145,83.18372344970703,1.0389714241027832,-69.54804229736328,18671099.0,40082.0,0.1627124198760952,-0.09771308602720002,0.11894786827420001,0.008009912065061393,-0.0021829233541222396,0.0037417773106185512,18.671099783008685
1613,C,177280203947743.0,1.2445059303843427,17.690756,5.117606,67,1970-01-03 01:14:40.203947743,-2.2479744,0.7123956,0.31185618,18.49296287556293,2.37868675343327,83.07200622558594,1.0277491807937622,-69.51081085205078,18711298.0,40199.0,0.0918100436757052,0.08703175555709998,0.180145668053,0.005115774256159412,-0.00021468940178377585,0.006011630533408557,18.711298483016435
1613,C,177280243905345.0,2.0465635303843426,15.449185,5.6341553,67,1970-01-03 01:14:40.243905345,-2.9342709,1.6042882,0.9800433,16.46813321658742,3.4848488077850583,82.92679595947266,0.9888913631439209,-69.42520904541016,18751256.0,39958.0,0.06575227675669756,0.27051448123899996,0.2148094390127,0.0031479375999189747,0.007143416264949281,0.007890808084065622,18.751256085000932
1613,C,177280283768421.0,-2.0307621696156577,11.218631,7.6853876,67,1970-01-03 01:14:40.283768421,-1.7422401,1.7020262,0.6532734,14.47481907055545,2.5217176461059254,82.84120178222656,0.9670213460922241,-69.33670043945312,18791119.0,39863.0,0.0003149448221610427,0.14087217460399995,0.26547846931135,0.0013168188268990204,0.008199553130934754,0.009572858444760803,18.791119161003735
1613,C,177280323660085.0,-1.1646594696156578,7.9325886,5.125387,67,1970-01-03 01:14:40.323660085,-0.045540057,0.4860269,0.4146542,10.293307723220298,0.6404952379938614,82.83937072753906,0.9494755268096924,-69.30999755859375,18831010.0,39891.0,-0.06373428230528821,-0.008951149468200009,0.2555173047843,-0.001264930395769713,0.002631230806846098,0.010391521212224789,18.831010825000703
1613,C,177280363749045.0,-0.48650186961565733,6.47033,4.550779,67,1970-01-03 01:14:40.363749045,0.76912093,0.077231675,0.12996227,8.616219005154447,0.7838379476721725,82.8779067993164,0.9435086250305176,-69.30535888671875,18871099.0,40089.0,-0.033096703464222096,-0.10417289812230003,0.193953909387,-0.0019409286942569494,-0.0022675149719277783,0.009009425752456623,18.871099784999387
1613,C,177280403459461.0,-0.03818776961565762,7.056311,3.353678,67,1970-01-03 01:14:40.403459461,1.592304,0.048469532,-0.24314661,8.357144051230549,1.6114904895477327,82.95753479003906,0.9558711647987366,-69.30445861816406,18910810.0,39711.0,-0.010417975131757375,-0.12058957962450004,0.15694694596350003,-0.0008640057008624705,-0.00446277137690159,0.006967311933411854,18.910810200992273
1613,C,177280443373002.0,1.2229581303843426,6.3458314,4.19105,67,1970-01-03 01:14:40.443373002,2.0948424,0.44554687,-0.7957525,7.793873509453797,2.2847535393255893,83.06258392333984,0.9980759620666504,-69.28719329833984,18950723.0,39913.0,0.02364386970468026,-0.12368754519440002,0.15056636433199996,0.00026394256504453555,-0.004874916441448379,0.006136889376912145,18.950723742018454
1613,C,177280483267013.0,2.4990676303843427,6.101623,4.5202527,67,1970-01-03 01:14:40.483267013,2.5209484,-0.5270396,-1.1371698,7.605733408158015,2.8153342127468206,83.18802642822266,1.0513702630996704,-69.32015228271484,18990617.0,39894.0,0.07424324785005296,-0.14267182708320003,0.1737643549569,0.0019525543338642633,-0.005313070398821288,0.006469424857655688,18.990617753006518
1613,C,177280523221179.0,1.3779826303843425,12.818556,-0.8571242,67,1970-01-03 01:14:40.523221179,1.9339876,0.1818939,-0.9672601,12.940446574675669,2.1700197070218006,83.2847900390625,1.1004691123962402,-69.31681060791016,19030571.0,39954.0,0.07745183305937603,-0.013580784117000045,0.07317831804450002,0.003030412631327663,-0.003121458413946397,0.004933173778548969,19.03057191899279
1613,C,177280563146910.0,0.6549338303843424,8.630499,3.7193923,67,1970-01-03 01:14:40.563146910,0.8362326,0.49401638,0.07590009,9.669021741921428,0.9742165922797007,83.32709503173828,1.099581003189087,-69.29183959960938,19070497.0,39926.0,0.040583111306325255,0.03691268496499996,0.05713945808030001,0.002356331594372495,0.0004657747366286224,0.002601533764779383,19.07049765001284
1613,C,177280602985658.0,0.5035005303843425,7.969699,0.6368576,67,1970-01-03 01:14:40.602985658,0.5118596,0.42530683,0.28975195,8.354872674957438,0.7258390608706667,83.35311126708984,1.0876550674438477,-69.26902770996094,19110336.0,39839.0,0.02307543324933182,-0.05975455593900001,0.08677431988305,0.001268046378276411,-0.00045499864886659394,0.0028666905001409502,19.110336398007348
1613,C,177280642885920.0,1.2056001303843427,6.8492126,3.5613751,67,1970-01-03 01:14:40.642885920,-0.07882957,0.025300032,0.20266657,7.909779775852907,0.21892448771471595,83.34922790527344,1.07773756980896,-69.26659393310547,19150236.0,39900.0,0.034096558182335264,-0.09538271358000001,0.083754742365,0.0011405812290617582,-0.0030949885269040507,0.003402054791848597,19.15023666000343
1613,C,177280682839877.0,0.5286395303843427,6.4086795,2.166154,67,1970-01-03 01:14:40.682839877,-0.18535602,-0.5174522,-0.17896444,7.178042571656812,0.5780500879851106,83.33944702148438,1.0836279392242432,-69.2933349609375,19190190.0,39954.0,0.03464490570317603,-0.12669628951830003,0.11441884883070001,0.001373248224040859,-0.00443647224489474,0.003958913831316499,19.190190616995096
1613,C,177280722693730.0,1.1176132303843425,8.133103,1.0953473,67,1970-01-03 01:14:40.722693730,0.42317632,0.08735169,-0.16884442,8.404025512874842,0.46391481299882514,83.36067199707031,1.0925172567367554,-69.28998565673828,19230044.0,39854.0,0.03280487876383759,-0.10079510012250002,0.0649919364051,0.0013440718550741804,-0.0045332209213722234,0.0035751187173937867,19.230044469994027
1613,C,177280761224620.0,0.28024123038434245,6.7965403,3.6062663,67,1970-01-03 01:14:40.761224620,0.6098639,0.064182185,0.06338324,8.137144607082213,0.6164987952198138,83.3912353515625,1.0897369384765625,-69.28642272949219,19268575.0,38531.0,0.026930365113939102,-0.08997675700385002,0.09057893681080001,0.001150829340927307,-0.003675315213467697,0.002997150657940922,19.26857536000898
1613,C,177280801402690.0,0.36224283038434235,7.1826053,3.110068,67,1970-01-03 01:14:40.801402690,0.50173956,-0.819721,0.07803062,8.237092647850217,0.9642478320263821,83.41555786132812,1.0811514854431152,-69.32669830322266,19308753.0,40178.0,0.01290686229678211,-0.11291734404160003,0.1349244397527,0.0008002900614539784,-0.004075939595902046,0.004530137331784151,19.308753429999342
1613,C,177280842401699.0,-0.9402031696156574,8.617331,1.970428,67,1970-01-03 01:14:40.842401699,0.2809635,-0.6442187,0.01304949,9.6493716483326,0.7029427508348032,83.42900848388672,1.0768135786056519,-69.35863494873047,19349752.0,40999.0,-0.011847897974072343,-0.07789940581815004,0.10414762775200001,2.1708239133388848e-05,-0.003911647963749946,0.004900857847812598,19.349752439011354
1613,C,177280882308891.0,2.3111228003843425,13.038822,-5.8723783,67,1970-01-03 01:14:40.882308891,0.29561087,-0.86898947,0.509729,14.313534305498175,1.049929587579109,83.44304656982422,1.0465233325958252,-69.39888763427734,19389659.0,39907.0,0.027354644852542957,0.041027448885499966,-0.07785756531105,0.0003094138738395634,-0.0007357245926556332,0.0005245787609154961,19.389659631007817
1613,C,177280921717273.0,2.0238185703843428,15.65748,4.550779,67,1970-01-03 01:14:40.921717273,-0.98803276,-0.77870834,0.3054646,16.33050242362155,1.294567122814392,83.15318298339844,1.0804154872894287,-69.44029235839844,19429068.0,39409.0,0.08541785224031156,0.17923808275899997,-0.026041453406849997,0.002222125668966152,0.004340222168289049,-0.0020472782143268605,19.429068013007054
1613,C,177280962119461.0,1.2995726303843425,14.979323,4.074931,67,1970-01-03 01:14:40.962119461,-1.0711234,-1.2516857,0.05912218,15.60896054967491,1.6484895698123183,82.89093780517578,1.1927788257598877,-69.5062484741211,19469470.0,40402.0,0.06713582564672821,0.222954457403,0.17424796771000003,0.0030817368469960903,0.008124691503812561,0.002993919795437934,19.46947020100197
1613,C,177281002024044.0,2.6187777103843426,11.113884,0.374094,67,1970-01-03 01:14:41.002024044,0.5581986,-1.0852382,-0.03888215,11.124499734509628,1.2209993650161424,83.04705810546875,1.1982903480529785,-69.55765533447266,19509374.0,39904.0,0.07817892599901681,0.12955246606400003,0.08876694680000002,0.002899319924835905,0.0070332181370135844,0.005247673574303521,19.509374784014653
1613,C,177281041973627.0,4.146278430384342,11.57836,0.6087258,67,1970-01-03 01:14:41.041973627,1.1960256,-0.38242993,0.16484967,11.65809400320345,1.2664538289705922,83.2044906616211,1.0085448026657104,-69.57384490966797,19549324.0,39950.0,0.13513199641185447,0.061767573899999983,0.019631825505,0.004260885675157154,0.0038216177982809004,0.0021652654767923755,19.54932436699164
1613,C,177281081814200.0,2.7989413903843428,9.270349,0.4417302,67,1970-01-03 01:14:41.081814200,1.0580739,0.15313177,0.10972224,9.281776035808935,1.0747133044655026,83.3591537475586,0.998885452747345,-69.56382751464844,19589164.0,39840.0,0.1383487788297122,0.02487428327999996,0.020925083520000002,0.005447737042812008,0.001725905795025599,0.0008078936277780001,19.589164940000046
1613,C,177281120071074.0,2.5505429703843427,8.177396,1.1366472,67,1970-01-03 01:14:41.120071074,0.7078682,-0.34115094,-0.23648871,8.264676090254254,0.8206023777637911,83.36244201660156,1.0492695569992065,-69.58269500732422,19627421.0,38257.0,0.1023276115949638,-0.04116940976750004,0.030191992095900004,0.004603778334238414,-0.00031170132701614523,0.0009777929809187433,19.627421814016998
1613,C,177281161168940.0,3.0030470853843427,7.715315,0.3812766,67,1970-01-03 01:14:41.161168940,0.46472162,-0.36432046,-0.11664646,7.725086798294556,0.601915258404842,83.48047637939453,1.0130414962768555,-69.5997543334961,19668519.0,41098.0,0.11412072205599072,-0.07618108166100003,0.031191816166200006,0.004447796808193465,-0.002411435248364248,0.0012613758759778932,19.668519680009922
1613,C,177281201586909.0,2.7103559303843427,7.523779,1.5951369,67,1970-01-03 01:14:41.201586909,-0.11584751,-0.5267733,-0.09161274,7.694117344096685,0.5470865098833984,83.33818817138672,1.0300291776657104,-69.62886810302734,19708937.0,40418.0,0.11546216154566938,-0.08812954935400003,0.0399413404215,0.004639640494705949,-0.003320553542182136,0.0014375299614808295,19.70893764900393
1613,C,177281241448314.0,3.809893030384343,6.777985,1.2198458,67,1970-01-03 01:14:41.241448314,-0.56885123,-0.94488955,-0.025566347,6.943009584091404,1.1032051584681064,83.22122955322266,0.8185337781906128,-69.67731475830078,19748799.0,39862.0,0.12995508203708067,-0.10559914171600003,0.0561054201937,0.004891411081847792,-0.0038612065417161718,0.0019143079858215512,19.748799054010306
1613,C,177281281396961.0,5.059067830384342,6.911462,0.8403648,67,1970-01-03 01:14:41.281396961,-0.5344964,-0.7795073,0.105993815,7.280964681455614,0.9510797659421129,83.19396209716797,0.8086614012718201,-69.71538543701172,19788747.0,39948.0,0.17714862423299368,-0.11805738562200001,0.041150646524399995,0.006134089429038464,-0.004467315477049212,0.0019425926766273292,19.788747701008106
1613,C,177281321255086.0,5.078221330384343,8.875306,-0.05686229,67,1970-01-03 01:14:41.321255086,-0.56672066,0.31664985,0.36645097,9.132041755833702,0.7454701519107247,83.16587829589844,0.7923510670661926,-69.69750213623047,19828605.0,39858.0,0.2020260356849591,-0.07599390052800002,0.01561442152179,0.0075565717975048805,-0.0038672480816833504,0.0011312710410925203,19.82860582601279
1613,C,177281361198263.0,3.8565799803843426,7.53994,1.9764135,67,1970-01-03 01:14:41.361198263,-0.7166567,0.9539443,0.5289038,7.8496898941243005,1.3051228995048014,83.13074493408203,0.7717817425727844,-69.64698791503906,19868549.0,39944.0,0.1784458517786722,-0.06360590688800004,0.038337276766120004,0.007598784536423644,-0.002788087353712353,0.0010775233182061387,19.868549003003864
1613,C,177281401681075.0,4.441962230384343,8.007407,3.0789435,67,1970-01-03 01:14:41.401681075,-0.5502091,0.566987,0.13475595,8.711374098187635,0.8014758124561293,83.1036148071289,0.7684841752052307,-69.61803436279297,19909031.0,40482.0,0.16797079288816896,-0.08202974937300002,0.102325481037,0.007011819304701532,-0.002947811318378902,0.0028471548806929515,19.909031815011986
1613,C,177281440963054.0,4.763982430384343,9.533711,2.6084828,67,1970-01-03 01:14:41.440963054,-0.566987,0.5550028,-0.070307456,10.05304053635656,0.7965208751476838,83.07562255859375,0.7753098607063293,-69.59089660644531,19948313.0,39282.0,0.18081395908215775,-0.04043850136200001,0.1117067399583,0.006850481313449186,-0.0024053989126861354,0.004203806852568687,19.948313794011483
1613,C,177281480976646.0,3.5160048303843423,9.364322,2.8269536,67,1970-01-03 01:14:41.480976646,-1.4402375,0.8090684,-0.19467708,9.799335241735582,1.6633625274612076,83.004150390625,0.7898714542388916,-69.55191802978516,19988327.0,40014.0,0.1656577051261991,-0.014044253769000032,0.10874677605480002,0.006931858585816596,-0.0010900364819059177,0.004410613494874092,19.98832738600322
1613,C,177281520778367.0,0.7381322303843425,15.096041,1.34195,67,1970-01-03 01:14:41.520778367,-3.178749,1.0069412,-0.120907515,15.313080242284704,3.336614213906354,82.89337158203125,0.9874192476272583,-69.5022201538086,20028129.0,39802.0,0.08466158164635758,0.09672608406299994,0.08296535054359999,0.0049816041260606495,0.001645451104680892,0.003815263031434758,20.028129106998676
1613,C,177281560717064.0,-0.11480216961565759,14.921862,4.5914803,67,1970-01-03 01:14:41.560717064,-4.313522,1.6591494,0.5368933,15.906204273237947,4.652687738457122,82.67916107177734,0.9712020754814148,-69.41654205322266,20068067.0,39938.0,0.012447277983489869,0.20803510500699998,0.1184846696607,0.0019391668179484236,0.006085776184538829,0.004022755453459666,20.068067804008024
1613,C,177281600582325.0,-0.7366959696156576,9.318831,4.7339354,67,1970-01-03 01:14:41.600582325,-2.6051042,1.3417006,0.79415464,11.076407945505348,3.036018772196827,82.55009460449219,0.9404482841491699,-69.34489440917969,20107933.0,39866.0,-0.016972912409297807,0.09250293356899997,0.1858835111481,-9.020947100962963e-05,0.005990624722935406,0.00606697094806181,20.107933065010002
1613,C,177281640525450.0,0.8225278303843426,2.7491422,5.0505686,67,1970-01-03 01:14:41.640525450,-0.48629323,0.39121836,0.9507485,6.123930232826612,1.1373019040682086,82.52619171142578,0.8958516120910645,-69.31932830810547,20147876.0,39943.0,0.0017141910073417922,-0.15042587323620005,0.195411221636,-0.00030473955447916457,-0.0011568079895634864,0.007615027755797653,20.14787618999253
1613,C,177281680381857.0,0.8805873303843423,5.54557,4.7375264,67,1970-01-03 01:14:41.680381857,0.46578687,0.007989483,0.38562572,7.575802800030978,0.6047548561429851,82.54952239990234,0.8767828345298767,-69.31642150878906,20187732.0,39856.0,0.03393967892379836,-0.22529177527840005,0.19505715716000002,0.0007105103199877609,-0.007487301299598952,0.0077812538526466895,20.187732596998103
1613,C,177281720516595.0,1.0362104303843425,5.9142766,4.008492,67,1970-01-03 01:14:41.720516595,1.366468,0.27164245,0.060453758,7.391121204047496,1.3945175052764038,82.6180648803711,0.8755379319190979,-69.30257415771484,20227867.0,40135.0,0.03846533906422558,-0.16335252835450004,0.175510724242,0.00145298769847467,-0.007799119563153222,0.007436370960034635,20.22786733499379
1613,C,177281760211231.0,0.9655814303843426,4.7255554,5.5365915,67,1970-01-03 01:14:41.760211231,2.0722058,0.45593318,-0.5904228,7.539167843798318,2.2023875737341037,82.72197723388672,0.9077274203300476,-69.28372192382812,20267561.0,39694.0,0.03972956306067609,-0.17783245429600003,0.18944127222450002,0.0015519342224729234,-0.006771498350664475,0.007243202273870626,20.267561971006216
1613,C,177281800159668.0,2.9886818743843424,4.5807066,5.4091,67,1970-01-03 01:14:41.800159668,2.3888555,-0.62104917,-1.1171961,7.08835794747809,2.709328292638814,82.84078979492188,0.9592424035072327,-69.32154846191406,20307510.0,39949.0,0.0789844323811021,-0.20561226968100002,0.21863471486674996,0.0023712527019517982,-0.007659116639078587,0.008151113804154172,20.307510407990776
1613,C,177281840003627.0,2.4769212503843425,10.213066,1.46585,67,1970-01-03 01:14:41.840003627,2.5816684,-0.23622239,-1.2487563,10.327615988024105,2.8775345422575835,82.9443359375,1.0584526062011719,-69.34138488769531,20347354.0,39844.0,0.10888574545164173,-0.09574966226280003,0.13696275389999998,0.003742749682783923,-0.006003732408184384,0.007084212772771191,20.347354366997024
1613,C,177281879954564.0,1.4617797303843425,9.329605,3.9079356,67,1970-01-03 01:14:41.879954564,1.5640745,1.1896341,0.19600865,10.220847191079162,1.9748361259375125,83.02366638183594,1.0559933185577393,-69.28114318847656,20387305.0,39951.0,0.07867752144134486,-0.0011451754395000215,0.1073440542528,0.0037466700378208533,-0.0019355228305222947,0.004880150646256256,20.38730530400062
1613,C,177281918160085.0,0.18207883038434236,5.8226986,4.665102,67,1970-01-03 01:14:41.918160085,1.3930995,-0.018109497,0.55793226,7.950573578827503,1.500780656035568,83.09336853027344,1.0281932353973389,-69.27867126464844,20425510.0,38205.0,0.03140180815708381,-0.08496212048100002,0.163766450754,0.0021027903936539838,-0.001644864620321352,0.005178888421892397,20.425510825007223
1613,C,177281961164616.0,0.8740032303843424,9.210494,-1.9716251,67,1970-01-03 01:14:41.961164616,0.46365637,0.019707393,0.6527408,9.640684897148281,0.800897098736831,83.11663055419922,0.9959104657173157,-69.27376556396484,20468515.0,43005.0,0.022708404511678645,-0.09819777611850003,0.05791648704225001,0.0011635048479100647,-0.00393839567663075,0.004766737369963867,20.468515356013086
1613,C,177281999585138.0,2.2189460303843425,10.412982,-0.641646,67,1970-01-03 01:14:41.999585138,-0.7534083,0.799481,0.50999534,10.456855859762467,1.2111520064350327,83.07970428466797,0.9753997325897217,-69.23101806640625,20506935.0,38420.0,0.059415555299366436,0.0004509739599999754,-0.050200937831000006,0.0015776012679701763,-0.0018777160694647861,0.0001482157003481126,20.50693587801652
1613,C,177282039529094.0,2.3967154803843425,19.612701,6.8085113,67,1970-01-03 01:14:42.039529094,-1.2681973,-1.4916365,0.61439127,20.767691473209716,2.0520186335683586,83.01512908935547,0.9358782172203064,-69.30134582519531,20546879.0,39944.0,0.09218399169307219,0.20822174087599998,0.12316463377160002,0.0030277461525329845,0.004167611460704591,0.0014572309353256634,20.54687983400072
1613,C,177282079268993.0,2.1908141303843425,7.7572136,0.29029694,67,1970-01-03 01:14:42.079268993,-0.72171664,-0.4609932,0.47990164,7.797646946019012,0.9816797965598657,83.09907531738281,1.021614670753479,-69.31928253173828,20586619.0,39740.0,0.09115421336597378,0.154388203102,0.1410533197288,0.003642930134523243,0.007205059586842859,0.005250010736052948,20.58661973301787
1613,C,177282119341022.0,3.7626076003843423,9.445126,0.7392098,67,1970-01-03 01:14:42.119341022,0.6010755,-0.4759069,0.046072688,9.510627038040859,0.768050666784038,83.18914794921875,0.8655117750167847,-69.3416748046875,20626691.0,40072.0,0.11928275779768138,-0.04803952377440003,0.020627197042640003,0.004216315154234995,0.002130802139007793,0.0032394308340325723,20.626691762008704
1613,C,177282158776232.0,2.8534094753843426,11.000758,0.9008184,67,1970-01-03 01:14:42.158776232,0.29987195,0.65061027,0.11052119,11.03783666040487,0.7248667762184245,83.25786590576172,0.8520291447639465,-69.30792236328125,20666126.0,39435.0,0.13045131669146903,0.016678717769999962,0.0323372560335,0.004924131613739823,-0.0006183566923917583,0.0010443266035287905,20.666126972006168
1613,C,177282199201751.0,3.2191237703843427,8.285733,2.755726,67,1970-01-03 01:14:42.199201751,-0.5704491,0.84076,0.11771172,8.736799725742738,1.0228125939370165,83.22997283935547,0.8511275053024292,-69.2654800415039,20706552.0,40426.0,0.12274411449672243,-0.0063369574170000316,0.07390973195719999,0.005117839250606913,0.00020903800201518756,0.0021475703682560187,20.706552490999456
1613,C,177282239086751.0,2.4098836303843427,4.9242744,4.811747,67,1970-01-03 01:14:42.239086751,-0.33848777,-0.045007423,-0.31318775,6.904396396741036,0.4633424277084242,83.21298217773438,0.8664083480834961,-69.2695541381836,20746437.0,39885.0,0.1122564800898295,-0.1274324274255,0.1509143303025,0.004686499357542311,-0.0026676959572215567,0.004483553861614067,20.746437491005054
1613,C,177282278622170.0,4.683776630384342,9.1033535,3.3925838,67,1970-01-03 01:14:42.278622170,0.24208134,-0.9539443,-0.12330436,9.872209407549292,0.991875530433983,83.224365234375,0.8668984770774841,-69.3176498413086,20785972.0,39535.0,0.14022392920474497,-0.11015186548675002,0.16217910908900002,0.004990906490730501,-0.004696447510142902,0.006189074563171477,20.785972910001874
1613,C,177282318847063.0,4.957912730384343,8.380304,1.5831659,67,1970-01-03 01:14:42.318847063,-0.18562233,-0.4910869,-0.022104237,8.766589929323581,0.5254622631926968,83.21471405029297,0.8650950789451599,-69.34217071533203,20826197.0,40225.0,0.19391847726846015,-0.04256493853125,0.10007476584124998,0.006720439150192338,-0.0030715167208120253,0.005274581059534653,20.826197802991373
1613,C,177282358802270.0,6.195116530384343,8.339603,2.28347,67,1970-01-03 01:14:42.358802270,-1.5536882,0.002130529,-0.01438107,9.242935780520986,1.5537562154815037,83.13702392578125,0.8658208847045898,-69.34215545654297,20866153.0,39956.0,0.2228152185716368,-0.057538497954000005,0.0772476520102,0.008325505775493456,-0.001999866454102324,0.0035425472638362676,20.86615300999256
1613,C,177282398653577.0,3.0126238903843428,10.576386,1.644218,67,1970-01-03 01:14:42.398653577,-4.0408144,1.3685985,0.36804888,10.703757078698331,4.28213764929607,82.88668060302734,0.8230352997779846,-69.27265930175781,20906004.0,39851.0,0.18346883175402645,-0.013629261180500033,0.07826114724399999,0.008095412844764003,-0.0014180531846344803,0.0030985905795395613,20.906004317017505
1613,C,177282438559043.0,-0.2806005696156575,12.565369,5.018845,67,1970-01-03 01:14:42.438559043,-3.711914,2.9446573,0.47217846,13.906032053611007,4.7615401558662995,82.7032241821289,0.818077802658081,-69.12361145019531,20945909.0,39905.0,0.0545106953076372,0.07066686663749998,0.1329447645075,0.004748286513697844,0.0011380428228807914,0.004214085954221804,20.945909783011302
1613,C,177282478512478.0,-2.6903641696156573,6.743868,3.5625722,67,1970-01-03 01:14:42.478512478,-1.1369035,0.88124,0.45486793,9.47348846920277,1.5086544798775945,82.64703369140625,0.8011372089385986,-69.0770034790039,20985863.0,39954.0,-0.05935096259562398,-0.005808572451000038,0.17143097140440003,-9.669401961211196e-05,0.0012956741429637094,0.006080514076312027,20.985863217996666
1613,C,177282518372538.0,-1.6339231696156578,7.728483,7.7081323,67,1970-01-03 01:14:42.518372538,0.18908444,0.11558119,0.05672533,11.830614548623089,0.22875685781094868,82.65657043457031,0.7990657687187195,-69.07091522216797,21025723.0,39860.0,-0.08618304667088011,-0.10219404457000003,0.224625140685,-0.0029004928046814263,-0.0021524921572285316,0.007893398313941744,21.025723277998623
1613,C,177282558317899.0,-0.5020641696156574,6.3643866,4.0665517,67,1970-01-03 01:14:42.558317899,1.9997677,-0.9882991,-0.12836437,8.295376578366618,2.234341821769802,82.75586700439453,0.7991580367088318,-69.12074279785156,21065668.0,39945.0,-0.04266100713279744,-0.10999116191400005,0.23516987619000002,-0.00257333786459395,-0.0042378690365016914,0.009183255974535938,21.06566863899934
1613,C,177282598247012.0,2.0004751303843427,3.1986535,4.4939165,67,1970-01-03 01:14:42.598247012,2.5843315,-0.18615496,-0.69721556,5.593613018517405,2.6831944596191613,82.88488006591797,0.8325815200805664,-69.13433837890625,21105597.0,39929.0,0.02991502562626642,-0.20038288592355005,0.17090546737889997,-0.00025446714778713857,-0.006196462678052768,0.008107091196681303,21.105597752000904
1613,C,177282638124094.0,1.6736666303843426,7.20954,4.2425256,67,1970-01-03 01:14:42.638124094,2.2684808,0.28655612,-1.4255902,8.458836657952403,2.69451794728002,82.99838256835938,0.905078649520874,-69.12887573242188,21145474.0,39877.0,0.07325687549708643,-0.18327083390025006,0.17419155081085,0.0020570929505479706,-0.00764947969270684,0.00688071689717633,21.145474834018387
1613,C,177282677982845.0,1.9172766303843425,13.67987,3.7373488,67,1970-01-03 01:14:42.677982845,1.7640779,1.113734,0.0644485,14.217237884936774,2.0872297116457164,82.88175201416016,0.9882885217666626,-69.0765380859375,21185333.0,39859.0,0.07156570371548951,0.025697296594999933,0.15903490685479998,0.002886241592417032,-0.0031403618117249827,0.006641036688047571,21.18533358501736
1613,C,177282717928158.0,-1.0012551696156575,6.8210807,3.819949,67,1970-01-03 01:14:42.717928158,1.3518206,0.0037284256,0.65380603,8.7501255308274,1.5016308336625803,82.94941711425781,0.9558711647987366,-69.07232666015625,21225278.0,39945.0,0.01829523862520256,0.017994237855749984,0.1509381303105,0.0017947476708994724,0.0008726291718176027,0.0061909364847839545,21.22527889799676
1613,C,177282757787480.0,-0.9234437696156577,5.229535,2.8658595,67,1970-01-03 01:14:42.757787480,1.5225292,-0.67005134,0.60720074,7.099378547844143,1.7708067940193202,83.02506256103516,0.921647310256958,-69.10188293457031,21265138.0,39860.0,-0.03835924985888011,-0.150459229099,0.133248163405,-0.00039987574388719355,-0.0026400272754779726,0.005663832833749914,21.265138220012886
1613,C,177282797696283.0,0.45621483038434274,8.352771,-1.1007342,67,1970-01-03 01:14:42.797696283,0.34887412,-0.47830373,0.20213392,8.78033081723204,0.6255763193665931,83.0421371459961,0.9087127447128296,-69.1243896484375,21305047.0,39909.0,-0.009323319867891273,-0.120080074923,0.03522219279885,-0.0009514818376128596,-0.005398476542106999,0.003361741722869725,21.305047022993676
1613,C,177282837595085.0,0.09169783038434254,16.968904,-0.9403227,67,1970-01-03 01:14:42.837595085,-0.79442096,-0.34940675,0.567786,17.230125092523043,1.0370972376922445,83.00220489501953,0.8784120678901672,-69.1382827758789,21344945.0,39898.0,0.010930309669674504,0.11414169457499997,-0.0407170440981,3.2057839555773685e-05,-0.00011846474956225278,-0.00010961678856873829,21.344945824996103
1613,C,177282877548991.0,3.2711976703843426,11.914744,0.16220717,67,1970-01-03 01:14:42.877548991,-0.92944324,-2.0929782,0.8918927,11.920765644186522,2.4576197977657626,83.10942077636719,0.7585316896438599,-69.2344741821289,21384899.0,39954.0,0.06718056341885603,0.18545943609599994,-0.015544413942810002,0.0015604209116895748,0.005985131787414566,-0.0011239351472832593,21.38489973099786
1613,C,177282919670345.0,4.429991230384342,8.521563,1.1318588,67,1970-01-03 01:14:42.919670345,-0.13262543,-0.9086706,-0.06231797,8.726490409204253,0.920410393993878,83.1021728515625,0.7561699151992798,-69.27993774414062,21427021.0,42122.0,0.16219473943908927,0.017613461726999992,0.027254323394170003,0.004830873253491186,0.0042769183010502015,0.00024662240295509296,21.427021084993612
1613,C,177282957313626.0,4.330631830384343,13.415311,1.858499,67,1970-01-03 01:14:42.957313626,0.5547365,-0.50626695,-0.22903186,13.615786610319178,0.7851715748736783,83.10499572753906,0.5982381105422974,-69.30677795410156,21464664.0,37643.0,0.1648880669382578,0.043983473991,0.0562830193327,0.006156189040231239,0.0011593467256163369,0.001572298096133784,21.464664366008947
1613,C,177282997211282.0,4.230075530384342,10.088568,2.533664,67,1970-01-03 01:14:42.997211282,-0.15180019,0.50813115,0.2894856,10.482934023200361,0.6041874509551804,83.09768676757812,0.5869198441505432,-69.27981567382812,21504562.0,39898.0,0.1707775511399745,0.077878482171,0.087619259687,0.006696193415042657,0.002431024163475738,0.0028707065641639957,21.504562022018945
1613,C,177283037163732.0,3.2915483903843423,6.473323,3.940856,67,1970-01-03 01:14:43.037163732,0.15792546,0.18162759,0.018642128,7.587214482611772,0.24140538788889548,83.10568237304688,0.5870855450630188,-69.27069091796875,21544514.0,39952.0,0.15025195944127526,-0.060689265384000025,0.12933501152000001,0.006412885503371045,0.0003433717945371116,0.004333878521631032,21.54451447201427
1613,C,177283078353419.0,3.6004004303843424,9.922171,2.6497827,67,1970-01-03 01:14:43.078353419,0.22849922,-0.075101145,-0.06578008,10.291833500920877,0.24935736292663552,82.91670227050781,0.48192498087882996,-69.27669525146484,21585704.0,41190.0,0.14193968596373105,-0.06599680107000001,0.1357342040265,0.006017686937116105,-0.002609099538620131,0.005459100494180167,21.585704158991575
1613,C,177283116971751.0,3.2251093003843425,7.9278,3.2812533,67,1970-01-03 01:14:43.116971751,0.10040118,0.13608754,-0.031158986,8.585127801074961,0.17196248979702577,82.9217758178711,0.4843071401119232,-69.27012634277344,21624322.0,38618.0,0.13179376739141255,-0.03379130996100003,0.11452237412399999,0.005285519250834468,-0.00192680863589758,0.004832204267508003,21.624322490999475
1613,C,177283156844773.0,5.033330230384342,8.526351,2.6018987,67,1970-01-03 01:14:43.156844773,0.2609898,-0.33502567,-0.090014845,9.159556363758796,0.43412042981569404,82.93467712402344,0.486713171005249,-69.28731536865234,21664195.0,39873.0,0.16464437970516987,-0.06271721858850002,0.11728945984799999,0.005909939119591015,-0.0019240422794271075,0.004621516627982778,21.664195513003506
1613,C,177283196733991.0,5.162617030384343,9.279327,0.9672575,67,1970-01-03 01:14:43.196733991,-0.26738137,0.29694247,-0.10626013,9.593295330690664,0.4134716952106815,82.92144012451172,0.4938134253025055,-69.27323913574219,21704084.0,39889.0,0.20335307014240103,-0.035786855129000025,0.07118503583090001,0.007339525138484878,-0.0019646144982586795,0.0037590295790678216,21.704084730998147
1613,C,177283236634617.0,4.441962230384343,7.9062524,3.072958,67,1970-01-03 01:14:43.236634617,-0.8564726,0.8330368,-0.17869811,8.616349379000535,1.2080681434515903,82.87897491455078,0.5078278183937073,-69.23301696777344,21743985.0,39901.0,0.19161615854196568,-0.04816889818030003,0.08060431933274999,0.007879833596867458,-0.0016749592563971905,0.0030282735301923993,21.743985356995836
1613,C,177283276593208.0,3.1850064003843426,7.0036387,2.0775685,67,1970-01-03 01:14:43.276593208,-2.25623,0.78323567,-0.29001826,7.30977933212866,2.405855880719744,82.5326156616211,0.4644613265991211,-69.1978759765625,21783943.0,39958.0,0.15237920627412757,-0.09370368571310005,0.1029023689435,0.006872683393660727,-0.00283447235360624,0.0036662801250711987,21.783943948015803
1613,C,177283316450865.0,0.6010642303843428,10.096349,2.1039047,67,1970-01-03 01:14:43.316450865,-4.060788,1.4857776,-0.18242654,10.572660821119811,4.327911008801143,82.3301773071289,0.4832893908023834,-69.12543487548828,21823801.0,39858.0,0.07545260160058913,-0.04982274512670003,0.08333257940279999,0.004540460099135228,-0.0028603382402063757,0.0037114762855934126,21.82380160500179
1613,C,177283356392848.0,1.1852494303843426,13.247118,3.8391025,67,1970-01-03 01:14:43.356392848,-2.8866003,2.7417245,0.38269624,13.90197487629801,3.9994963355365734,82.18701171875,0.4827958941459656,-68.98700714111328,21863743.0,39942.0,0.03567447011921141,0.07476077945699998,0.1186877967912,0.0022193187493161366,0.0004980374836104203,0.0040345489329703735,21.86374358800822
1613,C,177283396249721.0,-2.2995111696156574,4.0815153,3.9228995,67,1970-01-03 01:14:43.396249721,-1.4298512,1.6935042,0.2444782,7.706064227183572,2.2298431603667375,82.11624908447266,0.48225289583206177,-68.90145874023438,21903600.0,39857.0,-0.022205565070271254,-0.04526493128095001,0.15468505685700001,0.0002684150742678039,0.0005878080103764119,0.005447910913928154,21.90360046099522
1613,C,177283436157585.0,-2.9692891696156574,6.3865333,6.190807,67,1970-01-03 01:14:43.436157585,0.36218992,-0.14088123,0.14061491,10.672472593205095,0.4132815166810964,82.13430786132812,0.4743227958679199,-68.907470703125,21943508.0,39908.0,-0.10513364196902165,-0.18221895823560003,0.201808899501,-0.0025409265372620506,-0.004539213531413239,0.0071134804051675325,21.94350832499913
1613,C,177283476107638.0,-1.1640611696156578,5.063138,4.629189,67,1970-01-03 01:14:43.476107638,1.6948358,-1.196292,0.03914847,7.988522353058106,2.074877235146451,82.21856689453125,0.46424105763435364,-68.96647644042969,21983458.0,39950.0,-0.08256367302614552,-0.16280281578250003,0.2161294201,-0.0037492538670284643,-0.006891809936011549,0.008348317934029976,21.98345837800298
1613,C,177283515972896.0,0.5112818303843425,5.297171,4.7722425,67,1970-01-03 01:14:43.515972896,2.484463,-0.8338358,-0.7022756,7.5285352432642725,2.713121736687464,82.3424072265625,0.4934377074241638,-69.01250457763672,22023323.0,39865.0,-0.013011524179228191,-0.1841701408575,0.18739403337375002,-0.0019050526182961115,-0.0069160384582268005,0.008043231236365522,22.023323636007262
1613,C,177283555918210.0,0.5352238303843424,10.020931,5.6377463,67,1970-01-03 01:14:43.555918210,2.753176,-0.088150635,-1.0761834,11.744470050689118,2.9573500523039984,82.4799575805664,0.5461928844451904,-69.02397918701172,22063268.0,39945.0,0.02090133430970256,-0.08552020780500005,0.20791350130800001,0.0001575792328308993,-0.005386390488661783,0.007895279736431253,22.063268950005295
1613,C,177283595773784.0,2.5194183503843424,10.911574,3.3081882,67,1970-01-03 01:14:43.595773784,1.9236013,0.20053603,0.30200246,11.409389625549263,1.9574631916171252,82.34376525878906,0.5704770684242249,-69.01431274414062,22103124.0,39856.0,0.060872909378358354,0.026554159639999953,0.178274582716,0.0016295971282156779,-0.001175075407832122,0.007695956138430273,22.103124524001032
1613,C,177283635723522.0,-0.6941988696156574,6.5152216,0.24241292,67,1970-01-03 01:14:43.635723522,1.8421086,-0.43995422,1.0024139,7.458766100619457,2.1428386399360493,82.43572998046875,0.5178873538970947,-69.02947235107422,22143074.0,39950.0,0.03645875912835448,-0.043409757890000025,0.070923257372,0.0019442000784215888,-0.00033669057504375144,0.0049777268557578,22.143074262014125
1613,C,177283676296230.0,1.6904260303843426,3.7499185,2.9945478,67,1970-01-03 01:14:43.676296230,0.8631305,0.6111955,0.28708878,4.9560913858168245,1.0958896691056033,82.47917938232422,0.5076672434806824,-68.99729919433594,22183646.0,40572.0,0.020209464183353548,-0.1893669679314,0.06566498516592,0.0011495715781013089,-0.00472210866001292,0.002770829088124245,22.18364696999197
1613,C,177283716101021.0,-3.6031541696156575,12.650962,-0.90740246,67,1970-01-03 01:14:43.716101021,-0.4327637,-0.35739622,-0.11531488,14.266639216515538,0.5729869105462992,82.45738220214844,0.511041522026062,-69.0157699584961,22223451.0,39805.0,-0.03806807179105125,-0.06367047584875003,0.041539410129349995,-0.00035543093791220347,-0.005036077724834436,0.002133635477364111,22.22345176100498
1613,C,177283755964773.0,4.404852130384342,14.041394,0.88286185,67,1970-01-03 01:14:43.755964773,0.039947417,-3.205647,0.88496846,14.14633667051868,3.3257988002777235,82.55632019042969,0.2841404378414154,-69.16818237304688,22263315.0,39864.0,0.015979443754041426,0.14136483979199996,-0.0004891434385200014,-0.00044027053403367973,0.0015486040621168573,0.0008182139156816233,22.263315513002453
1613,C,177283795879148.0,5.8772862303843425,11.496358,0.0017956513,67,1970-01-03 01:14:43.795879148,-0.40426785,-1.7957696,0.59122175,11.868431375795874,1.933329798172274,82.53570556640625,0.24318276345729828,-69.25336456298828,22303229.0,39914.0,0.20520063526586063,0.11849971666399998,0.017655109753444097,0.004414090837000185,0.005186116953192391,0.00034258118974694017,22.303229887998896
1613,C,177283835765346.0,5.039914130384343,8.181585,3.9600096,67,1970-01-03 01:14:43.835765346,0.105993815,-0.12170646,-0.083889574,9.331489630950594,0.18189175860903456,82.54097747802734,0.24655181169509888,-69.25994873046875,22343116.0,39887.0,0.21772718539499028,0.0015544562204999886,0.07901226302930155,0.00843466099134968,0.002394300396922025,0.0019278857490926877,22.343116086005466
1613,C,177283875714875.0,3.5435381303843423,9.556456,1.726818,67,1970-01-03 01:14:43.875714875,0.120907515,-0.04873585,-0.2330266,9.73065371223371,0.26701162253028937,82.47760009765625,0.1611568033695221,-69.2641372680664,22383065.0,39949.0,0.17145016718272407,-0.03719170004550001,0.1135915378962,0.007773623029063555,-0.0007118361267824629,0.0038471646215864305,22.383065614994848
1613,C,177283915583677.0,2.7755979203843424,8.858546,1.9213469,67,1970-01-03 01:14:43.915583677,-0.07243799,-0.06764429,0.041279,9.065808857631811,0.10736371922509111,82.35624694824219,0.17885732650756836,-69.26757049560547,22422934.0,39869.0,0.12596881760404835,-0.023622342631000007,0.07272434319905001,0.005928898752231915,-0.0012122975337346897,0.003714113931693261,22.42293441700167
1613,C,177283955478106.0,3.6482844303843427,7.550115,2.8832173,67,1970-01-03 01:14:43.955478106,0.1272991,-0.484429,0.04660532,8.113864538580987,0.5030393351956807,82.36253356933594,0.17332826554775238,-69.291259765625,22462828.0,39894.0,0.12813718125078297,-0.06365763903300002,0.09583664209739999,0.00506865235915732,-0.0017409737942518085,0.003362285973708288,22.46282884600805
1613,C,177283995395502.0,4.175607330384342,8.807071,2.6671407,67,1970-01-03 01:14:43.995395502,0.14940333,-0.7502125,0.034088463,9.286151017930829,0.7657037112885383,82.36988067626953,0.16665342450141907,-69.32820892333984,22502746.0,39918.0,0.1561570556531822,-0.06472332462600003,0.110779595322,0.005674228674366241,-0.002562355653669982,0.004123853482653804,22.5027462420112
1613,C,177284035334146.0,4.960306830384343,8.544906,1.7753005,67,1970-01-03 01:14:44.035334146,-0.34274885,-0.5656554,-0.16884442,8.960693131925467,0.6826062143656612,82.35266876220703,0.17125870287418365,-69.35736846923828,22542684.0,39938.0,0.18243506987638988,-0.04489077128700004,0.0887111083228,0.006761346154700025,-0.002188883881286698,0.003983629861083011,22.542684885993367
1613,C,177284075192899.0,5.3200358303843425,8.605958,2.7742813,67,1970-01-03 01:14:44.075192899,-1.5203987,0.5075985,-0.32810146,9.35291560482477,1.6361292773549625,82.27672576904297,0.1909109503030777,-69.33441162109375,22582543.0,39859.0,0.2048820890577895,-0.04881005591200006,0.09067089048310001,0.007719037318978728,-0.0018674106356624722,0.003574993545202184,22.582543639000505
1613,C,177284115109875.0,2.8432341203843428,10.418967,1.6274586,67,1970-01-03 01:14:44.115109875,-2.765693,1.4274544,0.14434333,10.545654126407149,3.1156891422675415,82.10981750488281,0.2003110647201538,-69.2628173828125,22622460.0,39917.0,0.1629266233124168,-0.011477634387500036,0.08785212579415,0.007340910185840763,-0.0012032518668425728,0.0035630516203694943,22.622460615006275
1613,C,177284155022637.0,0.4873398303843426,13.208811,4.7830167,67,1970-01-03 01:14:44.155022637,-3.242665,1.867675,0.51771855,14.258709463249783,3.777713422808049,81.94801330566406,0.18762391805648804,-69.16676330566406,22662373.0,39913.0,0.06646659904851526,0.08038035165699998,0.12793065032445,0.00457788584204594,0.0013750570771887756,0.004306268971610841,22.662373377010226
1613,C,177284192732480.0,-1.1754335696156577,9.1751795,3.8355112,67,1970-01-03 01:14:44.192732480,-2.4304008,2.036253,0.32863408,10.758253503871057,3.1876597508496864,81.82682037353516,0.18572339415550232,-69.06364440917969,22700083.0,37710.0,-0.012974007453206447,0.052492140877499996,0.1625023435545,0.0010086028145295477,0.002505310846737997,0.005476114099587602,22.700083219999215
1613,C,177284234851647.0,-3.9670724696156574,5.180454,5.4617724,67,1970-01-03 01:14:44.234851647,-0.7861652,0.4181163,0.14620754,10.208892621203255,0.9023600205957607,81.78758239746094,0.1814664751291275,-69.04190826416016,22742202.0,42119.0,-0.10829860593319188,-0.11044373630675001,0.19579614397419998,-0.0025539406016108555,-0.0012204316239422907,0.007545586998110657,22.742202387016732
1613,C,177284274775188.0,-1.516008869615657,5.659893,4.061165,67,1970-01-03 01:14:44.274775188,0.3821636,-0.9749833,-0.23276028,8.26341420531904,1.07276222919598,81.8065414428711,0.186030775308609,-69.09182739257812,22782125.0,39923.0,-0.10945052815306588,-0.1748558133595,0.1900921149101,-0.004346599340062834,-0.00569500696066285,0.007702908479718954,22.782125928002642
1613,C,177284314624772.0,-0.4811148696156575,6.296152,3.0107086,67,1970-01-03 01:14:44.314624772,1.2167983,-0.82850945,-0.58083546,7.7674705457192985,1.5825283072399066,81.86721801757812,0.208896666765213,-69.13694763183594,22821975.0,39850.0,-0.039792690504183936,-0.152305803375,0.14090708147999997,-0.0029736711317457022,-0.006518695213434912,0.006595158988072742,22.821975511993514
1613,C,177284354576439.0,-0.2363078696156573,5.6161985,4.9883194,67,1970-01-03 01:14:44.354576439,2.1177456,-0.64847976,-1.0910971,8.151263319078994,2.468980621041289,81.97293853759766,0.25834935903549194,-69.17671203613281,22861927.0,39952.0,-0.014331236638884746,-0.15356848641200002,0.159788583328,-0.00108117956860994,-0.006110144812785113,0.006006696600204608,22.86192717900849
1613,C,177284394419667.0,0.7129931303843424,5.5389857,6.1758432,67,1970-01-03 01:14:44.394419667,2.8181572,-2.0474384,-1.3928332,8.58669440482462,3.751532797234837,82.1133041381836,0.3131469190120697,-69.2877426147461,22901770.0,39843.0,0.00949628542240336,-0.16823339795970002,0.22240686523590003,-9.631948065913392e-05,-0.006410776239510823,0.007613906628565735,22.901770407013828
1613,C,177284433828366.0,0.6675033303843425,15.089457,4.322731,67,1970-01-03 01:14:44.433828366,2.9084382,-1.5502261,-1.0881677,15.858477222762033,3.470781276263853,82.25824737548828,0.35651081800460815,-69.3719482421875,22941179.0,39409.0,0.027201992511216553,0.020264949182149952,0.2068691553239,0.0007231212175430135,-0.002915644298937235,0.008458669347120579,22.941179106011987
1613,C,177284474270710.0,0.9518148303843426,8.693945,7.2592196,67,1970-01-03 01:14:44.474270710,1.4239923,-1.5305187,0.082025364,11.497370365096236,2.092120866931046,82.32897186279297,0.34218254685401917,-69.44722747802734,22981621.0,40442.0,0.03274423252890358,0.08459257184199995,0.23419862308259998,0.0012121726165362692,0.0021203239326293352,0.008918831547157835,22.981621450016974
1613,C,177284514154042.0,-1.0138248696156573,8.534132,3.120842,67,1970-01-03 01:14:44.514154042,1.8298581,-1.7241305,0.9150622,9.905330191866442,2.6755084520581693,82.42002868652344,0.2853989005088806,-69.52659606933594,23021504.0,39883.0,-0.0012365731973312635,-0.04729970250450005,0.2069939983964,0.0006283099885605495,0.0007436757538937542,0.008798042661223478,23.021504781994736
1613,C,177284554095033.0,0.5567715303843426,10.68652,-1.7818847,67,1970-01-03 01:14:44.554095033,1.3044163,-1.2655342,0.44448158,11.090692906250366,1.871000419570938,82.48497009277344,0.2550571858882904,-69.58641052246094,23061445.0,39941.0,-0.009127583711118971,-0.007575769234000039,0.02673964675965,-0.0002069773955402054,-0.001095890608353716,0.004667777760588896,23.061445772997104
1613,C,177284593953107.0,-0.3985149696156576,16.25663,-1.8070238,67,1970-01-03 01:14:44.593953107,0.0037284256,-1.1206582,0.09081379,16.691751179091238,1.1243379593515728,82.48491668701172,0.24322886765003204,-69.64136505126953,23101303.0,39858.0,0.003153894999559123,0.14634163634999994,-0.0715233574965,-0.0001190496423326762,0.0027654649657547618,-0.0008924945712746837,23.101303847011877
1613,C,177284633910707.0,1.6323665303843427,15.516223,0.92176765,67,1970-01-03 01:14:44.633910707,0.21598236,-2.2210765,0.525708,15.59755240721414,2.292639984809525,82.5976333618164,0.3157629370689392,-69.74752807617188,23141261.0,39958.0,0.02465112033259756,0.24320143008700001,-0.01768653262085,0.0005555164013211584,0.007782680924344823,-0.0017823243946545357,23.141261447017314
1613,C,177284671623575.0,1.0266335303843426,13.918692,-2.4821887,67,1970-01-03 01:14:44.671623575,0.7355651,-2.1265342,0.3009372,14.265678640844136,2.2701909431700873,82.63387298583984,0.2871764898300171,-69.85103607177734,23178974.0,37713.0,0.05013943464588471,0.1854520746975,-0.029424079529325003,0.001410288099951751,0.008082904812968925,-0.0008883412580097751,23.178974315000232
1613,C,177284711523783.0,0.9679756303843425,8.397064,-1.3090298,67,1970-01-03 01:14:44.711523783,0.6149239,-2.1411815,-0.02876214,8.721764744931239,2.2279176105571854,82.66410064697266,0.2749059200286865,-69.9573974609375,23218874.0,39900.0,0.03979245275733526,0.05417933219999998,-0.075634809075,0.0017941411536942383,0.004780646567605125,-0.0020959248276562837,23.218874523008708
1613,C,177284754048731.0,0.9458293303843426,8.917803,-2.2583308,67,1970-01-03 01:14:44.754048731,0.79708415,-2.8354676,-0.4415521,9.41060823932459,2.978286069175591,82.70325469970703,0.27874791622161865,-70.10082244873047,23261399.0,42525.0,0.04069227797834417,-0.04858764041250004,-0.07585100475749999,0.0017113065872673841,0.00011889334663171739,-0.003220967116613531,23.261399470997276
1613,C,177284792886386.0,3.3633744303843427,11.510124,-1.5478514,67,1970-01-03 01:14:44.792886386,0.6956177,-2.5092304,-0.26232138,11.621860008988394,2.617046749915361,82.7374267578125,0.2758621573448181,-70.22693634033203,23300237.0,38838.0,0.0836804278303671,0.016077514412999944,-0.0739122521418,0.002415193574099364,-0.0006313141367842923,-0.002908252685727506,23.300237126008142
1613,C,177284830966387.0,2.3003489003843427,7.6560583,-0.688333,67,1970-01-03 01:14:44.830966387,0.17789917,-2.5057683,-0.16112125,7.712588120753303,2.5172371650627485,82.74573516845703,0.2680261433124542,-70.35224151611328,23338317.0,38080.0,0.10783729221783578,-0.008259889008000044,-0.042576950976000005,0.003646497389717783,0.00014884758771119811,-0.0022179544273629123,23.338317126996117
1613,C,177284872740604.0,4.871122930384343,9.919178,-1.553837,67,1970-01-03 01:14:44.872740604,-0.033289514,-3.1001859,-0.45034054,10.226290420202636,3.1329007977062817,82.74332427978516,0.27078044414520264,-70.50885009765625,23380091.0,41774.0,0.14979053212926552,-0.04229123940190002,-0.04683220478999999,0.005381072367137905,-0.0010558614190975825,-0.001867489036484442,23.38009134400636
1613,C,177284912824044.0,5.913199230384342,11.076775,-2.010531,67,1970-01-03 01:14:44.912824044,-0.3257046,-2.685798,-0.12144015,11.646615728376537,2.7081990497925337,82.72640991210938,0.25982466340065,-70.64282989501953,23420174.0,40083.0,0.2161339925850456,0.027976992049499973,-0.071435281272,0.0073336763620618665,-0.0002868789883131256,-0.002370257821911573,23.420174783997936
1613,C,177284953232323.0,4.506605730384343,9.345766,-0.81881696,67,1970-01-03 01:14:44.953232323,-0.6823019,-1.4815166,-0.29800773,9.513316435293468,1.6580820021817144,82.69196319580078,0.2652035057544708,-70.71820068359375,23460583.0,40409.0,0.2105269493298509,0.01661902963449995,-0.05716556085781999,0.008620471000919526,0.0009010403201143765,-0.002598315714811948,23.46058306301711
1613,C,177284990754512.0,1.9986794803843426,10.927735,1.3784616,67,1970-01-03 01:14:44.990754512,-0.8072041,-1.6146746,-0.8594021,11.053538922246195,1.9993310112200982,82.65403747558594,0.41145071387290955,-70.80378723144531,23498105.0,37522.0,0.1220456558392313,0.012635552260999964,0.01049949309104,0.0062393946455771504,0.0005488452109414739,-0.0008755020973725595,23.498105252016103
1613,C,177285032944771.0,-1.4675261696156578,9.314043,-0.27234045,67,1970-01-03 01:14:45.032944771,-1.0423613,-2.7414582,-1.5158713,10.303081385059723,3.3015111600975424,82.60081481933594,0.46902745962142944,-70.949462890625,23540295.0,42190.0,0.011204679090665404,0.013538306909999971,0.023333625659250002,0.002810915815346171,0.0005521375592122436,0.0007137096400373677,23.540295511018485
1613,C,177285072790397.0,-2.003228669615657,6.3242836,-0.046088383,67,1970-01-03 01:14:45.072790397,-0.95927066,-3.7966025,-2.176868,8.020215623495217,4.48030635465557,82.55104064941406,0.5524324774742126,-71.15177917480469,23580141.0,39846.0,-0.06914784866200549,-0.07892841914820002,-0.006344057639859,-0.0011544017673698085,-0.0013027672061216595,0.00033848316365032695,23.58014113700483
1613,C,177285112697271.0,0.8458714303843426,9.179369,0.011971008,67,1970-01-03 01:14:45.112697271,-0.16405073,-3.5020568,-2.2389195,9.412739332499475,4.159816702682947,82.54088592529297,0.6407140493392944,-71.33992767333984,23620048.0,39907.0,-0.023093327673002033,-0.08173646784590004,-0.0006807610420625,-0.0018405343120005727,-0.0032058268226367753,-0.00014016971956972064,23.62004801101284
1613,C,177285150658834.0,4.605366630384342,10.951078,0.6476316,67,1970-01-03 01:14:45.150658834,0.37790257,-3.0242858,-1.6389093,11.097581797508258,3.460511327263752,82.55789184570312,0.7023574113845825,-71.50049591064453,23658009.0,37961.0,0.10346722401242002,0.010068149283499977,0.012519587301143999,0.0015255367394703234,-0.0013603005204736345,0.00022470684181049642,23.658009573991876
1613,C,177285192553677.0,3.0521282203843425,8.433576,2.204461,67,1970-01-03 01:14:45.192553677,0.5651228,-2.1337247,-0.83010733,8.717801080609314,2.3582245554208066,82.40510559082031,0.6918688416481018,-71.61386108398438,23699904.0,41895.0,0.16040537338647703,-0.004510960335000006,0.0597442097385,0.005527471234013396,0.00011640921549870315,0.0015137458884879429,23.69990441700793
1613,C,177285232390241.0,1.3211204303843425,10.383653,4.148553,67,1970-01-03 01:14:45.232390241,0.98084223,-2.489523,-0.26551718,11.296701354236951,2.6889171836550725,82.45265197753906,0.6886293888092041,-71.73900604248047,23739740.0,39836.0,0.08710636662601068,-0.015591232778000008,0.126539332852,0.0049299388375687305,-0.0004003954824247343,0.0037103956013175795,23.739740980992792
1613,C,177285272292791.0,1.5725115303843427,10.140042,4.525041,67,1970-01-03 01:14:45.272292791,1.1046792,-2.4780715,0.07536746,11.186422082438114,2.714191361722998,82.50643157958984,0.6686787009239197,-71.86135864257812,23779643.0,39903.0,0.057732298065276424,0.018429100792499972,0.173051210691,0.002889748618588214,5.661972369129603e-05,0.005977280729498164,23.77964353101561
1613,C,177285312215293.0,2.1279663703843426,7.7865424,3.8522706,67,1970-01-03 01:14:45.312215293,1.0026802,-2.6687539,-0.11158645,8.724196742337574,2.853080177292754,82.55501556396484,0.6568617224693298,-71.99439239501953,23819566.0,39923.0,0.0738670896161941,-0.03340388549940004,0.16722370550340002,0.002626921177203674,-0.00029891916492678575,0.006792397739614515,23.81956603299477
1613,C,177285352116647.0,2.0651185703843424,6.103419,3.6876693,67,1970-01-03 01:14:45.352116647,1.0940266,-2.8266792,-0.28815404,7.183078748984707,3.0446744082066513,82.60809326171875,0.6528982520103455,-72.13642120361328,23859467.0,39901.0,0.08365414111080564,-0.11391812508930003,0.15042557097495,0.0031426273136190086,-0.0029391477722498613,0.006337261890381322,23.859467386995675
1613,C,177285392079614.0,-0.5798756696156575,6.527791,-0.7146692,67,1970-01-03 01:14:45.392079614,2.1057615,-3.7974014,-0.9419601,7.445387876975643,4.443172033310912,82.71113586425781,0.675350546836853,-72.33075714111328,23899430.0,39963.0,0.029677381021709477,-0.13924687738500002,0.05940500149815,0.002264533809490851,-0.005058616496940227,0.004192729583871247,23.899430354009382
1613,C,177285432190970.0,4.4359767303843425,19.612701,9.535507,67,1970-01-03 01:14:45.432190970,0.71159667,-1.6389093,-1.1233214,21.85990473637797,2.1105081099298193,82.74564361572266,0.720697820186615,-72.4191665649414,23939541.0,40111.0,0.07733603482424636,0.13117283730600002,0.17690631249790004,0.002146207561498567,-0.00016192891080438462,0.004739341557847782,23.939541710016783
1613,C,177285471839354.0,0.6429628303843424,7.132327,-2.486977,67,1970-01-03 01:14:45.471839354,1.0894992,-2.3534355,0.7728494,7.891787963443646,2.706097439956893,82.79876708984375,0.6675601601600647,-72.53104400634766,23979190.0,39649.0,0.10068743732245879,0.14164660758599998,0.13973358298500002,0.0035292263235723563,0.005408509085261454,0.006277227608000752,23.979190094018122
1613,C,177285511839095.0,1.8933346303843426,10.256162,-1.4317327,67,1970-01-03 01:14:45.511839095,0.85514104,-1.427987,-0.058589544,10.407255238090114,1.6654866571448148,82.8406982421875,0.6615406274795532,-72.60225677490234,24019189.0,39999.0,0.05072468106664331,-0.04422911424450003,-0.07837223464515,0.003028166661722847,0.0019483011580833283,0.0012271962861228303,24.01918983500218
1613,C,177285551640916.0,2.5242067503843426,11.059416,1.2366052,67,1970-01-03 01:14:45.551640916,0.649545,-0.5115933,0.049801115,11.135690014133038,0.8283215333945709,82.89234924316406,0.6914094686508179,-72.62708282470703,24058991.0,39802.0,0.0879134910186776,0.03414171777799998,-0.0038832323774999978,0.0027590382626699714,-0.00020074927707981752,-0.0016369660492177576,24.058991655998398
1613,C,177285592207115.0,1.5443797303843425,9.054871,0.4405331,67,1970-01-03 01:14:45.592207115,1.0687265,-1.33957,0.010386328,9.170684380761069,1.7136895846423217,83.05159759521484,0.8818822503089905,-72.69194030761719,24099557.0,40566.0,0.08252313958943124,0.010431283220999989,0.0340173961389,0.003456966178624271,0.0009040741792627163,0.0006112112435724763,24.099557854991872
1613,C,177285631489303.0,2.0214243703843424,10.676943,-0.6206968,67,1970-01-03 01:14:45.631489303,1.0181265,-1.9422435,0.13209279,10.733394410306243,2.1968932355634587,83.10104370117188,0.8636161684989929,-72.78755187988281,24138840.0,39283.0,0.07003774124524813,0.0025890246809999714,-0.003538685313550001,0.0029965245409143545,0.00025573837765713217,0.0005986475986761119,24.13884004301508
1613,C,177285671347896.0,2.6888081003843425,9.217676,-1.2192472,67,1970-01-03 01:14:45.671347896,0.84209156,-1.5630093,0.23355924,9.301060346349479,1.7907166682362405,83.14202880859375,0.8426639437675476,-72.86375427246094,24178698.0,39858.0,0.09387022290994912,0.005871462050999981,-0.036668243976,0.003266521817648926,0.00016860904008202706,-0.0008012838938114418,24.178698636009358
1613,C,177285711309093.0,2.5894487303843423,9.138069,-0.11731588,67,1970-01-03 01:14:45.711309093,0.72677666,-1.2612731,0.047670584,9.145121407571404,1.456463741698799,83.36660766601562,0.8651701807975769,-72.92326354980469,24218659.0,39961.0,0.10546221060717371,-0.024860837027500016,-0.026705198619940005,0.003982761687888873,-0.000379417206717959,-0.0012662330697881794,24.21865983301541
1613,C,177285751167792.0,2.2799981303843424,10.141838,0.4794389,67,1970-01-03 01:14:45.751167792,0.54621434,-1.4913702,0.01784318,10.173874304266832,1.5883493185512398,83.49066162109375,0.9255564212799072,-72.99568939208984,24258518.0,39859.0,0.0970456412116895,-0.006379293443500035,0.00721693072709,0.004035880232824035,-0.0006226001802217954,-0.0003883914349705542,24.258518532005837
1613,C,177285791064199.0,1.7317259303843426,9.625888,0.25677812,67,1970-01-03 01:14:45.791064199,0.41598576,-1.5797871,0.006924219,9.70343781122111,1.63365215962822,83.63355255126953,1.0701649188995361,-73.07197570800781,24298414.0,39896.0,0.08002587156421373,0.0033457982479999653,0.01468605711496,0.0035322225368537175,-6.0512162159835384e-05,0.00043692080147321346,24.298414938995847
1613,C,177285831039563.0,1.9591751303843425,9.251794,-0.06943185,67,1970-01-03 01:14:45.831039563,0.3568636,-1.5773903,-0.10652645,9.302727418318957,1.6207589802585247,83.81846618652344,1.1896909475326538,-73.14762115478516,24338390.0,39976.0,0.07377373040264448,-0.014437692184000026,0.0037446772447599992,0.0030741464441135617,-0.0002217047759927692,0.00036839351838208336,24.33839030301897
1613,C,177285870924197.0,2.583463230384343,10.139444,-0.34596214,67,1970-01-03 01:14:45.870924197,0.51265854,-1.1310445,-0.2050634,10.15122113086176,1.2586228337491505,84.04552459716797,1.2131969928741455,-73.20069885253906,24378274.0,39884.0,0.09058929419044913,-0.004163131804000038,-0.00828378694858,0.0032777274364354726,-0.00037093763196869727,-9.051892571357848e-05,24.378274937014794
1613,C,177285910766490.0,1.9088969303843426,11.100118,0.45729253,67,1970-01-03 01:14:45.910766490,0.85993475,-0.67031765,-0.27643612,11.156253541078735,1.1248246328204852,84.1772232055664,1.3242865800857544,-73.23345184326172,24418117.0,39843.0,0.08949455294275337,0.032662534382999965,0.002217868364385,0.003587540360664094,0.0005677508484775471,-0.00012084219707504071,24.41811723000137
1613,C,177285951328886.0,0.0749383303843425,13.846866,0.43993455,67,1970-01-03 01:14:45.951328886,0.48709217,-0.6420882,-0.32277513,14.144748848978265,0.8681703883461275,84.2008056640625,1.3370915651321411,-73.26704406738281,24458679.0,40562.0,0.0402341629236497,0.10844218250399998,0.01819666240948,0.0026310280864865203,0.0028617447631852457,0.00041402709862475607,24.45867962599732
1613,C,177285990068104.0,2.5056516703843426,16.585234,-2.0602105,67,1970-01-03 01:14:45.990068104,-0.3153183,-0.87298423,-0.24687503,16.718060035635332,0.9604552965032177,84.18399047851562,1.3449586629867554,-73.31172943115234,24497418.0,38739.0,0.04998473801988905,0.20981236095000003,-0.031383935013525,0.001747495001825874,0.006164431379432254,-0.00025543087670404965,24.497418843995547
1613,C,177286030486386.0,-1.1987766696156577,13.012486,0.18195933,67,1970-01-03 01:14:46.030486386,-1.4705976,-0.80374205,0.16990969,13.65265584973057,1.6844963303076261,84.10955810546875,1.3324098587036133,-73.3508529663086,24537837.0,40419.0,0.026411290328034735,0.20204892233999994,-0.037958517020115004,0.0015439255348973654,0.008323510604649254,-0.0014013762843738476,24.53783712600125
1613,C,177286070432896.0,-0.33686416961565735,12.035652,1.5939398,67,1970-01-03 01:14:46.070432896,-2.504703,-1.700961,0.32144356,12.572283040824727,3.0446890488185283,83.98239135742188,1.307602882385254,-73.43378448486328,24577783.0,39946.0,-0.030671354481967058,0.10881566027400001,0.035470033323490004,-8.508626134649028e-05,0.006208898308549421,-4.970248487269114e-05,24.57778363599209
1613,C,177286110292115.0,2.8761543903843427,11.859079,-1.086369,67,1970-01-03 01:14:46.110292115,-2.2019017,-2.0469058,0.8479505,11.908850772359925,3.1236540302963745,83.87013244628906,1.2546145915985107,-73.5311050415039,24617642.0,39859.0,0.05060678445480951,0.08559184146449997,0.010115632258600002,0.0003973031516437637,0.003874444305897435,0.0009084995222182628,24.617642855009763
1613,C,177286149818521.0,1.7059883303843426,13.186066,-0.931943,67,1970-01-03 01:14:46.149818521,-4.1007357,1.3443637,0.7901599,13.275397858771964,4.387220043113885,83.66663360595703,1.22263503074646,-73.45996856689453,24657169.0,39527.0,0.0905591776619119,0.10761512320749997,-0.039888909211999994,0.002789933492293824,0.0038184458462950707,-0.0005884241590685208,24.65716926101595
1613,C,177286190148364.0,-0.7193378696156576,9.7240505,-0.30107087,67,1970-01-03 01:14:46.190148364,-4.210458,3.3190978,0.6087986,10.390231348417556,5.3958319572695,83.45968627929688,1.2109920978546143,-73.29161834716797,24697499.0,40330.0,0.01989580654140053,0.06674849922249998,-0.02486372468855,0.002227324756459795,0.003516042446300949,-0.0013057368626045907,24.69749910401879
1613,C,177286230012533.0,1.3582305303843425,9.504382,7.1047935,67,1970-01-03 01:14:46.230012533,-3.572897,0.83010733,0.93157375,11.969884737003108,3.784508000205283,83.28201293945312,1.1695137023925781,-73.24500274658203,24737363.0,39864.0,0.012734408514441426,-0.007406083410000023,0.13561179946116,0.0006503854464930419,0.001182813031974749,0.0022074306263676624,24.737363273015944
1613,C,177286269967063.0,0.5914874303843427,3.828927,2.7748797,67,1970-01-03 01:14:46.269967063,-3.5625107,1.1664646,0.77577883,5.2748265176774725,3.8280484510705732,83.10514068603516,1.1379073858261108,-73.18247985839844,24777317.0,39954.0,0.038949515702276026,-0.12518968610700004,0.19736623151640004,0.0010324897540773647,-0.0026488656876411105,0.006651902124838718,24.777317803003825
1613,C,177286309808053.0,2.4104821903843425,1.7537527,3.769072,67,1970-01-03 01:14:46.309808053,-2.8620992,0.3818973,-0.26871297,4.1892998746518515,2.8999420750480778,82.96239471435547,1.1535636186599731,-73.1651611328125,24817158.0,39841.0,0.059800735830522596,-0.27923202903615,0.13035878983985,0.001967154385659115,-0.00805628277650912,0.006528446287927179,24.817158793011913
1613,C,177286349758053.0,1.4767435303843426,4.320337,4.1958385,67,1970-01-03 01:14:46.349758053,-1.73212,-0.045540057,-0.47324374,6.195072107876562,1.796182960792344,82.87567901611328,1.176770567893982,-73.17033386230469,24857108.0,39950.0,0.07764733377235448,-0.2701800582425,0.1590990872375,0.0027455251903174696,-0.010974506443391036,0.005781921094620066,24.857108793017687
1613,C,177286389616178.0,0.9302670303843426,2.3265655,4.969764,67,1970-01-03 01:14:46.389616178,-0.24980451,0.15526229,-0.087085366,5.8400087770192854,0.3067450617104343,82.86333465576172,1.182054877281189,-73.16316986083984,24896966.0,39858.0,0.047969313465559126,-0.2581422800775,0.18266129222249997,0.00250341416280438,-0.01052893588037928,0.006810942602258338,24.896966917993268
1613,C,177286429579511.0,3.0233977953843425,1.7076644,7.1700354,67,1970-01-03 01:14:46.429579511,1.593902,-0.043942157,0.3603257,7.371191830884714,1.6347137696998524,82.94302368164062,1.1639083623886108,-73.16311645507812,24936930.0,39964.0,0.07900213054850987,-0.3110352181382,0.24257747161079998,0.0025371433942891265,-0.011373304769346119,0.008497120978917,24.936930251016747
1613,C,177286469430397.0,6.488406230384342,4.350863,5.222951,67,1970-01-03 01:14:46.469430397,3.2168324,-0.53103435,0.7025419,7.673319457579905,3.3352021365766262,83.10342407226562,1.1258172988891602,-73.1852035522461,24976781.0,39851.0,0.1895274511154539,-0.2698206122913,0.24693645051319998,0.00535058617944531,-0.011573842849223,0.009753809655281762,24.97678113699658
1613,C,177286511609302.0,-0.5858611696156575,19.612701,7.062895,67,1970-01-03 01:14:46.511609302,1.5736619,-0.27643612,1.7904432,21.139904399825703,2.399690720984374,83.18206024169922,1.035284161567688,-73.1882553100586,25018960.0,42179.0,0.12448172405908117,0.092025382978,0.259102349217,0.006622296499843357,-0.0037496124886028403,0.010672105266910053,25.018960042012623
1613,C,177286549288728.0,1.2516885303843426,1.174356,4.573524,67,1970-01-03 01:14:46.549288728,2.3411849,-0.43675843,0.4596616,5.010890806098142,2.4255295192346424,83.29877471923828,1.0098905563354492,-73.20722961425781,25056639.0,37679.0,0.012543854563201642,0.022363560351499986,0.2192243157505,0.002581493388454497,0.002155030497856115,0.009011435204655215,25.056639468006324
1613,C,177286589014092.0,0.48075563038434277,8.996812,1.8836381,67,1970-01-03 01:14:46.589014092,2.0815268,-1.5313177,0.020506341,9.512295793097744,2.5842035963663426,83.40151977539062,1.0000075101852417,-73.2831802368164,25096364.0,39725.0,0.03441067214326802,-0.18728017560000004,0.12825538221125,0.0009326342867072536,-0.0032756562703733323,0.0069018155007652595,25.09636483201757
1613,C,177286628967739.0,0.9302670303843426,14.156915,3.787627,67,1970-01-03 01:14:46.628967739,2.4596956,-0.9717875,-0.84581995,14.790490251595111,2.7766679271446217,83.52357482910156,1.0364916324615479,-73.33627319335938,25136318.0,39954.0,0.028187999694176027,0.07099280427899998,0.11329486290270002,0.00125053366729662,-0.0023230728168796184,0.00482544924664138,25.136318478995236
1613,C,177286668827792.0,1.6383520303843426,6.473323,1.7130513,67,1970-01-03 01:14:46.668827792,2.334527,-0.47670585,-1.3070794,6.819368051967552,2.7176683644362463,83.63972473144531,1.0987749099731445,-73.36727142333984,25176178.0,39860.0,0.051192577881119895,0.02053264333999994,0.109628518519,0.001582054911075648,0.0018241021710466683,0.0044428629917344815,25.176178532012273
1613,C,177286708774874.0,3.2149339303843427,9.439739,0.2148796,67,1970-01-03 01:14:46.708774874,2.4722126,-0.9488843,-1.3789848,9.446518030644285,2.9856013854860617,83.88848876953125,1.0914311408996582,-73.41967010498047,25216125.0,39947.0,0.09693710713741335,-0.07364105614300005,0.03850752783115,0.002958668263717674,-0.0010607608831207228,0.0029587953217747216,25.216125614009798
1613,C,177286748811802.0,3.7362713303843424,9.682152,-0.33159694,67,1970-01-03 01:14:46.748811802,1.7150757,0.0031957934,-1.1957593,9.721419160919954,2.0907738216656617,84.17462158203125,1.0050318241119385,-73.4222640991211,25256162.0,40037.0,0.13915270251269793,-0.009571025016500034,-0.00233650607079,0.004726163854480753,-0.0016657810466914526,0.0007240895991097667,25.256162542005768
1613,C,177286788536698.0,1.9735403303843424,7.8422074,0.35075054,67,1970-01-03 01:14:46.788536698,0.9089369,0.7139935,-0.76272935,7.907958974539973,1.384813730281182,84.30166625976562,1.194669485092163,-73.38897705078125,25295887.0,39725.0,0.113411134112018,-0.04122741141750002,0.00038043837999999987,0.00501654920495842,-0.001008983943670326,-3.885239450831639e-05,25.295887437998317
1613,C,177286828433470.0,1.5000869303843425,6.1979895,0.44951138,67,1970-01-03 01:14:46.828433470,1.0980214,0.46711847,-0.1206412,6.376396476436496,1.1993352154466828,84.35704040527344,1.202978491783142,-73.3663330078125,25335784.0,39897.0,0.06929365341144411,-0.11090973214035002,0.015964024911120003,0.0036446864539117843,-0.0030349078082637718,0.0003260475259629074,25.33578421000857
1613,C,177286868563781.0,0.8560467303843424,6.3206925,0.26276365,67,1970-01-03 01:14:46.868563781,1.0388992,0.29294774,-0.24181503,6.657072611762139,1.1061665493340722,84.40926361083984,1.2164437770843506,-73.35292053222656,25375914.0,40130.0,0.04727582190332366,-0.14208664567,0.01429179847695,0.0023389665221908154,-0.005076372320764673,0.0006070830962816245,25.3759145209915
1613,C,177286908235915.0,1.3612232303843426,9.416395,-1.3275849,67,1970-01-03 01:14:46.908235915,0.94089484,0.19254655,-0.3057309,9.6378606292821,1.0078832556751491,84.45649719238281,1.2325924634933472,-73.34483337402344,25415586.0,39672.0,0.04398176694180764,-0.07662473235000004,-0.021121794315,0.0018101855323320243,-0.004338358894404721,-0.00013547979744355982,25.41558665499906
1613,C,177286948150033.0,1.0559626303843426,10.738593,-1.3587095,67,1970-01-03 01:14:46.948150033,0.6468818,0.34408042,-0.21758026,10.98503943719279,0.7643222933686312,84.48917388916016,1.2450774908065796,-73.32874298095703,25455500.0,39914.0,0.048239778223360646,0.01107589551599996,-0.0536103773408,0.0018404653768612634,-0.0013081581366961397,-0.0014914299497348004,25.45550077300868
1613,C,177286987266281.0,1.2301407303843426,11.138425,-0.25198972,67,1970-01-03 01:14:46.987266281,0.30466563,0.5411543,-0.25566345,11.270028605373808,0.6715898466904405,84.50497436523438,1.2603977918624878,-73.30303192138672,25494617.0,39117.0,0.04471275258159432,0.04453505655299996,-0.03150286069437,0.0018180120737487117,0.0010876668060415349,-0.0016646872661108725,25.49461702100234
1613,C,177287027961436.0,-0.9563638696156573,11.562798,0.3298013,67,1970-01-03 01:14:47.027961436,0.124902256,0.6676545,-0.23622239,12.202531428423047,0.7191412395777701,84.51191711425781,1.2753493785858154,-73.27091979980469,25535312.0,40695.0,0.005570674674490823,0.06310213499249999,0.001583271124050001,0.0010231420360931926,0.00219014775497206,-0.0006087888487820863,25.535312176012667
1613,C,177287067907739.0,-0.34524386961565723,13.90313,-0.5398925,67,1970-01-03 01:14:47.067907739,-0.7552725,-0.25859293,-0.29241508,14.29363657915839,0.8501843516047806,84.47383880615234,1.2886613607406616,-73.28520965576172,25575258.0,39946.0,-0.025997011375667047,0.117160179944,-0.0041961515376,-0.0004079752229325928,0.003600379216226715,-5.2187060499834126e-05,25.575258479017066
1613,C,177287107767740.0,-0.7690176696156574,14.440029,-2.984971,67,1970-01-03 01:14:47.107767740,-1.9917783,-0.082558,0.08894958,15.201925645715486,1.9954720362603597,84.37417602539062,1.2838380336761475,-73.28888702392578,25615118.0,39860.0,-0.022207232476880102,0.17425115886999998,-0.070250529555,-0.0009607105799812648,0.00580782798256302,-0.001483722354175518,25.615118479996454
1613,C,177287145588832.0,-6.7347691696156575,11.3084135,3.4973302,67,1970-01-03 01:14:47.145588832,-2.6146915,1.881257,0.52650696,15.280596260160475,3.2638855860997475,84.24556732177734,1.2669665813446045,-73.19264221191406,25652939.0,37821.0,-0.1419003610232838,0.11627012189624997,0.009688968651600002,-0.0031033566468848498,0.00549390267993017,-0.0011452493974637456,25.652939571999013
1613,C,177287185748367.0,1.6664840303843425,10.593145,7.023391,67,1970-01-03 01:14:47.185748367,-4.337224,-0.64555025,0.37950045,12.772480239742704,4.401393840932809,84.02804565429688,1.2447940111160278,-73.22282409667969,25693099.0,40160.0,-0.10177116559576481,0.04621529467999998,0.21125608169600002,-0.004892924254510497,0.0032627071648510986,0.004436576610979809,25.69309910701122
1613,C,177287227476334.0,2.6277559603843423,11.790246,-7.9744873,67,1970-01-03 01:14:47.227476334,-2.0003004,-2.237588,0.55313855,14.23702890729452,3.0518787661832607,83.92572021484375,1.2055506706237793,-73.33121490478516,25734827.0,41728.0,0.08959502316739784,0.058072669823999966,-0.019843673203199994,-0.0002540430356254484,0.002175864091411455,0.00399362849079378,25.73482707401854
1613,C,177287267427790.0,-4.262157869615657,8.27496,-0.3537433,67,1970-01-03 01:14:47.267427790,-4.7795753,2.6154904,-0.39601207,10.968607855125871,5.462779113276312,83.68946838378906,1.239342212677002,-73.20331573486328,25774778.0,39951.0,-0.03264799533785013,0.009292722452999969,-0.1663605703503,0.0011375453544091303,0.0013456573934292123,-0.003719522867102939,25.77477853000164
1613,C,177287307287949.0,0.2485180303843424,9.628283,7.809886,67,1970-01-03 01:14:47.307287949,-3.6743634,-0.03169162,-0.4759069,12.683935041005313,3.705190701098311,83.50565338134766,1.2628111839294434,-73.20753479003906,25814638.0,39860.0,-0.07999184199588011,-0.033816367010000035,0.148600924011,-0.0022449119580612437,-0.0004887562360210113,-0.0003539497515422489,25.814638689014828
1613,C,177287347236335.0,1.4091073303843427,3.2860417,3.084929,67,1970-01-03 01:14:47.347236335,-3.4511905,0.8700547,0.29294774,4.756511783635161,3.5712083986591217,83.33409118652344,1.2532448768615723,-73.16263580322266,25854587.0,39949.0,0.0331102377686741,-0.13354302127985002,0.2176184822175,-0.0009364366036363265,-0.00334292010139561,0.007315049529711173,25.854587075009476
1613,C,177287387100291.0,1.9639635303843426,0.9103952,4.0976763,67,1970-01-03 01:14:47.387100291,-2.4762073,-0.23116238,-0.2412824,4.307056032541441,2.4986508029435237,83.20999145507812,1.263870120048523,-73.17552947998047,25894451.0,39864.0,0.06723204839684142,-0.3070238197092,0.14316368883959998,0.002000022447851055,-0.008781378274593745,0.007191110233510116,25.894451030995697
1613,C,177287425523364.0,1.6209941303843425,3.6194344,4.6495395,67,1970-01-03 01:14:47.425523364,-1.0351708,-0.30040458,-0.26072347,6.035639925405831,1.1089626795643113,83.1578598022461,1.2750300168991089,-73.19198608398438,25932874.0,38423.0,0.0688724140998576,-0.2895205786396,0.1680471363417,0.0026147708812553332,-0.011460512708877971,0.0059788267679705435,25.93287410400808
1613,C,177287466948572.0,1.5479710303843426,0.91817635,6.1423244,67,1970-01-03 01:14:47.466948572,0.46498793,0.22849922,0.1536644,6.362229136468469,0.5404057886566846,83.181396484375,1.2687617540359497,-73.17972564697266,25974299.0,41425.0,0.06563719089242138,-0.311979737340625,0.22352648102874997,0.0027860301934025783,-0.01245857529474041,0.008110468549785444,25.974299312016228
1613,C,177287506795552.0,2.1141997303843425,1.827973,10.161591,67,1970-01-03 01:14:47.506795552,1.5502261,-0.55766594,0.54941016,10.356786869104935,1.7366760739033975,83.25835418701172,1.2381978034973145,-73.20417022705078,26014146.0,39847.0,0.0729632591521749,-0.33578769342527504,0.3248310584719,0.002761406066463514,-0.01290579440686441,0.010925201438241201,26.014146292000078
1613,C,177287546755291.0,-0.014245769615657267,8.793902,4.6471453,67,1970-01-03 01:14:47.546755291,1.5696672,-0.63010395,0.97418433,10.372576736461719,1.95190194819796,83.33631134033203,1.1861436367034912,-73.22979736328125,26054106.0,39960.0,0.041957080136158335,-0.17938293750000006,0.29587855127400003,0.002296108378980898,-0.010293109205886997,0.012401778002723084,26.054106030991534
1613,C,177287586612687.0,-0.45657436961565745,13.585897,4.5992613,67,1970-01-03 01:14:47.586612687,2.1526332,-0.6111955,0.85727155,14.73739268273897,2.3963105273319423,83.44342041015625,1.1400474309921265,-73.25521087646484,26093963.0,39857.0,-0.009382739144671255,0.05539722437149994,0.1842670139281,0.0006491577544488502,-0.0024708492840813147,0.00956858089613005,26.093963427003473
1613,C,177287626560135.0,1.9029114303843426,6.56131,4.3526587,67,1970-01-03 01:14:47.626560135,2.6138926,-0.66392606,0.32996565,7.940335577464144,2.717003803394799,83.57350158691406,1.119901180267334,-73.28633117675781,26133910.0,39947.0,0.028888413283263335,0.010929639014499934,0.17880117412000004,0.0003895965824071689,0.0013247796058402685,0.007251742453978726,26.13391087501077
1613,C,177287666420604.0,1.2199653303843425,9.164406,4.666898,67,1970-01-03 01:14:47.666420604,2.5382588,-1.3888385,0.015978966,10.425280902758555,2.893421062032645,83.69906616210938,1.111407995223999,-73.35527038574219,26173771.0,39861.0,0.06224049528050028,-0.07721641726200004,0.17976427480934998,0.0018162447121300906,-0.001321128633861801,0.007146388679886411,26.173771344008856
1613,C,177287705742740.0,1.7628505303843425,10.943896,3.2112231,67,1970-01-03 01:14:47.705742740,2.5782063,-1.3225259,-0.6295713,11.464742220780687,2.965228912464296,83.8266372680664,1.1355146169662476,-73.42445373535156,26213093.0,39322.0,0.05864514263857312,0.009993725621999974,0.1548917389471,0.0023767325271269023,-0.0013216653403340414,0.006579671886465564,26.213093480007956
1613,C,177287746271959.0,3.4561497803843424,9.639654,3.0723593,67,1970-01-03 01:14:47.746271959,2.5254757,-0.9289106,-0.7685883,10.13115938092029,2.798505027506604,83.95188903808594,1.168777585029602,-73.47472381591797,26253622.0,40529.0,0.10576043179757202,0.019931148974999986,0.1273336555448,0.0033315967631612634,0.0006064126212709058,0.005719156506681107,26.253622699005064
1613,C,177287786131021.0,2.3625981303843426,9.302073,1.1270704,67,1970-01-03 01:14:47.786131021,2.5025725,-1.0500845,-1.0125339,9.387196851275084,2.896682839653957,84.0543212890625,1.2708607912063599,-73.53262329101562,26293481.0,39859.0,0.11596473648766452,-0.013119051753500024,0.08369253420614998,0.004418871741340621,0.00013576169157588348,0.0042056464486415574,26.29348176100757
1613,C,177287824238156.0,2.8599935303843425,9.455301,-0.7188591,67,1970-01-03 01:14:47.824238156,1.8069549,-0.25300032,-1.0554107,9.482837836293664,2.107839395738822,84.14424896240234,1.3220542669296265,-73.5506362915039,26331588.0,38107.0,0.09950865020845616,-0.016054974491000018,0.007777854004550002,0.004105522173414536,-0.0005558673090495816,0.0017428310417725722,26.331588895991445
1613,C,177287865977114.0,3.2747889703843427,8.435969,1.0079589,67,1970-01-03 01:14:47.865977114,0.9254485,0.6556703,-0.7771104,8.503013813664163,1.3748669180115216,84.16725158691406,1.2727634906768799,-73.52254486083984,26373327.0,41739.0,0.12802984339979206,-0.03566034073500002,0.0060333682761,0.004748614592357337,-0.0010792727711090076,0.00028823330338602517,26.373327854002127
1613,C,177287905847426.0,2.8480225203843426,5.182848,-0.39324763,67,1970-01-03 01:14:47.905847426,0.9121327,0.5840312,-0.02263687,5.198373440425303,1.0833240202571561,84.21350860595703,1.2768455743789673,-73.49360656738281,26413198.0,39871.0,0.1220613084742191,-0.11923787369650002,0.012254576523084997,0.004985692158184349,-0.0030879733537991687,0.0003645793235441525,26.413198166002985
1613,C,177287943781127.0,0.9943118303843426,6.143522,-0.92296475,67,1970-01-03 01:14:47.943781127,0.93849796,0.65700185,-0.049002163,6.506694612431996,1.14666083207122,84.26115417480469,1.2825793027877808,-73.4611587524414,26451131.0,37933.0,0.07287563446385427,-0.15692180339500003,-0.024963942105270004,0.0036972715282349686,-0.0052377825155559355,-0.00024105218231451194,26.45113186701201
1613,C,177287985783675.0,1.0392032303843426,8.683769,-0.42556936,67,1970-01-03 01:14:47.985783675,0.7595336,0.54195327,-0.17816548,8.897169812654402,0.9499197727473007,84.29972076416016,1.2941457033157349,-73.43507385253906,26493134.0,42003.0,0.04270686654873354,-0.10023404806350003,-0.028321239111165002,0.0024274058950158627,-0.005400658614405689,-0.0011190687333169599,26.49313441500999
1613,C,177288025556021.0,1.3642160303843425,9.436746,-0.75237787,67,1970-01-03 01:14:48.025556021,0.48522797,0.4215784,0.010918961,9.595116178726466,0.6428792685459692,84.32444763183594,1.2956913709640503,-73.41402435302734,26532906.0,39772.0,0.04779439541964608,-0.029421038710000045,-0.02342465861578,0.0017997080955031973,-0.0025783210555778225,-0.0010290189221980285,26.5329067610146
1613,C,177288065505707.0,1.0930726303843425,10.688913,-0.2172738,67,1970-01-03 01:14:48.065505707,0.30386668,0.7273093,-0.17496969,10.847583256585454,0.807420689293635,84.3404541015625,1.307985544204712,-73.37870788574219,26572856.0,39950.0,0.04908434099885449,0.010500038524999948,-0.01936879210825,0.0019351527599595487,-0.00037794697869537695,-0.0008547991782124992,26.57285644701915
1613,C,177288105356593.0,1.6263810303843425,11.058219,-1.335366,67,1970-01-03 01:14:48.105356593,0.2444782,0.42290998,-0.3619236,11.21444492018462,0.6079565228663975,84.3531265258789,1.3280766010284424,-73.35943603515625,26612707.0,39851.0,0.05418647391764642,0.04278267866599995,-0.0309371243349,0.002057722622618739,0.0010616847813892684,-0.0010023705380879852,26.61270733299898
1613,C,177288145972009.0,1.4994883303843425,11.546038,-0.7625532,67,1970-01-03 01:14:48.145972009,0.27696875,0.5877597,-0.40053943,11.659137593658308,0.763285653216001,84.36760711669922,1.3508957624435425,-73.3321533203125,26653322.0,40615.0,0.06347859204381007,0.06100894902749994,-0.042603494154000006,0.0023894833270122775,0.002107748479385749,-0.0014934261099633368,26.653322749014478
1613,C,177288185173833.0,-1.0024523696156575,12.34211,-0.6314707,67,1970-01-03 01:14:48.185173833,0.055926383,0.8061389,-0.30919302,12.96847680513834,0.8652098069401393,84.3713150024414,1.3702374696731567,-73.29353332519531,26692524.0,39202.0,0.009742401867026993,0.08405198894799996,-0.027324262463900004,0.0014352047016463173,0.0028433394452577736,-0.0013706539574674583,26.692524573008996
1613,C,177288222976020.0,0.3658340303843426,14.632164,-2.2301989,67,1970-01-03 01:14:48.222976020,-1.0146644,-0.023702133,-0.28815404,15.021416129956226,1.0550537363112986,84.3205337524414,1.3844585418701172,-73.29615020751953,26730326.0,37802.0,-0.012032723229811084,0.13938115287399994,-0.0540884171096,-4.32893640779821e-05,0.00422310981357762,-0.0015387810566187237,26.7303267600073
1613,C,177288265025864.0,-3.1656136696156576,12.2224,-0.75596917,67,1970-01-03 01:14:48.265025864,-1.6804547,-0.3336941,0.0727043,13.67847784492232,1.7148077636765557,84.2361068725586,1.3791841268539429,-73.3123779296875,26772376.0,42050.0,-0.058865366914838395,0.15252720809999995,-0.06278418367175,-0.0014906323452912552,0.0061373732894783465,-0.0024572464314278836,26.772376603999874
1613,C,177288302913572.0,-3.4732684696156575,9.654019,2.171541,67,1970-01-03 01:14:48.302913572,-2.2836607,0.41092578,0.18642128,11.785690365749648,2.3278142286337924,84.12245178222656,1.3719950914382935,-73.29100036621094,26810264.0,37888.0,-0.125766983245598,0.04312448153599997,0.026816592747519997,-0.0034976752414393074,0.0037064256084643828,-0.0006813700424686131,26.810264311992796
1613,C,177288344834875.0,2.1477185303843425,9.93893,6.851008,67,1970-01-03 01:14:48.344834875,-3.4365432,-0.0015978967,0.34434673,12.096642936670195,3.453752508388781,83.95065307617188,1.3548651933670044,-73.28927612304688,26852185.0,41921.0,-0.02778418950125798,-0.00014779248550004948,0.1891171383145,-0.0032185093563604746,0.0009008128908430036,0.00452607896992547,26.852185615018243
1613,C,177288384696385.0,3.0275876503843424,12.367847,-1.3844471,67,1970-01-03 01:14:48.384696385,-2.040514,-1.4671354,0.7976168,12.44548459834628,2.6367359036830744,83.8470458984375,1.3074133396148682,-73.3580093383789,26892047.0,39862.0,0.10314902748890066,0.053948772386999945,0.1089540252979,0.0015020965859317062,0.0010723073304167944,0.005940856361958745,26.892047125002136
1613,C,177288426106124.0,-2.3282411696156577,9.548675,-0.7733272,67,1970-01-03 01:14:48.426106124,-3.3832798,1.4668691,0.51026165,10.927579474454022,3.7227213316448458,83.67959594726562,1.2900174856185913,-73.28230285644531,26933456.0,41409.0,0.014479619211075233,0.047962429748999946,-0.044675637994349995,0.002435442315599651,0.0021100204846248097,0.0013308518699263513,26.933456864004256
1613,C,177288463702064.0,0.5783193303843426,8.374319,5.7347116,67,1970-01-03 01:14:48.463702064,-3.3667684,1.4924355,0.3107909,10.418302230041697,3.6958198230462513,83.51295471191406,1.2828952074050903,-73.2063980102539,26971052.0,37596.0,-0.03289503073387026,-0.03152435878800004,0.0932641039512,-0.0003461729058055009,0.00030900285792487617,0.0009133659830568662,26.971052804001374
1613,C,177288503816594.0,1.0404003303843425,7.057508,1.903989,67,1970-01-03 01:14:48.503816594,-2.8658278,0.84688526,0.55313855,7.549817741382057,3.039102808125156,83.37065887451172,1.260252594947815,-73.1611557006836,27011167.0,40115.0,0.0324674695958679,-0.08360312994750002,0.15321323728449998,-8.575807525482324e-06,-0.0023091696053122923,0.004943719271835052,27.011167334014317
1613,C,177288542126385.0,1.9519925303843424,1.13964,2.5701754,67,1970-01-03 01:14:48.542126385,-2.7310717,0.55793226,0.49375007,2.976371308493221,2.830870920567486,83.23478698730469,1.238985300064087,-73.13056945800781,27049477.0,38310.0,0.057319285248024154,-0.21842163006,0.085702619082,0.0017198652890347524,-0.005785284277943662,0.0045764332287003065,27.049477124994155
1613,C,177288583440135.0,1.7712303303843426,3.0101101,4.3939586,67,1970-01-03 01:14:48.583440135,-2.3355923,0.2231729,0.016245283,5.45047380045517,2.3462867353189063,83.11823272705078,1.2395061254501343,-73.119384765625,27090790.0,41313.0,0.07690875302346835,-0.31914808705935005,0.143854633971,0.002772681472555085,-0.011104308861675856,0.004741849397689295,27.090790874994127
1613,C,177288623306386.0,1.8855534303843426,3.608062,5.068525,67,1970-01-03 01:14:48.623306386,-1.2908342,0.09134643,-0.13954964,6.308444852625452,1.30156490586813,83.05377960205078,1.2469851970672607,-73.11569213867188,27130657.0,39867.0,0.07289249909528259,-0.25877326644465,0.18862041684060002,0.002986063259109122,-0.011519995300071983,0.006627391425353029,27.130657125992002
1613,C,177288663210186.0,1.7484853303843426,3.5164838,6.903681,67,1970-01-03 01:14:48.663210186,0.17417073,-0.08575379,0.02956109,7.837070608463707,0.1963746769063799,83.0624008178711,1.2450006008148193,-73.11976623535156,27170560.0,39903.0,0.07250452433547643,-0.24890402447130003,0.238863468009,0.0029008887129787883,-0.010128923469709578,0.008528944728576794,27.170560925995233
1613,C,177288703208833.0,0.26886873038434267,2.2828712,7.716512,67,1970-01-03 01:14:48.703208833,1.2658005,-0.37390783,0.43755737,8.475342792813105,1.3905086922334848,83.12535095214844,1.2210330963134766,-73.13571166992188,27210559.0,39999.0,0.04034607253834332,-0.2760059996775,0.2923965499035,0.0022569555121779578,-0.010497938027963926,0.010624934728241043,27.210559572995408
1613,C,177288743018676.0,4.225287130384342,7.9367785,8.176199,67,1970-01-03 01:14:48.743018676,0.9853696,-1.4405038,0.48203218,11.468369210796247,1.810624055118608,83.17317199707031,1.188517689704895,-73.20435333251953,27250369.0,39810.0,0.08945617240860067,-0.1867158727215,0.316344412455,0.0025837136856689197,-0.009210478870102094,0.012116988855745943,27.25036941599683
1613,C,177288782901125.0,-0.7989451696156573,17.943344,12.485164,67,1970-01-03 01:14:48.782901125,1.8991002,-0.3336941,1.2250541,22.175193304528737,2.2844454184641094,83.2679443359375,1.1257251501083374,-73.21369171142578,27290251.0,39882.0,0.06832468503968835,0.12523192277249995,0.41200823958300004,0.0031463080783763315,-0.00122605144593301,0.01452408023428976,27.29025186499348
1613,C,177288821699717.0,1.1182117303843426,4.471172,6.743269,67,1970-01-03 01:14:48.821699717,2.1699438,-0.63250077,0.029028457,8.291042328941097,2.2604326954202447,83.3758316040039,1.1206082105636597,-73.24494934082031,27329050.0,38799.0,0.006193611645632111,0.05460020314199995,0.3730219859835,0.0014456176965468742,0.003488653326678341,0.015229193860877318,27.32905045701773
1613,C,177288862757895.0,1.6628927303843426,8.14687,3.7469256,67,1970-01-03 01:14:48.862757895,2.3257387,-1.419465,-0.072970614,9.05613225358255,2.7256680093896666,83.49073791503906,1.116114854812622,-73.31588745117188,27370108.0,41058.0,0.05709329347512034,-0.14333261578200002,0.21535320494339996,0.0012992168752239271,-0.0018215876990865612,0.012078754294538328,27.370108635019278
