Subject-id_accel,Activity_accel,Timestamp_accel,accel_x,accel_y,accel_z,Segment_accel,DateTime,gyro_x,gyro_y,gyro_z,accel_magnitude,gyro_magnitude,Roll,Pitch,Yaw,Time_Difference,Difference_Microseconds,vx,vy,vz,dx,dy,dz,Time_diff
1621,C,168133817976620.0,0.29573699863192904,5.385158,-1.6184803,106,1970-01-02 22:42:13.817976620,1.051416,-1.6788567,0.87564737,5.6276153832216265,2.1658240327364564,91.2308349609375,-0.6431278586387634,151.20738220214844,15031953.0,39795.0,0.029859621861457613,-0.14467589048325002,-0.013958117142375,7.935491758413624e-05,-0.0027642848005453363,0.0003769552995419597,15.031953587022144
1621,C,168133857870527.0,-0.750529121368071,6.339846,-0.95229375,106,1970-01-02 22:42:13.857870527,1.3560816,-0.3717773,1.135572,6.463350405116034,1.8074012929722747,91.29888153076172,-0.6994816660881042,151.18753051757812,15071847.0,39894.0,-0.009071738472217825,-0.15708254521200005,-0.051279229975350005,0.000414655909965166,-0.006019175516813153,-0.0013012893629572606,15.071847494022222
1621,C,168133897785736.0,-0.20345406136807098,6.4326215,-1.2707225,106,1970-01-02 22:42:13.897785736,1.5893745,-0.700944,0.58696073,6.562659951238652,1.833563931513811,91.3787841796875,-0.7280024290084839,151.1518096923828,15111762.0,39915.0,-0.019039119369456552,-0.13626047986875003,-0.044365846809375005,-0.0005610224453752164,-0.005854393423049069,-0.0019088366199311493,15.11176270301803
1621,C,168133937713079.0,0.273590628631929,6.794146,-2.8221653,106,1970-01-02 22:42:13.937713079,1.0567423,-0.59228706,0.3387541,7.359769612272919,1.257880197125125,91.43202209472656,-0.7442101240158081,151.1217803955078,15151690.0,39928.0,0.0014002064288556617,-0.12723521363000004,-0.08171041203919999,-0.0003521432579461562,-0.005260428025009046,-0.002516986431652951,15.151690046011936
1621,C,168133977645058.0,0.742255638631929,8.000225,-3.2920272,106,1970-01-02 22:42:13.977645058,0.036218993,-0.24181503,0.5954828,8.677099413766205,0.6437282728633836,91.43399810791016,-0.7736721634864807,151.10894775390625,15191622.0,39932.0,0.02028238657219019,-0.09594918861400004,-0.122075967455,0.0004329146518588815,-0.004456099775203706,-0.004068798852981197,15.191622025013203
1621,C,168134017485891.0,0.299328298631929,7.526173,-4.594473,106,1970-01-02 22:42:14.017485891,-0.42397526,-0.77870834,0.737163,8.820699591635007,1.1530615718367443,91.41334533691406,-0.8095528483390808,151.06910705566406,15231462.0,39840.0,0.02074835203029605,-0.08114615184000003,-0.15709908398400002,0.0008173323129615259,-0.003527739181843681,-0.00556116702466488,15.231462858006125
1621,C,168134057453965.0,0.49206153863192903,9.212888,-5.194819,106,1970-01-02 22:42:14.057453965,-0.44421527,-0.6306366,0.87351686,10.584942627446086,1.1653589284272003,91.3916244506836,-0.8524423837661743,151.03651428222656,15271430.0,39968.0,0.015815134507880937,-0.05717300497600003,-0.19562921132799999,0.0007306847149789289,-0.0027641700298109448,-0.007048922253515008,15.271430932014482
1621,C,168134097300058.0,0.482484718631929,12.761694,-6.461352,106,1970-01-02 22:42:14.097300058,0.5901565,-0.72437984,-0.15765914,14.310118268721443,0.9475585741874827,91.42163848876953,-0.8436723351478577,151.00048828125,15311277.0,39847.0,0.019416372356596476,0.04730998447699997,-0.2322317229185,0.0007019349270144158,-0.00019650588891182778,-0.008524487323460141,15.31127702500089
1621,C,168134137611776.0,2.169200038631929,8.832211,-5.249287,106,1970-01-02 22:42:14.137611776,0.33449304,-0.28122982,-1.546764,10.486502894350146,1.607312874695426,91.43856048583984,-0.7660080194473267,150.98837280273438,15351588.0,40311.0,0.053446032125031684,0.04018815222749996,-0.2360337843645,0.0014685781935294565,0.0017635686943475485,-0.009438125432042506,15.351588743011234
1621,C,168134177191464.0,1.617934938631929,17.715895,-2.6048915,106,1970-01-02 22:42:14.177191464,-1.9760655,-0.36751625,0.25885928,17.973101761086085,2.0265515490967485,91.51212310791016,-0.8828334212303162,150.96730041503906,15391168.0,39580.0,0.07494740120005174,0.13750301773999998,-0.15543419251499999,0.0025409060455034004,0.0035165082536568236,-0.007747151262445304,15.391168431000551
1621,C,168134217010527.0,0.744051238631929,5.8238955,0.33159694,106,1970-01-02 22:42:14.217010527,-0.9289106,-2.9316077,0.37816888,5.872064492582336,3.098420615618884,91.34976959228516,-1.0404640436172485,150.82229614257812,15430987.0,39819.0,0.04702596379623478,0.07843925895974994,-0.04526015804232,0.0024284287103935667,0.004299302757953671,-0.003995724172420962,15.43098749400815
1621,C,168134257061933.0,-0.18250478136807097,9.621099,-0.53929394,106,1970-01-02 22:42:14.257061933,-0.78936094,-1.0024139,0.26738137,9.639527347714898,1.3036169366550785,91.35763549804688,-0.989039957523346,150.77102661132812,15471038.0,40051.0,0.01124524857993739,-0.08320606264025006,-0.0041592362735,0.001166910163439036,-9.545762710385505e-05,-0.0009896480808714535,15.471038900024723
1621,C,168134297082401.0,-0.875027611368071,13.668497,-2.6090813,106,1970-01-02 22:42:14.297082401,-2.0463731,0.9406285,0.28336033,13.947382629408352,2.2699598930451543,91.25450134277344,-1.0042778253555298,150.81773376464844,15511059.0,40021.0,-0.02116175194484657,0.07383066075799996,-0.06300056274002,-0.00019843419058351513,-0.0001876064793647656,-0.001343901158160042,15.511059368000133
1621,C,168134336737870.0,0.13951533863192903,11.231799,2.7257986,106,1970-01-02 22:42:14.336737870,-0.9736517,-1.6458336,-0.16937704,11.558028586543289,1.9197537481356852,91.20724487304688,-0.9940446615219116,150.73561096191406,15550714.0,39655.0,-0.014583369587675855,0.10509161893999999,0.0023142122657499983,-0.0007087363971860883,0.0035475815007120944,-0.0012032586140285884,15.550714837008854
1621,C,168134376550267.0,-0.233980131368071,6.527791,-0.7314286,106,1970-01-02 22:42:14.376550267,-0.3536678,-1.7502295,-0.21944448,6.575702409203754,1.7990386586256453,91.32035064697266,-0.8900657296180725,150.6461944580078,15590527.0,39813.0,-0.0018804633966020103,-0.03663612166500003,0.039700926405,-0.0003277372913015273,0.001362709356504787,0.000836374357949285,15.590527234016918
1621,C,168134416594173.0,-0.566774161368071,4.9302597,-1.5993267,106,1970-01-02 22:42:14.416594173,-1.2804478,-0.60293967,-0.22370553,5.222227207781697,1.4328736784298641,91.25679779052734,-0.8782070875167847,150.61631774902344,15630571.0,40044.0,-0.016032702449163036,-0.16301810888460005,-0.0466663826166,-0.0003586574065639078,-0.003997477004064093,-0.00013946236426865514,15.630571140005486
1621,C,168134456355162.0,-0.426114811368071,5.502474,3.0663738,106,1970-01-02 22:42:14.456355162,-1.0215886,-0.7669904,-0.77125144,6.318755851603412,1.492228643688424,91.2062759399414,-0.8388275504112244,150.57879638671875,15670332.0,39761.0,-0.01973912922248087,-0.18224983767715003,0.02916562987155,-0.0007111618995481167,-0.006864099411620872,-0.0003479237149479665,15.670332129026065
1621,C,168134496318703.0,-0.164548271368071,7.16824,0.5410896,106,1970-01-02 22:42:14.496318703,-0.47723848,-0.23009712,-0.30146983,7.1924805145075545,0.6095779768210411,91.04476928710938,-0.7558258771896362,150.5695037841797,15710295.0,39963.0,-0.011802334387692221,-0.138457528209,0.0720825299271,-0.0006302457551266736,-0.0064082142314541065,0.002023090105016725,15.710295670025516
1621,C,168134536318495.0,0.657261478631929,8.162432,2.0189106,106,1970-01-02 22:42:14.536318495,-1.0727214,0.12996227,-0.32490566,8.428841652614377,1.1283550334631156,90.99105072021484,-0.7396966814994812,150.5762939453125,15750295.0,40000.0,0.00985426414527716,-0.08538656000000001,0.05120000399999999,-3.8961404848301234e-05,-0.004476881764180001,0.0024656506785419997,15.750295461999485
1621,C,168134575918131.0,0.16704865863192903,7.9529395,2.5486276,106,1970-01-02 22:42:14.575918131,0.101200126,-0.99921805,-0.48043427,8.351888161343652,1.1133262166762494,90.99674224853516,-0.7148122787475586,150.52676391601562,15789895.0,39600.0,0.016321340717824387,-0.0689956443,0.09043725636,0.0005182769762894107,-0.0030567676451400006,0.002804417755128,15.789895098016132
1621,C,168134615795683.0,-1.024665261368071,7.025785,0.82001406,106,1970-01-02 22:42:14.615795683,1.2420983,-1.7768611,-0.16405073,7.157783430115777,2.1741564335552384,91.05994415283203,-0.7050187587738037,150.4380645751953,15829772.0,39877.0,-0.017099588633654565,-0.09214130155675003,0.06716566173791001,-1.551709606978001e-05,-0.0032128289949648107,0.0031423657824951787,15.829772650002269
1621,C,168134655691047.0,-2.393550161368071,6.3129115,-0.49081135,106,1970-01-02 22:42:14.655691047,0.6860303,-1.9675435,-0.2759035,6.794570459097316,2.101900982021415,91.09542083740234,-0.6893799304962158,150.33995056152344,15869668.0,39896.0,-0.06818656125274056,-0.12490048221800003,0.00656693565908,-0.00170128811793381,-0.004329549502738715,0.0014708178528751567,15.869668014027411
1621,C,168134695638391.0,-3.806128961368071,8.204929,-0.46507367,106,1970-01-02 22:42:14.695638391,-1.1408982,-1.4530207,-0.5219796,9.08662846953089,1.9197345025309853,91.03923797607422,-0.6619317531585693,150.26780700683594,15909615.0,39947.0,-0.12382929095797036,-0.10150851277325003,-0.01909236944697,-0.003835228624130635,-0.004522180061457734,-0.00025017675176242093,15.909615358017618
1621,C,168134735536775.0,-6.597768361368071,13.596671,-2.52289,106,1970-01-02 22:42:14.735536775,-1.4476944,-0.041545313,0.014913702,15.352611079930384,1.4483671866384478,90.96686553955078,-0.6626404523849487,150.26571655273438,15949513.0,39898.0,-0.20754734769126332,0.04391971839999999,-0.059606887252830004,-0.006610632564413563,-0.0011488388589519652,-0.0015699714719043104,15.949513742001727
1621,C,168134775919849.0,-1.8386938613680708,15.295358,0.41180268,106,1970-01-02 22:42:14.775919849,-1.1973573,1.1174624,0.45060685,15.419574382028838,1.6986563079516621,90.8442153930664,-0.4922705292701721,150.3217315673828,15989896.0,40383.0,-0.1703448269703768,0.1876200035535,-0.04262601962178,-0.007630209844680508,0.004675134295824095,-0.002064235739158688,15.989896816026885
1621,C,168134815606568.0,0.7626063386319291,17.018583,2.9107506,106,1970-01-02 22:42:14.815606568,-1.1451592,0.4708469,1.019458,17.279565840038337,1.603864398990217,90.78675079345703,-0.5435716509819031,150.34454345703125,16029582.999999998,39686.99999999814,-0.02135334275741363,0.25228908823348817,0.06593108601167691,-0.0038039626309932313,0.00872933606287469,0.0004624540849078977,16.029583535011625
1621,C,168134855742818.0,0.879922198631929,15.968727,4.4765587,106,1970-01-02 22:42:14.855742818,0.30466563,-2.4074976,-0.07243799,16.604056414973765,2.4277794591981166,90.80311584472656,-0.5382814407348633,150.22422790527344,16069719.0,40136.00000000186,0.032962262685812635,0.2686565370800124,0.14824852303240688,0.00023296780512312208,0.010454336808791815,0.004298156394296873,16.06971978500951
1621,C,168134895397765.0,-0.913334861368071,10.951677,5.0900726,106,1970-01-02 22:42:14.895397765,0.65513766,-2.5065672,-0.34301516,12.116779994911411,2.6133778681346373,90.83702087402344,-0.5193379521369934,150.09915161132812,16109373.999999998,39654.99999999814,-0.0006624895704008236,0.14514531030999317,0.1896823821007411,0.0006404237514457975,0.00820465612912495,0.006700325021527176,16.10937473201193
1621,C,168134935332245.0,0.7733802386319291,8.848969,0.8122329,106,1970-01-02 22:42:14.935332245,1.5659387,0.35260254,0.46871635,8.913908200508162,1.6721804867087358,90.76386260986328,-0.643062949180603,150.11788940429688,16149308.999999998,39935.0,-0.002794543929483913,0.0040063990049999795,0.11785428507125,-6.902831640894848e-05,0.0029781867557471253,0.006140738401756732,16.149309212021763
1621,C,168134975091515.0,3.0652298386319288,7.884106,4.593276,106,1970-01-02 22:42:14.975091515,0.67537767,1.8492991,1.4519554,9.603365470390932,2.4462658567671256,90.79654693603516,-0.716913640499115,150.20938110351562,16189067.999999998,39759.0,0.07630964903096686,-0.05699303553750003,0.10745881417755,0.0014614435318649303,-0.0010533478409478349,0.00447911175651652,16.189068482024595
1621,C,168135014841463.0,7.169490038631929,5.5737014,3.3153708,106,1970-01-02 22:42:15.014841463,0.013848438,-2.231729,0.30466563,9.61513940921912,2.2524713660287308,90.79865264892578,-0.7305921316146851,150.0975799560547,16228818.0,39750.00000000186,0.2034150575606287,-0.12207607792500574,0.15718435515000737,0.005559528543508221,-0.0035589986300674685,0.005259782990385449,16.228818430012325
1621,C,168135054764953.0,1.282746638631929,7.567473,1.1899183,106,1970-01-02 22:42:15.054764953,-0.53476274,-2.6759443,-1.0428939,7.755749722688133,2.9213484508788072,90.77354431152344,-0.6766151189804077,149.96449279785156,16268740.999999998,39922.99999999814,0.16871932243319465,-0.12892784721439404,0.08993232836964582,0.0074283604262463596,-0.0050104148516698956,0.0049328196780773275,16.268741920008324
1621,C,168135094641984.0,-0.11905844136807096,11.018116,-0.14903906,106,1970-01-02 22:42:15.094641984,0.6487461,-0.16724652,-0.9076053,11.020757427718491,1.1280914330431777,90.80610656738281,-0.5895513296127319,149.95677185058594,16308618.0,39877.00000000186,0.02320219712114652,-0.020225833723500997,0.02075357072674097,0.00382662721763441,-0.0029739006673803596,0.002206910799133411,16.308618951006792
1621,C,168135134806463.0,1.890275338631929,8.168418,1.5975311,106,1970-01-02 22:42:15.134806463,1.406149,0.24501082,0.5965481,8.519746358642147,1.546982529872811,90.87629699707031,-0.6195537447929382,149.9685821533203,16348783.000000002,40165.00000000186,0.03557046333930308,-0.008303430945000415,0.029089341393301354,0.0011803019536970338,-0.0005729389577052062,0.0010009702826507965,16.348783430003095
1621,C,168135175014536.0,3.652407838631929,6.6085954,0.060453594,106,1970-01-02 22:42:15.175014536,0.7073356,-1.6064188,0.23329292,7.51704380087773,1.770686476636371,90.91253662109375,-0.6299635767936707,149.88807678222656,16388991.0,40207.99999999814,0.11143010259570743,-0.09696132260639552,0.033332124288174454,0.002955299377557314,-0.0021162426053971655,0.0012549211460603314,16.38899150301586
1621,C,168135214912193.0,0.844009238631929,8.428188,0.29987377,106,1970-01-02 22:42:15.214912193,1.2314457,-1.9462382,-0.1917476,8.468902656161415,2.3110752444032387,90.90184020996094,-0.7339639663696289,149.791748046875,16428889.000000002,39898.00000000186,0.08969902427434089,-0.09103160795340427,0.007188170584436335,0.004012324951930781,-0.003750270971737621,0.0008083393624137503,16.428889160015387
1621,C,168135254424432.0,0.35918333863192903,9.165004,-0.9504981,106,1970-01-02 22:42:15.254424432,1.3784522,-1.784318,0.2396845,9.218675499127915,2.2674588976096324,91.09719848632812,-0.7709415555000305,149.70068359375,16468401.0,39511.99999999814,0.02377027255642366,-0.03964649884799816,-0.012853734263479397,0.002241699428188479,-0.0025816766779683848,-0.00011192887604316945,16.468401399004506
1621,C,168135294426151.0,-0.324361241368071,7.93618,-2.284667,106,1970-01-02 22:42:15.294426151,0.9150622,-1.5947009,0.40373522,8.267932963344718,1.882395260883882,91.14404296875,-0.7895649075508118,149.6205596923828,16508403.000000002,40002.00000000186,0.0006964767673744572,-0.04997881881600236,-0.06470653716510301,0.0004893594532253089,-0.0017925959785977579,-0.0015512829888431488,16.508403118001297
1621,C,168135334593600.0,-0.754718961368071,7.229292,-3.052607,106,1970-01-02 22:42:15.334593600,0.47404268,-1.0865698,0.6306366,7.8906501081035145,1.3427780583526014,91.16851806640625,-0.8199939131736755,149.5655975341797,16548570.000000002,40167.0,-0.021671707251651306,-0.08906084308800002,-0.107191142379,-0.0004212560414309741,-0.0027924030498490317,-0.003452307047123993,16.548570567014394
1621,C,168135374222715.0,0.17842111463192903,7.2969284,-3.5063083,106,1970-01-02 22:42:15.374222715,-0.05965481,-0.14807177,0.5773733,8.096355332979945,0.59903578605953,91.1656494140625,-0.8487050533294678,149.5576171875,16588199.0,39628.99999999814,-0.01141905368415275,-0.10053440588419531,-0.1299616272118439,-0.0006556768825624587,-0.0037567350607593877,-0.004699063553057556,16.588199682009872
1621,C,168135414481725.0,0.913441038631929,6.5523314,-3.489549,106,1970-01-02 22:42:15.414481725,-0.62531024,0.1555286,0.3685815,7.471294515069524,0.7423303602905298,91.13426971435547,-0.867287814617157,149.5650177001953,16628457.999999998,40258.99999999814,0.021978639214123817,-0.11575952485589468,-0.1408231095203435,0.00021255917692554276,-0.00435388867883244,-0.0054507613580503135,16.628458692022832
1621,C,168135454055058.0,0.315489158631929,6.8067155,-3.9492357,106,1970-01-02 22:42:15.454055058,-0.95234644,0.099069595,0.13102753,7.87323116884659,0.9664091990725453,91.08658599853516,-0.8739343285560608,149.56985473632812,16668032.0,39574.00000000186,0.024316841813261103,-0.12348973898970585,-0.14719123285890692,0.0009160486830889086,-0.0047340251837131204,-0.005698939792658496,16.668032025016146
1621,C,168135494241515.0,0.766197638631929,9.474455,-3.1495724,106,1970-01-02 22:42:15.494241515,-0.69029135,1.1845741,-0.18216023,10.008438729377831,1.3830763882263646,91.05116271972656,-0.8659301400184631,149.62924194335938,16708217.999999998,40185.99999999814,0.02173433281742169,-0.06668524114349693,-0.14263635115329337,0.0009253062518542666,-0.0038211858758162667,-0.0058235056455568715,16.70821848200285
1621,C,168135534079590.0,3.7020874386319287,14.326304,-0.56084174,106,1970-01-02 22:42:15.534079590,0.018109497,1.9302592,-0.44847634,14.790018084400419,1.9817566855207096,91.05062103271484,-0.8452802300453186,149.72616577148438,16748055.999999998,39838.0,0.08900377045401878,0.083674918521,-0.07390773925465999,0.0022057922790638227,0.00033841738368248355,-0.004313341736836023,16.748056557000382
1621,C,168135573807663.0,6.678080038631929,18.513165,3.3752258,106,1970-01-02 22:42:15.573807663,0.7882957,0.3270362,-0.40266997,19.94460167184631,0.9436661970679733,91.08979797363281,-0.8254542946815491,149.74288940429688,16787784.0,39728.00000000186,0.20619164676837895,0.26298881221601234,0.05590492496784263,0.005863761767705984,0.006886128347360337,-0.00035760790299335687,16.78778463002527
1621,C,168135613662611.0,1.298308938631929,6.879739,0.34596214,106,1970-01-02 22:42:15.613662611,1.6703347,-5.060006,-0.9938917,6.996968366088129,5.4204704077588115,91.17681884765625,-0.7707682251930237,149.4908905029297,16827639.0,39855.0,0.15894949134442554,0.11543809446,0.07415397267435,0.007276350029742911,0.007541102182786236,0.002591748682764794,16.82763957802672
1621,C,168135653554173.0,-2.209794961368071,5.4432178,-1.3850456,106,1970-01-02 22:42:15.653554173,1.0237192,-4.5263085,-0.094808534,6.061975476677978,4.641600833305263,91.23103332519531,-0.7612725496292114,149.2647247314453,16867531.0,39892.0,-0.018180500209495083,-0.1451479036672,-0.02072555869316,0.002807778297177323,-0.0005925918544468113,0.0010656831452688159,16.867531140014762
1621,C,168135693703079.0,-3.002275961368071,8.264186,-2.404377,106,1970-01-02 22:42:15.693703079,-1.0578076,0.31638354,0.58056915,9.138975318409006,1.2474437866823556,91.17794799804688,-0.7906279563903809,149.27992248535156,16907680.0,40149.0,-0.10462971773846669,-0.11829092241690001,-0.0760707639837,-0.0024653537201963583,-0.005288402714225265,-0.001943137779576626,16.90768004601705
1621,C,168135733365527.0,2.151243238631929,9.882068,4.4436383,106,1970-01-02 22:42:15.733365527,-2.6929886,5.875999,0.77870834,11.033128486734682,6.510448412092405,91.03911590576172,-0.8352412581443787,149.57293701171875,16947342.0,39662.0,-0.016876829924580436,-0.028829236926000014,0.040440590840299995,-0.0024095963467058875,-0.0029175398799290504,-0.0007065819636067655,16.9473424940079
1621,C,168135773338704.0,3.724832238631929,11.320983,5.78918,106,1970-01-02 22:42:15.773338704,0.23116238,-0.17150758,-0.26418558,13.229968814885735,0.3906979864353759,91.05079650878906,-0.8218783140182495,149.56460571289062,16987315.0,39973.0,0.11744218252633411,0.03203937881149998,0.20451822295295,0.0020099494197749496,6.415950079454504e-05,0.0048958693318787916,16.98731567102368
1621,C,168135813544642.0,4.765711738631929,9.036914,-3.4680011,106,1970-01-02 22:42:15.813544642,0.3898868,-2.6450517,-0.64768076,10.758073719624685,2.7509635728888355,91.07213592529297,-0.7870503664016724,149.43295288085938,17027521.0,40206.0,0.17068540557493533,0.01523600339099996,0.0466626594267,0.005792228903599819,0.0009503770084168563,0.005049489278478103,17.027521609008545
1621,C,168135853083912.0,-0.25612650136807097,8.090606,2.7036524,106,1970-01-02 22:42:15.853083912,-0.5134575,-2.790993,-0.42717105,8.53665306599013,2.8698006265790226,91.04833984375,-0.7631134390830994,149.2938232421875,17067060.0,39539.0,0.08915224534808786,-0.04887969336000005,-0.015110791624649995,0.005136860439922707,-0.0006651189288421473,0.0006237646505126274,17.06706087902421
1621,C,168135892987087.0,-1.6770851613680708,9.560047,-0.8655039,106,1970-01-02 22:42:15.892987087,-0.05006743,-1.5797871,-0.1736381,9.756960891000848,1.590089374420452,91.04688262939453,-0.7529876828193665,149.21499633789062,17106964.0,39904.0,-0.0385714390949115,-0.038893371344000026,0.036674738872000005,0.0010091882463633746,-0.0017512481869742097,0.00043024387547912737,17.106964054022683
1621,C,168135933238599.0,-0.304609061368071,9.208698,-0.46627077,106,1970-01-02 22:42:15.933238599,-0.38029942,-0.6540724,0.013848438,9.228129317250577,0.7567232866306787,91.07452392578125,-0.6760284900665283,149.1816864013672,17147215.0,40251.0,-0.03988258707967622,-0.01672942250250001,-0.026802631121085,-0.0015789265037766652,-0.0011194365375577365,0.00019868110454103995,17.147215566015802
1621,C,168135972831776.0,0.866155538631929,9.151836,-0.6805518,106,1970-01-02 22:42:15.972831776,-0.73822826,-0.8831042,-0.21837921,9.211516216811512,1.171556004329495,91.1173095703125,-0.7711421847343445,149.1367950439453,17186808.0,39593.0,0.011116654837153966,-0.02453708866900004,-0.022703073007005005,-0.0005694647776390918,-0.0008169324884066009,-0.000980039671771734,17.186808743019355
1621,C,168136012689121.0,0.618355678631929,9.679757,0.09756372,106,1970-01-02 22:42:16.012689121,-0.25566345,-1.478587,0.07563378,9.695728991388947,1.5024326224200508,91.06326293945312,-0.8351798057556152,149.0634002685547,17226666.0,39858.0,0.029584824048851422,-0.01531358310300003,-0.01161836944632,0.0008111397727192013,-0.0007941840377441894,-0.000683992026652314,17.22666608801228
1621,C,168136052611464.0,-1.1581419613680708,9.901819,-1.1599907,106,1970-01-02 22:42:16.052611464,0.098004326,-2.461826,0.2034655,10.04497916154252,2.4721630835931845,91.20893859863281,-0.6470785140991211,148.93833923339844,17266588.0,39922.0,-0.010774673989696127,-0.00036776146400002653,-0.02120710494778,0.00037546940533079884,-0.00031301531890188817,-0.0006552292943806301,17.26658843102632
1621,C,168136092467922.0,-2.442032561368071,9.583989,-2.1033063,106,1970-01-02 22:42:16.092467922,0.19387813,-1.8237327,0.054328486,10.128695730684868,1.834813689379017,91.21966552734375,-0.6478589177131653,148.8470916748047,17306444.0,39856.0,-0.07174427788908583,-0.0022756181760000193,-0.065030982616,-0.001644437673040367,-5.267726946592092e-05,-0.0017185526089710079,17.306444889021805
1621,C,168136132409380.0,-3.293171461368071,9.932944,-0.9044097,106,1970-01-02 22:42:16.132409380,-0.19600865,-1.3177321,-0.24074976,10.526007969883567,1.353808599908159,91.21060943603516,-0.6344265341758728,148.78147888183594,17346386.0,39942.0,-0.11453775953806347,-0.0016589310569999956,-0.06006709623599999,-0.0037202385694575985,-7.85768827322433e-05,-0.002498333732753292,17.346386347024236
1621,C,168136172545005.0,-0.465619161368071,10.771513,-3.354875,106,1970-01-02 22:42:16.172545005,-0.17470337,1.0940266,0.16085494,11.294613652175777,1.1195042566776245,91.20126342773438,-0.6436170935630798,148.83599853515625,17386521.0,40135.0,-0.07542953082175753,0.0221636908475,-0.08547319571725,-0.003812168599295708,0.0004114792670958588,-0.002920629808771844,17.386521972017363
1621,C,168136212415682.0,3.028119838631929,12.416928,4.7285485,106,1970-01-02 22:42:16.212415682,-0.27164245,1.3528858,0.34940675,13.611969373125444,1.423437629623864,91.18690490722656,-0.6624935865402222,148.90325927734375,17426392.0,39871.0,0.051084732251593636,0.07153736555549998,0.027384868059249994,-0.0004853257318955023,0.0018679774099220061,-0.001158019856026059,17.426392649009358
1621,C,168136252393963.0,2.4062259386319287,10.279505,1.7932571,106,1970-01-02 22:42:16.252393963,-0.72651035,-1.4668691,-0.6114618,10.692930345819738,1.7474002913045348,91.15140533447266,-0.6304305791854858,148.83056640625,17466370.0,39978.0,0.10862713774172725,0.061894599236999984,0.1303643721384,0.003192480569296491,0.002667171544237282,0.003153249562310826,17.466370930022094
1621,C,168136292474745.0,2.694128538631929,9.333796,1.6112977,106,1970-01-02 22:42:16.292474745,-0.23542345,-0.73822826,0.09374327,9.828453570425184,0.7805081455967151,91.1400375366211,-0.634375274181366,148.79356384277344,17506451.0,40081.0,0.10221365390160635,0.00026655869049996896,0.06822898046939999,0.004225354884928227,0.0012457406854460627,0.003979910082936616,17.506451712019043
1621,C,168136332301620.0,3.5919542386319288,9.36911,5.3528366,106,1970-01-02 22:42:16.332301620,0.18109496,-0.4133226,0.29294774,11.350437866659258,0.5380049577645816,91.14933013916016,-0.6486086249351501,148.77259826660156,17546278.0,39827.0,0.12517790938504383,-0.017864281369000055,0.13868028838305,0.004528161895508708,-0.0003504322505583115,0.004120287725293263,17.546278587018605
1621,C,168136371914015.0,2.2751430386319287,8.291121,2.4881742,106,1970-01-02 22:42:16.371914015,0.43782368,-2.9337382,0.30040458,8.93271216298318,2.981401065370602,91.17289733886719,-0.6606543660163879,148.62562561035156,17585890.0,39612.0,0.11620372867348797,-0.03841906481400004,0.1552990599048,0.004780804723387281,-0.0011147479545004998,0.005822554972189157,17.585890982009005
1621,C,168136411772922.0,0.617158578631929,8.191761,1.4921862,106,1970-01-02 22:42:16.411772922,0.1470065,-3.0519826,0.03089267,8.344471495868495,3.0556771849795816,91.18199920654297,-0.6590611338615417,148.47303771972656,17625749.0,39859.0,0.05764212508126005,-0.062122603181000026,0.0793265925918,0.0034646609424052502,-0.0020037451723063536,0.00467597194143099,17.62574988900451
1621,C,168136451886932.0,-1.0085043613680709,11.860276,-1.977012,106,1970-01-02 22:42:16.451886932,-0.5294364,-1.0354371,0.40586576,12.072256066297838,1.2317304513738985,91.1561508178711,-0.6782928705215454,148.4208526611328,17665863.0,40114.0,-0.007849222364338796,0.009066506108999978,-0.0097241510706,0.0009986962497932894,-0.001064146138973105,0.0013960161695907084,17.665863899019314
1621,C,168136491898651.0,1.583817438631929,11.865664,1.5903485,106,1970-01-02 22:42:16.491898651,0.26738137,0.51452273,0.63702816,12.067011612287502,0.8614123944677807,91.16921997070312,-0.7106583714485168,148.4459228515625,17705875.0,40012.0,0.011509713423740747,0.08254355564,-0.007735589981000001,7.323178413439541e-05,0.0018327508953504936,-0.00034929957947830965,17.70587561800494
1621,C,168136531801880.0,3.1849398386319288,8.254609,0.5153519,106,1970-01-02 22:42:16.531801880,0.7339672,-1.8578212,0.47191215,8.83757653254417,2.052537098120982,91.20708465576172,-0.7323237657546997,148.35255432128906,17745778.0,39903.0,0.09514386081732987,0.010380226759499992,0.0420118815306,0.00212789878647072,0.0018539688445436244,0.0006838634308518445,17.74577884702012
1621,C,168136571368026.0,2.346370638631929,7.4848733,-1.5771804,106,1970-01-02 22:42:16.571368026,0.3536678,-1.8098843,0.19707392,7.98057547645325,1.8546159230653383,91.2259292602539,-0.7402525544166565,148.26187133789062,17785344.0,39566.0,0.1094259151717109,-0.07637262165910001,-0.0210061532155,0.004047003878391193,-0.001305527548298787,0.00041555632325762334,17.78534499302623
1621,C,168136611238234.0,1.7107101386319292,8.717288,-1.1282675,106,1970-01-02 22:42:16.611238234,-0.15765914,-0.79255676,0.24074976,8.94168830788067,0.8431862600797613,91.21857452392578,-0.7514413595199585,148.2220001220703,17825215.0,39871.0,0.08087993383514364,-0.06773761340385002,-0.05393445661045,0.0037938422528761484,-0.0028729095910974404,-0.001493978527185226,17.825215201009996
1621,C,168136651173599.0,2.2290549386319287,8.846576,-1.06123,106,1970-01-02 22:42:16.651173599,-0.28016454,-0.7339672,0.24181503,9.167698163232165,0.8219942389598315,91.2050552368164,-0.7627514004707336,148.18504333496094,17865150.0,39935.0,0.07866725918026608,-0.040656545580000016,-0.04371879133124999,0.003185758576535193,-0.0021643603695100256,-0.0019498912282758945,17.865150566009106
1621,C,168136691074432.0,1.819646338631929,7.9876556,-1.857302,106,1970-01-02 22:42:16.691074432,-0.3110572,-1.284709,0.17576863,8.385170769047573,1.333464813050917,91.19035339355469,-0.7701953053474426,148.12062072753906,17905051.0,39901.0,0.08077361483205259,-0.05517846246420001,-0.058226172666,0.0031809251569827634,-0.0019119563279858126,-0.002033853004227136,17.90505139902234
1621,C,168136730960057.0,0.890097538631929,7.958925,-2.815581,106,1970-01-02 22:42:16.730960057,-0.28016454,-0.9416938,-0.058589544,8.48194702204784,0.9842317395298628,91.1769790649414,-0.7662931680679321,148.07362365722656,17944937.0,39886.0,0.05404042214427312,-0.07286014309420002,-0.09319130566899998,0.0026885963394188634,-0.0025534739106511713,-0.003019718770434904,17.944937024003593
1621,C,168136770883182.0,1.616737838631929,8.383896,-1.9009962,106,1970-01-02 22:42:16.770883182,-0.12996227,-0.4111921,-0.3089267,8.734631487815847,0.5304760510134768,91.1707534790039,-0.7504286766052246,148.05337524414062,17984860.0,39923.0,0.0500401943832525,-0.06501817860850004,-0.0941499557778,0.0020776052268142026,-0.0027522581186684475,-0.0037396125903702976,17.984860149008455
1621,C,168136811077818.0,4.283878338631929,12.760496,-0.08259996,106,1970-01-02 22:42:16.811077818,-0.3898868,-0.20879184,-0.44421527,13.43830733320762,0.6268436450710803,91.1513900756836,-0.7280118465423584,148.0433807373047,18025054.0,40194.0,0.11858468331447176,0.031037646023999967,-0.03986433202752,0.003388854167091165,-0.0006829067633506978,-0.002693285142023516,18.025054785015527
1621,C,168136850971776.0,4.405384038631929,15.662868,1.4197617,106,1970-01-02 22:42:16.850971776,0.8788432,-0.0777643,-0.2130529,16.31351582887683,0.9076365983911954,91.19537353515625,-0.7172842025756836,148.0397186279297,18064948.0,39894.0,0.17332471663928217,0.17599964170799995,0.02667236522778,0.00582271680087753,0.004129772778390202,-0.0002631401617544138,18.064948743005516
1621,C,168136890692349.0,0.978683038631929,6.445191,0.557849,106,1970-01-02 22:42:16.890692349,1.6650083,-4.764928,-0.44315,6.5326983972385415,5.066870178596734,91.13013458251953,-0.8717159628868103,147.80393981933594,18104669.0,39721.0,0.10693026418799886,0.049811305769499985,0.03927633730735,0.005566004046720216,0.004484718322376888,0.0013097742066989493,18.1046693160024
1621,C,168136930806255.0,-2.9950933613680712,7.3406224,-2.2583308,106,1970-01-02 22:42:16.930806255,0.7414241,-4.0831585,-0.57311225,8.269448229770566,4.189313867840785,91.17024993896484,-0.8389683961868286,147.6003875732422,18144783.0,40114.0,-0.040443141843118806,-0.11661514063620002,-0.0341065634626,0.0013335322128712592,-0.0013398845159214023,0.00010369015400415077,18.144783222000115
1621,C,168136970375630.0,-6.3499684613680705,11.6825075,-1.4670471,106,1970-01-02 22:42:16.970375630,-1.2229236,0.48149952,-0.5613944,13.411113358864911,1.4291772428738678,91.10873413085938,-0.8113835453987122,147.62501525878906,18184352.0,39569.0,-0.1848873756319232,-0.011413086493450015,-0.07370473906255,-0.0044580516229849685,-0.002532974459646561,-0.0021329927148088304,18.184352597018005
1621,C,168137010233496.0,-0.31777720136807097,9.380483,1.9686323,106,1970-01-02 22:42:17.010233496,-1.2112057,4.785168,0.6956177,9.592699048079934,4.98485065177381,91.04472351074219,-0.8506527543067932,147.8636016845703,18224210.0,39858.0,-0.13288150331266857,0.029155937674499966,0.009996091450799997,-0.006332815988486769,0.0003535972811871444,-0.0012696496382545658,18.224210463027703
1621,C,168137050195057.0,4.054035138631929,10.9025955,3.3135753,106,1970-01-02 22:42:17.050195057,-0.77444726,1.1121361,0.531567,12.07118353040289,1.4557399283298227,91.00516510009766,-0.8782224655151367,147.91871643066406,18264172.0,39962.0,0.07465416984446914,0.013648591508499975,0.10554379005559998,-0.0011634403500280928,0.0008552772976055218,0.0023086023723793776,18.264172024006257
1621,C,168137090518129.0,2.382882338631929,9.348759,2.3600843,106,1970-01-02 22:42:17.090518129,0.3387541,-1.6948358,-0.66579026,9.915420463626722,1.8521607380406586,91.02336120605469,-0.8434375524520874,147.83457946777344,18304495.0,40323.0,0.12977791171785527,0.013132283751749964,0.1143894880254,0.004121657412418803,0.0005399426165595291,0.004434184786030081,18.30449509600294
1621,C,168137130004484.0,0.323868858631929,8.554482,-0.5662287,106,1970-01-02 22:42:17.130004484,-0.14594123,-2.247708,-0.29827404,8.576938894200506,2.272104200694993,91.0867691040039,-0.8476846814155579,147.72145080566406,18343981.0,39486.0,0.053439388887580354,-0.03349911293700004,0.035416091110800005,0.0036172591658531154,-0.00040210230860439225,0.002957611548885997,18.343981451005675
1621,C,168137169899433.0,-1.384394061368071,8.948329,0.47524905,106,1970-01-02 22:42:17.169899433,-0.6562029,-0.37710363,-0.31851408,9.078309314435046,0.8211337362974641,91.05423736572266,-0.8314099907875061,147.702880859375,18383876.0,39895.0,-0.021154826481579195,-0.04183367757750004,-0.0018148165683750004,0.0006439963085937081,-0.0015027008387879903,0.0006702614239350227,18.383876400010195
1621,C,168137209806152.0,0.288554388631929,9.610326,0.062249243,106,1970-01-02 22:42:17.209806152,-0.3270362,0.11824436,0.06711166,9.61299688730963,0.3541728104897455,91.00215911865234,-0.8465592861175537,147.70925903320312,18423783.0,39907.0,-0.021865836909940605,-0.02077847745750003,0.010724972189375499,-0.0008584128069826903,-0.001249331635490874,0.00017778879018363344,18.423783119011205
1621,C,168137250024433.0,1.4641073386319292,9.213487,0.33997664,106,1970-01-02 22:42:17.250024433,-0.39414784,-0.3888215,-0.30999196,9.324460353371384,0.6345310819050216,90.90577697753906,-1.023870825767517,147.69137573242188,18464001.0,40218.0,0.035244274673548924,-0.015608344383000003,0.008088360281246999,0.00026902700498839964,-0.000731702600390615,0.00037831730265174777,18.464001400017878
1621,C,168137289590006.0,1.0451221386319292,9.779716,0.6194997,106,1970-01-02 22:42:17.289590006,-0.45806372,-1.2964269,-0.17044231,9.847647354949512,1.3854947346208084,90.771484375,-1.1307258605957031,147.62881469726562,18503566.0,39565.0,0.04963883213397228,-0.012003961652500006,0.01898084069605,0.0016792000604197884,-0.000546240444147279,0.0005354964683333779,18.503566973027773
1621,C,168137329836360.0,-0.03585994136807097,9.755175,-0.13826515,106,1970-01-02 22:42:17.329836360,-0.17576863,-1.7204021,-0.02130529,9.75673653051223,1.7294889165179612,90.765380859375,-1.084603190422058,147.54278564453125,18543813.0,40247.0,0.02030988782663925,-0.0013102209615000284,0.009684123466925,0.001407613066127366,-0.00026792795383282967,0.0005768394063336274,18.54381332700723
1621,C,168137369809953.0,-0.17592073136807096,9.516952,-1.4664485,106,1970-01-02 22:42:17.369809953,-0.10226539,-1.019458,0.33768883,9.632427497761295,1.078789400051104,90.96038818359375,-1.037205457687378,147.48789978027344,18583786.0,39973.0,-0.004232754415640901,-0.006553033714500042,-0.032072609365725,0.0003213256269189185,-0.0001571589395818754,-0.0004474674734163662,18.58378692000406
1621,C,168137409345265.0,-0.181906231368071,9.759365,-1.5616181,106,1970-01-02 22:42:17.409345265,-0.2396845,-0.71479243,0.27164245,9.886741481783277,0.8013529173638525,91.1515884399414,-0.9878735542297363,147.44833374023438,18623322.0,39536.0,-0.007073523399368054,-0.006398565544000017,-0.0598588205488,-0.00022350249984709705,-0.0002560272141420292,-0.00181730050655033,18.623322232015198
1621,C,168137449233599.0,-0.902560961368071,10.150817,-1.7651252,106,1970-01-02 22:42:17.449233599,-0.12463594,-1.5456988,-0.0127831735,10.349007424686341,1.5507682958410824,91.14668273925781,-0.9856841564178467,147.37107849121094,18663210.0,39888.0,-0.021628613691929616,0.006186269807999986,-0.06634856837519999,-0.0005724354221488408,-4.234026158784623e-06,-0.0025170801647002557,18.663210566010093
1621,C,168137489444277.0,-1.815350261368071,10.620679,-3.210026,106,1970-01-02 22:42:17.489444277,0.32490566,-0.3920173,-0.12783173,11.254341703465393,0.5249592389834838,91.16326904296875,-0.9789007306098938,147.3516082763672,18703421.0,40211.0,-0.0546449640887215,0.023553512827999987,-0.1000279024516,-0.0015335184180688807,0.0005979331997880975,-0.003345082134208227,18.70342124401941
1621,C,168137529358339.0,-0.041845441368070974,10.817602,-0.7092823,106,1970-01-02 22:42:17.529358339,0.73290193,0.71798825,0.034088463,10.841413968908874,1.0265546207803506,91.26399993896484,-0.9420535564422607,147.3863983154297,18743335.0,39914.0,-0.037064054639505184,0.036686573917000004,-0.07821763574309999,-0.0018302368867592197,0.0012022114111699647,-0.0035572462057516276,18.743335306004155
1621,C,168137569258339.0,0.22211529863192903,10.9426985,4.1078515,106,1970-01-02 22:42:17.569258339,-0.37390783,-0.30146983,-0.2876214,11.689312487917702,0.5598367560936829,91.24553680419922,-0.9273444414138794,147.37164306640625,18783235.0,39900.0,0.0035963836524139678,0.043097994975,0.06780145554,-0.0006676800361924698,0.0015917021493953999,-0.00020780279505184482,18.783235306007555
1621,C,168137609242871.0,1.1977524386319292,11.281479,2.0805612,106,1970-01-02 22:42:17.609242871,-1.7310548,0.59228706,-0.47404268,11.526959313754109,1.8899923662565585,91.15850067138672,-0.9042708873748779,147.40174865722656,18823219.0,39984.0,0.02838599580337905,0.052462556579999965,0.1237187466984,0.0006393917300802141,0.001910446546687559,0.0038288718831500927,18.823219837999204
1621,C,168137648742557.0,3.264547038631929,10.890026,6.1477113,106,1970-01-02 22:42:17.648742557,0.020240024,2.0751352,0.47404268,12.906889406322838,2.1286879102658856,91.15787506103516,-0.9300649762153625,147.50503540039062,18862719.0,39500.0,0.08813041467596121,0.05078722374999997,0.162508381875,0.0023011991069669703,0.0020391831615174986,0.00565298578932465,18.86271952401148
1621,C,168137688652609.0,4.47541473863193,9.54209,4.478953,106,1970-01-02 22:42:17.688652609,1.603223,-0.43036684,0.6199839,11.424279920535836,1.7719818399068867,91.2384033203125,-0.9606069326400757,147.4828643798828,18902629.0,39910.0,0.1544509372653003,0.016604874779999983,0.2120550861065,0.004840710877987874,0.0013448093261661492,0.007474414003570832,18.90262957601226
1621,C,168137728893129.0,1.7220826386319292,7.4711065,2.2816741,106,1970-01-02 22:42:17.728893129,1.1110709,-3.2735577,0.5305017,7.984396844761251,3.49744058044722,91.29674530029297,-0.9835067391395569,147.31861877441406,18942870.0,40241.0,0.12469674597923747,-0.052047779821750025,0.13602719756554998,0.005616590960721722,-0.0007131289708925318,0.007003589588623481,18.942870096012484
1621,C,168137768502036.0,-2.089486361368071,10.147824,-1.4760253,106,1970-01-02 22:42:17.768502036,0.62744075,-3.6996634,-0.4676511,10.479661737745863,3.7815193665233733,91.33123779296875,-0.9558882117271423,147.13418579101562,18982479.0,39609.0,-0.007276247026927919,-0.03923409091275002,0.0159554716596,0.002325454271501014,-0.001807791808961406,0.0030099407726694822,18.98247900302522
1621,C,168137808497765.0,-4.164061961368071,12.331934,-0.99778354,106,1970-01-02 22:42:17.808497765,1.0855045,1.6841831,0.06178534,13.07689660885131,2.0046471415400706,91.38410186767578,-0.9609740376472473,147.2183074951172,19022474.0,39995.0,-0.12505533258391602,0.05758796060499998,-0.049469992277900006,-0.002646300763267852,0.0003670315091707686,-0.0006702066260644544,19.022474732017145
1621,C,168137848399797.0,1.733455138631929,9.934141,0.24480712,106,1970-01-02 22:42:17.848399797,0.37923414,2.347843,0.78936094,10.075311524512149,2.5058483551859685,91.33192443847656,-1.2159075736999512,147.3360137939453,19062376.0,39902.0,-0.04849303672040876,0.053190862324999984,-0.01502263255542,-0.0034624635159905834,0.0022101482962764295,-0.0012866923580495675,19.062376764020883
1621,C,168137888249431.0,6.077734038631929,9.825205,-0.78888947,106,1970-01-02 22:42:17.888249431,1.6053536,-0.36645097,0.9086706,11.543035719368016,1.880725592358242,91.41261291503906,-1.2608897686004639,147.3166046142578,19102226.0,39850.0,0.15563794435698236,0.003174969049999986,-0.01084084082375,0.002134862284658729,0.0011230891901468742,-0.0005153297070799622,19.102226398012135
1621,C,168137928396151.0,1.8382014386319292,7.53156,-1.9734207,106,1970-01-02 22:42:17.928396151,2.202967,-1.965413,0.3110572,7.9839157136185275,2.96861389293553,91.52494049072266,-1.273919701576233,147.2179412841797,19142373.0,40147.0,0.15890053080285607,-0.04502957777250002,-0.05544923319749501,0.006313888081121018,-0.0008401684881911046,-0.0013306738008654617,19.142373118025716
1621,C,168137968307035.0,-0.273484461368071,7.5405383,-4.055179,106,1970-01-02 22:42:17.968307035,1.73212,-1.3241237,0.42290998,8.56870148596216,2.2208998443165533,91.61304473876953,-1.2932438850402832,147.15115356445312,19182284.0,39911.0,0.031224709639788926,-0.09035654237435005,-0.12030372131335,0.0037940442356532026,-0.002701697720590467,-0.0035072380837411674,19.182284002017695
1621,C,168138007908598.0,0.16944285863192904,9.336189,-4.220379,106,1970-01-02 22:42:18.007908598,0.86179894,0.6295713,0.43888897,10.246256762687974,1.153984819118724,91.65543365478516,-1.3160779476165771,147.18202209472656,19221885.0,39601.0,-0.0020600757549769783,-0.05392216109635005,-0.163860186179,0.0005774743332362189,-0.0028567904680715972,-0.005626587450302275,19.221885564998956
1621,C,168138047710682.0,2.2643692386319287,7.7440453,-3.163339,106,1970-01-02 22:42:18.047710682,0.45167214,0.77231675,0.13528858,8.648075784174011,0.9048667770789015,91.67713165283203,-1.3239620923995972,147.22042846679688,19261687.0,39802.0,0.048435294547648035,-0.05014585719570004,-0.146943371918,0.0009229132291929467,-0.0020710576320300887,-0.006185301609688397,19.26168764900649
1621,C,168138087712764.0,2.294895438631929,6.975507,-4.1539397,106,1970-01-02 22:42:18.087712764,0.37923414,0.08841695,-0.32384038,8.417840470514077,0.5064668614108789,91.69597625732422,-1.307908535003662,147.22532653808594,19301689.0,40002.0,0.09118985280995444,-0.09761383444770003,-0.1463528912787,0.002792642572299407,-0.0029553415925596452,-0.005866218560197197,19.301689731015358
1621,C,168138127556880.0,1.316864038631929,6.9102645,-4.087501,106,1970-01-02 22:42:18.127556880,0.24181503,0.05006743,-0.21198763,8.124800887534738,0.3254535474591154,91.70799255371094,-1.2973891496658325,147.2281494140625,19341533.0,39844.0,0.07195347230605058,-0.11383886017700001,-0.16418598162539996,0.003250141322961052,-0.004212560582313274,-0.006186555425995479,19.341533847007668
1621,C,168138167799327.0,1.4006611386319292,6.7965403,-4.3939586,106,1970-01-02 22:42:18.167799327,-0.010652645,0.22583607,0.0010652645,8.201748388878732,0.22608968164645615,91.70720672607422,-1.297778606414795,147.2394256591797,19381776.0,40243.0,0.05468068285431472,-0.11857992721680002,-0.17065968934140002,0.0025480691530592905,-0.004676614630544348,-0.006737597168358466,19.38177629400161
1621,C,168138207752452.0,1.495830638631929,7.0622964,-3.9935284,106,1970-01-02 22:42:18.207752452,-0.31851408,0.25885928,-0.040480047,8.23743576940916,0.4124293638982159,91.69098663330078,-1.2961405515670776,147.25244140625,19421729.0,39953.0,0.05786176798851147,-0.11468834866245003,-0.1675526340555,0.0022482042692617173,-0.004659883713101839,-0.006756298478338173,19.421729419002077
1621,C,168138247375473.0,1.503013238631929,8.03554,-3.719991,106,1970-01-02 22:42:18.247375473,-0.6498113,0.55074173,-0.18109496,8.969939174719883,0.8708424445951658,91.65786743164062,-1.287894368171692,147.2802276611328,19461352.0,39623.0,0.059411595474412916,-0.08919461416140004,-0.15281638959309998,0.0023233612402457264,-0.004039227317984706,-0.006346990912014239,19.461352440004703
1621,C,168138287214953.0,2.924570538631929,15.810111,-5.2582655,106,1970-01-02 22:42:18.287214953,0.22796659,0.73822826,-0.50600064,16.904249331787657,0.9235726163649858,91.66842651367188,-1.263678789138794,147.31787109375,19501191.0,39839.0,0.08819525505120741,0.08457124509449994,-0.17884238035175,0.0029402546590450943,-9.209520012811652e-05,-0.006606476867916439,19.501191920018755
1621,C,168138327130265.0,2.1781780386319287,8.375516,-5.501277,106,1970-01-02 22:42:18.327130265,0.06924219,-0.44315,-0.9768475,10.23986602876234,1.0748988052985482,91.67232513427734,-1.2142099142074585,147.29713439941406,19541107.0,39916.0,0.10184065610503208,0.09151994366599994,-0.214738949215,0.0037927367148562277,0.0035144279452820567,-0.007855096175493197,19.54110723201302
1621,C,168138367054744.0,1.204935038631929,11.6855,-5.2965727,106,1970-01-02 22:42:18.367054744,-0.25033715,0.09267801,-0.20026971,12.879872766622903,0.3337152363185815,91.65971374511719,-1.204336404800415,147.30206298828125,19581031.0,39924.0,0.06753370324834113,0.009202801391999945,-0.21554667571140002,0.003381050961412036,0.0020106274368477937,-0.008589361644780797,19.581031711015385
1621,C,168138406925577.0,2.673777838631929,12.529456,-5.0493712,106,1970-01-02 22:42:18.406925577,0.386691,-0.11504856,0.35153726,13.75716267677689,0.5351117133901866,91.67918395996094,-1.2217384576797485,147.29579162597656,19620902.0,39871.0,0.07732408056469364,0.09200145533799994,-0.20625156461844998,0.0028878123492047545,0.0020175574600409126,-0.008408758820095725,19.62090254400391
1621,C,168138446862920.0,0.899075838631929,13.069348,-2.695871,106,1970-01-02 22:42:18.446862920,-1.6628778,-0.039414786,-0.37071204,13.37018376394369,1.704154781611467,91.5960693359375,-1.2031545639038086,147.2943572998047,19660839.0,39937.0,0.07134452865444335,0.11978711767399997,-0.1546608688707,0.002968689123192337,0.00422910012019012,-0.007206879928128091,19.660839887015754
1621,C,168138486730161.0,1.1426858386319292,9.416395,-0.51116204,106,1970-01-02 22:42:18.486730161,-1.4370418,0.7339672,-0.29614353,9.490994340656641,1.6405785491660985,91.56094360351562,-1.3212429285049438,147.33070373535156,19700707.0,39868.0,0.04070047727457775,0.05752440096199996,-0.06392899661936,0.0022335051481891066,0.0035345278124900223,-0.004357370378678856,19.700707128009526
1621,C,168138526628597.0,2.443934438631929,9.24521,0.05686229,106,1970-01-02 22:42:18.526628597,-0.9598033,0.74248934,0.08628642,9.54512798333421,1.21653530198714,91.51210021972656,-1.3265513181686401,147.3677215576172,19740605.0,39898.0,0.0715494879111367,-0.018720041855000036,-0.009062825712750001,0.0022392745554898176,0.0007741081598255416,-0.0014561138637032623,19.74060556400218
1621,C,168138566548338.0,2.148250538631929,11.211448,1.5526398,106,1970-01-02 22:42:18.566548338,-1.4413028,-0.47510794,0.010652645,11.507543068676314,1.5176280159460618,91.44058990478516,-1.3264728784561157,147.34396362304688,19780525.0,39920.0,0.0916600121461866,0.017098893679999987,0.032125661716399995,0.0032576616211441732,-3.235811757300097e-05,0.00046033420663285385,19.780525305017363
1621,C,168138606809587.0,0.5369528086319291,10.580576,-1.6711528,106,1970-01-02 22:42:18.606809587,-0.9321064,-0.4463458,-0.28016454,10.721881765981205,1.0707656529661433,91.58219146728516,-1.3413103818893433,147.31764221191406,19820786.0,40261.0,0.05405448598209509,0.044126539132,-0.0023857259465000016,0.0029333057045713745,0.0012324985752219658,0.0005986797770159718,19.820786554017104
1621,C,168138646359952.0,1.288732138631929,6.793547,-0.16998832,106,1970-01-02 22:42:18.646359952,-0.9033443,-0.024501082,-0.38242993,6.903971532115079,0.9812664667262739,91.53337097167969,-1.5418022871017456,147.31710815429688,19860336.0,39550.0,0.036102919832142796,-0.04401671767500001,-0.036408565648000005,0.0017828626999765544,2.1717193121747917e-06,-0.0007671571162812377,19.86033691902412
1621,C,168138686253025.0,1.370733638631929,4.8973393,-0.030526072,106,1970-01-02 22:42:18.686253025,-0.29933932,-0.46339005,-0.45486793,5.067050248720531,0.7150099304761786,91.51900482177734,-1.5184518098831177,147.29454040527344,19900229.0,39893.0,0.05304703412619354,-0.15775913641705003,-0.003999560320028,0.0017782295566299555,-0.004024722073647076,-0.0008060006846212707,19.900229992024833
1621,C,168138726591046.0,0.6913788386319291,4.9003325,-1.258153,106,1970-01-02 22:42:18.726591046,-0.5273059,-0.85753787,-0.30786142,5.097202379687851,1.0527114346217408,91.49375915527344,-1.501939296722412,147.25205993652344,19940568.0,40339.0,0.04159177761017339,-0.19770805862990004,-0.025992012542704,0.0019088175133166528,-0.007169595590499459,-0.0006049150288548731,19.940568013000302
1621,C,168138766477035.0,-0.11427004136807097,7.707534,-0.2124854,106,1970-01-02 22:42:18.766477035,-0.8426242,-0.60720074,-0.44101948,7.712680317390673,1.1283645079590452,91.45452117919922,-1.4072424173355103,147.22219848632812,19980454.0,39886.0,0.011509280743833122,-0.13944411839050003,-0.0293289416112,0.0010589944067539519,-0.006723825866317838,-0.0011032657886913076,19.980454002012266
1621,C,168138805909848.0,-1.044417361368071,10.3214035,0.830788,106,1970-01-02 22:42:18.805909848,-0.20133498,0.14061491,-0.3930826,10.41465436693108,0.4634892204881021,91.29399108886719,-1.1996549367904663,147.23313903808594,20019886.0,39432.0,-0.022844680832345778,-0.03097506825,0.012190454061600001,-0.00022348874814511553,-0.003359984683804099,-0.0003379024205279136,20.019886815018253
1621,C,168138845971566.0,0.29453989863192903,10.614694,-0.09935937,106,1970-01-02 22:42:18.845971566,0.041545313,0.5571333,-0.15020229,10.617519170669134,0.5785190186349988,91.27654266357422,-1.1929855346679688,147.2615509033203,20059948.0,40062.0,-0.01502079545606766,0.026763369022499987,0.014651246887529999,-0.0007584833555332097,-8.43645472260528e-05,0.000537666111712023,20.059948533016723
1621,C,168138885711984.0,0.939178698631929,9.695918,0.35673606,106,1970-01-02 22:42:18.885711984,0.01917476,0.1587244,-0.34408042,9.741271627855344,0.3794106508834379,91.1930923461914,-1.2739830017089844,147.2716827392578,20099688.0,39740.0,0.024513988527632858,0.014119860439999986,0.0051140748303,0.00018862974633200049,0.0008123497694198745,0.0003927369425332821,20.099688951013377
1621,C,168138925723286.0,0.031177711631929027,9.39365,-0.6099229,106,1970-01-02 22:42:18.925723286,0.14807177,-0.5592638,-0.32597092,9.413512992411288,0.6640469017675026,91.2641372680664,-1.2192636728286743,147.24267578125,20139700.0,40012.0,0.019412950343738744,-0.01021170259200003,-0.005065255921040001,0.0008788023390606602,7.81866059070871e-05,9.766710986555543e-07,20.13970025299932
1621,C,168138965862972.0,-0.880414611368071,9.55047,-0.52971715,106,1970-01-02 22:42:18.965862972,0.034088463,-0.49002165,-0.4889564,9.612318259272596,0.693081237575643,91.3138427734375,-1.022260308265686,147.21780395507812,20179839.0,40139.0,-0.0170437599592545,-0.013163183660000032,-0.022872005983475004,4.754846642140652e-05,-0.0004691222796345153,-0.0005606868777926639,20.179839939024532
1621,C,168139005471619.0,-1.095294261368071,9.67018,-0.30406362,106,1970-01-02 22:42:19.005471619,-0.20772657,0.037284255,-0.43782368,9.744964681802044,0.4860349970152482,91.31550598144531,-0.8036902546882629,147.21995544433594,20219448.0,39609.0,-0.03912792637010292,-0.00751283707500001,-0.016512611259464998,-0.001112452161909759,-0.00040947825264630835,-0.0007799926521878051,20.219448586023645
1621,C,168139045704015.0,-0.524875661368071,9.7240505,-0.3477578,106,1970-01-02 22:42:19.045704015,-0.1917476,0.42717105,-0.28868666,9.74847591103555,0.5500747546705066,91.32393646240234,-0.682200014591217,147.24139404296875,20259680.0,40232.0,-0.03259133816576023,-0.004139259262000012,-0.013112039684719998,-0.001442704725403423,-0.00023439356991509244,-0.0005959294783932253,20.25968098200974
1621,C,168139085528338.0,-0.452451061368071,9.584588,-0.022744916,106,1970-01-02 22:42:19.085528338,0.026631612,0.02876214,-0.25885928,9.598880804617977,0.26181029448288806,91.29557800292969,-0.5742081999778748,147.2434539794922,20299505.0,39825.0,-0.019461018366483427,-0.005801735868750014,-0.00737763533235,-0.001036492549448302,-0.0001979500655410599,-0.0004080006537774063,20.299505305010825
1621,C,168139125290421.0,-0.828340721368071,8.959702,-0.59615624,106,1970-01-02 22:42:19.125290421,0.039414786,-0.32810146,-0.20026971,9.024406025567165,0.3864091745197589,91.36013793945312,-0.40685898065567017,147.2267608642578,20339267.0,39762.0,-0.025463421432577238,-0.020988570510000023,-0.012304373882435998,-0.000893142787645125,-0.0005326180811159295,-0.0003912980251991604,20.339267388015287
1621,C,168139165045837.0,-1.160536161368071,9.115324,-0.8170213,106,1970-01-02 22:42:19.165045837,-0.28655612,-0.068176925,-0.1438107,9.234313926093314,0.32778654707965066,91.43896484375,-0.19855056703090668,147.22300720214844,20379022.0,39755.0,-0.039533900236587656,-0.03031267068500004,-0.028090436551349997,-0.001291984261478825,-0.0010197404218536138,-0.0008029478443975811,20.37902280400158
1621,C,168139205012348.0,-1.034242061368071,9.3182335,-0.12449849,106,1970-01-02 22:42:19.205012348,-0.5251754,0.05219796,-0.056459017,9.384339758411102,0.5307743855857476,91.39598083496094,-0.022211773321032524,147.22567749023438,20418989.0,39967.0,-0.04385935061404769,-0.023309603698750046,-0.018814860723465,-0.0016664890283736714,-0.0010715607201476698,-0.0009373320080912655,20.418989315017825
1621,C,168139245186983.0,-0.826545061368071,9.656414,-0.5153519,106,1970-01-02 22:42:19.245186983,-0.60507023,0.14913702,0.07989483,9.7116906555555,0.6282794106346812,91.40701293945312,0.10649807006120682,147.2330322265625,20459163.0,40174.0,-0.037377630934400885,-0.012561455667500035,-0.01285267478393,-0.0016318072483636867,-0.0007205419694898654,-0.0006361057857370433,20.459163949999493
1621,C,168139284807973.0,-0.703243661368071,9.739613,-0.587178,106,1970-01-02 22:42:19.284807973,-0.35579833,0.07989483,0.07350325,9.787941580463865,0.37199242364876234,91.44013977050781,0.2133311927318573,147.237060546875,20498784.0,39621.0,-0.030305879491764342,-0.004040807116500026,-0.02184166858395,-0.0013408441832975465,-0.0003288991268824333,-0.0006873122892893868,20.498784940020414
1621,C,168139325015786.0,-0.44227566136807095,9.731233,-0.85652566,106,1970-01-02 22:42:19.325015786,-0.38456047,0.17470337,0.098004326,9.782313504918799,0.4336045093062249,91.51051330566406,0.27800002694129944,147.2460479736328,20538992.0,40208.0,-0.023029520464287398,-0.002596512016000031,-0.02902421838064,-0.0010722548807164643,-0.00013343666383978115,-0.0010226077915361175,20.538992753019556
1621,C,168139364901670.0,0.218523998631929,9.882068,-0.8343793,106,1970-01-02 22:42:19.364901670,-0.5454154,0.19707392,0.05965481,9.918332219583549,0.5829878084981387,91.5661392211914,0.24646811187267303,147.25619506835938,20578878.0,39886.0,-0.004462279409946879,0.0002652618429999691,-0.03372171761728,-0.0005482689648918541,-4.649212220014024e-05,-0.0012513422016065185,20.5788786370249
1621,C,168139404528545.0,-0.593110391368071,10.373477,0.21428105,106,1970-01-02 22:42:19.404528545,-0.7595336,-0.0053263223,0.22050974,10.39690154940612,0.7909135254078483,91.45957946777344,0.3207609951496124,147.25526428222656,20618505.0,39627.0,-0.00742186749247755,0.012988640857499966,-0.012286316676375001,-0.00023546654465118644,0.0002626062011563555,-0.0009115801874773335,20.618505512014963
1621,C,168139444364222.0,-1.747115661368071,12.974179,1.8249803,106,1970-01-02 22:42:19.444364222,-1.071656,-1.5925703,-0.07669904,13.22740572816735,1.9210959074223783,91.40555572509766,0.3265855312347412,147.17576599121094,20658341.0,39836.0,-0.04661262251839848,0.07464581220799996,0.0406180075693,-0.001076258972036629,0.0017455030361586278,0.0005643106192052802,20.658341189002385
1621,C,168139484353337.0,-2.9591801613680713,17.227478,1.0067618,106,1970-01-02 22:42:19.484353337,-1.7821875,0.08735169,-0.14168017,17.52083424136568,1.7899429805089702,91.31646728515625,0.3335627019405365,147.1802978515625,20698330.0,39989.0,-0.09410003182769779,0.21197483088649996,0.05661926741845,-0.0028134791673230216,0.0057308364483529784,0.0019442106947425673,20.69833030400332
1621,C,168139527710629.0,-0.307601821368071,13.590686,6.9407907,106,1970-01-02 22:42:19.527710629,-0.08948222,1.8983012,0.41545314,15.265137410797813,1.9452906788327105,91.3125228881836,0.31061801314353943,147.2747039794922,20741687.0,43357.0,-0.07081893321274546,0.24319296827399994,0.17229101687125,-0.0035751957836292485,0.009867355134100897,0.004962431597974262,20.741687596018892
1621,C,168139564166463.0,0.897878698631929,8.057087,3.8133647,106,1970-01-02 22:42:19.564166463,1.8109496,0.9491506,0.25885928,8.952243047141327,2.060930237068358,91.4033203125,0.29655447602272034,147.32183837890625,20778143.0,36456.0,0.010759566918765605,0.037326806243999956,0.1960267446312,-0.001094762128806665,0.005113314449914103,0.006713696156666659,20.77814343001228
1621,C,168139604079431.0,1.009807638631929,7.926005,2.4139538,106,1970-01-02 22:42:19.604079431,1.9750003,0.08522116,0.5795039,8.338506167242116,2.06002757292883,91.5020980834961,0.267483115196228,147.32537841796875,20818056.0,39913.0,0.038070742389606185,-0.07218082450200004,0.12427548164524999,0.0009744820677125215,-0.0006955642153657787,0.006392111378685974,20.81805639801314
1621,C,168139643996046.0,0.11138346863192902,8.992621,2.8443117,106,1970-01-02 22:42:19.643996046,-1.4168017,-1.3624732,-0.16724652,9.43180778550973,1.97272189532464,91.43093872070312,0.27758508920669556,147.2574920654297,20857973.0,39917.0,0.022377292714325713,-0.05351620297900003,0.10494709198175001,0.0012064521086218249,-0.0025087241229795406,0.004574938735734479,20.857973013015
1621,C,168139683874639.0,-2.672474661368071,11.4598465,0.46327803,106,1970-01-02 22:42:19.683874639,-1.1291803,-0.608266,-0.06178534,11.792693374178683,1.2840767519517693,91.37431335449219,0.2814168632030487,147.22715759277344,20897851.0,39878.0,-0.05106559729196594,0.01699734948249995,0.06595003162647,-0.0005720161049735684,-0.0007281494198667151,0.0034075177476242985,20.897851606016047
1621,C,168139723808910.0,-1.961396661368071,10.679337,2.9346926,106,1970-01-02 22:42:19.723808910,2.231729,0.84581995,0.24714136,11.260106716148718,2.3993967094004383,91.4861068725586,0.2680073380470276,147.26913452148438,20937785.0,39934.0,-0.09252450870107254,0.05069987694449996,0.06784727956921,-0.002867063646362999,0.001351710520067907,0.0026715309126441426,20.93778587700217
1621,C,168139763931357.0,-0.09870773136807097,7.835025,-1.2096704,106,1970-01-02 22:42:19.763931357,1.9750003,1.4849787,0.75101143,7.9296665832455915,2.582596773103464,91.76692962646484,0.25231653451919556,147.3431854248047,20977908.0,40123.0,-0.04132878427487611,-0.021779526737000024,0.0346065328653,-0.0026852978370369937,0.00058018560568776,0.002055377158154922,20.977908324013697
1621,C,168139803580524.0,1.228278538631929,6.655282,0.8678981,106,1970-01-02 22:42:19.803580524,0.24074976,1.3166668,0.9757822,6.810730890904431,1.6564186702036225,91.77921295166016,0.2015114724636078,147.40748596191406,21017557.0,39649.0,0.022393176468602356,-0.10129710887850003,-0.00677546496135,-0.000375388956955474,-0.0024399327627594807,0.0005517370056618567,21.01755749102449
1621,C,168139843483597.0,0.387913738631929,8.200141,1.5298948,106,1970-01-02 22:42:19.843483597,0.9757822,0.92784536,0.5123922,8.34766592949388,1.440692083871918,91.8281478881836,0.1744450032711029,147.45303344726562,21057460.0,39903.0,0.03224546021982986,-0.09466142801550002,0.04783956504435,0.0010901227598892555,-0.003909666748840642,0.0008192903928059746,21.057460564014036
1621,C,168139883398336.0,1.3497842386319292,7.5231805,-0.38606504,106,1970-01-02 22:42:19.883398336,1.9217371,0.8831042,0.29614353,7.640902661906857,2.1355672548376723,91.95162200927734,-0.08589136600494385,147.4965057373047,21097375.0,39915.0,0.03468010738124345,-0.07736881116375002,0.0228279824352,0.0013356670153984204,-0.0034332934984198826,0.0014103475788231192,21.097375303012086
1621,C,168139923348024.0,2.430167938631929,6.160281,-0.41599256,106,1970-01-02 22:42:19.923348024,1.2452941,0.06711166,0.5454154,6.609787101052134,1.3611536757324376,92.0138931274414,-0.11326339095830917,147.49891662597656,21137324.0,39949.0,0.07550265476475694,-0.11817989826825002,-0.0160206995312,0.0022008455824852847,-0.0039059876965494844,0.00013597207236594802,21.137324991024798
1621,C,168139963220680.0,1.398266938631929,7.8302364,-1.8716671,106,1970-01-02 22:42:19.963220680,0.9736517,-0.4527374,0.3174488,8.159547872266906,1.1197064467498121,92.06260681152344,-0.12831886112689972,147.4757080078125,21177197.0,39873.0,0.07632559193057091,-0.11183344985490001,-0.045607926811590004,0.0030269238402414037,-0.004585661114857181,-0.001228659109083033,21.177197647019057
1621,C,168140002848909.0,0.430410838631929,10.132261,-2.2469583,106,1970-01-02 22:42:20.002848909,0.9086706,-0.1555286,0.257794,10.384649218130063,0.9572508298028892,92.10807037353516,-0.14091718196868896,147.46749877929688,21216825.0,39628.0,0.036233421478706083,-0.03244547651640002,-0.0816064436756,0.0022302442916914142,-0.0028587426471209385,-0.0025206255368331824,21.216825876006624
1621,C,168140042741826.0,1.5209697386319292,7.909844,-2.7383683,106,1970-01-02 22:42:20.042741826,0.9235843,-0.34621096,0.21092236,8.495153174813987,1.008641774852986,92.154296875,-0.15081416070461273,147.44979858398438,21256718.0,39893.0,0.03892321268439355,-0.03107455261750004,-0.09943981702690001,0.0014991118033342667,-0.0012670022611193375,-0.0036112392391024163,21.256718793010805
1621,C,168140082646461.0,1.5592769386319292,8.1756,-3.198055,106,1970-01-02 22:42:20.082646461,0.23009712,-0.37071204,0.10546118,8.904151049894145,0.4488810106478647,92.16584777832031,-0.15538527071475983,147.4310760498047,21296623.0,39905.0,0.061458621828107136,-0.07012417859000006,-0.11844648589325,0.00200286855311067,-0.002019167684417646,-0.004347376459014294,21.29662342800293
1621,C,168140122580211.0,0.868549738631929,7.7823524,-3.2632968,106,1970-01-02 22:42:20.122580211,-0.17150758,-0.51452273,0.060720075,8.47647967905187,0.5457429955502086,92.1573486328125,-0.15744970738887787,147.40525817871094,21336557.0,39934.0,0.04847641526492745,-0.07272076442920004,-0.1290138113906,0.0021950728856366215,-0.0028521849772643677,-0.004941039755866633,21.336557178001385
1621,C,168140162730524.0,-0.13162800136807096,7.6452847,-4.203021,106,1970-01-02 22:42:20.162730524,-0.49534798,-0.18429075,0.20985709,8.726780220836313,0.568658685020207,92.13259887695312,-0.16759087145328522,147.39564514160156,21376707.0,40150.0,0.014793703875571948,-0.08376018521750002,-0.149886329835,0.0012701476417455255,-0.0031413550641575037,-0.005598920335103921,21.37670749099925
1621,C,168140202345680.0,-0.561387191368071,9.039907,-4.7483006,106,1970-01-02 22:42:20.202345680,-0.46658584,0.26312032,0.25992453,10.230629925284276,0.5953951714459303,92.1092300415039,-0.18106520175933838,147.4083251953125,21416322.0,39615.0,-0.013726898430121131,-0.05773506540225003,-0.177303302592,2.1130748860767063e-05,-0.002802667176650699,-0.006480808644297802,21.41632264701184
1621,C,168140242828857.0,1.337214738631929,15.158888,-3.8965633,106,1970-01-02 22:42:20.242828857,0.67005134,0.2727077,-0.26631612,15.702840380887151,0.7708842738355349,92.14269256591797,-0.16826535761356354,147.4224395751953,21456805.0,40483.0,0.015703913297941383,0.09308650899249994,-0.17498501263185,4.001774644698364e-05,0.0007155662454320437,-0.00713084393260356,21.4568058240111
1621,C,168140282380368.0,2.607937338631929,11.158775,-3.7870286,106,1970-01-02 22:42:20.282380368,0.043675844,0.4527374,-0.5944176,12.053941661349663,0.7484724550026088,92.14480590820312,-0.13941112160682678,147.44618225097656,21496357.0,39552.0,0.07801932747997005,0.13284850348799995,-0.15195071341439997,0.0018534708096239762,0.004468090806814366,-0.006465480918290639,21.496357335010543
1621,C,168140322636150.0,3.463265838631929,13.661315,-3.402759,106,1970-01-02 22:42:20.322636150,-0.700944,-0.30466563,-0.051132694,14.481709884586435,0.7660014292643289,92.10979461669922,-0.13629142940044403,147.43104553222656,21536613.0,40256.0,0.12220117755196692,0.10506997151999999,-0.1447160448128,0.004030038325282827,0.004788823064961023,-0.005971308509597082,21.536613117001252
1621,C,168140362446201.0,1.4898451386319291,12.275072,-2.4390929,106,1970-01-02 22:42:20.362446201,-0.9193232,-0.7233146,-0.2545982,12.595260643766606,1.1971463569984415,92.06391906738281,-0.12225193530321121,147.3953857421875,21576423.0,39810.0,0.09859167400243708,0.12612578323499996,-0.1162820620695,0.0043948817101904115,0.004601951498398273,-0.0051951673174921815,21.57642316800775
1621,C,168140402416357.0,2.2128940386319287,8.98903,-0.5105635,106,1970-01-02 22:42:20.402416357,-1.2261194,0.05006743,-0.25033715,9.25485859867001,1.2524153541350758,92.00260925292969,-0.10983292013406754,147.39833068847656,21616393.0,39970.0,0.0739992424576182,0.03325707846999996,-0.058948883153999994,0.0034492294654542045,0.003185266491174423,-0.0035019904402916473,21.616393324016826
1621,C,168140442290628.0,2.2643692386319287,8.570643,0.46507367,106,1970-01-02 22:42:20.442290628,-0.8319715,-0.8085357,0.07456851,8.85914660017657,1.162526136338603,91.9610824584961,-0.11215859651565552,147.3577880859375,21656267.0,39874.0,0.08926319795880952,-0.04067799939900003,-0.0009069307407099991,0.0032549632745823196,-0.00014795090056147437,-0.0011933453616188331,21.65626759501174
1621,C,168140482261618.0,0.420235478631929,11.8896055,-1.9901801,106,1970-01-02 22:42:20.482261618,-0.9214538,-0.96619487,0.002130529,12.060088033819742,1.3351457491609584,92.10304260253906,-0.1492910236120224,147.30909729003906,21696238.0,39971.0,0.05365316757687683,0.01719249639674998,-0.030480014556765,0.0028562550234134594,-0.0004693695202514683,-0.0006272837952426866,21.696238585020183
1621,C,168140522348909.0,-0.728382761368071,11.167754,-0.35793316,106,1970-01-02 22:42:20.522348909,-1.2144015,-0.5113269,-0.39521313,11.202024375359242,1.3756524342980885,92.03569030761719,-0.022724037989974022,147.28421020507812,21736325.0,40087.0,-0.006176350061521862,0.06929758513824998,-0.047064408126809995,0.0009516015918690173,0.0017335639492467715,-0.0015542616360582353,21.7363258760015
1621,C,168140562146566.0,-0.709827731368071,6.9623384,0.05686229,106,1970-01-02 22:42:20.562146566,-1.0535465,-0.8863,-0.4314321,7.0061819000939485,1.4427825804925216,91.92076873779297,0.1605028212070465,147.2405242919922,21776123.0,39798.0,-0.028618950594956487,-0.02924969133240002,-0.0059910092421299995,-0.0006923916877632628,0.0007969130388426083,-0.001055749750224537,21.776123533025384
1621,C,168140601788180.0,0.380132608631929,4.378995,-1.1097125,106,1970-01-02 22:42:20.601788180,-0.4910869,0.9683254,-0.44421527,4.528003831486296,1.1730931888549787,91.8963623046875,0.1810891032218933,147.28965759277344,21815765.0,39642.0,-0.0065348870277530694,-0.16369503067860003,-0.02086854401241,-0.0006967842155197261,-0.0038243573349800316,-0.0005323832050582373,21.815765147010097
1621,C,168140641822555.0,0.269400778631929,5.149928,1.163582,106,1970-01-02 22:42:20.641822555,-1.1845741,-0.2247708,-0.68816084,5.283480918252208,1.3882734070178524,91.83709716796875,0.21584472060203552,147.27955627441406,21855799.0,40034.0,0.013001709812860645,-0.20159274830900006,0.001078305781499996,0.00012944639168949835,-0.0073119654719947915,-0.00039614119866812554,21.85579952201806
1621,C,168140681440732.0,-1.313765061368071,7.796119,0.9840169,106,1970-01-02 22:42:20.681440732,-1.1068097,-0.8745821,-0.6924219,7.9790008456162616,1.571422810466397,91.78160095214844,0.2518298625946045,147.2369384765625,21895417.0,39618.0,-0.020687812076720234,-0.13180815497700002,0.042541786610099996,-0.0001522539997447946,-0.006604338493192375,0.0008640704101852043,21.89541769900825
1621,C,168140721314274.0,-1.2874288613680709,9.761759,0.9391256,106,1970-01-02 22:42:20.721314274,-0.680704,0.5837649,-0.23116238,9.900422257830984,0.9260536917561931,91.74769592285156,0.2624833583831787,147.2664794921875,21935291.0,39874.0,-0.05186000323759046,-0.040713786314000036,0.0383416920225,-0.0014463857939214125,-0.0034395699435186685,0.001612573913498146,21.935291241010418
1621,C,168140761272920.0,-0.32615689136807097,9.502586,0.9588778,106,1970-01-02 22:42:20.761272920,-0.76059884,1.2282499,-0.5134575,9.559083034428166,1.533214602254233,91.5229263305664,0.339353084564209,147.32762145996094,21975249.0,39958.0,-0.03223782975391538,-0.006706051245000019,0.0379202099286,-0.001680190605337295,-0.0009474009345912621,0.0015236365390810269,21.97524988700752
1621,C,168140801248701.0,0.04135306863192903,9.430161,1.7076644,106,1970-01-02 22:42:20.801248701,-0.37710363,0.44847634,-0.18002969,9.583575239827233,0.6129835761098894,91.50421905517578,0.3477611839771271,147.35028076171875,22015225.0,39976.0,-0.005692658808850004,-0.01333705296400001,0.053298845493600006,-0.0007581546053925544,-0.00040062156692949254,0.0018232864797789335,22.01522566800122
1621,C,168140841453545.0,-0.9546347613680709,9.55885,0.39085343,106,1970-01-02 22:42:20.841453545,-0.19600865,-0.6221144,-0.10865697,9.621624305001989,0.6612503721675802,91.39865112304688,0.4979919493198395,147.318603515625,22055430.0,40205.0,-0.01835924522822829,-0.012282406372500035,0.042185454677575,-0.0004835034009053664,-0.0005150151813119922,0.0019194731441910455,22.055430512002204
1621,C,168140881137399.0,-1.7961966613680709,9.626487,0.5955577,106,1970-01-02 22:42:20.881137399,-0.49747851,0.11611383,0.08948222,9.823908438890905,0.5186273779171491,91.37382507324219,0.4933779537677765,147.32431030273438,22095114.0,39684.0,-0.05458199708993052,-0.008227743246000053,0.01957236964146,-0.001447300130076907,-0.00040696238873027873,0.0012253987501382923,22.095114366005873
1621,C,168140921214378.0,-0.505722001368071,9.194932,0.4225766,106,1970-01-02 22:42:20.921214378,-0.5028048,1.1558119,0.08628642,9.222667026669665,1.2633919270602716,91.24935150146484,0.5649802088737488,147.38104248046875,22135191.0,40077.0,-0.046126997123238186,-0.015601595368500053,0.020401884170550003,-0.002018057180540581,-0.0004775042018266604,0.0008010240850119624,22.135191345005296
1621,C,168140961093545.0,0.431009398631929,9.773131,0.66379243,106,1970-01-02 22:42:20.961093545,-0.660464,0.96406436,0.12144015,9.802272478341482,1.1748959509463943,91.08866119384766,0.49121442437171936,147.42794799804688,22175070.0,39879.0,-0.0014897319422573032,-0.012600507811500048,0.021661655273684997,-0.0009494537692014472,-0.0005623358363576119,0.0008387259447483238,22.175070512021193
1621,C,168141000998441.0,0.023995106631929025,11.112088,0.24720132,106,1970-01-02 22:42:21.000998441,-0.44315,-0.32810146,0.029827405,11.114935352127484,0.5521975775419208,91.0073013305664,0.4837692379951477,147.4110107421875,22214975.0,39905.0,0.009078477391277128,0.02564333209749996,0.018176602796875004,0.0001514144435715681,0.0002602369515664133,0.0007948728441528485,22.21497540801647
1621,C,168141040892764.0,-2.535406561368071,11.19409,3.4039562,106,1970-01-02 22:42:21.040892764,-0.12996227,-1.474326,-0.10333065,11.98692064421336,1.4836457020222098,91.00017547607422,0.49022912979125977,147.33738708496094,22254869.0,39894.0,-0.05009512428762183,0.053980132565999955,0.07282963905143999,-0.0008181590556413876,0.0015882492496428328,0.001815301506148339,22.2548697310267
1621,C,168141080414326.0,-3.962949261368071,14.149134,0.961272,106,1970-01-02 22:42:21.080414326,-0.21518342,-0.4676511,-0.3089267,14.74422660814326,0.6003641907600722,90.98921966552734,0.5060791373252869,147.31427001953125,22294391.0,39522.0,-0.12841400941308892,0.11349184946399997,0.0862612744602,-0.0035275189910597454,0.0033094138368948284,0.003143795541903518,22.294391293020453
1621,C,168141120410577.0,-3.4236552613680713,16.586432,3.572149,106,1970-01-02 22:42:21.120410577,-1.1217234,2.6770096,0.16085494,17.322827948548014,2.9069774846603345,90.93429565429688,0.4957908093929291,147.44798278808594,22334387.0,39996.0,-0.14771731724567735,0.22268904886799992,0.09065935315799999,-0.005522074270522008,0.006722945604843333,0.003538058711108763,22.334387544018682
1621,C,168141160590160.0,0.10779216663192903,12.198458,8.765771,106,1970-01-02 22:42:21.160590160,0.4016047,2.1102889,0.46978164,15.021401264988736,2.1989316419130427,90.95527648925781,0.4705660045146942,147.5531005859375,22374567.0,40180.0,-0.06661568957324909,0.1845244401,0.2478688128,-0.004305950106992232,0.008180918993367118,0.00680103085409622,22.374567127000773
1621,C,168141200203806.0,1.5437146386319291,7.925406,4.4753613,106,1970-01-02 22:42:21.200203806,1.9142802,0.58909124,0.5592638,9.220127117943465,2.079488680216177,91.05122375488281,0.44209176301956177,147.58206176757812,22414180.0,39613.0,0.032710569538458606,0.010375912315999995,0.26226048689995,-0.0006715417599690778,0.003860293830127504,0.01010387597450706,22.414180773019325
1621,C,168141240412660.0,1.8717203386319292,8.276755,3.8510735,106,1970-01-02 22:42:21.240412660,1.2591426,0.45699844,0.38775626,9.304793355604096,1.3945044203825174,91.11434173583984,0.4222751259803772,147.60455322265625,22454389.0,40209.0,0.06866561250040125,-0.06831185417550005,0.16739880843660004,0.002038117451800258,-0.001164773143114319,0.008638085303093672,22.454389627004275
1621,C,168141280369431.0,0.11497477163192903,10.670957,0.78769237,106,1970-01-02 22:42:21.280369431,-0.22903186,0.30679616,0.19707392,10.700081514259683,0.4306014475474642,90.96977996826172,0.3957015872001648,147.61874389648438,22494346.0,39957.0,0.03969118826040649,-0.013031735808000044,0.092675583933795,0.0021648063439997974,-0.0016251229124853567,0.0051958962479719374,22.494346398016205
1621,C,168141319966619.0,-0.08254687136807097,11.522695,3.6128504,106,1970-01-02 22:42:21.319966619,2.2775354,0.40906155,0.35473305,12.076782153150935,2.3410114025147046,91.08380889892578,0.37759947776794434,147.6388702392578,22533943.0,39597.0,0.0006420237833739937,0.051350419121999974,0.08712414603184501,0.0007985370986487879,0.0007586524515922277,0.003559764953724724,22.53394358602236
1621,C,168141360119379.0,1.2288770386319292,6.4152637,1.3198037,106,1970-01-02 22:42:21.360119379,2.663161,-1.6564863,0.6178534,6.651233404797668,3.1965788271056685,91.21642303466797,0.34837591648101807,147.55543518066406,22574096.0,40153.0,0.023014297603072848,-0.03336797215945004,0.09903043003865002,0.000474936136315,0.0003610245964436338,0.003737332346479293,22.574096346012084
1621,C,168141399722400.0,0.486674598631929,5.199009,-0.7236475,106,1970-01-02 22:42:21.399722400,1.3305153,-1.9579561,1.1195929,5.265587345806031,2.6186544855692038,91.44929504394531,0.17290650308132172,147.45704650878906,22613699.0,39603.0,0.033970495745280285,-0.15812937913095002,0.011804786994300001,0.0011283843854874144,-0.0037919348015768564,0.00219470355007796,22.61369936700794
1621,C,168141439600472.0,-0.184300431368071,6.257845,-1.3359646,106,1970-01-02 22:42:21.439600472,1.1313108,-0.5134575,0.9534117,6.403939530982899,1.5660448908635347,91.50578308105469,0.12591293454170227,147.43014526367188,22653577.0,39878.0,0.0060290385210740646,-0.16236618809400002,-0.04106660566189999,0.0007975507137368393,-0.006390361114898278,-0.0005834514024132762,22.65357743902132
1621,C,168141479650264.0,0.11557332163192902,6.4846954,-0.51595044,106,1970-01-02 22:42:21.479650264,1.3049489,-0.9821738,0.3568636,6.505343535479639,1.6717980242907964,91.64697265625,0.09640133380889893,147.38070678710938,22693627.0,40050.0,-0.0013762603724662434,-0.13732062849000004,-0.037084598676,9.317188242587162e-05,-0.006001228502094602,-0.0015649778668664473,22.693627231026767
1621,C,168141519208024.0,-0.408756861368071,7.459734,-2.8939912,106,1970-01-02 22:42:21.519208024,0.8319715,-1.1696603,0.51026165,8.015776822945275,1.523367567486279,91.68850708007812,0.07260151207447052,147.32151794433594,22733184.0,39557.0,-0.0057987306406712845,-0.11185870311210004,-0.06744353072674,-0.0001419105597533406,-0.004928393410092137,-0.0020674096073920933,22.733184991026064
1621,C,168141559119586.0,0.894885938631929,7.3112936,-3.5093012,106,1970-01-02 22:42:21.559119586,-0.29933932,0.12037488,0.7861652,8.151657566807968,0.849794011466377,91.67353820800781,0.033134955912828445,147.32638549804688,22773096.0,39912.0,0.009701191865877552,-0.09636697321440003,-0.1277841031344,7.787751621021627e-05,-0.004155351596771635,-0.00389596266133291,22.773096553020878
1621,C,168141599066670.0,2.430766338631929,7.9421654,-2.5953147,106,1970-01-02 22:42:21.599066670,-0.59867865,-0.34408042,0.57098174,8.682375685035735,0.8960064781052793,91.64359283447266,0.005095320753753185,147.30836486816406,22813043.0,39947.0,0.06642491575992968,-0.08681563666350003,-0.12193054567865,0.0015205048106640606,-0.0036587978583962374,-0.004987675538067455,22.813043637026567
1621,C,168141639271930.0,1.3246451386319291,10.46745,-3.6194344,106,1970-01-02 22:42:21.639271930,-0.16831179,-0.61678815,0.111852765,11.146310525665655,0.64905124733843,91.63517761230469,0.00038590567419305444,147.27735900878906,22853248.0,40205.0,0.0754931592216967,-0.02392970642150003,-0.12493199378274998,0.0028529081023181443,-0.0022262582593662135,-0.0049625541995227925,22.853248897008598
1621,C,168141679039222.0,2.7162750386319288,6.56131,-3.205836,106,1970-01-02 22:42:21.679039222,1.9441077,-0.74781567,-0.56672066,7.7670673807200235,2.1586929684342966,91.73236846923828,0.029806943610310555,147.24082946777344,22893016.0,39768.0,0.08034965680471454,-0.05112653616000004,-0.13571367663359998,0.0030987785538691614,-0.0014924183274905472,-0.0051826785105587025,22.893016189016635
1621,C,168141718816982.0,2.192543238631929,19.612701,-4.128801,106,1970-01-02 22:42:21.718816982,-0.515588,0.10226539,-0.74248934,20.15458590904481,0.9097140296540929,91.70660400390625,0.06676340103149414,147.24705505371094,22932793.0,39777.0,0.09762903230736224,0.13074721777349999,-0.14587492797450002,0.003539729158405539,0.0015835359262700937,-0.005600374962748196,22.9327939490031
1621,C,168141758916930.0,0.373548558631929,11.670536,-2.2583308,106,1970-01-02 22:42:21.758916930,-1.7374463,-1.6053536,-0.07669904,11.890887126638685,2.366804294645751,91.84969329833984,0.03495520353317261,147.1671600341797,22972893.0,40100.0,0.051450140535140354,0.23424890185000002,-0.12806199259,0.002989037415492177,0.007318172198451174,-0.005492435257318225,22.972893897007452
1621,C,168141798557972.0,-1.461606961368071,7.3645644,0.08319851,106,1970-01-02 22:42:21.798557972,-0.2695119,-1.0652645,-0.33981937,7.5227415463602485,1.1501749099285103,91.836181640625,0.05365284904837608,147.11448669433594,23012534.0,39641.0,-0.021565861571431703,-0.011196592521800008,-0.043112209553945006,0.0005923213512001873,0.004421008297039589,-0.0033927582735940624,23.012534939014586
1621,C,168141838366201.0,0.523784718631929,9.201516,-1.0241197,106,1970-01-02 22:42:21.838366201,-0.9736517,0.4314321,0.18535602,9.26941313659108,1.0809663010351158,91.90010833740234,-0.027667388319969177,147.1357879638672,23052343.0,39809.0,-0.018666882830541534,-0.06038865267820003,-0.018728565826354997,-0.0008008126609490762,-0.0014248685130834006,-0.0012309097135571813,23.05234316800488
1621,C,168141878878545.0,0.685393338631929,10.266336,-1.0241197,106,1970-01-02 22:42:21.878878545,-1.7459685,0.83942837,0.010652645,10.33558638913012,1.937307273046432,91.90744018554688,-0.11409667879343033,147.17767333984375,23092855.0,40512.0,0.024493110727936706,-0.0026767898880000166,-0.041489137286399996,0.0001180160722896366,-0.0012774536046209482,-0.0012197697942519653,23.092855512019014
1621,C,168141918320732.0,-0.269893161368071,10.694301,1.0923545,106,1970-01-02 22:42:21.918320732,-0.59761333,-0.8490158,-0.41758367,10.75533838143302,1.119082500217923,91.684814453125,-0.04371662810444832,147.1361846923828,23132297.0,39442.0,0.008194078995820543,0.026833122276999972,0.0013456584907999985,0.0006446240685422166,0.00047638703104346813,-0.0007916695453280276,23.132297699019546
1621,C,168141958139326.0,-0.236374331368071,7.657854,-0.82240826,106,1970-01-02 22:42:21.958139326,-0.5944176,-0.7094661,-0.2727077,7.708006671363862,0.9649061715411815,91.76602172851562,0.029129046946763992,147.10108947753906,23172116.0,39819.0,-0.01007953264663022,-0.024843970027500033,0.005374494665279998,-3.7538439460795274e-05,3.960302671141904e-05,0.00013379488926097468,23.172116293018917
1621,C,168141998025784.0,0.15567619863192902,5.9501896,-0.9983821,106,1970-01-02 22:42:21.998025784,-1.2783173,0.3685815,-0.24501082,6.033966116973369,1.3527666995970196,91.89546203613281,0.019889509305357933,147.11997985839844,23212002.0,39886.0,-0.0016093628611568796,-0.11949758648520002,-0.036312022149480004,-0.00023311164311179812,-0.0028786036615327773,-0.0006169871106174007,23.212002751010004
1621,C,168142038234066.0,-0.378829341368071,7.6003933,1.7776948,106,1970-01-02 22:42:22.038234066,-0.73822826,-0.03834952,-0.4111921,7.818454936711053,0.8458904140899505,91.85856628417969,0.04050131514668465,147.11874389648438,23252211.0,40209.0,-0.004486382358138767,-0.12162050608695003,0.015667692177149996,-0.00012255190976132933,-0.004847558692116791,-0.00041504393192870866,23.252211033017375
1621,C,168142078345211.0,-0.591913291368071,7.712322,1.3150153,106,1970-01-02 22:42:22.078345211,-0.5209143,-0.79042625,-0.37071204,7.8516373096479635,1.0166379794373779,91.83248138427734,0.06030033528804779,147.079833984375,23292322.0,40111.0,-0.019468728870839697,-0.08598363830085001,0.06202584741054999,-0.0004804317332527776,-0.004163604917769524,0.0015581827832011172,23.292322178022005
1621,C,168142118130993.0,-0.861260961368071,7.7386584,0.439336,106,1970-01-02 22:42:22.118130993,-0.8000136,-0.20559604,-0.3355583,7.806943557374779,0.8915665227830908,91.66647338867188,0.2468830645084381,147.0697021484375,23332107.0,39785.0,-0.028907268822553706,-0.08253437239300002,0.03489843323525,-0.0009623195341158283,-0.0033522445277274116,0.0019280662527465765,23.332107960013673
1621,C,168142158387920.0,-0.497342301368071,8.558074,1.3162124,106,1970-01-02 22:42:22.158387920,-0.84688526,0.3153183,-0.31957933,8.677309336552558,0.9585255458689698,91.62420654296875,0.26240140199661255,147.08592224121094,23372364.0,40257.0,-0.027346645773984435,-0.06648982188660003,0.035336555969399996,-0.001132306919956418,-0.00299963349455693,0.0014137249802057973,23.37236488700728
1621,C,168142198214066.0,-0.779858121368071,9.496601,1.4257472,106,1970-01-02 22:42:22.198214066,-0.6317018,-0.24927188,-0.2247708,9.640622604131005,0.7153359677903904,91.59256744384766,0.27398553490638733,147.07379150390625,23412191.0,39827.0,-0.025433530618156164,-0.030772829387500037,0.0546020124946,-0.0010510380425848918,-0.0019368398061467918,0.0017909916831078641,23.412191033014096
1621,C,168142239230055.0,-1.8141531613680708,10.008362,1.1288661,106,1970-01-02 22:42:22.239230055,-0.3206446,-0.7957525,-0.12463594,10.246670304344345,0.8669308613177256,91.57634735107422,0.2813161015510559,147.0341796875,23453207.0,41016.0,-0.05319798338635279,-0.0019490187960000279,0.05239000955639999,-0.0016125750892044693,-0.0006710596625472193,0.0021941923882219075,23.453207022015704
1621,C,168142277937503.0,-2.508471761368071,9.962274,0.9516952,106,1970-01-02 22:42:22.277937503,-0.26418558,-0.2066613,0.0053263223,10.334634068453198,0.33545682778394875,91.5630874633789,0.28133147954940796,147.0238494873047,23491914.0,38707.0,-0.08365792144217392,0.007173103825999986,0.04026614311954999,-0.0026486407540988917,0.0001011043296281042,0.001793220850813998,23.49191447001067
1621,C,168142317572294.0,-1.2515158613680708,8.8777,0.022744916,106,1970-01-02 22:42:22.317572294,-0.40906155,1.0237192,-0.098004326,8.97564938642148,1.106768810570553,91.50069427490234,0.48890742659568787,147.0748291015625,23531549.0,39635.0,-0.07451355471357347,-0.015061815254999996,0.019310966998829997,-0.0031345632287165235,-0.00015633453874420766,0.0011806693797709953,23.531549261009786
1621,C,168142357679430.0,0.016213950631929028,9.377489,0.6805518,106,1970-01-02 22:42:22.357679430,-0.58483016,0.93849796,-0.06711166,9.40230915627723,1.1078396598234523,91.3307876586914,0.4872356653213501,147.12062072753906,23571656.0,40107.0,-0.024772126866947217,-0.026968167388499997,0.014103560694306,-0.0019910254155749716,-0.0008428482569414271,0.0006700782310943026,23.57165639701998
1621,C,168142397653492.0,-0.737361021368071,11.60709,0.95229375,106,1970-01-02 22:42:22.397653492,-0.5123922,-0.3110572,-0.19813919,11.674088197422668,0.6313172632730203,91.15512084960938,0.5845308899879456,147.1038818359375,23611630.0,39974.0,-0.014413566502803272,0.027673580472999976,0.032635684007850004,-0.000783204453381203,1.409909131990107e-05,0.000934177283861992,23.611630459025037
1621,C,168142437493232.0,-2.933442561368071,12.346299,2.4905684,106,1970-01-02 22:42:22.437493232,-0.221575,-0.54435015,-0.09161274,12.948312421501294,0.5948154844658384,91.14376831054688,0.589657187461853,147.07676696777344,23651470.0,39840.0,-0.07312240736810395,0.08671950887999996,0.068581814028,-0.001743716599508472,0.0022787103399117587,0.0020162525608741324,23.651470199023606
1621,C,168142477456409.0,-4.782364961368071,13.843873,3.1489737,106,1970-01-02 22:42:22.477456409,0.033023197,-0.9821738,-0.14061491,15.00403013152232,0.9927378595887482,91.14490509033203,0.5976660251617432,147.02780151367188,23691433.0,39963.0,-0.1541734080155522,0.13168152181799997,0.11268651047115,-0.004541711335088526,0.004363980194892085,0.003622013025979765,23.69143337602145
1621,C,168142517351044.0,-3.192016361368071,15.438411,1.3455414,106,1970-01-02 22:42:22.517351044,-0.79681784,2.590723,0.40266997,15.83667315800252,2.7402385731193313,91.10638427734375,0.5749937295913696,147.15692138671875,23731328.0,39895.0,-0.1590689714352792,0.19313736009,0.08965433995725,-0.0062484023640954605,0.0064793246468598294,0.004036194113920509,23.731328011024743
1621,C,168142556859325.0,0.638706378631929,10.180744,9.172785,106,1970-01-02 22:42:22.556859325,-0.0127831735,3.4120421,-0.0053263223,13.71532663484882,3.412070203176714,91.10746765136719,0.5719643831253052,147.3275146484375,23770836.0,39508.0,-0.050438085398969754,0.11890238787,0.2077790197056,-0.004138602400703754,0.00616403318120184,0.00587549858677994,23.770836292009335
1621,C,168142596848753.0,1.5491015386319291,8.768764,3.650559,106,1970-01-02 22:42:22.596848753,2.1198764,1.9845877,0.9193232,9.612675346549327,3.0459184881290717,91.21439361572266,0.5239989161491394,147.42578125,23810825.0,39989.0,0.043744125401732205,-0.013006262294000032,0.25639635160799995,-0.00013384238316476615,0.002117340082829331,0.009280954461729773,23.810825720021967
1621,C,168142636759221.0,1.748418938631929,8.872313,5.3857565,106,1970-01-02 22:42:22.636759221,0.33129725,-0.22264028,1.164334,10.51375823161646,1.2308534541902383,91.2308578491211,0.46603402495384216,147.41342163085938,23850736.0,39911.0,0.06580366988403892,-0.039091287926500046,0.18032419396025,0.002186081028825206,-0.0010396326634251893,0.008714976847087212,23.850736188003793
1621,C,168142677034690.0,-1.5208635613680708,11.180324,-0.10295067,106,1970-01-02 22:42:22.677034690,0.25885928,0.87777793,0.18855181,11.293505256664506,0.9343735903221364,91.22682189941406,0.645987331867218,147.45693969726562,23891011.0,40275.0,0.004582396409650947,0.009114977587499986,0.106382502401625,0.0014173994099891795,-0.0006036479494516137,0.005773556097987258,23.89101165701868
1621,C,168142716840107.0,0.431009398631929,9.677961,1.8501194,106,1970-01-02 22:42:22.716840107,2.0208068,2.444782,0.75101143,9.859802569937287,3.259545569314975,91.32918548583984,0.6057209372520447,147.5783233642578,23930817.0,39806.0,-0.02169136740093743,0.02504364635499998,0.03477389923319,-0.00034051984963957485,0.0006798590923275769,0.0028094358617377227,23.93081707402598
1621,C,168142756488701.0,2.383480738631929,6.1447186,2.6886885,106,1970-01-02 22:42:22.756488701,1.4753913,-0.45593318,0.535828,7.094762177123339,1.6345538224006584,91.4027099609375,0.5794796943664551,147.5548858642578,23970465.0,39648.0,0.05579445248111873,-0.07488159960960003,0.08997732780960001,0.0006760595586295141,-0.0009879875853191916,0.0024730683248962693,23.970465668011457
1621,C,168142796660888.0,0.179618214631929,5.9723363,0.4321534,106,1970-01-02 22:42:22.796660888,1.3720607,-1.3219932,0.5795039,5.98894185410668,1.9914922433808122,91.3323745727539,0.5116169452667236,147.48675537109375,24010637.0,40172.0,0.05148240557525786,-0.15030243527860002,0.0626852304034,0.0021547629709203803,-0.004523046524764386,0.003066380144266318,24.010637855011737
1621,C,168142836524428.0,-0.660148061368071,5.8244944,-1.3976152,106,1970-01-02 22:42:22.836524428,1.478587,0.04474111,0.8490158,6.034250234947868,1.705593477984327,91.40631103515625,0.46912479400634766,147.48797607421875,24050501.0,39864.0,-0.009577920905144782,-0.1555327704876,-0.0192435845976,0.0008352401884446938,-0.006095907321331899,0.0008658788842012056,24.05050139501691
1621,C,168142876579118.0,0.960127998631929,5.8508306,-1.0324994,106,1970-01-02 22:42:22.876579118,1.1622036,0.65194184,0.50173956,6.007444368169966,1.4238988575964724,91.46469116210938,0.4432307481765747,147.51992797851562,24090556.0,40055.0,0.0060078481935519155,-0.15871142856250003,-0.0486691201515,-7.149963123142614e-05,-0.006293525696475878,-0.0013601216943626001,24.0905560850224
1621,C,168142916136618.0,1.923195638631929,7.893683,-0.712275,106,1970-01-02 22:42:22.916136618,0.6562029,0.12037488,0.19707392,8.13937181963688,0.6956511249524369,91.4975357055664,0.43322592973709106,147.52569580078125,24130113.0,39557.0,0.05702781655962322,-0.11581273776240003,-0.034509020470400005,0.0012467508953206746,-0.005429676223657036,-0.0016451388542902496,24.130113585008075
1621,C,168142956287399.0,1.129517738631929,9.682152,-1.8986019,106,1970-01-02 22:42:22.956287399,0.20453078,-0.628506,0.1768339,9.923199562912263,0.6841950454312121,91.50752258300781,0.42521217465400696,147.49404907226562,24170264.0,40151.0,0.06128474740526058,-0.04063612445750002,-0.05241465920595,0.0023751838778770244,-0.0031407891334956036,-0.0017450363313425644,24.17026436602464
1621,C,168142996233232.0,0.789541138631929,8.156446,-2.5582044,106,1970-01-02 22:42:22.996233232,-0.36432046,-0.23329292,0.51771855,8.578390263257331,0.6746758340943008,91.48921966552734,0.3996392786502838,147.48170471191406,24210210.0,39946.0,0.03832936295559104,-0.03518048214600001,-0.08901579222990001,0.0019895926262372896,-0.0015142850836917063,-0.0028247904065282323,24.210210199002177
1621,C,168143035846514.0,2.636667738631929,6.9108634,-1.9728222,106,1970-01-02 22:42:23.035846514,-0.65726817,-0.02876214,0.5368933,7.631274007587258,0.8491661342619703,91.45633697509766,0.3728404641151428,147.47958374023438,24249823.0,39613.0,0.06786120612752661,-0.08977673636890002,-0.08974377835290001,0.00210326350654477,-0.0024749651485153675,-0.0035406014347482287,24.24982348101912
1621,C,168143075700785.0,0.606983238631929,12.262503,-5.2157683,106,1970-01-02 22:42:23.075700785,-0.4261058,-0.69135666,-0.07563378,13.336447718992314,0.8156351223415308,91.434814453125,0.37749359011650085,147.44512939453125,24289677.0,39854.0,0.0646362330239369,-0.008501527747200012,-0.14324704289350002,0.0026402764699712134,-0.0019583909690415254,-0.004642808094977013,24.289677752007265
1621,C,168143115805211.0,1.2306727386319292,9.937134,-1.3796587,106,1970-01-02 22:42:23.115805211,1.73212,-0.57098174,-0.56245965,10.099290504116029,1.9085650891943795,91.68158721923828,0.2325446605682373,147.41802978515625,24329782.0,40105.0,0.036849596484083515,0.05212922094249999,-0.1322547999175,0.0020350445962095793,0.0008748443177987529,-0.005524500702967577,24.329782178014284
1621,C,168143155960159.0,0.838622238631929,14.205996,-4.8542438,106,1970-01-02 22:42:23.155960159,-0.16085494,-0.14168017,-1.5329156,15.032090252943217,1.54783003557141,91.67352294921875,0.3093646466732025,147.41319274902344,24369937.0,40155.0,0.041546269906015114,0.091214692575,-0.12516117744375002,0.0015739930074472053,0.0028779874236476064,-0.005168269285470497,24.369937126000877
1621,C,168143195332659.0,1.0726554386319291,11.01632,-1.8291701,106,1970-01-02 22:42:23.195332659,-0.60720074,-1.196292,0.46339005,11.212007861727603,1.4193440831452921,91.83541107177734,0.15239876508712769,147.35353088378906,24409309.0,39372.0,0.037625412354616306,0.11068091277599998,-0.13156968603539998,0.00155857373698279,0.0039745168869397855,-0.005054003778450546,24.40930962600396
1621,C,168143235311461.0,-0.149584511368071,12.692262,-2.2583308,106,1970-01-02 22:42:23.235311461,-0.44208476,-1.1707256,-0.07669904,12.893490219173454,1.253762381098005,92.01873016357422,0.17889659106731415,147.29574584960938,24449288.0,39979.0,0.018451726300540892,0.08212849988899996,-0.08170709924055,0.001120953963147265,0.0038541637544670165,-0.004263296299273602,24.449288428004365
1621,C,168143275483179.0,-0.739755221368071,11.204266,0.050278235,106,1970-01-02 22:42:23.275483179,-1.2964269,0.0127831735,-0.051132694,11.233650922654977,1.2974978493099858,91.89717864990234,0.28030866384506226,147.2961883544922,24489460.0,40172.0,-0.01786327787173815,0.08630006140799996,-0.04435094382059,1.1819575140931869e-05,0.0033830560822115407,-0.0025320018529260578,24.48946014602552
1621,C,168143315110367.0,0.677612178631929,8.231265,0.43035775,106,1970-01-02 22:42:23.315110367,-0.902279,-0.068176925,-0.029827405,8.264822774146491,0.9053425655697901,91.73028564453125,0.16975776851177216,147.29238891601562,24529087.0,39627.0,-0.00123127117725255,-0.0032587065315000086,0.0095230810887975,-0.00037832984758217724,0.001645339884845532,-0.0006900618582363708,24.52908733402728
1621,C,168143355370003.0,0.422629678631929,9.910798,0.3274071,106,1970-01-02 22:42:23.355370003,-1.0428939,-0.14594123,0.096939065,9.922448263772202,1.0575082560406783,91.58767700195312,0.1100839301943779,147.28475952148438,24569346.0,40259.0,0.022147318465792834,-0.029347542841500027,0.015253427548075002,0.0004210295738946717,-0.0006563474967538043,0.000498738730605925,24.569346970005427
1621,C,168143395132815.0,-0.23757143136807096,8.767567,0.42317516,106,1970-01-02 22:42:23.395132815,-0.7957525,-0.69029135,-0.099069595,8.783184417812087,1.0580826875979668,91.439208984375,0.16347567737102509,147.25010681152344,24609109.0,39763.0,0.0036792355429763938,-0.018323486252500038,0.014922701202190001,0.0005134706335253454,-0.0009477715649323622,0.0005999467037483936,24.609109782002633
1621,C,168143435161877.0,-0.257323601368071,7.8691425,-0.0035913025,106,1970-01-02 22:42:23.435161877,-0.9129316,-0.6956177,-0.18855181,7.875976401858483,1.1631336448947411,91.35816192626953,0.22932249307632446,147.21543884277344,24649138.0,40029.0,-0.009905076632697513,-0.059308777712250044,0.00839776111593375,-0.00012460709649022333,-0.0015537709471224906,0.0004667473930660878,24.649138844019035
1621,C,168143474646669.0,-0.5117075613680709,7.393295,-0.4261679,106,1970-01-02 22:42:23.474646669,-0.7286409,0.27803403,-0.33768883,7.428432383901974,0.849855416466601,91.37016296386719,0.35245704650878906,147.2299346923828,24688623.0,39485.0,-0.015182597730318282,-0.08563432765625002,-0.00848452105535625,-0.0004952934111118393,-0.0028615392577376127,-1.7128581040486788e-06,24.688623636000557
1621,C,168143514652606.0,-0.019699077368070972,7.402273,1.252766,106,1970-01-02 22:42:23.514652606,-0.9086706,-0.07882957,-0.47617322,7.508078113832754,1.0289010136334367,91.32469940185547,0.3763512074947357,147.2265625,24728629.0,40006.0,-0.010629726994639047,-0.09610305329600002,0.0165344417943,-0.0005163239314733214,-0.003635292831187858,0.00016102256454109188,24.728629573015496
1621,C,168143554808128.0,-0.919918901368071,8.12233,0.6428431,106,1970-01-02 22:42:23.554808128,-0.57311225,-0.16085494,-0.406931,8.207726975384018,0.7210581124871047,91.15103912353516,0.5604463815689087,147.21775817871094,24768785.0,40156.0,-0.01886564977706426,-0.08182582096600002,0.0380600395098,-0.000592208174822259,-0.003572455937432437,0.0010961479956237195,24.768785095016938
1621,C,168143594434326.0,-0.715813231368071,7.790134,1.3640964,106,1970-01-02 22:42:23.594434326,-0.50600064,-0.19281286,-0.28336033,7.947673970173999,0.6111518005205402,91.12565612792969,0.5748041868209839,147.20840454101562,24808411.0,39626.0,-0.03240876074590118,-0.07306115076800003,0.0397634923135,-0.0010158998956915142,-0.0030687755709657436,0.001541917636015043,24.8084112930228
1621,C,168143634668753.0,-0.891787061368071,8.161834,0.9498995,106,1970-01-02 22:42:23.634668753,-0.777643,-0.13741912,-0.44421527,8.273100390549548,0.9060573139110722,90.89448547363281,0.7496175169944763,147.19967651367188,24848645.0,40234.0,-0.03234009508897297,-0.07338745974400002,0.0465506555203,-0.0013025527328301633,-0.0029461066976699045,0.0017363817119725546,24.848645720019704
1621,C,168143674266669.0,-0.996533361368071,9.154829,1.3102269,106,1970-01-02 22:42:23.674266669,-0.7233146,0.41438788,-0.23542345,9.30948641218847,0.8662133261927785,90.85859680175781,0.7610710263252258,147.2205810546875,24888243.0,39598.0,-0.03738685604975287,-0.04520778926300003,0.044748242593599996,-0.001380523905595633,-0.002348067335089594,0.001807626883757106,24.88824363599997
1621,C,168143714191669.0,-0.595504591368071,9.715671,1.7836803,106,1970-01-02 22:42:23.714191669,-0.43675843,0.27696875,-0.16831179,9.900483979020413,0.5438735820993987,90.83695220947266,0.7692833542823792,147.23455810546875,24928168.0,39925.0,-0.03178105763149523,-0.014562643750000033,0.06176212248000001,-0.0013807644768619154,-0.0011931672690220138,0.0021262131627817404,24.92816863601911
1621,C,168143754285835.0,-1.0905057613680709,9.691729,1.5119383,106,1970-01-02 22:42:23.754285835,-0.29507825,-0.42184472,-0.08735169,9.87744529416978,0.5221632495310227,90.82191467285156,0.7739556431770325,147.21353149414062,24968262.0,40094.0,-0.033799449541301436,-0.0038610522000000107,0.06606726607419999,-0.0013146924272930548,-0.00036933983270965085,0.0025625957523460474,24.968262802023673
1621,C,168143794063232.0,-1.785422861368071,9.40203,0.6386533,106,1970-01-02 22:42:23.794063232,-0.15233281,-0.33981937,-0.12996227,9.604747344844887,0.3944270285531227,90.8140640258789,0.7806959748268127,147.19664001464844,25008040.0,39778.0,-0.057199344377599125,-0.01006862724900002,0.042773116332399996,-0.0018098750122530133,-0.0002770473945611616,0.0021647263656848674,25.008040199027164
1621,C,168143834176669.0,-1.4526287613680708,9.32781,0.6853402,106,1970-01-02 22:42:23.834176669,-0.5592638,0.294013,-0.099069595,9.476191554587352,0.6395579933148393,90.66268920898438,0.9965047836303711,147.2094268798828,25048153.0,40113.0,-0.06494398237140743,-0.017452364040000043,0.026554675632749998,-0.00244976763294145,-0.0005519747617878298,0.001390472859549031,25.04815363601665
1621,C,168143873779690.0,-1.1365941613680708,11.442489,-0.16759412,106,1970-01-02 22:42:23.873779690,-0.87351686,0.7861652,0.03834952,11.507221998695691,1.175822313140693,90.62413024902344,1.1196297407150269,147.24876403808594,25087756.0,39603.0,-0.05127049770455971,0.023173675648499963,0.01025214900312,-0.002301221027224263,0.00011329055181571118,0.0007288303380271798,25.087756657012505
1621,C,168143913701461.0,-0.8947798113680709,12.958018,2.1523874,106,1970-01-02 22:42:23.913701461,-0.49854377,0.314253,-0.046871636,13.170995353116185,0.5911833800743466,90.59951782226562,1.121807336807251,147.26449584960938,25127678.0,39922.0,-0.04054825586978612,0.09582292022699995,0.03961845866208,-0.001832794140097517,0.0023752910502708537,0.0009954671996050572,25.127678428019863
1621,C,168143953857919.0,-2.590473161368071,13.79539,5.249287,106,1970-01-02 22:42:23.953857919,0.13528858,-1.2751216,-0.099069595,14.998318114340554,1.2860998714401772,90.60502624511719,1.1274296045303345,147.2008056640625,25167834.0,40156.0,-0.06997690918659626,0.1436261258239999,0.14861081860319997,-0.0022191242640020453,0.0048076579466119745,0.003779267428932291,25.16783488600049
1621,C,168143993786564.0,-3.585862361368071,15.268423,2.6839,106,1970-01-02 22:42:23.993786564,0.2066613,0.31638354,0.111852765,15.927911886562544,0.3941046540435254,90.61566925048828,1.121668815612793,147.21656799316406,25207763.0,39929.0,-0.12330745054366571,0.18894029463849996,0.1583821118615,-0.0038588255998348153,0.006639522301323578,0.006128960360262503,25.20776353101246
1621,C,168144033366773.0,0.17662546863192902,10.503363,5.837662,106,1970-01-02 22:42:24.033366773,0.12250541,2.2786007,0.33129725,12.017077679135355,2.30581581948284,90.6240005493164,1.1038728952407837,147.33030700683594,25247343.0,39580.0,-0.06746879810724825,0.12213964493999997,0.16864171197999997,-0.003775461960801587,0.006156272004258514,0.006471801473823284,25.24734374001855
1621,C,168144073226304.0,1.2432423386319291,8.008006,4.6178164,106,1970-01-02 22:42:24.073226304,1.3571469,1.1739215,0.39414784,9.318116014371201,1.8371967548737196,90.69297790527344,1.0834929943084717,147.3887939453125,25287203.0,39860.0,0.028297965398768693,-0.021696415830000024,0.208377684512,-0.0007806746958799975,0.002001833556162299,0.00751399657208556,25.28720327100018
1621,C,168144113126721.0,0.960127998631929,9.345168,3.317765,106,1970-01-02 22:42:24.113126721,0.51452273,-0.3888215,0.52837116,9.956447341256284,0.8337217049283582,90.71834564208984,1.0573168992996216,147.36903381347656,25327103.0,39900.0,0.04395723822841397,-0.04482417870000004,0.15831484893,0.0014414913123622938,-0.0013270858608735012,0.0073155160421679005,25.327103688003263
1621,C,168144152839481.0,-1.8500663613680708,10.642825,2.8203697,106,1970-01-02 22:42:24.152839481,0.28442562,-0.13741912,0.25033715,11.176470088601574,0.40305165490800465,90.73242950439453,1.044888973236084,147.36199951171875,25366816.0,39713.0,-0.017671061099670198,0.007704183004499961,0.12188187167055,0.0005219514761569007,-0.0007370731945276974,0.005563726182604821,25.366816448018653
1621,C,168144192759950.0,-0.620045161368071,8.670602,1.654992,106,1970-01-02 22:42:24.192759950,2.1646173,1.2580773,0.47404268,8.854120036869155,2.548145013670957,90.84178161621094,1.020323634147644,147.42457580566406,25406736.0,39920.0,-0.049303425993813384,-0.005719997080000012,0.089328219532,-0.0013368107623859323,3.960435105301898e-05,0.004215753420402897,25.406736917007947
1621,C,168144232650054.0,0.679407838631929,7.03596,0.50278234,106,1970-01-02 22:42:24.232650054,1.4221281,0.86179894,0.5763081,7.080117958240634,1.7599081714454148,90.79095458984375,0.8424453735351562,147.46514892578125,25446627.0,39891.0,0.0011840182793662803,-0.07765656762900001,0.043037888098470006,-0.0009597656465685047,-0.0016629872714033602,0.00264010819974354,25.4466270210105
1621,C,168144272856460.0,1.1337076386319291,5.8651958,1.4107834,106,1970-01-02 22:42:24.272856460,0.75420725,0.16192019,0.6263755,6.125426923922003,0.9936765021285592,90.82878112792969,0.811014711856842,147.47279357910156,25486833.0,40206.0,0.036449060439435334,-0.13466686495260002,0.038468412071219996,0.0007565377814840688,-0.004268337965187905,0.0016385211523112782,25.486833427014062
1621,C,168144312492762.0,0.651275938631929,6.4110737,-0.19752164,106,1970-01-02 22:42:24.312492762,0.8426242,0.28336033,0.51452273,6.440339281576491,1.027152500230614,90.89439392089844,0.6357738971710205,147.48681640625,25526469.0,39636.0,0.03537480453421513,-0.14514169104900002,0.024044421559679997,0.001423405356047805,-0.005545245962839709,0.001238879336897176,25.526469729025848
1621,C,168144352571512.0,0.374745658631929,8.36175,-0.5835867,106,1970-01-02 22:42:24.352571512,1.1930962,0.41225734,0.314253,8.387603423143252,1.3008418831077495,91.0316162109375,0.5519338846206665,147.5079345703125,25566548.0,40079.0,0.02056095979836908,-0.09673419946385,-0.01565302057943,0.0011209247493428212,-0.004847071907932258,0.00016815947994371978,25.566548479022458
1621,C,168144392462710.0,1.2977104386319291,7.6973586,-0.4213795,106,1970-01-02 22:42:24.392462710,1.3401027,-0.0053263223,0.2428803,7.805926517359793,1.3619451003563336,91.15049743652344,0.3010300099849701,147.5076904296875,25606439.0,39891.0,0.033357973087976285,-0.07062484941870001,-0.020044553342100004,0.0010754400758846015,-0.0033380599094869016,-0.0007120059606518767,25.606439677008893
1621,C,168144432368075.0,0.589026678631929,8.603564,-1.1474211,106,1970-01-02 22:42:24.432368075,0.9832391,-0.6135923,0.28549087,8.695203841695601,1.1936329734225077,91.36006164550781,0.19457879662513733,147.47740173339844,25646345.0,39906.0,0.037646065700765764,-0.06582649136220001,-0.031302278371799996,0.00141674358595177,-0.002722613602601298,-0.0010245233331874467,25.6463450420124
1621,C,168144472313856.0,0.26461237863192905,9.698313,-2.1733365,106,1970-01-02 22:42:24.472313856,0.6487461,-0.18002969,0.2609898,9.940738180083699,0.7220788511310563,91.39247131347656,0.18174992501735687,147.46807861328125,25686290.0,39945.0,0.01704930607120241,-0.02592676161750001,-0.066323831166,0.0010924033127156345,-0.0018325418451370587,-0.0019498374727437106,25.686290823010495
1621,C,168144512250210.0,1.522765338631929,9.305663,-2.083554,106,1970-01-02 22:42:24.512250210,0.35260254,0.13635385,0.28442562,9.645989169111889,0.47309497665548983,91.41011810302734,0.16736547648906708,147.47454833984375,25726227.0,39937.0,0.03569125194718335,-0.011901705244000034,-0.08500371794925,0.001053149832790136,-0.0007553777405238636,-0.00302178416450787,25.72622717701597
1621,C,168144552053960.0,2.063256338631929,8.232463,-2.0602105,106,1970-01-02 22:42:24.552053960,0.04580637,-0.314253,0.14487597,8.717124909722227,0.34905904690326794,91.41236114501953,0.1605096459388733,147.45864868164062,25766030.0,39803.0,0.07136721041006666,-0.04103438541100006,-0.08246712919674999,0.002130623988602811,-0.0010535076081704844,-0.003332921064476119,25.76603092701407
1621,C,168144591820887.0,0.11617187163192902,7.819463,-3.448249,106,1970-01-02 22:42:24.591820887,-0.28975195,-0.7669904,-0.015978966,8.546139017081126,0.8200523114871341,91.39776611328125,0.1622496396303177,147.42034912109375,25805797.0,39767.0,0.043334660818781415,-0.07054812937900004,-0.10952745446825,0.0022806746565788003,-0.0022186509328269667,-0.0038175243043030273,25.805797854001867
1621,C,168144631698231.0,-0.48357566136807095,8.154651,-3.570952,106,1970-01-02 22:42:24.631698231,-0.56245965,-0.05219796,0.13209279,8.919486123993595,0.5801154971867828,91.36963653564453,0.15570800006389618,147.41757202148438,25845675.0,39878.0,-0.007325664163548934,-0.07229654095400004,-0.139955848739,0.0007179833843086804,-0.0028481798817696882,-0.004974447582649357,25.84567519801203
1621,C,168144671590627.0,-0.408756861368071,11.841123,-4.1222167,106,1970-01-02 22:42:24.671590627,0.29188246,-0.12676647,-0.11824436,12.547299553358926,0.3394802454395868,91.38420867919922,0.1617715209722519,147.411376953125,25885567.0,39892.0,-0.017798464498495085,0.007894108203999953,-0.1534479428902,-0.0005011258702931299,-0.0012845709236315016,-0.005852232027836022,25.88556759399944
1621,C,168144711497710.0,1.626913138631929,11.468226,-1.7136499,106,1970-01-02 22:42:24.711497710,0.6956177,0.53476274,-0.7414241,11.699515323441958,1.1487231471100456,91.41907501220703,0.19817662239074707,147.43902587890625,25925474.0,39907.0,0.024306481278384393,0.07401449527149995,-0.1164459642031,0.0001298577128175213,0.0016343633194483872,-0.00538532807518616,25.925474677002057
1621,C,168144751382815.0,1.798098538631929,15.107412,-4.207211,106,1970-01-02 22:42:24.751382815,-0.91612744,0.011717909,-0.8223842,15.777150867654694,1.231154973235265,91.3732681274414,0.23926903307437897,147.4405975341797,25965359.0,39885.0,0.06830329537383448,0.13911166081499998,-0.11807676849825,0.0018468704708868747,0.004250268367755024,-0.004676969596896671,25.965359782014275
1621,C,168144791260210.0,0.433403598631929,11.218631,-0.6362591,106,1970-01-02 22:42:24.791260210,-0.44101948,-1.5659387,-0.10013486,11.242511911783,1.6299353312583846,91.39771270751953,0.1939777284860611,147.36264038085938,26005237.0,39878.0,0.04449392111490406,0.134110571377,-0.0965739503239,0.0022490636995689574,0.005447778087676288,-0.004279920682594848,26.00523717701435
1621,C,168144831391096.0,-1.1156449613680708,11.148601,-2.795829,106,1970-01-02 22:42:24.831391096,-0.350472,-1.0524813,-0.37816888,11.55488363443661,1.171989424625557,91.38001251220703,0.21415594220161438,147.31048583984375,26045368.0,40131.0,-0.013689514063982052,0.055525893695999966,-0.06886656377054999,0.0006181058296802755,0.003805150489922281,-0.003319646635562186,26.04536806300166
1621,C,168144871256460.0,-0.01371357136807097,8.656237,0.002992752,106,1970-01-02 22:42:24.871256460,-1.2772521,0.47191215,0.0053263223,8.656648922979423,1.3616542784353434,91.28123474121094,0.2219543755054474,147.33392333984375,26085233.0,39865.0,-0.022510938953763143,0.004082933434999975,-0.055668208513259994,-0.000721565529776206,0.0011881529467886562,-0.0024822893485470423,26.085233427002095
1621,C,168144911216512.0,0.17423126863192903,10.351331,-0.20649989,106,1970-01-02 22:42:24.911216512,-1.0524813,-0.16085494,0.2130529,10.353908349950013,1.0858097148075732,91.22514343261719,0.19160763919353485,147.32565307617188,26125193.0,39960.0,0.0032071435913318845,-0.011836791360000012,-0.00406607261724,-0.00038568983134137653,-0.00015492208134150075,-0.00119349093698739,26.125193479005247
1621,C,168144951128075.0,-0.289046761368071,10.609905,-0.2621651,106,1970-01-02 22:42:24.951128075,-0.809601,-0.20879184,-0.039414786,10.619238176923636,0.8370193169855826,91.18936157226562,0.23753246665000916,147.31524658203125,26165105.0,39912.0,-0.0022912579730424492,0.027164825615999963,-0.00935267854044,1.8277413398583972e-05,0.00030588625161273505,-0.0002677845981026621,26.165105042018695
1621,C,168144991053440.0,0.08385014863192902,9.271546,0.50637364,106,1970-01-02 22:42:24.991053440,-1.0759171,-0.5422196,-0.350472,9.285373061569675,1.2547630547161366,91.02766418457031,0.24762244522571564,147.28805541992188,26205030.0,39925.0,-0.004096237381745234,0.005618465587499976,0.00487501297975,-0.00012751037601994915,0.0006544364506498676,-8.938539875527413e-05,26.205030406999867
1621,C,168145031157762.0,-0.23876853136807097,7.235876,-0.25318682,106,1970-01-02 22:42:25.031157762,-0.89801794,0.14807177,-0.42184472,7.246914150759,1.0031522503711263,91.00719451904297,0.3235597014427185,147.29591369628906,26245134.0,40104.0,-0.003106423410625118,-0.06201237405600001,0.00507690211464,-0.0001444277542086103,-0.0011308106526103628,0.00019955580147270826,26.2451347290189
1621,C,168145071144169.0,-0.17472363136807095,6.3105173,1.1486182,106,1970-01-02 22:42:25.071144169,-0.5049353,-0.664725,-0.36751625,6.418892140068929,0.9120784926886241,90.98175048828125,0.3425103724002838,147.2630157470703,26285121.0,39987.0,-0.008267155555665054,-0.12103278555645003,0.017902807296030002,-0.00022739765106252256,-0.00365971339871152,0.0004594448201022307,26.285121136024827
1621,C,168145110718387.0,-1.9135125613680708,6.947375,0.8110358,106,1970-01-02 22:42:25.110718387,-0.6348976,-1.526524,-0.3888215,7.270545142571897,1.6983970807570326,90.94953918457031,0.3632369935512543,147.18701171875,26324695.0,39574.0,-0.041319929545670035,-0.1254912850599,0.038775673698,-0.0009811796529001174,-0.004877971785285718,0.0011214971034288715,26.324695354007417
1621,C,168145150662971.0,-2.100260261368071,8.0367365,0.36152446,106,1970-01-02 22:42:25.150662971,-0.67537767,0.12144015,-0.034088463,8.332636076028992,0.6870551145842333,90.91580963134766,0.36484211683273315,147.19313049316406,26364639.0,39944.0,-0.08016307081568623,-0.09218852512200003,0.02341837351272,-0.0024262584832170074,-0.004347501168952907,0.0012421395108925,26.364639938023174
1621,C,168145190378387.0,-0.624234961368071,8.225879,1.174356,106,1970-01-02 22:42:25.190378387,-1.1558119,1.3741912,-0.22903186,8.338291610052147,1.8101818127564175,90.85846710205078,0.3752276599407196,147.26199340820312,26404355.0,39716.0,-0.05410302613309431,-0.06627378140100001,0.03049951417468,-0.0026662561532088845,-0.0031467444829337346,0.0010707014136963893,26.40435535402503
1621,C,168145230238179.0,0.162858803631929,9.097368,1.7477672,106,1970-01-02 22:42:25.230238179,-0.8277105,0.6668556,-0.30146983,9.264194043133255,1.1048461981026314,90.81731414794922,0.3898121416568756,147.29556274414062,26444215.0,39860.0,-0.00919522682368131,-0.04537568729000002,0.058237915375999996,-0.0012615341814285381,-0.0022251739110116307,0.0017685369709450522,26.44421514600981
1621,C,168145270148387.0,-0.544029261368071,9.983821,2.5779567,106,1970-01-02 22:42:25.270148387,-0.25353295,-0.7094661,-0.26525086,10.329589173314861,0.7987359529379231,90.80438232421875,0.40357357263565063,147.26028442382812,26484125.0,39910.0,-0.007606256484124713,-0.010352873505000025,0.0863198204245,-0.0003352735994072692,-0.001112063430664226,0.0028846496178989776,26.48412535400712
1621,C,168145310047294.0,-1.909921261368071,9.862315,1.3275849,106,1970-01-02 22:42:25.310047294,0.041545313,-1.0471549,-0.11504856,10.146453974561947,1.05427490190384,90.80608367919922,0.41006240248680115,147.2080078125,26524024.0,39899.0,-0.04895508595332466,0.004910290131999998,0.0779136021492,-0.0011283705009558962,-0.00010857681699966402,0.003276374663634028,26.524024261016166
1621,C,168145349958856.0,-2.011674961368071,8.732851,0.40581718,106,1970-01-02 22:42:25.349958856,-0.10013486,0.15765914,0.07243799,8.986856227137116,0.20032637621641167,90.80113983154297,0.4063296318054199,147.21583557128906,26563935.0,39911.0,-0.07825741342281109,-0.020051964887000014,0.03459090520744,-0.002538589031300477,-0.0003021596905734028,0.00224508369655543,26.56393582301098
1621,C,168145389868387.0,-1.007905861368071,9.00579,0.02813187,106,1970-01-02 22:42:25.389868387,-0.829841,0.40586576,-0.027696876,9.070192764447517,0.924191656184764,90.73548126220703,0.5676867365837097,147.23590087890625,26603845.0,39910.0,-0.06025573531769971,-0.03714341884500004,0.00865945329275,-0.002764029883116893,-0.001141333882372061,0.0008630609038712915,26.603845354024088
1621,C,168145429832502.0,-0.5266713013680709,12.043433,0.9295488,106,1970-01-02 22:42:25.429832502,-1.0578076,0.39414784,0.02876214,12.094013825437756,1.1292195088165122,90.55440521240234,0.6226540207862854,147.2542266845703,26643809.0,39964.0,-0.030663920865793587,0.02895837398599996,0.019136375147939998,-0.001816756569858563,-0.00016355356637253956,0.0005554162439018675,26.643809469009284
1621,C,168145469937971.0,0.11198201863192903,12.985552,1.7220296,106,1970-01-02 22:42:25.469937971,-0.24820662,-0.04261058,-0.10226539,13.099299690301317,0.27180948793523174,90.33992004394531,0.6078555583953857,147.24998474121094,26683914.0,40105.0,-0.008315556842066486,0.10886472171249999,0.053170775866000004,-0.0007816359767368642,0.0027636976264941706,0.0014499391457070319,26.683914938010275
1621,C,168145509749585.0,-3.0166411613680713,13.03164,4.098873,106,1970-01-02 22:42:25.509749585,0.2609898,-2.0208068,0.054328486,14.005569088794187,2.0383148390328056,90.3519058227539,0.6057482361793518,147.14891052246094,26723726.0,39812.0,-0.057820144895305646,0.12774062395199992,0.1158708871556,-0.0013164972787841295,0.004709866010797536,0.0033649433441079696,26.723726552008884
1621,C,168145549781408.0,-4.267012961368071,14.3574295,1.5065514,106,1970-01-02 22:42:25.549781408,0.2247708,-0.63915867,0.15978967,15.073854081864308,0.6961166975497125,90.36280822753906,0.5979562997817993,147.11691284179688,26763758.0,40032.0,-0.1457896209206866,0.155906015112,0.11219817479040001,-0.0040754530725729005,0.005677471127505021,0.004565030343911136,26.76375837501837
1621,C,168145589755940.0,-0.874429061368071,11.66515,5.2941785,106,1970-01-02 22:42:25.589755940,-0.15978967,2.062352,0.45167214,12.845126916605592,2.1172709398173133,90.35588073730469,0.5747273564338684,147.2198944091797,26803732.0,39974.0,-0.10276200170842727,0.12836809646650002,0.1359261885113,-0.0049678012814880984,0.00568178666811948,0.004959261649311078,26.803732907021185
1621,C,168145629681565.0,1.2576075386319292,7.9188223,6.0651116,106,1970-01-02 22:42:25.629681565,1.0354371,1.8940402,0.28655612,10.045004603382823,2.177529030158244,90.40858459472656,0.5597702264785767,147.3144989013672,26843658.0,39926.0,0.007649391941618402,-0.00031996097510000843,0.2267655082663,-0.0018987330287748056,0.0025562249288148186,0.0072404143427712295,26.84365853201598
1621,C,168145669605992.0,1.6526508386319292,8.736442,2.4702177,106,1970-01-02 22:42:25.669605992,1.2101405,0.3898868,0.6146576,9.215748455167965,1.4121811894343623,90.46926879882812,0.5288878083229065,147.33375549316406,26883582.0,39924.0,0.05809457772694114,-0.058782814043400015,0.17038224348660003,0.0013123811225237857,-0.0011798095949192976,0.00792786342049139,26.8835829590098
1621,C,168145709378075.0,-0.250739521368071,9.601946,2.6461914,106,1970-01-02 22:42:25.709378075,-0.15978967,-1.2399678,-0.11504856,9.96508944925146,1.2555035064999311,90.4607162475586,0.5351428389549255,147.2718048095703,26923355.0,39773.0,0.027879109410767718,-0.025089047038000026,0.10174746956715001,0.0017097157292640475,-0.001667917765395262,0.005411707538643401,26.923355042003095
1621,C,168145749360887.0,-2.2768328613680713,10.822391,2.556409,106,1970-01-02 22:42:25.749360887,1.9813919,0.773382,0.24074976,11.365306865099772,2.1405592788450565,90.56014251708984,0.5227608680725098,147.31036376953125,26963337.0,39982.0,-0.05052869950327822,0.01647932096699996,0.10400518459639999,-0.00045278795553937745,-0.0001721170338853623,0.004113201309383528,26.963337854016572
1621,C,168145788902606.0,0.25024716863192903,7.2406645,0.7751228,106,1970-01-02 22:42:25.788902606,1.7992316,1.1483551,0.5944176,7.2842488557539005,2.215690878557821,90.4842300415039,0.44422969222068787,147.36602783203125,27002879.0,39542.0,-0.040067625731086264,-0.03038692970950001,0.06586771521780001,-0.00179117994620862,-0.0002749673324479685,0.0033585571022265483,27.002879573003156
1621,C,168145829117502.0,1.371332138631929,5.97892,0.8265981,106,1970-01-02 22:42:25.829117502,0.45167214,0.3387541,0.61572284,6.1743371683083215,0.8353901352162684,90.50694274902344,0.4132983088493347,147.38270568847656,27043094.0,40215.0,0.032605905920808025,-0.12829420466625002,0.03220660299675,-0.0001500365310851697,-0.003190680909460394,0.0019720293534990644,27.043094469001517
1621,C,168145868826096.0,0.730284638631929,7.819463,0.25378537,106,1970-01-02 22:42:25.868826096,0.777643,0.6359629,0.73609775,7.8513364602672455,1.245398467632136,90.48709106445312,0.2455972582101822,147.4137725830078,27082803.0,39709.0,0.04172655030418527,-0.11518820472650004,0.021450473605115004,0.0014758337521191293,-0.004834221497288356,0.0010653344273917288,27.082803063007304
1621,C,168145908616356.0,1.0618815386319291,7.776367,0.5303157,106,1970-01-02 22:42:25.908616356,1.4082797,0.22264028,0.28655612,7.857200195308487,1.4542815468883674,90.44879913330078,0.04440818354487419,147.42437744140625,27122593.0,39790.0,0.03565514609666446,-0.07966296215000004,0.015599690787649998,0.0015395088498949053,-0.0038765639650079693,0.0007371130205940597,27.122593323001638
1621,C,168145948519481.0,0.5650846886319291,5.7203465,-0.6913257,106,1970-01-02 22:42:25.948519481,1.5020229,-0.7041398,0.19281286,5.78314181772069,1.6700486367318257,90.68405151367188,-0.08843731880187988,147.3889617919922,27162496.0,39903.0,0.03246041668325487,-0.12176972060475004,-0.003212391015000002,0.0013590076508035605,-0.0040188841699813965,0.0002471452114140264,27.16249644799973
1621,C,168145988475627.0,-0.269294601368071,8.141483,-1.917157,106,1970-01-02 22:42:25.988475627,0.85540736,-0.39734364,0.3110572,8.371070452318728,0.9931567355973875,90.72683715820312,-0.10374549776315689,147.368896484375,27202452.0,39956.0,0.005909294363357356,-0.11463717024900004,-0.0521122673806,0.0007665500872892189,-0.004722936865476219,-0.0011052760254272969,27.2024525940069
1621,C,168146028333960.0,1.3192582386319291,9.644443,-1.8375498,106,1970-01-02 22:42:26.028333960,0.2727077,0.7073356,0.34088463,9.897010284673625,0.8312012221098372,90.74040985107422,-0.12124107033014297,147.40403747558594,27242310.0,39858.0,0.020924725327031428,-0.036152680746000025,-0.0748275518172,0.000534775178409758,-0.003005090940479356,-0.0025297836567929563,27.24231092701666
