Subject-id_accel,Activity_accel,Timestamp_accel,accel_x,accel_y,accel_z,Segment_accel,DateTime,gyro_x,gyro_y,gyro_z,accel_magnitude,gyro_magnitude,Roll,Pitch,Yaw,Time_Difference,Difference_Microseconds,vx,vy,vz,dx,dy,dz,Time_diff
1619,C,173247969313092.0,1.536298284919131,5.868448082748836,-0.6679823,96,1970-01-03 00:07:27.969313092,0.27803403,-1.0215886,-0.49960902,13.343685021243449,1.1707072060739019,-84.86628723144531,13.144346237182617,-72.30359649658203,15005066.0,38091.0,0.006388347690354615,-0.1548752031595141,-0.064738854144,-0.0010299466995451422,-0.0060597433411422475,-0.002627744768235135,15.005066140991403
1619,C,173248008168040.0,2.465847084919131,6.702827582748835,1.0205284,96,1970-01-03 00:07:28.008168040,1.1345067,-0.6114618,-0.24181503,12.68501824431006,1.3112839105007088,-84.81380462646484,12.542205810546875,-72.2762451171875,15043921.0,38855.0,0.07775167917253284,-0.13655054200854402,0.006849089357749997,0.0016346303718787459,-0.00566167366425245,-0.001124653405384872,15.043921089003561
1619,C,173248048007363.0,-0.306039855080869,8.037595082748835,-2.5384524,96,1970-01-03 00:07:28.048007363,1.695901,-0.17150758,0.35153726,11.364850149822397,1.7404233671629339,-85.18205261230469,12.304657936096191,-72.3639907836914,15083760.0,39839.0,0.04302228011476326,-0.09680035071461919,-0.030236287118000006,0.0024057568820232945,-0.00464823310759905,-0.0004658612857853,15.083760412002448
1619,C,173248088255748.0,-2.3512866150808693,9.017422082748835,0.2813187,96,1970-01-03 00:07:28.088255748,1.4402375,0.608266,0.8213189,10.374042561527851,1.766022740130902,-85.19609832763672,12.37294864654541,-72.4085693359375,15124008.0,40248.0,-0.05347603788553482,-0.051215234561524915,-0.0454225585788,-0.000210371421379007,-0.002978665638097124,-0.0015225586108024033,15.124008796992712
1619,C,173248128228353.0,-2.2495331150808693,8.509851082748837,2.2613235,96,1970-01-03 00:07:28.128228353,1.3337111,0.5113269,1.5936357,11.076273923498222,2.140073653228157,-84.95268249511719,12.444636344909668,-72.38893127441406,15163981.0,39973.0,-0.0919542835368776,-0.04142655487778082,0.0508185183303,-0.002906643119109046,-0.001851585124628684,0.00010784634957335476,15.16398140200181
1619,C,173248168385228.0,0.18656714491913098,11.011791082748836,0.92176765,96,1970-01-03 00:07:28.168385228,0.98110855,-1.5488945,1.2335763,8.152151643175788,2.209832266696964,-84.84867858886719,12.16406536102295,-72.29669952392578,15204138.0,40157.0,-0.04142126223189246,-0.0015733077800550133,0.063911695655275,-0.0026779808957182495,-0.0008633727423753568,0.0023036106015093677,15.204138276982121
1619,C,173248209124029.0,-0.16358485508086903,13.558624082748835,-0.91697925,96,1970-01-03 00:07:28.209124029,0.809601,-1.6831179,-0.09161274,5.6301588415245005,1.8699552236970056,-85.1574935913086,11.908504486083984,-72.28809356689453,15244877.0,40739.0,0.00046813775286047674,0.10124487171360477,9.753731380000052e-05,-0.0008341946690756419,0.0020302599215444414,0.0013038360709635732,15.244877077988349
1619,C,173248250154028.0,-2.307592615080869,11.765965582748835,1.30484,96,1970-01-03 00:07:28.250154028,0.7978831,-0.32490566,0.40266997,7.8173929697221505,0.9509596384208145,-84.98635864257812,12.065658569335938,-72.24329376220703,15285907.0,41030.0,-0.05069620580036805,0.11743995698768468,0.007956963286249999,-0.001030428815994618,0.004486319260806953,0.0001652380798100257,15.285907076991862
1619,C,173248290272415.0,0.42957861491913096,11.174597382748836,1.6106992,96,1970-01-03 00:07:28.290272415,0.59761333,-0.24714136,1.1462245,8.107172226580222,1.3160741424466134,-84.7884292602539,11.755653381347656,-72.1917495727539,15326025.0,40118.0,-0.03767108282924431,0.06700835252491776,0.0584828008128,-0.0017725594426213941,0.0036998486405132925,0.001332715228062844,15.326025463989936
1619,C,173248328416164.0,-1.275093015080869,13.878249782748835,2.5378537,96,1970-01-03 00:07:28.328416164,0.5656554,-0.14168017,0.33768883,5.959956559740141,0.6738494253371133,-84.25448608398438,11.81234359741211,-72.08006286621094,15364169.0,38144.0,-0.016125650639884668,0.10399670114037154,0.0791212009088,-0.0010260113007232276,0.003261408383504397,0.002624383520834355,15.364169212989509
1619,C,173248367501113.0,-3.3939614150808692,10.986652082748837,5.1624975,96,1970-01-03 00:07:28.367501113,0.10865697,0.24394555,-0.34834146,10.21651354480829,0.4389277175678417,-83.63226318359375,12.01891803741455,-71.96629333496094,15403254.0,39085.0,-0.09124499620143578,0.10288934470648822,0.150484113326,-0.0020982908658965047,0.004043070550962257,0.0044870618534335795,15.403254161996301
1619,C,173248410079341.0,-4.5186378150808695,13.829168482748836,4.282628,96,1970-01-03 00:07:28.410079341,-0.025566347,0.54648066,-0.23222765,8.181327350512294,0.5943268724174287,-82.98133850097656,12.580306053161621,-71.85517883300781,15445832.0,42578.0,-0.16845132501091326,0.11103960401887991,0.2010772767695,-0.005528674982289698,0.004554333389414362,0.0074843904337431,15.445832389988936
1619,C,173248449771165.0,-3.241929715080869,15.287836082748836,2.1152773,96,1970-01-03 00:07:28.449771165,-0.86606,0.48682585,0.45167214,5.458967389938465,1.0913601852186117,-82.58964538574219,13.212166786193848,-71.77921295166016,15485524.0,39692.0,-0.15401622320358985,0.1888744726068667,0.1269728285838,-0.006399690961865028,0.0059520947647145675,0.0065104823908415915,15.485524213989265
1619,C,173248487441530.0,-2.720592215080869,2.4112220827488358,3.6780925,96,1970-01-03 00:07:28.487441530,-0.44208476,0.34834146,-0.3920173,17.319289110231296,0.6858996072884713,-82.48953247070312,13.094568252563477,-71.77064514160156,15523194.0,37670.0,-0.11230410055459634,-0.03580423945285138,0.109118120183,-0.005016143297985437,0.002883077841455879,0.004446773020022678,15.52319457900012
1619,C,173248526961894.0,-1.1015133150808691,8.115406082748835,-0.91458505,96,1970-01-03 00:07:28.526961894,-0.97897804,0.7275756,-0.4527374,11.090776113858638,1.3010516553451525,-82.85802459716797,12.903611183166504,-71.88044738769531,15562714.0,39520.0,-0.07552480527599595,-0.17928982744976604,0.054606907212000004,-0.003711499179212504,-0.004250258761995721,0.0032352065413252,15.562714942992898
1619,C,173248567410436.0,-0.850720715080869,9.917043082748835,3.0663738,96,1970-01-03 00:07:28.567410436,-0.6221144,0.6764429,-0.3888215,9.731124617758697,0.9978895141798113,-82.61065673828125,12.702683448791504,-71.853759765625,15603163.0,40449.0,-0.03948295714300607,-0.03170293185239239,0.043518851574375,-0.002325974491043106,-0.004267223060506503,0.001984544408575041,15.603163485007826
1619,C,173248607227571.0,-3.826713415080869,8.676248082748836,-1.4077905,96,1970-01-03 00:07:28.607227571,-0.27696875,0.4889564,-0.89588743,11.21315876843752,1.0575463757252102,-82.99007415771484,12.856287002563477,-71.96391296386719,15642980.0,39817.0,-0.09312069738032495,-0.020042062831689637,0.03301990562805,-0.0026399398560777356,-0.001030165226668047,0.0015237718477644781,15.642980620003073
1619,C,173248646803301.0,-3.358647015080869,9.097029082748836,-0.98700964,96,1970-01-03 00:07:28.646803301,-0.70840085,0.66579026,-1.4317155,10.617473639049031,1.730583054213764,-83.33982849121094,12.940155982971191,-72.0748291015625,15682556.0,39576.0,-0.1421839121920405,-0.03614719144913208,-0.04738830517032,-0.004656207614217967,-0.0011118729637089003,-0.0002843218901424387,15.682556349987863
1619,C,173248687427467.0,-1.501345115080869,10.323459082748835,0.35075054,96,1970-01-03 00:07:28.687427467,-0.8021441,0.1470065,-1.2197278,8.926321694882029,1.4672361685495285,-83.49357604980469,12.80504035949707,-72.11410522460938,15723180.0,40624.0,-0.09871616014784522,-0.003646244382411329,-0.012923694839199999,-0.0048931622693677585,-0.0008082842686103098,-0.0012250573441933703,15.723180515982676
1619,C,173248726449237.0,-1.0177164150808689,11.553479782748836,0.33638534,96,1970-01-03 00:07:28.726449237,-0.75101143,0.15339808,-0.7254451,7.6366094476978725,1.0553765830509703,-83.6341323852539,12.64803695678711,-72.148193359375,15762202.0,39022.0,-0.04914940951498567,0.04442535420472503,0.013406708154680001,-0.002885005129691493,0.0007956412117431625,9.424072798330327e-06,15.76220228598686
1619,C,173248766454133.0,-0.869275815080869,12.192732082748837,-0.9995792,96,1970-01-03 00:07:28.766454133,-0.7882957,0.5592638,-0.027696876,7.0471061695323,0.9669297935057588,-84.04631042480469,12.52700138092041,-72.25665283203125,15802207.0,40005.0,-0.03774456208381016,0.08293460283961716,-0.01326553518465,-0.0017380966669049136,0.0025475175407794546,2.823812333025094e-06,15.802207181986887
1619,C,173248806532310.0,-0.987190215080869,12.135271082748837,-0.012569559,96,1970-01-03 00:07:28.806532310,-0.6988135,0.5028048,-0.0010652645,7.048923046825897,0.8609030778628597,-84.23992919921875,12.425838470458984,-72.3153305053711,15842285.0,40078.0,-0.03720172277841107,0.09474445543340786,-0.020282448981601,-0.0015018486023540515,0.0035605106487331486,-0.0006722680547075039,15.842285358987283
1619,C,173248846656790.0,-1.735378215080869,9.613578082748836,0.5590461,96,1970-01-03 00:07:28.846656790,-0.59228706,-0.066046394,-0.3685815,9.675741429399551,0.7007270579520223,-84.32937622070312,12.359837532043457,-72.32674407958984,15882409.0,40124.0,-0.05462016784590479,0.043110211958214274,0.010963412365542,-0.001842130769705025,0.0027656403372107235,-0.00018695851259137566,15.882409838988679
1619,C,173248886321894.0,-2.564969215080869,7.539002082748835,-0.62488663,96,1970-01-03 00:07:28.886321894,-0.64341974,-0.07456851,-0.35579833,11.875373425422083,0.7390141244496458,-84.5790786743164,12.351906776428223,-72.37138366699219,15922074.0,39665.0,-0.08528664040868265,-0.048538453867767464,-0.001305782311225,-0.0027747017747091055,-0.00010765560767121364,0.00019153494805224187,15.922074942995096
1619,C,173248926214394.0,-1.3660726150808689,7.4881260827488365,0.17357962,96,1970-01-03 00:07:28.926214394,-0.52624065,0.15978967,-0.3536678,11.707073676481214,0.6538676265942299,-84.72328186035156,12.19880485534668,-72.40581512451172,15961967.0,39893.0,-0.0784105258653211,-0.09121278804690071,-0.009001995274965,-0.003265185527084416,-0.0027875481468509285,-0.00020560408562293883,15.961967442999594
1619,C,173248965860540.0,-2.720592215080869,7.2552890827488365,0.878672,96,1970-01-03 00:07:28.965860540,-0.5752428,0.2727077,-0.48682585,12.20183295054702,0.8014194761916836,-84.78132629394531,12.196767807006836,-72.42745971679688,16001612.999999998,39645.99999999814,-0.08100995692829231,-0.09627208117433513,0.02085878386325902,-0.0031601922304176503,-0.003716512562572383,0.00023503712018574128,16.001613589003682
1619,C,173249005808353.0,-2.775658815080869,7.571323082748837,1.1150994,96,1970-01-03 00:07:29.005808353,-0.42077947,0.24714136,-0.12037488,11.927657949521285,0.5026174747570411,-84.79765319824219,12.227289199829102,-72.43902587890625,16041561.000000002,39948.000000003725,-0.1097821180764608,-0.09534364860635838,0.03982358994360371,-0.0038108809061452933,-0.003827332586639929,0.001212069734418389,16.041561402002117
1619,C,173249045966426.0,-2.6176416150808692,6.471189082748836,-1.0336965,96,1970-01-03 00:07:29.045966426,0.1107875,0.09161274,0.19068234,12.95495170194555,0.2388022593578905,-85.03904724121094,12.230799674987793,-72.49495697021484,16081719.0,40157.99999999814,-0.10829207933721252,-0.11158879822896708,0.0016344888290999253,-0.004378711809868944,-0.004154996600006308,0.0008324367636770777,16.0817194749834
1619,C,173249085314342.0,-2.010711415080869,6.904539082748835,-1.6274586,96,1970-01-03 00:07:29.085314342,0.041545313,-0.94488955,0.22370553,12.481869679852855,0.9718983685983074,-85.34083557128906,12.17465591430664,-72.51223754882812,16121067.0,39348.0,-0.09105821751540205,-0.12245632407199884,-0.052355565437400005,-0.003922017740278339,-0.004604603736149204,-0.0009978864611916959,16.12106739101
1619,C,173249125282988.0,2.365889384919131,6.099488082748836,2.7659016,96,1970-01-03 00:07:29.125282988,0.8564726,-0.86499476,0.13954964,13.504720172629781,1.2252490976949737,-85.10477447509766,11.640815734863281,-72.42987060546875,16161036.0,39969.0,0.007098054138232747,-0.1318172191111118,0.022751214133499995,-0.0016779018850110398,-0.005081529623742874,-0.0005916281586327897,16.161036036995938
1619,C,173249165124341.0,1.2513883849191312,6.725572082748835,-1.2324153,96,1970-01-03 00:07:29.165124341,1.8194717,-1.0226538,0.34194988,12.50541329952356,2.1150006577274025,-85.27007293701172,11.233880043029785,-72.42967224121094,16200876.999999998,39840.99999999814,0.07205798181405973,-0.13496018897319734,0.030547813839148567,0.0015768278141875685,-0.005314339357743232,0.001061743286729096,16.200877389987
1619,C,173249204993143.0,-1.870650715080869,9.136533082748835,-1.951873,96,1970-01-03 00:07:29.204993143,1.4668691,-0.48363006,0.7041398,10.339330833860085,1.6974733722254538,-85.58229064941406,11.261402130126953,-72.47836303710938,16240746.000000002,39869.000000003725,-0.012344684920610319,-0.07451306457839368,-0.06347719511635594,0.0011903547169225786,-0.004175744572924581,-0.0006564307510705518,16.24074619199382
1619,C,173249245022831.0,-1.7874522150808692,9.651286082748836,0.95349085,96,1970-01-03 00:07:29.245022831,1.2048141,0.42290998,1.3060142,9.679284253957508,1.8265001936337293,-85.49175262451172,11.317483901977539,-72.4881591796875,16280774.999999998,40028.999999996275,-0.0732151010957153,-0.016255393312145372,-0.01998211954117314,-0.0017124363372235899,-0.0018166853004500248,-0.0016703964532129604,16.280775880004512
1619,C,173249284880331.0,0.04231649191913098,9.157482082748835,1.1575965,96,1970-01-03 00:07:29.284880331,0.79894835,-0.3920173,1.5584819,10.01979657017513,1.7946759769090974,-85.392578125,11.111176490783691,-72.4515380859375,16320633.0,39858.00000000186,-0.0347788098268919,-0.015768459229797676,0.04207185979815197,-0.0021522106507767397,-0.000638203357308413,0.0004402264335813517,16.320633380004438
1619,C,173249324902258.0,0.48165251491913097,12.328603082748835,0.33758244,96,1970-01-03 00:07:29.324902258,0.7030745,-1.4594123,0.87138635,6.8048757443951144,1.839432571449104,-85.38733673095703,10.780463218688965,-72.38251495361328,16360655.000000002,40022.00000000186,0.010485143795840948,0.0377424502467756,0.02992002576834139,-0.0004861405509473833,0.0004397215342407656,0.0014406296220711655,16.360655306983972
1619,C,173249364955956.0,-0.16238775508086903,14.151787382748836,-0.29807812,96,1970-01-03 00:07:29.364955956,0.88203895,-1.2335763,0.113983296,4.971127416695747,1.5207548747269615,-85.5355453491211,10.571025848388672,-72.35736846923828,16400709.0,40053.99999999814,0.006393915345280576,0.13779357985251542,0.0007911530166399629,0.000338036917419225,0.0035154600747983383,0.000615052777526793,16.4007090049854
1619,C,173249405106268.0,-2.622430015080869,11.877295582748836,2.0566192,96,1970-01-03 00:07:29.405106268,0.7233146,-0.099069595,1.015197,7.974199446962162,1.2504494168240567,-85.22565460205078,10.846823692321777,-72.29767608642578,16440859.0,40150.0,-0.055905216735996896,0.12906384053236572,0.035302712181,-0.00099393937541863,0.005357162714226488,0.0007245843438426222,16.440859316993738
1619,C,173249445070487.0,-0.516729615080869,11.302089082748836,2.054225,96,1970-01-03 00:07:29.445070487,0.55287224,-0.51665324,1.4295849,8.092386063703204,1.6175015519229419,-84.94024658203125,10.746149063110352,-72.21829986572266,16480823.0,39964.0,-0.06272668772989184,0.07152326438597445,0.08214288880440002,-0.0023705027150373887,0.004008131530478273,0.0023467979988902633,16.480823535996024
1619,C,173249484913352.0,-3.002509515080869,12.392648082748835,2.677316,96,1970-01-03 00:07:29.484913352,0.38456047,-0.5816344,0.16618125,7.8421116955403924,0.7167995104640791,-84.52920532226562,11.060028076171875,-72.11495208740234,16520665.999999998,39842.99999999814,-0.07010852233151378,0.081573306442458,0.0942593940314956,-0.002646276637238169,0.0030499133357584744,0.00351419807751513,16.520666400989285
1619,C,173249524864966.0,-3.731544015080869,9.476510082748836,4.197036,96,1970-01-03 00:07:29.524864966,-0.09161274,-0.14807177,-0.52837116,11.161698362971316,0.5563220523410752,-84.10633087158203,11.26071548461914,-72.02745819091797,16560618.000000002,39952.000000003725,-0.13451945331852344,0.04532870351398568,0.13732205555201282,-0.004087648441585524,0.0025349945508901556,0.004626071036880596,16.560618015006185
1619,C,173249564361580.0,-3.5968701150808693,11.109355082748836,4.473566,96,1970-01-03 00:07:29.564361580,-0.34621096,0.6061355,-0.30679616,9.858567652395214,0.7624868241321401,-83.5920181274414,11.52645206451416,-71.9535903930664,16600114.000000002,39496.0,-0.144721522242434,0.01946886528824801,0.171227048296,-0.005514450785377789,0.0012796223887065112,0.006093227702790558,16.600114628992742
1619,C,173249604581216.0,-2.901354415080869,13.171361582748837,3.8367083,96,1970-01-03 00:07:29.604581216,-0.5613944,1.0567423,0.12250541,7.654526026489435,1.2028613953568874,-83.02857971191406,11.839179992675781,-71.8846664428711,16640334.0,40219.99999999814,-0.1306792953015465,0.09412921214315383,0.16711961617299226,-0.0055383104408091915,0.002284457337145385,0.006804151422471119,16.64033426498645
1619,C,173249646037309.0,-4.471950715080869,4.792254582748836,3.2716765,96,1970-01-03 00:07:29.646037309,-0.386691,0.31638354,-0.757403,15.361910070414337,0.9073520696361097,-82.90831756591797,11.935011863708496,-71.87579345703125,16681790.0,41456.0,-0.15283386873799248,-0.033918964121564275,0.14734260013439998,-0.005876660864211564,0.0012480380209915082,0.0065181728196196265,16.681790358008584
1619,C,173249685917099.0,-2.3614621150808692,6.0695610827488355,0.30406362,96,1970-01-03 00:07:29.685917099,-0.94275904,0.71798825,-0.32597092,13.261849192369578,1.2290479141699198,-83.10778045654297,11.886137962341309,-71.94402313232422,16721670.0,39880.0,-0.13625825183342505,-0.17423939562997645,0.0713002579928,-0.005764496884194065,-0.004150677693445722,0.004359738591056367,16.721670147991972
1619,C,173249724527832.0,-0.7423831150808691,12.246002782748835,2.9251158,96,1970-01-03 00:07:29.724527832,-0.7914915,0.46658584,-0.058589544,7.501478501602989,0.9206486166431163,-82.74653625488281,11.74864387512207,-71.88490295410156,16760280.000000002,38610.00000000186,-0.05991973216827525,-0.024796039576568688,0.06233930870310301,-0.0037872159811530074,-0.00384237907666254,0.0025799118350645325,16.76028088098974
1619,C,173249765324495.0,-0.965043855080869,10.547915582748836,-0.26635495,96,1970-01-03 00:07:29.765324495,-0.31851408,0.37923414,-0.72011876,8.624180293524343,0.8739798513717141,-82.99536895751953,11.591114044189453,-71.95486450195312,16801077.0,40796.99999999814,-0.03482894905084263,0.06515114377860125,0.05423473319872253,-0.001932730973848088,0.0008231835930651236,0.00237793559373428,16.801077543990687
1619,C,173249807166948.0,-3.171300815080869,9.393909582748837,-1.4670471,96,1970-01-03 00:07:29.807166948,-0.56459016,0.79894835,-1.9196066,10.33519840328052,2.1545231522311634,-83.40792083740234,11.67154312133789,-72.08267211914062,16842919.0,41842.0,-0.08653646684445371,0.007151324287376769,-0.03626450428805,-0.0025390858659454945,0.0015126399344083258,0.0003759551590401801,16.842919996997807
1619,C,173249846347828.0,-1.5426450150808688,8.872573082748836,0.6368576,96,1970-01-03 00:07:29.846347828,-0.8490158,0.4111921,-1.5073493,10.37748672916075,1.778203780212645,-83.53277587890625,11.525760650634766,-72.12767028808594,16882100.0,39181.0,-0.09234855578578352,-0.02612427134156787,-0.016263827399750002,-0.0035044470358376626,-0.00037168951926513076,-0.0010290562819298458,16.882100877002813
1619,C,173249886201478.0,-1.634821815080869,11.194948282748836,1.1049241,96,1970-01-03 00:07:29.886201478,-0.7797736,0.6061355,-0.53795856,8.163853636464633,1.1246539573995564,-83.54157257080078,11.508838653564453,-72.15411376953125,16921954.0,39854.0,-0.06331738152463295,0.009316298250272088,0.0347084839359,-0.003101955132784669,-0.000334932479790251,0.00036754667079586103,16.921954527002526
1619,C,173249926097367.0,-1.113484315080869,12.336384082748836,-0.57999533,96,1970-01-03 00:07:29.926097367,-0.6178534,0.7882957,0.14274544,6.894329545834781,1.0116961970724432,-83.86396789550781,11.47690200805664,-72.24977111816406,16961850.0,39896.0,-0.054823210684466356,0.07842221802694753,0.01047127910396,-0.0023566685333871133,0.0017502079226979772,0.0009012459131191274,16.961850416002562
1619,C,173249963679392.0,-0.863888875080869,12.074817082748837,-0.84575176,96,1970-01-03 00:07:29.963679392,-0.6988135,0.6764429,-0.08628642,7.142367395349026,0.9764018901144529,-84.23164367675781,11.37637996673584,-72.34906768798828,16999432.0,37582.0,-0.03715681961632922,0.09040728110086674,-0.02679121356819,-0.0017283967493822495,0.0031724751181107574,-0.0003066678885173459,16.999432440992678
1619,C,173250003621060.0,-1.870650715080869,10.002037082748835,-0.10235212,96,1970-01-03 00:07:30.003621060,-0.71479243,0.18002969,-0.45593318,9.3052171387452,0.8667260073931746,-84.42936706542969,11.366744995117188,-72.39202117919922,17039374.0,39942.0,-0.05461149015512007,0.049465254539153965,-0.01893458258748,-0.0018327049144456135,0.0027933944092668533,-0.0009131898750248856,17.03937410900835
1619,C,173250043193872.0,-3.110248415080869,8.214167082748835,0.5722142,96,1970-01-03 00:07:30.043193872,-0.8021441,-0.25033715,-0.40373522,11.354354111199221,0.9322585337251577,-84.53021240234375,11.462997436523438,-72.39379119873047,17078946.0,39572.0,-0.09855207018938016,-0.02737978438146313,0.00929669111488,-0.003030494204976282,0.0004369831125400709,-0.00019069532067686362,17.07894692098489
1619,C,173250083625122.0,-2.245941815080869,7.7514880827488355,0.39743748,96,1970-01-03 00:07:30.083625122,-0.34301516,-0.05006743,-0.28336033,11.59158112494724,0.4477267293275435,-84.63375091552734,11.445850372314453,-72.40982055664062,17119378.0,40432.0,-0.10828074169294971,-0.07347191517429913,0.01960247836288,-0.0041813321250131815,-0.00203881795821929,0.0005842256101623963,17.119378170988057
1619,C,173250123984393.0,-2.791221415080869,6.775251082748836,1.1186907,96,1970-01-03 00:07:30.123984393,-0.4293016,0.10652645,-0.30786142,12.703145840583996,0.5389122398281365,-84.66116333007812,11.465846061706543,-72.41761779785156,17159737.0,40359.0,-0.1016474354030488,-0.10237586700983976,0.030594708608309998,-0.004236245649708702,-0.0035485203205848303,0.0010129541344851285,17.159737442008918
1619,C,173250164723246.0,-2.775658815080869,7.205609082748836,1.3018472,96,1970-01-03 00:07:30.164723246,-0.39947417,-0.035153728,-0.054328486,12.300161491509362,0.40468133324943356,-84.65843963623047,11.506173133850098,-72.4116439819336,17200476.0,40739.0,-0.11339456684827952,-0.11445906885889519,0.049305146754050004,-0.0043802980648584315,-0.004416819226178197,0.0016275201038035917,17.200476294994587
1619,C,173250204712309.0,-1.0602134150808689,6.104876082748836,-0.6398504,96,1970-01-03 00:07:30.204712309,0.14168017,-0.23542345,0.14913702,13.066722841620432,0.3126328871305957,-84.85542297363281,11.347885131835938,-72.43991088867188,17240465.0,39989.0,-0.07669634730596886,-0.12575570435845682,0.0132362950176,-0.003800772783057119,-0.004802974283094345,0.0012504848575032557,17.240465357986977
1619,C,173250244252571.0,-0.470042665080869,5.530267082748836,-1.6998832,96,1970-01-03 00:07:30.244252571,0.17150758,-0.8404937,0.21944448,13.695079429649315,0.8854379648171953,-85.14863586425781,11.131223678588867,-72.45675659179688,17280005.0,39540.0,-0.030253162704797554,-0.15746521961811105,-0.046256533271999994,-0.002114391812912852,-0.005599277667016746,-0.0006528101102894879,17.280005620006705
1619,C,173250284741735.0,2.8788468849191307,6.608256082748836,0.320823,96,1970-01-03 00:07:30.284741735,0.9981528,-0.74781567,-0.13209279,12.826072971570701,1.2541873040400997,-85.17554473876953,10.540328025817871,-72.43543243408203,17320494.0,40489.0,0.04876503702851569,-0.1510538677760824,-0.027918384218899996,0.0003747636397465117,-0.006245814664751748,-0.0015016341171445247,17.32049478398403
1619,C,173250324856372.0,2.3922255849191307,7.090089082748836,0.1388637,96,1970-01-03 00:07:30.324856372,1.3454291,-0.23542345,0.15765914,12.250496763877237,1.3749400235509375,-85.20968627929688,10.019390106201172,-72.44165802001953,17360609.0,40115.0,0.10572453606378092,-0.11837244184303046,0.00922016598525,0.003098674612298739,-0.005404018205185356,-0.00037503951222143484,17.360609420982655
1619,C,173250365151527.0,-1.2325959150808692,8.723534082748836,-0.9475053,96,1970-01-03 00:07:30.365151527,1.2303804,-0.32170987,0.35473305,10.506103311729584,1.3202911443775875,-85.39586639404297,9.96176815032959,-72.46742248535156,17400904.0,40295.0,0.023363638773066374,-0.07628602727313567,-0.016292106636,0.0026008040025253805,-0.003921881506517957,-0.0001424819242609856,17.400904576003086
1619,C,173250404974495.0,-3.356252815080869,9.248462082748835,0.9959879,96,1970-01-03 00:07:30.404974495,1.3880396,0.03195793,0.8543421,10.474856168811893,1.630207245809702,-85.29816436767578,10.226326942443848,-72.46050262451172,17440727.0,39823.0,-0.09137086149061543,-0.03241599835069314,0.0009653612899000008,-0.001354125815140478,-0.002164420383208867,-0.0003051784899588701,17.440727543988032
1619,C,173250442979341.0,-1.0931336150808688,9.581256082748835,0.7170634,96,1970-01-03 00:07:30.442979341,1.1387677,-0.13315806,1.3187973,9.621821553863645,1.7474980005692549,-85.24909210205078,10.203703880310059,-72.45004272460938,17478732.0,38005.0,-0.08454946563914842,-0.014637280560130543,0.03255225732825,-0.0033429260162833375,-0.000894129932502927,0.0006369185477913952,17.4787323900091
1619,C,173250483045122.0,1.000595734919131,12.053269482748835,0.43275195,96,1970-01-03 00:07:30.483045122,0.8362326,-1.4210628,0.94808537,7.136267326854137,1.9019911439474781,-85.225341796875,9.802281379699707,-72.37977600097656,17518798.0,40066.0,-0.0018538113532800935,0.040757650653614794,0.023034250906549997,-0.0017309168479893204,0.00052326937408277,0.0011135645194677482,17.518798170989612
1619,C,173250522255695.0,1.004187034919131,15.028663782748836,-0.3513491,96,1970-01-03 00:07:30.522255695,0.67537767,-1.5488945,0.2130529,4.210492911800316,1.7031150012442757,-85.4162826538086,9.246580123901367,-72.3401870727539,17558008.0,39210.0,0.03930376620267913,0.1466833016700818,0.0015959028742499996,0.0007342063648224681,0.0036747798703060724,0.00048287416487258395,17.55800874400302
1619,C,173250562570122.0,-1.8149854150808689,12.863706682748836,1.9213469,96,1970-01-03 00:07:30.562570122,0.7584683,-0.51984906,0.4676511,6.791145485769346,1.031607851181341,-85.07102966308594,9.435765266418457,-72.2628402709961,17598323.0,40315.0,-0.016343668348110227,0.1671534576582693,0.0316472306535,0.0004628181725034726,0.006326164476161237,0.0006700984640856207,17.5983231709979
1619,C,173250603081007.0,-0.23960076508086903,10.142696082748836,1.6998832,96,1970-01-03 00:07:30.603081007,0.6359629,-0.33662358,1.4114754,9.131203259438509,1.5843064885285254,-84.88872528076172,9.31299114227295,-72.21583557128906,17638834.0,40511.0,-0.04161667037226608,0.06899839121653806,0.07334982629055,-0.0011740156409505821,0.00478337377488366,0.0021267678869302045,17.63883405600791
1619,C,173250642336475.0,-1.211646615080869,12.681149082748835,2.7335799,96,1970-01-03 00:07:30.642336475,0.47617322,-0.14274544,0.46658584,7.095801941823112,0.6817767539117681,-84.42353057861328,9.365779876708984,-72.13511657714844,17678089.0,39255.0,-0.028484357954124514,0.06327602098580551,0.08701779699525,-0.0013759079334762312,0.002596216025501498,0.0031476155260420397,17.6780895240081
1619,C,173250684535434.0,-3.739325015080869,8.846236082748836,4.260482,96,1970-01-03 00:07:30.684535434,-0.15339808,-0.018109497,-0.588026,11.735402644830843,0.6079749184837147,-84.0301284790039,9.579211235046387,-72.07106018066406,17720288.0,42199.0,-0.10446302591059758,0.040666863299418085,0.14757120905905,-0.002805123325853704,0.0021931428869760754,0.004949710733242703,17.720288482989417
1619,C,173250724003663.0,-3.680667115080869,10.084039082748836,4.5316253,96,1970-01-03 00:07:30.724003663,-0.55287224,0.5219796,-0.406931,10.760452221722568,0.8623939096142653,-83.58049774169922,9.839444160461426,-72.018310546875,17759756.0,39468.0,-0.14642612469661176,-0.013216349884068961,0.1735034454582,-0.0049510464980826695,0.0005417084317384997,0.006336087232243413,17.75975671201013
1619,C,173250764221371.0,-2.242948915080869,12.380078082748835,4.696825,96,1970-01-03 00:07:30.764221371,-0.44208476,1.0471549,0.14487597,8.516321749112011,1.1458452628089486,-82.94293212890625,10.021761894226074,-71.95503997802734,17799974.0,40218.0,-0.11911799475052239,0.057594532080992626,0.18557490708269997,-0.005339826697962419,0.0008924008657979379,0.007220706591244957,17.799974419991486
1619,C,173250804077414.0,-2.651758815080869,6.311974082748836,2.939481,96,1970-01-03 00:07:30.804077414,0.011717909,0.5411543,-0.4293016,13.402787253949379,0.6908582702424443,-82.80158996582031,10.04324722290039,-71.95955657958984,17839830.0,39856.0,-0.09754173564666312,-0.01809358444596244,0.152176305968,-0.004317595107355113,0.0007871748844708817,0.00673070617367435,17.83983046299545
1619,C,173250844532204.0,-3.683061415080869,6.5699490827488365,0.75596917,96,1970-01-03 00:07:30.844532204,-0.9331717,0.83516735,-0.30679616,13.100654209454826,1.2893555785653772,-82.9472427368164,10.19407844543457,-72.01969909667969,17880285.0,40455.0,-0.12813757620559654,-0.13588989916989586,0.074749718313675,-0.0045649282804915816,-0.003114700914839773,0.004590146156157581,17.880285252991598
1619,C,173250883895954.0,-1.5372581150808688,11.601363782748836,2.5611973,96,1970-01-03 00:07:30.883895954,-0.91612744,0.40373522,-0.03195793,8.087222913668318,1.0016550920747556,-82.70515441894531,10.224926948547363,-71.98860168457031,17919649.0,39364.0,-0.10274632899264334,-0.02811942018127485,0.06528847046254001,-0.004544257022111757,-0.0032280314234697416,0.0027562316314934635,17.91964900298626
1619,C,173250923804132.0,-0.965642415080869,10.834023082748836,-0.43634325,96,1970-01-03 00:07:30.923804132,-0.49215218,0.41438788,-0.7552725,8.347426638933795,0.992153028834714,-82.992919921875,10.109950065612793,-72.05997467041016,17959557.0,39908.0,-0.049942877178847316,0.0565773095141405,0.04239933771369999,-0.0030467604199459243,0.0005678487237480012,0.0021488025243486925,17.959557180991396
1619,C,173250963752828.0,-3.0773284150808693,8.689416082748835,-1.7986441,96,1970-01-03 00:07:30.963752828,-0.6263755,0.78936094,-1.7374463,11.022363675513288,2.0085209996367035,-83.43672180175781,10.194876670837402,-72.18170166015625,17999505.0,39948.0,-0.08075429936165054,-0.0015292261083495588,-0.044641637328899995,-0.002610545404219904,0.0010995304179472682,-4.47876925140049e-05,17.999505877000047
1619,C,173251001160956.0,-0.982401815080869,8.998268082748837,0.13826515,96,1970-01-03 00:07:31.001160956,-0.96299905,0.63915867,-1.3241237,10.163559640692668,1.7576104655579294,-83.63762664794922,10.022306442260742,-72.24713897705078,18036914.0,37409.0,-0.07593522409006023,-0.03576891152644883,-0.031056558070274996,-0.002930799191402524,-0.0006976430153900864,-0.0014158968958438685,18.036914005002473
1619,C,173251041063455.0,-0.827975815080869,10.828036082748836,1.5634137,96,1970-01-03 00:07:31.041063455,-0.59867865,0.45060685,-0.57098174,8.472126471538019,0.9420630587419149,-83.56288146972656,9.89224910736084,-72.25415802001953,18076816.0,39902.0,-0.03611884409935683,0.004514994405844042,0.03395019473635,-0.00223559071444706,-0.0006235469004731861,5.773094512486237e-05,18.076816504006274
1619,C,173251081221372.0,-0.883641015080869,11.868916082748836,-0.30825347,96,1970-01-03 00:07:31.081221372,-0.48043427,0.8404937,-0.025566347,7.305372752888452,0.9684525727308732,-83.81669616699219,9.831075668334961,-72.33478546142578,18116974.0,40158.0,-0.03436755433281754,0.06218370253102773,0.025202362258169998,-0.0014152963941196292,0.0013392431357954484,0.001187724191892967,18.116974420991028
1619,C,173251120745591.0,-0.616089015080869,12.367508582748837,-0.24361002,96,1970-01-03 00:07:31.120745591,-0.588026,0.8213189,-0.19813919,6.778080701993242,1.0293679860900407,-84.06094360351562,9.719405174255371,-72.41251373291016,18156498.0,39524.0,-0.029637664856056265,0.09162502423956496,-0.010905926289379999,-0.0012648711416105242,0.003039568058440453,0.0002825261676152279,18.156498639989877
1619,C,173251161340070.0,-1.918534715080869,10.366554082748836,-0.06943185,96,1970-01-03 00:07:31.161340070,-0.6380934,0.28336033,-0.37816888,8.958716448152307,0.7940201291791811,-84.25360870361328,9.774760246276855,-72.45557403564453,18197093.0,40595.0,-0.051446525162957876,0.06361363695293898,-0.006353967356325,-0.0016458063469109395,0.003150956725554849,-0.0003503326912736972,18.197093119000783
1619,C,173251203021214.0,-2.453638715080869,9.025802082748836,1.0582372,96,1970-01-03 00:07:31.203021214,-0.8692558,-0.09374327,-0.34088463,10.439858789440713,0.9384006486965841,-84.2905502319336,9.857165336608887,-72.45156860351562,18238774.0,41681.0,-0.09111828037128569,-0.0043274013329457975,0.020607197896675002,-0.002971121829736403,0.001235554793438468,0.00029704445107616427,18.238774263008963
1619,C,173251243156893.0,-1.3074147150808688,8.208181082748835,0.8702923,96,1970-01-03 00:07:31.243156893,-0.36218992,0.034088463,-0.25672874,11.018338156485605,0.44525633897935285,-84.33800506591797,9.772706985473633,-72.45948791503906,18278909.0,40135.0,-0.07547493970977066,-0.04748004282637551,0.03870076574125,-0.0033431094439765985,-0.0010396458856671803,0.0011901625603040597,18.278909941989696
1619,C,173251282978611.0,-3.916496015080869,7.054176082748835,0.7290344,96,1970-01-03 00:07:31.282978611,-0.47617322,0.18535602,-0.28122982,12.706915765813603,0.5832563769498291,-84.41676330566406,9.967268943786621,-72.47940063476562,18318731.0,39822.0,-0.10401328654825036,-0.08636680647777592,0.031844193923700005,-0.003573790073023457,-0.002665024616494959,0.0014046206918888195,18.318731659994228
1619,C,173251323247099.0,-3.221579015080869,7.233143082748835,1.2886791,96,1970-01-03 00:07:31.323247099,-0.5496765,-0.13422333,0.12783173,12.38173970459965,0.5800871556613987,-84.42803955078125,10.1044340133667,-72.46941375732422,18359000.0,40269.0,-0.14372157169479152,-0.10696817226228718,0.04062565246575,-0.004988017503294527,-0.0038927031294418006,0.001459144122128381,18.35900014798972
1619,C,173251360361008.0,-0.655593315080869,5.495551082748836,-1.0696096,96,1970-01-03 00:07:31.360361008,-0.010652645,-0.5944176,0.24181503,13.673855199608667,0.6418101516563578,-84.67694091796875,9.937294960021973,-72.48236846923828,18396114.0,37114.0,-0.07194868693081138,-0.12751082237085973,0.0040652727115,-0.004002192989315314,-0.004351226703407308,0.0008293294985142282,18.396114056988154
1619,C,173251401390539.0,0.209910614919131,5.163954082748836,-1.5143325,96,1970-01-03 00:07:31.401390539,0.080960095,-0.90654004,0.051132694,14.029333905261053,0.9115832016340079,-84.9552230834961,9.675500869750977,-72.48577117919922,18437143.0,41029.0,-0.009142957752467975,-0.18340978128239804,-0.05300828021045,-0.0016635545448551343,-0.006378380723644757,-0.0010040413273372099,18.437143588002073
1619,C,173251442553194.0,1.801456184919131,6.510693082748835,0.31783026,96,1970-01-03 00:07:31.442553194,0.69987875,-0.49002165,-0.25246766,12.7271622009713,0.8908935971911351,-85.00660705566406,9.226484298706055,-72.47711944580078,18478306.0,41163.0,0.041396945790871185,-0.16311564936330972,-0.02462581085256,0.0006638354548123956,-0.007132013150834633,-0.0015978260452133403,18.478306242992403
1619,C,173251480219600.0,1.6883301849191308,7.631179082748837,0.9127894,96,1970-01-03 00:07:31.480219600,1.0482203,-0.40266997,0.017044231,11.633811526763965,1.1230313476845926,-84.96222686767578,8.796906471252441,-72.45870971679688,18515972.0,37666.0,0.06572314670316398,-0.10279292150718237,0.023176260056779998,0.002017392701940164,-0.005007856115203977,-2.729939013692477e-05,18.5159726490092
1619,C,173251520121267.0,-0.21625728508086903,8.156108082748835,-0.56203884,96,1970-01-03 00:07:31.520121267,1.5094798,-0.49960902,0.24714136,10.971279046049352,1.609104499806041,-85.08375549316406,8.62210464477539,-72.46299743652344,18555874.0,39902.0,0.02936932642467316,-0.07606743376115598,0.006997824422559999,0.0018971899313734789,-0.0035684429479586185,0.0006020031594473123,18.555874315992696
1619,C,173251560377465.0,-1.6162667150808692,8.593648082748835,0.84455466,96,1970-01-03 00:07:31.560377465,1.5041534,-0.19920446,0.63383234,10.678294448874091,1.6443549807889193,-85.01472473144531,8.65919303894043,-72.4513931274414,18596130.0,40256.0,-0.03688504307525547,-0.05736970790086292,0.0056864784249599995,-0.00015127634474292073,-0.0026858227873731164,0.00025530964771488255,18.596130513993558
1619,C,173251600032413.0,-1.170346715080869,8.212970082748836,1.1306617,96,1970-01-03 00:07:31.600032413,1.2868395,-0.084155895,1.2538162,11.021438098496148,1.7986364771142447,-84.92533874511719,8.661352157592773,-72.43809509277344,18635785.0,39655.0,-0.05525157778653187,-0.05538577832359496,0.0391636023779,-0.0018268388501370887,-0.0022356594031154387,0.0008892649771187068,18.635785461985506
1619,C,173251639863559.0,0.24881638491913097,9.860779082748836,0.83617496,96,1970-01-03 00:07:31.639863559,0.64768076,-0.9406285,1.1568772,9.289660748805494,1.6256190198709746,-84.88282775878906,8.466017723083496,-72.38526153564453,18675616.0,39831.0,-0.018352737290336096,-0.030396048494531144,0.03917053550223,-0.0014658667369133638,-0.0017083879719963903,0.0015600635229517288,18.67561660800129
1619,C,173251679245278.0,1.076013084919131,13.444899082748837,-0.46686932,96,1970-01-03 00:07:31.679245278,0.49960902,-1.2612731,0.20879184,5.779643852844871,1.3725935443894364,-85.09149169921875,8.010448455810547,-72.35580444335938,18714998.0,39382.0,0.026087217090585216,0.07296850875681465,0.007271997357240001,0.00015229964174670542,0.0008382943150246245,0.0009144999145358238,18.714998326991918
1619,C,173251719024497.0,-1.3139988150808692,13.331174482748835,0.7930793,96,1970-01-03 00:07:31.719024497,0.49215218,-0.85540736,0.29827404,5.986347016505443,1.030971834124892,-84.98917388916016,8.146162033081055,-72.30138397216797,18754777.0,39779.0,-0.004733417180051894,0.14272851518096594,0.006488153397210002,0.0004247164033205525,0.004290105957610487,0.00027368251843063336,18.754777545982506
1619,C,173251759160538.0,0.493024964919131,11.685161082748836,1.7124528,96,1970-01-03 00:07:31.759160538,0.40053943,-0.43036684,0.91186637,7.6338950005617905,1.0849643905185495,-84.7652587890625,7.903243064880371,-72.24779510498047,18794913.0,40136.0,-0.016475303225045763,0.10869502212840725,0.050281018182799994,-0.00042561660108949976,0.005045567546724501,0.0011392437352676407,18.794913586985786
1619,C,173251799161372.0,0.34638010491913096,14.319979782748835,1.6849195,96,1970-01-03 00:07:31.799161372,0.5411543,-0.27377295,0.59867865,5.087640486433814,0.8521829208133749,-84.38349151611328,7.653178691864014,-72.18364715576172,18834914.0,40001.0,0.01678852109930016,0.1281060198803861,0.06794914468615,6.2645140940250396e-06,0.0047361392406968725,0.0023646623724604345,18.8349144209933
1619,C,173251838892986.0,-1.6013029150808689,12.096365082748836,2.9939492,96,1970-01-03 00:07:31.838892986,0.23648871,0.17576863,-0.08522116,7.7989424325126855,0.30673142545439747,-83.94784545898438,7.768939971923828,-72.13584899902344,18874646.0,39732.0,-0.024930296546673086,0.1354135070979767,0.09295040559420001,-0.00016174451103751058,0.0052350789229521555,0.003196430465869434,18.87464603499393
1619,C,173251878979497.0,-3.8955469150808693,11.654635082748836,4.272453,96,1970-01-03 00:07:31.878979497,-0.13422333,0.8586032,-0.19707392,9.447805190315645,0.8910967889689061,-83.43032836914062,8.192279815673828,-72.1064224243164,18914732.0,40086.0,-0.1101733611459317,0.0831984963170698,0.1456404992946,-0.002707882611132878,0.004381640384447777,0.004782077506686218,18.914732545992592
1619,C,173251919292464.0,-2.915121315080869,12.254382782748836,1.4239515,96,1970-01-03 00:07:31.919292464,-0.45167214,0.5496765,0.2609898,7.59686836275377,0.7578044948457812,-83.33656311035156,8.570952415466309,-72.11508178710938,18955045.0,40313.0,-0.1372792341812551,0.08685471860590381,0.11481957730425,-0.00498777823771244,0.0034276776265949175,0.00524996353396472,18.95504551299382
1619,C,173251959178298.0,-2.821148815080869,-0.503120917251163,4.2479124,96,1970-01-03 00:07:31.959178298,0.3834952,0.9672601,-0.479369,20.26978403613881,1.1456244182261697,-83.18614959716797,8.54177474975586,-72.14580535888672,18994931.0,39886.0,-0.11439843520581554,-0.15652738461637994,0.11311398175769999,-0.0050192077605863495,-0.0013894819782469254,0.004545678968372469,18.994931346998783
1619,C,173251999066110.0,-0.901597515080869,11.094392082748836,0.98581254,96,1970-01-03 00:07:31.999066110,-1.1046792,1.0002834,-0.19813919,8.12990885801423,1.503376916758421,-83.2440414428711,8.489084243774414,-72.19645690917969,19034819.0,39888.0,-0.0742464528087457,-0.17967008787531444,0.10438141020336,-0.0037623336465624096,-0.006705122391374353,0.00433772809727138,19.034819158987375
1619,C,173252038376735.0,-2.032259215080869,10.082842082748837,2.5007436,96,1970-01-03 00:07:32.038376735,-0.5496765,0.45167214,-0.5475459,9.591965895174626,0.8977519085533818,-83.06071472167969,8.565256118774414,-72.1905746459961,19074129.0,39310.0,-0.05766495403132895,0.03100053752285673,0.06852826093169999,-0.0025927187014416673,-0.0029221000121775562,0.0033985395861596043,19.074129783984972
1619,C,173252078849444.0,-2.4284996150808693,9.761420082748836,-1.2348095,96,1970-01-03 00:07:32.078849444,-0.5954828,0.60080916,-1.0375676,9.745555754658227,1.338700092031634,-83.44615173339844,8.674750328063965,-72.27960205078125,19114602.0,40473.0,-0.09027014606656802,0.00494301131209363,0.02561807541465,-0.0029936886531310926,0.000727371625998473,0.0019051923354729116,19.114602493005805
1619,C,173252118677204.0,-1.8868116150808691,9.075481082748835,-0.7727286,96,1970-01-03 00:07:32.118677204,-0.76912093,0.7755125,-1.5744609,10.245601801608318,1.916218611810543,-83.76236724853516,8.657493591308594,-72.36839294433594,19154430.0,39828.0,-0.08593510783744085,-0.015196350190279396,-0.039978113723399995,-0.0035089514262444327,-0.00020418499042019133,-0.00028596580288044746,19.154430252994644
1619,C,173252160144131.0,-0.8656845150808691,9.070094082748836,1.2551602,96,1970-01-03 00:07:32.160144131,-0.99495703,0.16724652,-1.3305153,10.157940263845985,1.6697849722442173,-83.79209899902344,8.502601623535156,-72.38072204589844,19195897.0,41467.0,-0.05706887851470839,-0.030155317306154054,0.010002495578599998,-0.0029649731510322857,-0.0009402987980373028,-0.0006214994788052107,19.195897180004977
1619,C,173252200066476.0,-1.547433415080869,11.694738082748835,0.6715736,96,1970-01-03 00:07:32.200066476,-0.7137272,0.10759171,-0.67963874,7.611369228547119,0.9914087497038503,-83.85468292236328,8.556129455566406,-72.39364624023438,19235819.0,39922.0,-0.04816824700395845,0.02325121485549898,0.0384595333818,-0.002100638262478109,-0.00013781278901752594,0.0009673505600785444,19.235819524998078
1619,C,173252238434913.0,-0.39821661508086903,12.117314482748835,-0.29628247,96,1970-01-03 00:07:32.238434913,-0.7318367,0.5858955,-0.046871636,7.0123199859923036,0.938645536210798,-84.11107635498047,8.433270454406738,-72.45512390136719,19274187.0,38368.0,-0.03732535017862278,0.08080401641650727,0.007199585037919999,-0.0016401091683506384,0.001996195556722168,0.0008759245277639085,19.274187962000724
1619,C,173252280953453.0,-0.48500641508086906,11.931165382748837,0.048482586,96,1970-01-03 00:07:32.280953453,-0.5336975,0.60720074,-0.04580637,7.197736528613278,0.8097061094590893,-84.28067779541016,8.327154159545898,-72.50603485107422,19316706.0,42519.0,-0.01877688000972347,0.09457245770054773,-0.005268101633898001,-0.0011927053626891472,0.0037284161514915303,4.1062371427805675e-05,19.316706501995213
1619,C,173252318872310.0,-0.786675815080869,10.926798082748835,-0.108936176,96,1970-01-03 00:07:32.318872310,-0.60080916,0.23755397,-0.20453078,8.224905654881464,0.6776698129399559,-84.47518920898438,8.253995895385742,-72.54243469238281,19354625.0,37919.0,-0.024110459242751476,0.061769358324103095,-0.001146169839605,-0.0008131225085572988,0.0029641626609193676,-0.00012161138000188014,19.354625359002966
1619,C,173252360454704.0,-1.877234815080869,9.760222582748836,-0.08619126,96,1970-01-03 00:07:32.360454704,-0.5411543,-0.1736381,-0.2727077,9.543193734172192,0.6303710461461487,-84.6507339477539,8.322735786437988,-72.55659484863281,19396207.0,41582.0,-0.055385365911692706,0.022600246656362063,-0.004056894521876,-0.001652797700786049,0.001754128457148851,-0.00010817691113955148,19.39620775298681
1619,C,173252400177151.0,-0.707667215080869,7.786203082748836,0.39923313,96,1970-01-03 00:07:32.400177151,-0.44101948,-0.053263225,-0.28868666,11.355098003499645,0.5297878259632121,-84.75647735595703,8.19382095336914,-72.56729888916016,19435930.0,39723.0,-0.05134003167205736,-0.04078706664471801,0.006217481101005,-0.0021197264841096523,-0.0003612175251987317,4.2912490341370634e-05,19.435930200008443
1619,C,173252440070019.0,-1.903570915080869,6.792610082748835,-0.43634325,96,1970-01-03 00:07:32.440070019,-0.37284255,-0.013848438,-0.406931,12.476280125079905,0.5520834946695493,-84.95626831054688,8.193293571472168,-72.59427642822266,19475823.0,39893.0,-0.0520850613632711,-0.10015510319440073,-0.0007402170085800005,-0.002062968618229179,-0.0028113029906959813,0.00010925224821955524,19.475823068001773
1619,C,173252477675591.0,-2.426105415080869,6.562766082748835,0.91697925,96,1970-01-03 00:07:32.477675591,-0.55606806,0.221575,-0.12996227,12.818676126238762,0.6125335579384337,-85.0071792602539,8.259286880493164,-72.60908508300781,19513428.0,37605.0,-0.08140873919786608,-0.11741453964823008,0.00903715839,-0.002510017185050782,-0.004090853209548565,0.00015600324032414951,19.513428639998892
1619,C,173252517807933.0,-0.41377894508086904,6.711805082748835,0.676362,96,1970-01-03 00:07:32.517807933,-0.38029942,0.033023197,-0.14594123,12.424791936447127,0.40867716232541074,-85.07369995117188,8.097432136535645,-72.6180648803711,19553560.0,40132.0,-0.05698511957100543,-0.12692605499312376,0.031971985522499996,-0.0027770111700561755,-0.004902938372073406,0.000822889481748225,19.553560981992632
1619,C,173252557483767.0,-0.856706215080869,5.326161082748836,-2.0410569,96,1970-01-03 00:07:32.557483767,0.10013486,-0.113983296,0.12144015,13.96259472390655,0.19433705767625925,-85.40110778808594,7.997181415557861,-72.65847778320312,19593236.0,39676.0,-0.02520388460728856,-0.15001562720885722,-0.0270728174262,-0.0016304654648889962,-0.0054939690915229,9.71896966943993e-05,19.593236815999262
1619,C,173252597855798.0,0.742021984919131,7.651529082748835,-1.5580268,96,1970-01-03 00:07:32.597855798,0.011717909,-0.9864349,-0.16618125,11.585891778790385,1.0004035831507725,-85.70220184326172,7.703670978546143,-72.65164947509766,19633608.0,40372.0,-0.002315015870044843,-0.13367794631926402,-0.0726511035682,-0.000555496525035452,-0.005726638475238655,-0.0020130270691929584,19.633608846983407
1619,C,173252637817517.0,2.968030984919131,7.179274082748837,1.407192,96,1970-01-03 00:07:32.637817517,0.80533993,-0.9353022,-0.2790993,12.367281332905124,1.2654086404943405,-85.59658813476562,7.162818908691406,-72.59822082519531,19673570.0,39962.0,0.07413056839033831,-0.09529332195019104,-0.0030138301387999987,0.0014349465549079836,-0.004575074911291981,-0.0015118610403995667,19.67357056599576
1619,C,173252679216942.0,0.5211568349191309,6.588504082748836,-0.05626374,96,1970-01-03 00:07:32.679216942,1.4647386,-1.087635,-0.026631612,12.531369938193782,1.8245871594178993,-85.63383483886719,6.923917770385742,-72.55821228027344,19714969.0,41399.0,0.07222444327674209,-0.12072407586328096,0.02796353951787,0.0030294755640027306,-0.004471452126039964,0.0005164465092920595,19.71496999100782
1619,C,173252719501685.0,-2.7505197150808693,8.304548082748836,-0.8062474,96,1970-01-03 00:07:32.719501685,1.2623384,-0.77125144,0.30786142,11.187116108240275,1.5109949284299566,-85.77571105957031,7.1246113777160645,-72.5438461303711,19755254.0,40285.0,-0.04490494181365781,-0.09480969675646318,-0.01737313063745,0.000550283058220175,-0.004341389014993197,0.00021331731087385986,19.755254733987385
1619,C,173252759440537.0,-1.782065215080869,9.505240582748836,0.54049104,96,1970-01-03 00:07:32.759440537,1.1334413,0.11717909,1.216532,9.789593832500067,1.6668443918683344,-85.74404907226562,7.27446174621582,-72.54825592041016,19795193.0,39939.0,-0.09051345476286483,-0.03574962524434427,-0.005307021631019999,-0.0027042376704348695,-0.0026072043806951244,-0.0004529113007252117,19.795193586003734
1619,C,173252799305849.0,1.7134692849191309,11.652839082748836,0.11671733,96,1970-01-03 00:07:32.799305849,0.76592517,-0.5656554,1.4253238,7.6455490473147325,1.714104819558923,-85.78408813476562,6.854243755340576,-72.5248031616211,19835058.0,39865.0,-0.0013672883779488434,0.031056422932532315,0.013099805835025,-0.0018314129126542685,-9.354725508019173e-05,0.00015532967114632968,19.835058897995623
1619,C,173252839252724.0,2.3335673849191307,12.881065082748837,0.7422025,96,1970-01-03 00:07:32.839252724,0.8127968,-1.1899004,0.8042747,6.6822184905776085,1.6502604015943938,-85.67546081542969,6.239664077758789,-72.4554214477539,19875005.0,39947.0,0.08083348692501452,0.09854733484956774,0.017155635224505,0.0015872181166798162,0.0025886406560607753,0.0006043070520025225,19.875005773006706
1619,C,173252879094495.0,0.6372756249191309,14.073377082748836,-0.7098808,96,1970-01-03 00:07:32.879094495,1.0226538,-0.96939063,0.14487597,5.122520634722742,1.4165196909572695,-85.92491149902344,5.923878192901611,-72.4388198852539,19914847.0,39842.0,0.059182163598988015,0.1465078423788791,0.0006438805857000002,0.0027892517740886547,0.0048817441855678895,0.00035458415445509386,19.91484754398698
1619,C,173252917815695.0,-2.7816444150808692,9.348420082748836,1.7172412,96,1970-01-03 00:07:32.917815695,0.94488955,0.330232,1.6255935,10.303148897789812,1.9090373654712607,-85.73625183105469,6.253674030303955,-72.43431854248047,19953568.0,38721.0,-0.041516051961926335,0.07399190402261765,0.0195030010242,0.00034202475434933264,0.004268985340206178,0.0003900537014084689,19.953568744007498
1619,C,173252959118037.0,0.08541212291913097,11.329023482748836,1.6370354,96,1970-01-03 00:07:32.959118037,0.8202536,-0.28868666,1.5851135,7.951677137521924,1.8079659188870696,-85.50205993652344,6.167253017425537,-72.39328002929688,19994871.0,41303.0,-0.055681241181578134,0.022250825792875146,0.0692708432049,-0.002007269899353083,0.0019875567347846495,0.0018333130440972584,19.994871086004423
1619,C,173252996889236.0,-2.6266198150808693,11.226671382748837,2.3648727,96,1970-01-03 00:07:32.996889236,0.83942837,-0.27164245,0.21198763,8.64917012712424,0.9073964757898701,-85.16859436035156,6.471159934997559,-72.34680938720703,20032642.0,37771.0,-0.0479919778703205,0.05581977538235627,0.07557803542255,-0.0019579205784046316,0.001474402338494833,0.0027355434973187066,20.03264228499029
1619,C,173253036144444.0,-2.944450115080869,11.141677082748835,3.168726,96,1970-01-03 00:07:33.036144444,0.21837921,-0.08948222,-0.330232,9.0771350732229,0.40589373101878834,-84.76220703125,6.774823188781738,-72.2981185913086,20071897.0,39255.0,-0.10934617505424951,0.05433575950655552,0.10861070848424999,-0.0030881545965269976,0.002162077761032116,0.0036151645710307163,20.071897493005963
1619,C,173253076294287.0,-1.987368015080869,11.083618082748837,3.0334535,96,1970-01-03 00:07:33.076294287,-0.350472,0.2247708,-0.49534798,8.814960103946902,0.647087441237056,-84.40682983398438,6.918331146240234,-72.26704406738281,20112047.0,40150.0,-0.09900624896299688,0.05270280044736573,0.12450875346249998,-0.004182674912146221,0.002148799091074969,0.004679873198581006,20.11204733600607
1619,C,173253115905537.0,-2.602677815080869,11.656431082748835,4.3688197,96,1970-01-03 00:07:33.115905537,-0.5496765,0.70627034,-0.38242993,9.03238960266818,0.9732495564734517,-83.86006164550781,7.167448043823242,-72.23343658447266,20151658.0,39611.0,-0.09090815268926832,0.062190243747264104,0.14660572186259999,-0.0037613496819239385,0.0022755141867967415,0.005369557741051268,20.151658585993573
1619,C,173253157778715.0,-3.4651889150808692,12.295084082748836,4.559159,96,1970-01-03 00:07:33.157778715,-0.3685815,1.252751,0.10652645,8.913954331799006,1.3101852062562958,-83.26982116699219,7.5912299156188965,-72.216552734375,20193531.0,41873.0,-0.12703989179603123,0.09110549726244196,0.18692062605255003,-0.004563069233366474,0.0032094762816497107,0.006982874383125538,20.19353176400182
1619,C,173253197693714.0,-3.724959815080869,5.967807082748836,3.4213142,96,1970-01-03 00:07:33.197693714,0.7307714,0.39627838,0.20985709,14.09037412287947,0.8573817071390387,-83.04517364501953,7.801823139190674,-72.20957946777344,20233446.0,39915.0,-0.14349739328220287,-0.026685349564580234,0.15927029388900002,-0.005399247866948857,0.0012856650976800753,0.006909105284733485,20.233446762984386
1619,C,173253236772828.0,-3.106058815080869,3.464669082748836,0.3537433,96,1970-01-03 00:07:33.236772828,-0.809601,0.76059884,-0.4314321,15.960941702408315,1.1916786611837755,-83.23103332519531,7.874175548553467,-72.26942443847656,20272525.0,39079.0,-0.1334746885240453,-0.1986683319642583,0.07376273602125,-0.005411895992453186,-0.004403298260232741,0.0045533488879313305,20.272525876993313
1619,C,173253278155746.0,-0.04207912008086902,12.606330082748837,3.447052,96,1970-01-03 00:07:33.278155746,-0.85966843,0.99921805,-0.16192019,7.361225404846132,1.3280379019117277,-82.75931549072266,7.703131198883057,-72.24969482421875,20313908.0,41383.0,-0.0651396960853991,-0.07302032076710493,0.07864415594995,-0.004109629539146319,-0.005621645757991002,0.003153527205222085,20.313908794982126
1619,C,173253316989338.0,-1.937688315080869,10.710721082748837,-0.047285482,96,1970-01-03 00:07:33.316989338,-0.48043427,0.9139969,-0.9353022,8.627340317159558,1.393196908669009,-82.9755859375,7.801052093505859,-72.32642364501953,20352742.0,38834.0,-0.03844114428853547,0.0721739824804683,0.066013266480006,-0.0020112291775406877,-1.6433350511623507e-05,0.0028088131713224556,20.352742386981845
1619,C,173253358500017.0,-1.7515392150808688,8.057945082748835,-0.16220717,96,1970-01-03 00:07:33.358500017,-0.2545982,1.2506205,-1.567004,11.196319406941132,2.020983279119224,-83.19341278076172,7.766622066497803,-72.4251708984375,20394253.0,41511.0,-0.07657176200227195,-0.017254749402013096,-0.004348124738586,-0.002387150376518853,0.001139876142159877,0.0012798908494140427,20.39425306598423
1619,C,173253397886421.0,-1.191295915080869,8.202795082748835,-0.10295067,96,1970-01-03 00:07:33.397886421,-0.9076053,0.8905611,-1.1728562,10.976199641086696,1.7298665033174496,-83.42941284179688,7.680840015411377,-72.50144958496094,20433639.0,39386.0,-0.0579532522182751,-0.0657600439208544,-0.005221753343119999,-0.002649201105045233,-0.0016348103249072294,-0.00018845960906303626,20.433639469993068
1619,C,173253435661528.0,-1.2768887150808692,11.398455082748836,1.1360487,96,1970-01-03 00:07:33.435661528,-0.78296936,0.7126619,-0.3920173,7.9040044387492205,1.128984307202589,-83.42862701416016,7.711728096008301,-72.53340911865234,20471414.0,37775.0,-0.04661783720217984,2.3612500837233475e-05,0.019512639041625,-0.0019750864514288427,-0.0012415968484455742,0.0002699191036305132,20.47141457698308
1619,C,173253475479445.0,-0.8070265750808691,13.167172082748836,-0.35673606,96,1970-01-03 00:07:33.475479445,-0.56459016,0.8767126,-0.2972088,6.012469630248158,1.0843062771030265,-83.71170043945312,7.712323188781738,-72.61245727539062,20511232.0,39818.0,-0.04148866951183005,0.09886067123789312,0.015515335349759997,-0.0017541124421692226,0.0019686872049543827,0.0006973719421580839,20.51123249399825
1619,C,173253515514549.0,-0.319207955080869,12.138263882748836,-0.37229836,96,1970-01-03 00:07:33.515514549,-0.5294364,1.0439591,-0.2428803,6.990653300383307,1.1954682531317424,-83.97966766357422,7.58755350112915,-72.69731140136719,20551267.0,40035.0,-0.02254439970751259,0.11420856443934962,-0.014593446502350001,-0.0012817819630981913,0.004265113425169206,1.8453910003029586e-05,20.551267597998958
1619,C,173253555574236.0,-1.113484315080869,10.211530082748835,0.75596917,96,1970-01-03 00:07:33.555574236,-0.52837116,0.66152924,-0.2514024,9.003806418005393,0.8831761912667727,-84.0397720336914,7.57150936126709,-72.73566436767578,20591327.0,40060.0,-0.028696826171339614,0.05507837312891832,0.007684926324299999,-0.0010263617543534095,0.003390817359492407,-0.00013837765916634154,20.59132728498662
1619,C,173253595259653.0,-2.502719815080869,10.313283082748836,-0.4950012,96,1970-01-03 00:07:33.595259653,-0.3834952,0.28122982,-0.11717909,9.168036394717857,0.4897853807674342,-84.28258514404297,7.780481338500977,-72.780029296875,20631012.0,39685.0,-0.07175453045273428,0.018350605236387502,0.005178256944725,-0.001993206043813186,0.0014570145032135806,0.00025523771401562853,20.6310127019824
1619,C,173253635016161.0,-2.053208515080869,8.712161082748835,0.33758244,96,1970-01-03 00:07:33.635016161,-0.25353295,0.025566347,0.004261058,10.610321737867876,0.25485437302488306,-84.39083099365234,7.869960308074951,-72.79429626464844,20670769.0,39757.0,-0.09056502131112011,-0.011421308156154577,-0.00312924882066,-0.0032266692097377794,0.0001377440320094102,4.07312079942261e-05,20.670769210002618
1619,C,173253676960747.0,-1.190697415080869,8.365601082748835,-0.11611878,96,1970-01-03 00:07:33.676960747,-0.098004326,-0.002130529,-0.07350325,10.81449539214626,0.12252393573949792,-84.55162048339844,7.832895278930664,-72.81582641601562,20712713.0,41944.0,-0.06803119516735198,-0.05289637186518289,0.00464453587752,-0.0033260798519865174,-0.0013488703854074894,3.177860015646793e-05,20.71271379600512
1619,C,173253717585589.0,-1.583346415080869,9.135935082748835,-0.7906851,96,1970-01-03 00:07:33.717585589,-0.098004326,0.111852765,0.03195793,10.135018144099153,0.15210916554482967,-84.80469512939453,7.87123441696167,-72.85511016845703,20753338.0,40625.0,-0.0563477653001603,-0.0426250466383286,-0.0184194538125,-0.0025264476344963433,-0.001940278813352577,-0.0002798030205542813,20.753338637994602
1619,C,173253757030744.0,-0.631651315080869,9.098825082748835,-0.8146271,96,1970-01-03 00:07:33.757030744,-0.16405073,0.34194988,0.068176925,10.066312749679877,0.385344593251291,-85.06189727783203,7.776691436767578,-72.90555572509766,20792783.0,39445.0,-0.04368529273311488,-0.026925942635972228,-0.031660769864500005,-0.00197290198706127,-0.001371719385962398,-0.0009877072114696326,20.792783793003764
1619,C,173253797040120.0,-0.297660155080869,9.680018082748836,-0.23582886,96,1970-01-03 00:07:33.797040120,-0.22264028,0.35153726,-0.34940675,9.43885195249684,0.5433527550241634,-85.23585510253906,7.617730140686035,-72.94620513916016,20832793.0,40010.0,-0.018590875960585566,-0.01642724247421912,-0.0210143714798,-0.0012458347547174774,-0.0008672804681293778,-0.0010537662025927215,20.832793168985518
1619,C,173253836744341.0,-1.870052215080869,9.805713082748836,0.3298013,96,1970-01-03 00:07:33.836744341,0.02876214,0.47723848,-0.5581986,9.502521729837019,0.7349622470114027,-85.30547332763672,7.690159797668457,-72.98152923583984,20872497.0,39704.0,-0.04303342597245083,-0.002268464902540245,0.0018655408788800004,-0.0012233656419746385,-0.000371147182843427,-0.0003801425850894639,20.87249738999526
1619,C,173253876717151.0,-2.454835815080869,10.061893082748837,-0.107140526,96,1970-01-03 00:07:33.876717151,0.25672874,0.6743124,-0.3291667,9.384297319357167,0.7930684555097609,-85.42797088623047,7.868541240692139,-73.03446197509766,20912470.0,39973.0,-0.08643937461482758,0.0053485106267192085,0.004450209559551,-0.00258770812893764,6.155933386630285e-05,0.0001262297461377012,20.912470199982636
1619,C,173253916769859.0,-0.734003375080869,8.583472082748836,-0.6703765,96,1970-01-03 00:07:33.916769859,0.5028048,1.2016183,0.05219796,10.575775410459205,1.3036195122911023,-85.61710357666016,7.7849225997924805,-73.12278747558594,20952522.0,40052.0,-0.06385969362217896,-0.01911751719574364,-0.015570555962676,-0.0030098891405142924,-0.00027573812555128327,-0.0002226960570689812,20.95252290798817
1619,C,173253956540955.0,-2.170524415080869,7.105053082748835,-1.7513585,96,1970-01-03 00:07:33.956540955,0.34301516,1.0215886,-0.02130529,12.330426024427837,1.077848126139193,-85.9193115234375,7.854720592498779,-73.21675872802734,20992294.0,39772.0,-0.057759439635156326,-0.07778358855891335,-0.04815862221,-0.0024185180839553697,-0.001926975389037109,-0.001267318437141835,20.99229400398326
1619,C,173253994292412.0,-1.433110315080869,5.5182960827488365,0.9756372,96,1970-01-03 00:07:33.994292412,0.16937704,0.74035877,-0.46658584,13.705340548457423,0.8913596558536739,-85.91551208496094,7.7910966873168945,-73.255615234375,21030045.0,37751.0,-0.0680204073491679,-0.13168777282664873,-0.01464212739815,-0.0023741575017526117,-0.003953876681833177,-0.0011853955492286353,21.030045460996917
1619,C,173254033802256.0,-0.485604955080869,3.697506082748836,-1.0887632,96,1970-01-03 00:07:34.033802256,-0.17896444,0.38456047,-0.73609775,15.45973272371587,0.8495616066102546,-86.13153839111328,7.611014366149902,-73.3049545288086,21069555.0,39510.0,-0.03790422016204514,-0.2051398282205935,-0.002234804130000001,-0.0020925410164840137,-0.006654029258688271,-0.0003334037823386033,21.069555305002723
1619,C,173254074417151.0,1.980422784919131,5.018506082748836,-0.7823054,96,1970-01-03 00:07:34.074417151,0.011717909,0.7435546,-0.7861652,14.247293908379591,1.082158248253707,-86.31155395507812,7.193484783172607,-73.36763000488281,21110170.0,40615.0,0.030356013079440504,-0.22102658294915606,-0.0379967255945,-0.00015328521532999358,-0.00865437439482969,-0.0008170017898802838,21.11017020000145
1619,C,173254113908766.0,3.1637568849191307,9.106008082748836,-0.01436521,96,1970-01-03 00:07:34.113908766,0.080960095,1.1994878,-0.4282363,10.483053475854438,1.2762099545015855,-86.40538787841797,6.580513000488281,-73.44013214111328,21149661.0,39491.0,0.10157439967079139,-0.10811620554516574,-0.015730659529755,0.002605031964959704,-0.00649908893021463,-0.001060874082970977,21.14966181499767
1619,C,173254153598349.0,3.477995884919131,11.206919282748835,0.91338795,96,1970-01-03 00:07:34.153598349,0.14487597,0.99069595,-0.12357068,8.670284502978095,1.0088296312983207,-86.33447265625,5.861434459686279,-73.4827651977539,21189351.0,39690.0,0.1318055837174403,0.014148043568301263,0.0178411062753,0.004631425770339458,-0.0018647981744308755,4.1881815665340515e-05,21.189351398003055
1619,C,173254193331526.0,1.3627187849191311,11.239839682748837,0.3477578,96,1970-01-03 00:07:34.193331526,0.35899413,0.8362326,0.1917476,7.9896938510871385,0.9300155314740592,-86.34873962402344,5.492059230804443,-73.52691650390625,21229084.0,39733.0,0.09616805798834181,0.056555136988059466,0.025054552042374997,0.00452903835294792,0.0014046247365229402,0.0008521865959680903,21.229084574995795
1619,C,173254233448818.0,-0.15221239508086903,10.758006082748835,-0.51475334,96,1970-01-03 00:07:34.233448818,0.59761333,0.96939063,0.5273059,8.370037677074396,1.2549547393831761,-86.50305938720703,5.416688442230225,-73.59092712402344,21269201.0,40117.0,0.024280942420570783,0.04809718928723503,-0.003349680039089999,0.0024160262747021733,0.002099168686592995,0.0004353671750778921,21.269201866991352
1619,C,173254276073557.0,1.6194968849191311,9.975701082748836,0.15502456,96,1970-01-03 00:07:34.276073557,0.5784386,1.3560816,0.99708754,9.272773037531744,1.7798123727662338,-86.54249572753906,5.09327507019043,-73.66161346435547,21311826.0,42625.0,0.03127150068967797,0.024162133964669093,-0.00766671962375,0.0011839614437871766,0.0015400268268062067,-0.0002347870178142775,21.311826605990063
1619,C,173254317245588.0,2.465248584919131,9.627344082748836,1.198298,96,1970-01-03 00:07:34.317245588,0.51026165,2.1923141,0.51665324,9.863214619406037,2.309445525428567,-86.43523406982422,4.650753974914551,-73.76219940185547,21352998.0,41172.0,0.08408857024209047,6.268777693505243e-05,0.02785949822016,0.0023748024202013855,0.000498692180372663,0.00041568854018569624,21.352998636983102
1619,C,173254353117308.0,2.4712340849191308,10.455738082748836,1.8255788,96,1970-01-03 00:07:34.353117308,0.94595486,2.328668,0.004261058,9.17519381771648,2.513472380591619,-86.19593048095703,4.168025970458984,-73.86344146728516,21388870.0,35872.0,0.08854075316621905,0.008664561720366214,0.0542362542848,0.00309627954465144,0.00015653194698359553,0.0014724694169289626,21.388870356982807
1619,C,173254394854859.0,1.1059405849191308,11.021967082748835,-0.94810385,96,1970-01-03 00:07:34.394854859,0.9438243,2.207228,-0.5432849,8.214158832755356,2.461263544568623,-86.41574096679688,3.859640598297119,-73.993896484375,21430607.0,41737.0,0.07465026959751977,0.03918489024618812,0.018311585994075,0.0034055518585450837,0.0009985462883640391,0.0015139646048597031,21.43060790799791
1619,C,173254435459028.0,-0.434728185080869,11.117136582748836,-0.8900445,96,1970-01-03 00:07:34.435459028,-0.03195793,2.2082932,-0.50387007,8.055949109182784,2.2652737613582006,-86.67218017578125,3.8290205001831055,-74.12248229980469,21471212.0,40605.0,0.01362728974771631,0.051550152168766454,-0.037319006875875,0.0017922551486066556,0.0018421481986296154,-0.0003858981624527445,21.471212076983647
1619,C,173254476883505.0,-0.438918035080869,10.992638082748837,1.1563994,96,1970-01-03 00:07:34.476883505,-0.07456851,2.5001757,-0.25246766,8.212981471668625,2.5139966016086785,-86.56485748291016,3.81048846244812,-74.24034118652344,21512636.0,41424.0,-0.01809496051198992,0.05198245287178777,0.0055167426887999995,-9.253439686963501e-05,0.0021443673155999592,-0.0006586884958426974,21.512636553990887
1619,C,173254512660746.0,0.264977244919131,10.533550082748835,1.002572,96,1970-01-03 00:07:34.512660746,-0.24181503,2.4735441,-0.34940675,8.638183105220351,2.5097768825782643,-86.50418853759766,3.66689395904541,-74.35981750488281,21548413.0,35777.0,-0.0031115398248082508,0.03445661699850508,0.0386207598889,-0.00037935248127481406,0.0015462653013747338,0.0007895537148611865,21.54841379498248
1619,C,173254552423714.0,-0.754952685080869,9.477707082748836,1.4449008,96,1970-01-03 00:07:34.552423714,-0.20879184,2.3638217,-0.5230448,9.771940951640929,2.4299841408224285,-86.39673614501953,3.6721930503845215,-74.4715805053711,21588176.0,39763.0,-0.009741446713575594,0.008176409335841921,0.0486594304732,-0.0002555366518628784,0.0008476085130663198,0.0017352611046840911,21.588176763005322
1619,C,173254592854599.0,-1.3044220150808692,10.943557082748836,0.99419224,96,1970-01-03 00:07:34.592854599,-0.17044231,2.347843,-0.3749731,8.334682628235667,2.3836992594307587,-86.33048248291016,3.799647331237793,-74.5848159790039,21628607.0,40431.0,-0.04163128925111963,0.01660226573761815,0.04930748535012,-0.0010385255438942963,0.0005009133059475321,0.0019804501868263256,21.628607647988247
1619,C,173254632727776.0,-0.07260519508086902,9.704557082748837,1.532289,96,1970-01-03 00:07:34.632727776,-0.32384038,2.13479,-0.19813919,9.530187907197,2.1682850537769247,-86.21406555175781,3.7178468704223633,-74.68302917480469,21668480.0,39873.0,-0.027453102975389495,0.02089572806044431,0.05036919324126,-0.001377300985623799,0.0007475787533550722,0.001987204102737047,21.66848082499928
1619,C,173254674711996.0,-0.47363395508086903,9.258637582748836,1.2922704,96,1970-01-03 00:07:34.674711996,-0.59761333,2.0197413,-0.22583607,9.94877057980054,2.1183716722125094,-86.15834045410156,3.6933059692382812,-74.77880096435547,21710465.0,41985.0,-0.011466925359770288,-0.013368135984540138,0.0592945632045,-0.0008170286948258419,0.00015802297665341836,0.002302116407187617,21.71046504500555
1619,C,173254712331161.0,-0.11510227508086901,8.895916082748835,1.8590976,96,1970-01-03 00:07:34.712331161,-0.6135923,1.7299895,-0.2428803,10.383107301499836,1.8515804116639465,-86.03278350830078,3.6155827045440674,-74.85575866699219,21748084.0,37619.0,-0.011073834121227212,-0.027188122828821583,0.05927565639599999,-0.00042398041545782246,-0.0007628429501499273,0.0022302465455756046,21.74808421000489
1619,C,173254752338037.0,-0.262944235080869,6.215607082748836,0.82599956,96,1970-01-03 00:07:34.752338037,-0.13635385,1.4210628,-0.29614353,12.924356263406619,1.4579824567924413,-86.05166625976562,3.5479819774627686,-74.92827606201172,21788091.0,40007.0,-0.007562253366020327,-0.08978524635896737,0.05371134104006,-0.0003727869760511561,-0.0023398767905479364,0.002260135403212226,21.78809108599671
1619,C,173254792308349.0,-0.696893315080869,9.372961082748835,0.89543146,96,1970-01-03 00:07:34.792308349,0.38456047,2.118811,-0.025566347,9.805398040849262,2.1535785211843437,-86.00639343261719,3.5718722343444824,-75.0322265625,21828061.0,39970.0,-0.019182353439982334,-0.08016846521252907,0.034402798934699996,-0.0005344909670179632,-0.0033965249257563563,0.0017609610873955785,21.82806139800232
1619,C,173254831677464.0,-0.8632903150808691,11.733643682748836,1.6208745,96,1970-01-03 00:07:34.831677464,0.36751625,1.6330504,0.13528858,7.605342501894692,1.6793524951101357,-85.78492736816406,3.664977788925171,-75.10021209716797,21867430.0,39369.0,-0.030711434667918737,0.029656761506438884,0.04953222466962,-0.0009821342720099787,-0.0009942976316025323,0.001652218972139237,21.86743051299709
1619,C,173254871975224.0,-1.020110515080869,11.094392082748836,1.0097545,96,1970-01-03 00:07:34.871975224,0.2695119,1.144094,0.22903186,8.147295233534798,1.1975154854834529,-85.70149230957031,3.7744810581207275,-75.15176391601562,21907728.0,40298.0,-0.037948643326928856,0.06504169263901256,0.053004543721,-0.0013834319115181841,0.001908079152576701,0.0020660133463026023,21.90772827298497
1619,C,173254911844756.0,-0.839946815080869,9.219133082748836,-0.04369418,96,1970-01-03 00:07:34.911844756,0.1736381,0.8426242,0.16085494,9.929460908316937,0.8752371358207178,-85.80903625488281,3.8174245357513428,-75.20076751708984,21947597.0,39869.0,-0.03707931284810916,0.014223767411613328,0.019257929449040003,-0.0014956447923712955,0.0015801173133792017,0.0014405162714081624,21.94759780500317
1619,C,173254951981995.0,-1.2457640150808689,7.625792082748836,-0.4417302,96,1970-01-03 00:07:34.951981995,0.19707392,0.99921805,-0.02876214,11.56364053772706,1.0188729567945891,-85.96144104003906,3.8832333087921143,-75.261474609375,21987735.0,40138.0,-0.04185813065051591,-0.055291596853627244,-0.00974198188222,-0.0015841955535739068,-0.0008241902690717772,0.00019097555171851063,21.987735044007422
1619,C,173254992060849.0,-2.314775215080869,8.574494082748835,-0.6619968,96,1970-01-03 00:07:34.992060849,0.2609898,1.2783173,0.004261058,10.814069788984723,1.3046949650391886,-86.13907623291016,4.1040449142456055,-75.33832550048828,22027813.0,40078.0,-0.07134964563321107,-0.06812686552959221,-0.022117585353000003,-0.002268570628949605,-0.002473182567697335,-0.0006384338678265736,22.02781389799202
1619,C,173255031361838.0,-2.342906915080869,9.371763082748835,0.60573304,96,1970-01-03 00:07:35.031361838,0.027696876,1.1707256,0.2695119,10.041995276480362,1.2016664311185234,-86.1492919921875,4.359644412994385,-75.39653778076172,22067114.0,39301.0,-0.09152578269874324,-0.03249687356938807,-0.0011056110158800022,-0.0032005836044370684,-0.0019773067851645123,-0.00045634742024667656,22.06711488700239
1619,C,173255071339547.0,-1.4337088150808692,8.729519082748835,0.6727707,96,1970-01-03 00:07:35.071339547,-0.06178534,1.1068097,0.28868666,10.50512656352033,1.14550649405185,-86.16010284423828,4.469143390655518,-75.45121765136719,22107092.0,39978.0,-0.07549077183020299,-0.0299578707938671,0.025556011258860003,-0.0033384939084791063,-0.0012484078850771075,0.0004887390504569272,22.107092596008442
1619,C,173255111452516.0,-1.6671435150808689,8.625371082748837,0.17058687,96,1970-01-03 00:07:35.111452516,-0.058589544,1.2303804,0.08522116,10.622891938799603,1.2347191216961182,-86.2398452758789,4.595788478851318,-75.51820373535156,22147205.0,40113.0,-0.0621922447598889,-0.04502904539569598,0.016914801102705,-0.002761439422239178,-0.0015039750845559719,0.0008518158481297286,22.147205565008335
1619,C,173255153013036.0,-1.877234815080869,9.362785082748836,-0.11432313,96,1970-01-03 00:07:35.153013036,-0.20453078,1.3337111,-0.07243799,9.933186333299087,1.35124586979049,-86.36454010009766,4.758533477783203,-75.59410858154297,22188766.0,41561.0,-0.073653953889926,-0.033494920802875645,0.0011691886490700003,-0.0028229519310424785,-0.001631767279589418,0.0003757943490367604,22.188766084989766
1619,C,173255193574704.0,-1.8921985150808691,9.478904082748835,0.724246,96,1970-01-03 00:07:35.193574704,-0.034088463,1.1462245,-0.16192019,9.848186138267808,1.1581065476196861,-86.35476684570312,4.916402339935303,-75.65065002441406,22229327.0,40561.0,-0.07644599265234513,-0.015378922879124507,0.012369540765034997,-0.0030441019658505298,-0.000991185986792804,0.0002745722018827564,22.2293277529825
1619,C,173255233550275.0,-1.831146315080869,9.985876082748836,0.7278373,96,1970-01-03 00:07:35.233550275,0.113983296,1.0173275,-0.221575,9.340891943988192,1.0473981643330645,-86.3310546875,5.072894096374512,-75.70035552978516,22269303.0,39976.0,-0.07442221646527282,-0.002702774052032565,0.0290242410004,-0.0030155537638429475,-0.00036141695825996756,0.0008273789099275147,22.269303323992062
1619,C,173255273348244.0,-2.509304015080869,10.070870082748836,0.90261406,96,1970-01-03 00:07:35.273348244,0.037284255,0.75420725,-0.20559604,9.4329062745011,0.7826163959994381,-86.28351593017578,5.32748556137085,-75.73435974121094,22309101.0,39798.0,-0.08637062111988844,0.009088791947238163,0.03244435161264,-0.003199616675107124,0.0001270753700966962,0.001223163524406883,22.309101293009007
1619,C,173255310531007.0,-2.709818415080869,9.400494082748835,1.3988123,96,1970-01-03 00:07:35.310531007,0.05752428,0.6849651,-0.12676647,10.185760589282339,0.6989677881875453,-86.1756362915039,5.579552173614502,-75.75880432128906,22346284.0,37183.0,-0.09703131466035195,-0.002391533117150059,0.04278696817194,-0.0034097170890583393,0.000124512087539583,0.0013986630817750191,22.346284055995056
1619,C,173255351206578.0,-2.334527215080869,9.006648082748836,1.5699978,96,1970-01-03 00:07:35.351206578,0.25353295,0.71798825,-0.13209279,10.494975848397074,0.7728095425418536,-86.04412078857422,5.761615753173828,-75.78313446044922,22386959.0,40675.0,-0.10258937925341435,-0.024259746209191146,0.06037817540875,-0.004059785862471223,-0.0005420203932994642,0.0020981211075722828,22.386959627008764
1619,C,173255390913036.0,-2.475186515080869,9.419647082748837,1.3976152,96,1970-01-03 00:07:35.390913036,0.33981937,0.6870956,-0.17150758,10.106603260793502,0.7854886490357536,-85.92728424072266,5.970015525817871,-75.80758666992188,22426666.0,39707.0,-0.09548965154176606,-0.023302148931791996,0.0589175046955,-0.0039325620378921145,-0.0009442700851815087,0.0023684367849497274,22.426666084997123
1619,C,173255430295380.0,-2.843893715080869,10.442571082748836,0.8487445,96,1970-01-03 00:07:35.430295380,0.350472,0.59228706,-0.11504856,9.171473686562152,0.6977612452590908,-85.87667083740234,6.271621227264404,-75.83379364013672,22466048.0,39382.0,-0.10473800881211479,0.005163337896814647,0.0442330688527,-0.003942682860028268,-0.00035717132808973896,0.0020311379437376064,22.466048428992508
1619,C,173255471163973.0,-2.979764615080869,10.639493082748835,0.05865794,96,1970-01-03 00:07:35.471163973,0.31957933,0.3323625,0.31638354,8.990213185308393,0.5591907759901181,-85.95074462890625,6.6183671951293945,-75.85921478271484,22506917.0,40869.0,-0.11900354614769004,0.03028524018986214,0.01854231516018,-0.004572046804826132,0.0007243739689121968,0.0012827835846111965,22.506917021994013
1619,C,173255510983662.0,-2.5996851150808693,10.249837082748837,0.9708488,96,1970-01-03 00:07:35.510983662,0.18002969,0.03195793,0.69668293,9.293630450941802,0.7202771019022928,-85.88841247558594,6.89784574508667,-75.85204315185547,22546736.0,39819.0,-0.11108405440265513,0.025669918929975867,0.020496964440029998,-0.004580929083157097,0.0011140392404964147,0.000777252537200381,22.5467367109959
1619,C,173255550014443.0,-1.1110901150808692,8.281204082748836,1.7459716,96,1970-01-03 00:07:35.550014443,0.41225734,-0.2066613,0.51984906,11.028178719341687,0.6949158600035324,-85.74006652832031,6.899888515472412,-75.82461547851562,22585767.0,39031.0,-0.07241763400422141,-0.0208612661347302,0.0530201085162,-0.003581127200104399,9.384326362561684e-05,0.0014347224372773066,22.58576749198255
1619,C,173255590367620.0,0.5121785849191309,7.042205082748836,0.4854244,96,1970-01-03 00:07:35.590367620,0.5273059,-0.033023197,0.19281286,12.087292677737532,0.5624222992523416,-85.76263427734375,6.6809892654418945,-75.82810974121094,22626120.0,40353.0,-0.012083938488308311,-0.08628663497233624,0.045021761394,-0.0017049459773955259,-0.0021618696266867262,0.0019781417882431505,22.62612066901056
1619,C,173255629807672.0,0.6163263849191309,9.537562082748837,1.5005659,96,1970-01-03 00:07:35.629807672,0.6348976,0.41864893,0.1587244,9.707145117987793,0.7768882314923201,-85.61604309082031,6.438963413238525,-75.835205078125,22665560.0,39440.0,0.022254118005210526,-0.059558991496385924,0.039163728716000004,0.0002005559400733117,-0.0028760757539632014,0.0016601378649692003,22.665560720983194
1619,C,173255670065016.0,0.368526484919131,10.580835082748836,2.6282349,96,1970-01-03 00:07:35.670065016,0.9938917,0.45806372,0.05006743,8.931454859583248,1.0955135008095214,-85.25128173828125,6.232903003692627,-75.8230209350586,22705818.0,40258.0,0.019824103416974374,0.010434816544302618,0.0831086313032,0.0008469925190071598,-0.000988820517610485,0.002461220334826477,22.705818065005587
1619,C,173255710071110.0,-0.981803215080869,8.862996082748836,2.336741,96,1970-01-03 00:07:35.710071110,0.97045594,0.33981937,-0.034088463,10.558976638242346,1.0287973362223402,-85.00261688232422,6.215999603271484,-75.81829071044922,22745824.0,40006.0,-0.012267374433425245,-0.003123845196550098,0.09931441292769999,0.00015115724985793324,0.00014624135986909367,0.0036490081537506928,22.745824159006588
1619,C,173255752147463.0,-2.0077187150808693,8.119597082748836,2.3493104,96,1970-01-03 00:07:35.752147463,0.6263755,0.1107875,-0.20026971,11.422378854859868,0.6668793698263458,-84.79750061035156,6.309268474578857,-75.8056640625,22787900.0,42076.0,-0.06289356236674265,-0.05506500498426001,0.09858514935320001,-0.0015812357884019321,-0.001224177030103883,0.004163410991265574,22.7879005119903
1619,C,173255789775433.0,-1.762313115080869,8.974925082748836,2.873042,96,1970-01-03 00:07:35.789775433,0.43036684,0.35792887,-0.4708469,10.68623704821779,0.731454370545882,-84.5162582397461,6.373893737792969,-75.79679870605469,22825528.0,37628.0,-0.07092937885266296,-0.047138059978326825,0.09825333805360001,-0.002517744816101897,-0.0019228484642061087,0.003703319302071536,22.8255284820043
1619,C,173255832209860.0,-0.9237439150808691,9.844619082748835,2.8299465,96,1970-01-03 00:07:35.832209860,0.3057309,0.5390238,-0.54435015,9.735079434886217,0.8248243000701861,-84.21829986572266,6.333987236022949,-75.79476165771484,22867962.0,42434.0,-0.05699007200894159,-0.01655893144063594,0.1210003070045,-0.0027140669889306637,-0.0013514590669361328,0.004651904587197708,22.867962908989284
1619,C,173255872400588.0,-0.449691965080869,11.348775482748835,2.3038206,96,1970-01-03 00:07:35.872400588,0.070307456,0.34301516,-0.50387007,8.110398380547718,0.6135858422428131,-83.9486312866211,6.240113735198975,-75.78509521484375,22908153.0,40191.0,-0.027599880729790208,0.03202006049095839,0.10316561675805,-0.0016998773952611847,0.00031069911883075475,0.004504726320970324,22.90815363699221
1619,C,173255911806108.0,-0.673549845080869,11.609743682748835,1.8231846,96,1970-01-03 00:07:35.911806108,-0.34301516,0.1736381,-0.40266997,7.750979848386501,0.5567339530702583,-83.77692413330078,6.196842670440674,-75.77534484863281,22947559.0,39406.0,-0.022131233385616723,0.06617290311780055,0.08131438345559999,-0.0009798521414158626,0.0019346959619833772,0.0036348094442095456,22.947559157008072
1619,C,173255951902309.0,-0.555036855080869,10.497038082748835,2.480393,96,1970-01-03 00:07:35.951902309,-0.47617322,0.531567,-0.32597092,8.982350625518952,0.784577243883491,-83.55803680419922,6.124494552612305,-75.77729797363281,22987655.0,40096.0,-0.02463070616484252,0.050255960834697265,0.0862781237248,-0.0009374833641076069,0.0023341658645196764,0.003359894583952659,22.98765535801067
1619,C,173255991892619.0,-1.299035015080869,11.263182782748835,2.4899697,96,1970-01-03 00:07:35.991892619,-0.44208476,0.6498113,-0.40266997,8.339408659416659,0.8830836683869476,-83.30850219726562,6.187372207641602,-75.78252410888672,23027645.0,39990.0,-0.03707216704388395,0.04319361620562589,0.09938240218649999,-0.0012337489498084858,0.0018685242929212613,0.0037122822155964434,23.02764566798578
1619,C,173256029009495.0,-1.5761638150808692,11.495420582748835,2.1452048,96,1970-01-03 00:07:36.029009495,-0.3355583,0.5795039,-0.21411815,8.072866313513822,0.7030438997484598,-83.10662841796875,6.314312934875488,-75.78858947753906,23064762.0,37117.0,-0.05335937748955662,0.05861894055858848,0.08602188595824999,-0.0016782738192238568,0.0018894883347086722,0.003440825481534342,23.064762544003315
1619,C,173256069037620.0,-0.31741231508086903,10.848986082748835,2.303222,96,1970-01-03 00:07:36.069037620,-0.23861924,0.5091964,0.033023197,8.583350795975138,0.563303334812815,-82.9039077758789,6.22128963470459,-75.79006958007812,23104790.0,40028.0,-0.03789803266905703,0.05492655500327035,0.0890308139752,-0.0018264258069144936,0.0022724995481750426,0.003503504736468068,23.10479066899279
1619,C,173256109164287.0,-0.26473988508086904,11.685759682748836,1.9219455,96,1970-01-03 00:07:36.109164287,-0.07563378,0.588026,0.034088463,7.674872066301555,0.5938493652962769,-82.72498321533203,6.127783298492432,-75.79920196533203,23144917.0,40127.0,-0.011680010667945032,0.05888127166606251,0.08477164813625,-0.000994709072491941,0.0022833833303801602,0.0034870856985730774,23.144917336001527
1619,C,173256148388922.0,-0.608906315080869,12.054467082748836,1.1085154,96,1970-01-03 00:07:36.148388922,-0.32597092,0.68176925,-0.128897,7.170917166757148,0.766603409554255,-82.7035903930664,6.10068416595459,-75.82962036132812,23184141.0,39224.0,-0.017133949277572006,0.08119812732494032,0.059433399170800004,-0.0005650993824514802,0.002747237173011548,0.002828149387785865,23.18414197099628
1619,C,173256189025902.0,-1.0991191150808692,10.787335082748836,2.3840263,96,1970-01-03 00:07:36.189025902,-0.6103965,0.9534117,-0.19920446,8.731077226051468,1.1494608187289515,-82.5235366821289,6.132122993469238,-75.85546875,23224778.0,40637.0,-0.03470451470274128,0.06586855729966441,0.07096320853145,-0.0010532798303839956,0.002988174431545031,0.0026494634735981667,23.22477895100019
1619,C,173256228845797.0,-1.260129315080869,9.717726082748836,2.2529438,96,1970-01-03 00:07:36.228845797,-0.57417756,1.107875,-0.046871636,9.744862514187517,1.248704863566195,-82.40863800048828,6.174999237060547,-75.89500427246094,23264598.0,39820.0,-0.04697263624452021,0.018019767805058623,0.09232207469100001,-0.0016261920753599763,0.0016702165528350358,0.00325100998895898,23.26459884599899
1619,C,173256270509806.0,-0.838749715080869,10.412045082748836,1.2228385,96,1970-01-03 00:07:36.270509806,-0.644485,1.3081448,0.18855181,8.826679883539311,1.4704269849422364,-82.43745422363281,6.1800618171691895,-75.95784759521484,23306262.0,41664.0,-0.04372384795632933,0.01103619291964748,0.0724074968736,-0.0018893891588720976,0.0006052937738170775,0.003431646434833747,23.306262855010573
1619,C,173256309953245.0,0.48883511491913095,11.277548482748836,2.3989902,96,1970-01-03 00:07:36.309953245,-0.531567,1.2729911,0.27483824,8.204533658517478,1.4066292597321115,-82.23404693603516,5.970887660980225,-75.994384765625,23345706.0,39444.0,-0.006901015744389799,0.04121096429874506,0.0714297056214,-0.0009984235619055826,0.0010304184346611378,0.0028367573076063897,23.345706293999683
1619,C,173256348819651.0,0.17818744491913097,6.4969260827488355,2.256535,96,1970-01-03 00:07:36.348819651,0.3920173,1.2772521,0.18855181,12.814351570141909,1.3492969560137515,-82.16114044189453,5.823723793029785,-76.05060577392578,23384572.0,38866.0,0.012962249405336945,-0.035475435768683776,0.09047082121159998,0.00011778795373318588,0.00011145852592468091,0.003146212937945689,23.384572699986165
1619,C,173256390063607.0,-3.190454415080869,-0.503120917251163,-1.3012487,96,1970-01-03 00:07:36.390063607,1.470065,1.3230585,0.3749731,19.918736148090836,2.0130026637763945,-82.38072204589844,5.94116735458374,-76.14322662353516,23425816.0,41244.0,-0.062118969458675365,-0.28058694987710703,0.0196999140786,-0.001013709880939945,-0.006517838516787499,0.0022719409031545044,23.425816656003008
1619,C,173256428156215.0,-7.661626015080869,-0.503120917251163,1.9231426,96,1970-01-03 00:07:36.428156215,0.8873653,0.7456851,-0.11611383,21.155728714888568,1.164880193635109,-82.3876953125,6.320413589477539,-76.18608093261719,23463909.0,38093.0,-0.20669414991307555,-0.3924767851008486,0.011844902166350002,-0.005119949078114054,-0.012819508428257631,0.0006008183426094402,23.463909263984533
1619,C,173256468442985.0,-1.7808681150808692,12.519540482748836,-0.5518635,96,1970-01-03 00:07:36.468442985,0.36645097,0.5400891,-0.02876214,6.857543512360436,0.6533068268816197,-82.67096710205078,6.550151348114014,-76.24663543701172,23504196.0,40287.0,-0.19020488051091297,-0.15275985248239768,0.027622360550850007,-0.007994935619345615,-0.010982974209158123,0.0007950088065439185,23.504196033987682
1619,C,173256508452515.0,0.013586072919130977,14.372053782748836,2.1841104,96,1970-01-03 00:07:36.508452515,-0.46552056,-0.2727077,-0.19707392,5.217326138378878,0.5743840277777317,-82.26138305664062,6.387417316436768,-76.18565368652344,23544205.0,40009.0,-0.035353593612424496,0.14586469748414813,0.03265228311105,-0.0045121844956003045,-0.0001379341281624832,0.0012057641091344788,23.544205563986907
1619,C,173256547860900.0,1.7433967849191312,9.794939082748837,-2.1529858,96,1970-01-03 00:07:36.547860900,-0.56459016,0.28549087,-0.3930826,9.712851739559257,0.7448362343797075,-82.79373168945312,5.971971035003662,-76.25650024414062,23583613.0,39408.0,0.03461959023084512,0.0899880274217661,0.0006132791183999924,-1.4462802630640028e-05,0.004647242091546134,0.0006554646381690826,23.58361394898384
1619,C,173256588427463.0,-0.504758615080869,6.368836082748835,0.50397944,96,1970-01-03 00:07:36.588427463,-0.46019423,1.5925703,-0.76485986,12.762579507948743,1.8256696018739542,-82.94932556152344,5.855404853820801,-76.35347747802734,23624180.0,40567.0,0.02512391731791439,-0.069698666430628,-0.03344762050306,0.0012118074353652634,0.0004115392536637498,-0.0006659953634757513,23.624180512008024
1619,C,173256627660275.0,-2.973180415080869,8.850426082748836,0.04129998,96,1970-01-03 00:07:36.627660275,0.1768339,1.7608821,-0.05539375,10.690771609948742,1.770605677678879,-83.11387634277344,6.124549388885498,-76.45882415771484,23663413.0,39233.0,-0.06822499098516772,-0.08593474373051495,0.01069647374243,-0.0008454922115936751,-0.0030529827904260606,-0.0004462978704298984,23.66341332398588
1619,C,173256668539391.0,-3.121621115080869,10.289341082748836,1.7717092,96,1970-01-03 00:07:36.668539391,0.035153728,1.4860439,0.27803403,9.533550116856068,1.5122384663661843,-83.01402282714844,6.474577903747559,-76.51973724365234,23704292.0,40879.0,-0.12457469587574084,-0.00940692902081037,0.03705700113461,-0.00394072919959354,-0.001948736120200714,0.000976057149749259,23.704292440001154
1619,C,173256707285485.0,-4.750875415080869,10.183398082748836,1.7250223,96,1970-01-03 00:07:36.707285485,0.2545982,0.6402239,-0.41545314,10.27300554288677,0.8045546576276279,-82.91732788085938,6.977834224700928,-76.5439224243164,23743038.0,38746.0,-0.15251387527882337,0.01690757585318636,0.06774217934950001,-0.005368036888977372,0.00014531003108362006,0.0020302745235186636,23.743038533983054
1619,C,173256747457777.0,-4.814920115080869,10.210333082748836,0.7679402,96,1970-01-03 00:07:36.747457777,-0.070307456,-0.010652645,-0.43782368,10.162932238137934,0.4435608097921077,-82.96878814697266,7.4812092781066895,-76.55213165283203,23783210.0,40172.0,-0.19213856901882867,0.015942884190186198,0.050073644774999995,-0.006922688996162639,0.0006598343404311811,0.002366448643364707,23.783210825989954
1619,C,173256787481735.0,-2.3117824150808692,9.526788082748835,2.1523874,96,1970-01-03 00:07:36.787481735,-0.10226539,-0.19387813,-0.2066613,10.097788205056826,0.30125708655870487,-82.83495330810547,7.618778705596924,-76.52558898925781,23823234.0,40024.0,-0.1426195710335967,0.00274406876393936,0.05844159593119999,-0.006699179898729136,0.0003739633025179606,0.002171606997012474,23.8232347840094
1619,C,173256828814598.0,-2.2537228150808692,10.141500082748836,2.690484,96,1970-01-03 00:07:36.828814598,0.25992453,-0.21411815,-0.053263225,9.638378759300455,0.3409462048366927,-82.58795166015625,7.769390106201172,-76.48404693603516,23864567.0,41333.0,-0.09435301383913758,0.001411277372257591,0.1000852017881,-0.004897393925272363,8.587646092371428e-05,0.0032761940650659137,23.8645676469896
1619,C,173256868760743.0,-2.675701115080869,11.916201682748836,2.123657,96,1970-01-03 00:07:36.868760743,0.6199839,-0.30360037,0.04474111,7.974484205047336,0.6917766892916956,-82.34112548828125,8.071493148803711,-76.43901824951172,23904513.0,39946.0,-0.09845538415712039,0.04908767736228498,0.09615283819300001,-0.003850962133179261,0.001008615622913019,0.003919462372542511,23.904513791989302
1619,C,173256908707411.0,-3.150351415080869,12.213082482748835,1.934515,96,1970-01-03 00:07:36.908707411,0.5454154,-0.60080916,0.22370553,7.838159173057955,0.8417207193895411,-82.1249008178711,8.472174644470215,-76.38079071044922,23944460.0,39947.0,-0.11636666021118547,0.09046565727956771,0.08105589844200001,-0.004290748103190358,0.0027873685294690447,0.0035394787011791733,23.94446045998484
1619,C,173256947541213.0,-2.214218615080869,11.763571382748836,1.377863,96,1970-01-03 00:07:36.947541213,0.4346279,-0.777643,0.2066613,7.804780234695512,0.9145156859371522,-82.0306167602539,8.682826042175293,-76.33043670654297,23983294.0,38834.0,-0.10416385627565047,0.08498148810636824,0.064316443626,-0.0042820410386248935,0.0034066572219587183,0.002822694765934356,23.9832942619978
1619,C,173256988623660.0,-2.806783615080869,11.588794382748837,1.2797008,96,1970-01-03 00:07:36.988623660,0.37816888,-1.026915,-0.30999196,8.140329081832082,1.137392251727651,-81.96414947509766,8.951457977294922,-76.27495574951172,24024376.0,41082.0,-0.10313640680975227,0.07707734518908767,0.0545890180158,-0.004258154704037257,0.0033288504947219595,0.0024424370875842137,24.024376708985073
1619,C,173257026584182.0,-3.119226915080869,10.657450082748836,1.4191631,96,1970-01-03 00:07:37.026584182,0.3472762,-1.3891048,-0.2759035,9.131812519646516,1.4581960244705545,-81.90055847167969,9.207130432128906,-76.20159912109375,24062337.0,37961.0,-0.11247864286773487,0.05022704307737856,0.05122578625395,-0.0040924814504035446,0.0024163009414916625,0.0020084178924419903,24.062337231007405
1619,C,173257066434026.0,-3.483744115080869,11.032143082748835,1.0827777,96,1970-01-03 00:07:37.066434026,0.15659387,-1.6905746,-0.013848438,8.876052824770152,1.6978680447908125,-81.88973236083984,9.544060707092285,-76.11856079101562,24102187.0,39850.0,-0.1315641977759726,0.04163514382254106,0.049851170439999995,-0.004862553599825872,0.0018303540739808984,0.0020139583621269536,24.102187074982794
1619,C,173257106733245.0,-1.9113521150808692,12.772727082748837,-0.41838676,96,1970-01-03 00:07:37.106733245,0.14168017,-1.8226675,0.221575,6.641775752653456,1.8415443428689084,-82.15332794189453,9.733250617980957,-76.07335662841797,24142486.0,40299.0,-0.10870849148964395,0.08472603139969531,0.013387145245530002,-0.0048413745523575415,0.002546114500140452,0.0012742204419055867,24.142486294003902
1619,C,173257148172932.0,-0.663374415080869,12.143650682748836,-0.108337626,96,1970-01-03 00:07:37.148172932,0.4527374,-1.7172064,0.3472762,7.001940061590279,1.809521962465822,-82.33538818359375,9.640754699707031,-76.02165222167969,24183925.0,41439.0,-0.053347046341686126,0.110152689112229,-0.010913465915727,-0.0033577097160962435,0.0040377896496468155,5.12533988738533e-05,24.18392598099308
1619,C,173257188169650.0,2.646609384919131,2.626099082748837,5.2804117,96,1970-01-03 00:07:37.188169650,1.2729911,-1.1941614,1.3571469,17.50560526049754,2.2109670956639724,-82.00884246826172,9.255260467529297,-75.91144561767578,24223922.0,39997.0,0.03966172454431048,-0.0965977593146948,0.103433723368889,-0.0002736859079648168,0.00027107826355598764,0.00185026636867706,24.223922698991373
1619,C,173257226564024.0,0.686955314919131,1.388297082748835,3.304597,96,1970-01-03 00:07:37.226564024,0.56459016,-0.16724652,0.40266997,18.03926353266616,0.7133558382467594,-81.91383361816406,8.992663383483887,-75.8899917602539,24262317.0,38395.0,0.06399610832514503,-0.29920462961285843,0.16481070451824997,0.001989971246511372,-0.007598416361436704,0.0051496224043633505,24.26231707300758
1619,C,173257267979025.0,-0.7280178850808691,5.5697710827488365,6.3979053,96,1970-01-03 00:07:37.267979025,0.11717909,-0.28868666,-0.20026971,14.99509163499239,0.3703766779086769,-81.47772979736328,8.838483810424805,-75.81059265136719,24303732.0,41415.0,-0.0008503031716241915,-0.261782803462957,0.20091456637724997,0.0013075917602165326,-0.011616647270417448,0.007573256047068565,24.303732073982246
1619,C,173257308367827.0,-2.182495515080869,7.585091082748836,4.039018,96,1970-01-03 00:07:37.308367827,0.00958738,-0.63915867,-0.07882957,12.411417506486503,0.6440728409099534,-81.20533752441406,8.869438171386719,-75.73808288574219,24344120.0,40388.0,-0.05877490760286613,-0.13015311342994004,0.2107632291202,-0.0012040715063800576,-0.007914753905735164,0.008313421402275504,24.344120875990484
1619,C,173257347824544.0,0.501404654919131,9.334654082748836,3.5152867,96,1970-01-03 00:07:37.347824544,-0.22264028,-0.72011876,0.10865697,10.398985526177377,0.7615418963602705,-80.9351577758789,8.588590621948242,-75.65938568115234,24383577.0,39457.0,-0.03316540103470085,-0.05287740750247922,0.14903510027395,-0.00181384437895624,-0.0036109176322152332,0.007098281341452488,24.38357759299106
1619,C,173257385781632.0,-0.21506018508086902,13.792058582748837,2.1003134,96,1970-01-03 00:07:37.385781632,-0.59761333,-1.1153319,-0.09374327,5.723157778439407,1.2688162751248078,-80.64412689208984,8.427292823791504,-75.55815124511719,24421534.0,37957.0,0.005434388520825455,0.06693171632214755,0.10657566649785,-0.0005262930209945842,0.0002667296999340753,0.004851108937178606,24.421534680994228
1619,C,173257426059754.0,-1.148798915080869,14.953246082748835,0.53091425,96,1970-01-03 00:07:37.426059754,-1.1014835,-1.1930962,0.06924219,4.353753319144795,1.6252811830888483,-80.7408676147461,8.603261947631836,-75.50562286376953,24461812.0,40278.0,-0.027466758418157246,0.18417729065845764,0.05299029364335,-0.00044370989736236495,0.005057084291582407,0.003213498871283627,24.461812802997883
1619,C,173257466624806.0,-0.08397764508086902,14.039858482748837,1.2868834,96,1970-01-03 00:07:37.466624806,-1.3379722,-1.2335763,0.34514567,5.232357479714012,1.8522973922710897,-80.6724853515625,8.428179740905762,-75.42255401611328,24502377.0,40565.0,-0.025003790581480452,0.19051564334970647,0.036869480836125,-0.0010642339100851515,0.007599709434020588,0.0018225808758799513,24.5023778550094
1619,C,173257505838453.0,0.5181640849191309,13.540068782748836,1.1683705,96,1970-01-03 00:07:37.505838453,-1.2836437,-1.1004182,0.07669904,5.712094087434011,1.69249641245642,-80.66532135009766,8.093354225158691,-75.35779571533203,24541591.0,39214.0,0.0085130935259088,0.15646243389461284,0.0481401632173,-0.00032333309716859335,0.006803199160529368,0.001666784090955504,24.541591501998482
1619,C,173257546046995.0,-0.5634165550808691,11.901836482748836,0.2789245,96,1970-01-03 00:07:37.546046995,-1.3028184,-1.3475596,-0.16618125,7.238230328881816,1.8817196567986112,-80.89990234375,7.9914445877075195,-75.31696319580078,24581800.0,40209.0,-0.0009097782863666651,0.11744858441019793,0.029097142327500002,0.00015286085123337488,0.005506844067509069,0.0015528174093254318,24.58180004399037
1619,C,173257585444703.0,0.570836524919131,10.465315082748836,1.9207484,96,1970-01-03 00:07:37.585444703,-1.2463595,-0.85966843,0.08628642,8.872079009359604,1.5165378857962406,-80.87001037597656,7.704253196716309,-75.26150512695312,24621197.0,39397.0,0.00014616227585900155,0.054508735112955856,0.04333025662065,-1.504208998298521e-05,0.0033873012586268453,0.001426711118180133,24.621197751985164
1619,C,173257625647463.0,1.832580884919131,9.659666082748835,2.054225,96,1970-01-03 00:07:37.625647463,-0.85327685,-0.65194184,-0.04580637,9.837467929902537,1.0748059215602996,-80.83089447021484,7.248433589935303,-75.21916198730469,24661400.0,40203.0,0.04831229506386383,0.0105529088982514,0.07990292780010001,0.0009740876802144385,0.0013078366370912829,0.0024771718566337065,24.661400512006367
1619,C,173257666599390.0,0.628297384919131,11.724665082748835,1.7956513,96,1970-01-03 00:07:37.666599390,-0.34940675,0.07243799,0.25992453,7.624060396318403,0.4414669870290682,-80.73577880859375,6.970993995666504,-75.20667266845703,24702352.0,40952.0,0.050388943453208254,0.03653596494473027,0.0788300671188,0.002021006559875568,0.0009641917808088928,0.003250216803959397,24.70235243899515
1619,C,173257705464286.0,1.602138884919131,7.215785082748836,1.7962499,96,1970-01-03 00:07:37.705464286,0.094808534,-0.27696875,0.48043427,12.131359984274628,0.562598821884853,-80.74581909179688,6.6360321044921875,-75.1910400390625,24741217.0,38865.0,0.04334295281363203,-0.012816702158966537,0.06979962006899999,0.0018214450742053737,0.0004609245740843537,0.0028882463962769233,24.741217334987596
1619,C,173257746857722.0,0.0010165129191309769,0.49107108274883515,0.74519527,96,1970-01-03 00:07:37.746857722,1.099353,-0.9438243,0.21092236,18.634039565997657,1.4641958782305937,-80.86005401611328,6.47690486907959,-75.16248321533203,24782610.0,41393.0,0.03317970569135959,-0.24614645137077748,0.052599019960905005,0.001583751201748559,-0.005359630907028347,0.002533223453378929,24.78261077098432
1619,C,173257784626890.0,-4.374985415080869,-0.503120917251163,-1.7208325,96,1970-01-03 00:07:37.784626890,1.2580773,-0.40373522,0.15233281,20.175735188533782,1.330024776327958,-81.13883209228516,6.639132976531982,-75.18041229248047,24820379.0,37769.0,-0.08260021573287334,-0.3703637550996592,-0.018424421269934998,-0.0009332816218789663,-0.01164248699409096,0.000645370208979623,24.82037993898848
1619,C,173257825041994.0,-3.167110915080869,11.027354082748836,-0.33997664,96,1970-01-03 00:07:37.825041994,0.72651035,1.0386329,0.49002165,8.69936942021851,1.3589322304987306,-81.37049102783203,7.043288707733154,-75.2594223022461,24860795.0,40416.0,-0.1524106826399084,-0.18340309619162307,-0.04164483110112,-0.004749100234317173,-0.011190520530894232,-0.0012138794519142794,24.860795043001417
1619,C,173257864977150.0,1.415989684919131,12.738610082748835,2.9939492,96,1970-01-03 00:07:37.864977150,-0.07456851,-0.008522116,0.67324716,7.174769481080214,0.6774177644502711,-80.97077178955078,6.636800765991211,-75.20591735839844,24900730.0,39935.0,-0.034965513163254504,0.08318388947457471,0.05299319709179999,-0.003741434189699655,-0.002001127010122663,0.00022659849791890267,24.90073019900592
1619,C,173257906399910.0,-0.6280600150808691,10.160054082748836,-2.7665,96,1970-01-03 00:07:37.906399910,-1.1046792,-0.21731395,-0.32384038,9.391130675033319,1.171500780834476,-81.66019439697266,6.570481300354004,-75.27068328857422,24942152.0,41422.0,0.01631881139202024,0.06831863353162224,0.004710700381199993,-0.0003861918403840328,0.003137768753981345,0.0011951054205633026,24.94215295900358
1619,C,173257944958662.0,-1.1470032150808689,8.485909082748837,1.1917139,96,1970-01-03 00:07:37.944958662,-0.9044095,0.9853696,-0.9534117,10.755662009148987,1.6425296533065392,-81.76031494140625,6.523509502410889,-75.33222961425781,24980711.0,38559.0,-0.03422233154590323,-0.01839335315078765,-0.030361088614950005,-0.00034517091680678707,0.0009625344431023005,-0.0004945266599525834,24.980711710988544
1619,C,173257986256108.0,-2.625422715080869,9.898488082748836,1.7860745,96,1970-01-03 00:07:37.986256108,-0.13315806,1.1451592,0.046871636,9.75216785153103,1.1538273755414714,-81.70735168457031,6.765386581420898,-75.38130950927734,25022009.0,41298.0,-0.07789682303190973,-0.025100982929638593,0.06148835267160001,-0.00231514842287726,-0.0008981145457247216,0.0006427468755057659,25.02200915699359
1619,C,173258024654182.0,-1.5019436150808692,10.129528082748836,1.4867992,96,1970-01-03 00:07:38.024654182,-0.14594123,0.4165184,0.16724652,9.231156166510893,0.47197226465607417,-81.68944549560547,6.846593856811523,-75.3975830078125,25060407.0,38398.0,-0.07924130617277522,0.00821748236138977,0.0628359021663,-0.0030168949426007466,-0.00032414632740980915,0.0023869013686328424,25.060407231008867
1619,C,173258064240119.0,-2.284249015080869,9.814093082748835,1.8022354,96,1970-01-03 00:07:38.064240119,0.1470065,0.21198763,-0.45380265,9.74823871738068,0.5220024056096767,-81.61868286132812,6.997843265533447,-75.40361022949219,25099993.0,39586.0,-0.0749401107287913,0.006801293728695373,0.0650998618378,-0.003051712784732706,0.00029726663515105525,0.0025322325769331516,25.099993167998036
1619,C,173258104584077.0,-3.322135415080869,10.532352582748835,0.40043023,96,1970-01-03 00:07:38.104584077,0.10333065,-0.05219796,-0.28122982,9.21881814338932,0.30412507610326467,-81.74725341796875,7.338986396789551,-75.41975402832031,25140337.0,40344.0,-0.11309198672522257,0.015057301964418979,0.044432171088360006,-0.0037929834698423675,0.0004409315923215027,0.0022094801681864997,25.1403371260094
1619,C,173258144276629.0,-1.0871481150808688,9.987073082748836,2.730587,96,1970-01-03 00:07:38.144276629,-0.00958738,0.13102753,0.03195793,9.588463762984741,0.1352088782700685,-81.53876495361328,7.327450275421143,-75.39928436279297,25180029.0,39692.0,-0.08750664093958985,0.018246921757466755,0.062138167946579996,-0.003981080364635866,0.0006609556239845442,0.0021149949484874195,25.18002967798384
1619,C,173258185667931.0,-0.477225255080869,8.850426082748836,1.8148049,96,1970-01-03 00:07:38.185667931,0.3174488,0.14807177,-0.17896444,10.431437732215597,0.39335386165243946,-81.48448944091797,7.2065815925598145,-75.40300750732422,25221420.0,41391.0,-0.03237548908218225,-0.015780336020442962,0.09406915806645,-0.002481020621865584,5.10472251205759e-05,0.0032327887155026622,25.221420980000403
1619,C,173258224301004.0,-0.705273015080869,10.378526082748836,1.3144168,96,1970-01-03 00:07:38.224301004,0.63383234,0.721184,-0.10759171,8.860719658410066,0.9661396240433366,-81.45626068115234,7.145718097686768,-75.43963623046875,25260054.0,38634.0,-0.022842319084714298,-0.007167531019081496,0.0604471755789,-0.0010666424003599405,-0.00044328394760249397,0.002984792017027226,25.260054052982014
1619,C,173258263996838.0,-3.1204240150808693,12.332792382748835,1.0378864,96,1970-01-03 00:07:38.263996838,0.47617322,0.9331717,0.058589544,7.546195869983592,1.0492774141246854,-81.43461608886719,7.587308406829834,-75.48517608642578,25299749.0,39695.0,-0.0759305218061351,0.061751893243964996,0.04668733776200001,-0.0019603939595811332,0.0010833631292583752,0.002126352253533513,25.299749886995414
1619,C,173258304041315.0,-1.5959160150808689,9.910459082748837,2.991555,96,1970-01-03 00:07:38.304041315,0.28549087,1.1867046,0.29933932,9.809835416108617,1.2567326179472624,-81.19393920898438,7.662577152252197,-75.51107788085938,25339794.0,40045.0,-0.09443291825391341,0.05292450246792709,0.08067949043149998,-0.003411101978602321,0.0022961081331413593,0.002550202317504353,25.339794364001136
1619,C,173258345092048.0,-2.400966415080869,10.417431082748836,-0.7637503,96,1970-01-03 00:07:38.345092048,0.34088463,0.62317973,-0.44315,9.05893384164688,0.8372199408477499,-81.51441955566406,7.847774028778076,-75.59046173095703,25380845.0,41051.0,-0.08203801032028475,0.014940309591922446,0.04572680536985,-0.003622154044449704,0.0013929591999344417,0.002594552424470609,25.380845097010024
1619,C,173258385792460.0,-2.806783615080869,13.741182082748836,0.23343466,96,1970-01-03 00:07:38.385792460,0.7073356,0.30360037,-0.37284255,6.077558403183367,0.8552826449671473,-81.61527252197266,8.322236061096191,-75.62708282470703,25421545.0,40700.0,-0.10597771311379138,0.09276777791787759,-0.010791923274,-0.0038261199718834494,0.0021918595808244306,0.0007109248506505475,25.421545508987037
1619,C,173258425184081.0,-1.592923215080869,13.715444082748835,1.501763,96,1970-01-03 00:07:38.425184081,0.74248934,0.28868666,-0.049002163,5.830724394426788,0.7981426060888304,-81.40666198730469,8.519204139709473,-75.61639404296875,25460937.0,39392.0,-0.08665662572686561,0.1547441089556421,0.03417645311136,-0.0037941259378055808,0.004874994123860845,0.00046058169967664263,25.460937130003003
1619,C,173258463278971.0,-1.154784415080869,11.882084082748836,-0.007182605,96,1970-01-03 00:07:38.463278971,0.8266452,0.36964676,0.083090626,7.324805845192662,0.9093322088162331,-81.58295440673828,8.548416137695312,-75.6661376953125,25499032.0,38095.0,-0.0523369610855057,0.11423791773231685,0.0284680200737625,-0.0026474803448086424,0.005123435153338898,0.0011932206029936208,25.49903201998677
1619,C,173258505637048.0,0.705510384919131,10.678998082748835,1.7178397,96,1970-01-03 00:07:38.505637048,1.2538162,0.7307714,0.55074173,8.63076004098677,1.5522236809183763,-81.447021484375,8.258461952209473,-75.68734741210938,25541390.0,42358.0,-0.00951517468479545,0.06271275918307516,0.036230006615005,-0.001309966383479208,0.0037476383863910873,0.001370239507241407,25.541390097001567
1619,C,173258543152722.0,1.1885404849191308,3.8609095827488353,5.6778493,96,1970-01-03 00:07:38.543152722,1.6255935,1.804558,1.1536814,16.313087908110628,2.6888593446501083,-81.08052062988281,8.027667045593262,-75.72692108154297,25578905.0,37515.0,0.0355276591909912,-0.09491468196442747,0.1387246364175,0.0004879291781249667,-0.000604027566571216,0.0032817117166822124,25.578905770991696
1619,C,173258582991212.0,0.943134884919131,1.7240840827488348,4.586692,96,1970-01-03 00:07:38.582991212,1.0098706,1.567004,0.48363006,18.004028531784446,1.9259382647675818,-80.89287567138672,7.793243885040283,-75.78107452392578,25618744.0,39839.0,0.042461907529493255,-0.2791719186801192,0.20446453042535,0.00155351317428869,-0.0074516180415390475,0.00683615660892615,25.61874426100985
1619,C,173258623140379.0,-3.007896415080869,5.790636082748836,6.4152637,96,1970-01-03 00:07:38.623140379,0.49747851,1.2655342,-0.34194988,15.093178045200013,1.4021381528627892,-80.4720687866211,7.889890670776367,-75.79161834716797,25658893.0,40149.0,-0.041449055337231804,-0.242605950037717,0.22085875969965,2.0332501333552506e-05,-0.010474429825576203,0.008538152387614312,25.658893427986186
1619,C,173258663194702.0,-2.6607372150808692,7.427074082748836,5.029021,96,1970-01-03 00:07:38.663194702,0.19813919,1.2144015,0.16085494,13.001321670543884,1.2409288672355516,-80.13369750976562,8.014876365661621,-75.80415344238281,25698947.0,40054.0,-0.11352572571124912,-0.12781811851557814,0.22919468968690002,-0.003103679940057927,-0.007418482820916841,0.009013220430864437,25.698947750992374
1619,C,173258702822201.0,-0.561620915080869,10.410249082748836,3.4183214,96,1970-01-03 00:07:38.702822201,-0.13741912,1.1089402,-0.27803403,9.3661916559683,1.1514926415551492,-79.85873413085938,7.905294895172119,-75.82157897949219,25738575.0,39628.0,-0.06384780399102467,-0.03492567879882915,0.1673756423136,-0.003514479117520853,-0.003224605599987666,0.007857644558257907,25.738575249997666
1619,C,173258744154702.0,-1.553418915080869,14.263716382748836,2.8018146,96,1970-01-03 00:07:38.744154702,-0.5571333,1.1632688,-0.9086706,5.818115563629404,1.5777433486871968,-79.42212677001953,8.079065322875977,-75.82166290283203,25779907.0,41332.0,-0.04370941313012248,0.10485857030997485,0.128545330576,-0.002222777449025627,0.0014452331359693371,0.006115502825736474,25.77990775098442
1619,C,173258782572462.0,-1.971207115080869,15.977964782748836,2.9586349,96,1970-01-03 00:07:38.782572462,-0.9598033,0.75420725,-1.1696603,4.751346467420849,1.6906082242907559,-78.76591491699219,8.472513198852539,-75.76780700683594,25818325.0,38418.0,-0.06770454141337683,0.20441605350804473,0.1106524744455,-0.0021401506528260783,0.005940856248920338,0.0045947506366579936,25.81832551100524
1619,C,173258824305952.0,-4.4043147150808695,15.510496782748836,2.629432,96,1970-01-03 00:07:38.824305952,-1.2090752,0.17150758,-1.107875,6.288756259350539,1.6488373797550493,-78.39608001708984,9.283345222473145,-75.72081756591797,25860059.0,41734.0,-0.133038014029985,0.2480765274872399,0.11660619200229999,-0.004188894904436632,0.009442162687628606,0.004742206592766242,25.860059000988258
1619,C,173258864023242.0,-3.6573238150808693,11.980845082748836,2.6647465,96,1970-01-03 00:07:38.864023242,-1.1132014,0.21731395,0.099069595,8.457896458923294,1.1385330449662083,-78.25128936767578,9.701462745666504,-75.69747161865234,25899776.0,39717.0,-0.1600920487512169,0.15671021243598546,0.10513444374225,-0.005821123351740499,0.00803845747476537,0.004403436414933146,25.899776290985756
1619,C,173258903985067.0,-0.5197223550808691,7.725750082748835,2.541445,96,1970-01-03 00:07:38.903985067,-0.8564726,-0.43888897,0.08522116,11.677673543053823,0.9661425819464571,-78.2691650390625,9.526739120483398,-75.67121124267578,25939738.0,39962.0,-0.08346155952600169,0.002129878001808931,0.1040249123615,-0.004866444646987105,0.0031737838470375698,0.004179213094309029,25.93973811599426
1619,C,173258944106473.0,-0.6382353150808691,10.368350082748837,3.1962593,96,1970-01-03 00:07:38.944106473,-0.75101143,0.06391586,0.05752428,9.331894245725563,0.7559182812577713,-78.09677124023438,9.397597312927246,-75.63917541503906,25979859.0,40121.0,-0.02322920984227955,-0.030209103630033984,0.11510121711014999,-0.002140270178912406,-0.0005632833057150087,0.004395779720266034,25.979859521990875
1619,C,173258983766628.0,-0.09535010508086902,11.744417282748836,4.2898107,96,1970-01-03 00:07:38.983766628,-0.18961707,0.479369,0.004261058,8.524847476110594,0.5155263601520917,-77.6541748046875,9.201576232910156,-75.58919525146484,26019519.0,39660.0,-0.014546998881807266,0.049828176857818825,0.1484487681,-0.0007491022189986416,0.00038904622210697337,0.005226196206717274,26.019519677007338
1619,C,173259021695223.0,3.4744045849191307,7.563542082748835,3.6224272,96,1970-01-03 00:07:39.021695223,0.4463458,-0.036218993,-0.31638354,12.581736906330256,0.54830186304125,-77.50896453857422,8.579358100891113,-75.57191467285156,26057448.0,37929.0,0.0640820786828927,-0.005538404613019434,0.15005163565455001,0.0009394080208876847,0.000839933385736498,0.0056609109070031634,26.05744827198214
1619,C,173259061939546.0,-1.5091262150808689,0.7466520827488345,-4.1455603,96,1970-01-03 00:07:39.061939546,-0.608266,0.041545313,-0.51026165,18.888580000411853,0.7950348993905805,-78.15533447265625,8.477188110351562,-75.67069244384766,26097692.0,40244.0,0.03954533135788551,-0.22717347300185592,-0.01052648423819999,0.0020851907448405393,-0.004682628401366522,0.002807525096799795,26.097692595008994
1619,C,173259102206213.0,-6.920620415080869,5.681102082748836,4.7321396,96,1970-01-03 00:07:39.102206213,0.19281286,0.902279,-0.7957525,15.845056788929035,1.218403149240279,-77.98213958740234,8.881064414978027,-75.6977310180664,26137959.0,40267.0,-0.16972030377836134,-0.26520341150895266,0.011809894336550006,-0.00262087780722765,-0.009913270004298364,2.5839537215130048e-05,26.137959262006916
1619,C,173259141597202.0,-4.9890984150808695,3.1420510827488357,0.35434186,96,1970-01-03 00:07:39.141597202,0.08841695,0.3174488,0.757403,16.742565694331716,0.8259846258119715,-78.23700714111328,9.13842487335205,-75.74588012695312,26177350.0,39391.0,-0.23456786721945053,-0.21225538682894063,0.10018079559543,-0.007962657671887405,-0.009403789762663978,0.0022057126335553122,26.1773502510041
1619,C,173259183231004.0,-3.414910715080869,11.195546782748835,0.8038532,96,1970-01-03 00:07:39.183231004,-0.06711166,-0.72970617,0.058589544,8.669811114461169,0.7351243460191973,-78.37284851074219,9.488438606262207,-75.7314682006836,26218984.0,41634.0,-0.1749462580625769,-0.10954742523393501,0.024110146564020003,-0.008524855545995965,-0.006698969138712882,0.0025873645429332704,26.218984053004533
1619,C,173259222307930.0,-0.34674127508086905,13.073199382748836,1.4407109,96,1970-01-03 00:07:39.222307930,-0.4612595,-0.6583334,0.15020229,6.218027860530008,0.8177554156452002,-78.34491729736328,9.339527130126953,-75.68980407714844,26258060.0,39076.0,-0.07349515658378003,0.09121796258149346,0.0438542933858,-0.004854048359360522,-0.000358121041303403,0.0013278892277395831,26.258060978987487
1619,C,173259261384181.0,2.164776384919131,10.692764082748836,-0.74998367,96,1970-01-03 00:07:39.261384181,-0.6178534,-0.14168017,-0.4048005,8.71584977113271,0.7521167058795057,-78.78022766113281,8.75628662109375,-75.75045013427734,26297137.0,39077.0,0.03552167899357488,0.08139667717062624,0.013495773983355,-0.0007419447918962233,0.003372631138796791,0.001120534291292235,26.297137229994405
1619,C,173259303286317.0,-1.0254975150808692,8.780396082748835,1.0522517,96,1970-01-03 00:07:39.303286317,-0.46658584,0.083090626,-0.87777793,10.436904916700636,0.9975472382863192,-78.94120025634766,8.64140796661377,-75.78369903564453,26339039.0,41902.0,0.023869031601981425,-0.002657421372658331,0.00633281749653,0.0012442947776875003,0.0016496661482232257,0.00041542882009507065,26.339039365993813
1619,C,173259341503087.0,-3.088102315080869,9.824267082748836,0.43275195,96,1970-01-03 00:07:39.341503087,0.07456851,0.21092236,-0.34940675,9.805489290395904,0.41489008372959724,-79.14013671875,8.874905586242676,-75.8281021118164,26377256.0,38217.0,-0.07860472235464558,-0.01901939390208778,0.028376192246025,-0.001045916946747283,-0.00041421142467748604,0.0006632371126656123,26.377256136009237
1619,C,173259382498920.0,-1.6384131150808692,10.022986082748837,2.4911668,96,1970-01-03 00:07:39.382498920,0.4079963,-0.128897,0.14487597,9.56931244576295,0.4517349489536213,-79.00725555419922,8.910819053649902,-75.8031005859375,26418251.0,40995.0,-0.09688175002974023,0.005068071759788517,0.059933024578124994,-0.003597033967698948,-0.0002859672256117791,0.0018101181718530143,26.418251969007542
1619,C,173259423058451.0,-2.3590679150808693,12.068233082748836,2.980781,96,1970-01-03 00:07:39.423058451,0.90973586,0.07563378,0.13954964,8.011808622251735,0.9234792394370095,-78.67542266845703,9.133340835571289,-75.76046752929688,26458811.0,40560.0,-0.08106891529168006,0.05052192467629278,0.11097110138399999,-0.0036088394927184034,0.0011273651277237287,0.0034659356745118945,26.458811499993317
1619,C,173259463427826.0,-3.194045715080869,11.685161082748836,1.8914193,96,1970-01-03 00:07:39.463427826,0.73290193,-0.38562572,0.18109496,8.313409598343712,0.847730982954289,-78.56610107421875,9.477846145629883,-75.72818756103516,26499180.0,40369.0,-0.11208682206799962,0.08383418453348775,0.09834292695534999,-0.0038987519807364545,0.0027119108863448154,0.00422489900501561,26.499180874990998
1619,C,173259502108816.0,-2.503318415080869,11.645656682748836,0.41180268,96,1970-01-03 00:07:39.502108816,0.25033715,-0.69348717,0.18642128,7.8939341520358495,0.7604906556043736,-78.74563598632812,9.712746620178223,-75.72483825683594,26537861.0,38681.0,-0.11018987095939309,0.0721558809936077,0.04454546470419,-0.004298942381496289,0.003016925862326789,0.002763532938891333,26.537861864984734
1619,C,173259540802879.0,-2.862448615080869,13.768715082748836,0.4997896,96,1970-01-03 00:07:39.540802879,-0.0053263223,-0.6945524,-0.0063915867,6.095589583727041,0.6946022303704092,-78.87177276611328,10.164417266845703,-75.71304321289062,26576555.0,38694.0,-0.10381149473253914,0.11249065054708342,0.01763657584116,-0.004140284422041813,0.003572356445717751,0.0012030359384308863,26.576555927982554
1619,C,173259580768035.0,-2.6703140150808693,12.449509782748835,1.7256209,96,1970-01-03 00:07:39.580768035,0.3110572,-0.680704,-0.15233281,7.392043837900508,0.7637537576276374,-78.77010345458984,10.43079662322998,-75.66619873046875,26616521.0,39966.0,-0.11056119563852201,0.13225198748723993,0.04447037802150001,-0.0042838094716849155,0.004890692135839883,0.001241083259037535,26.61652108398266
1619,C,173259620441993.0,-1.8395260150808692,11.320045082748836,-0.19093758,96,1970-01-03 00:07:39.620441993,0.27057716,-1.010936,0.035153728,8.013959233944119,1.0471100134188212,-79.05717468261719,10.505505561828613,-75.67169952392578,26656195.0,39674.0,-0.08946169667831841,0.08271145986687728,0.03044351301884,-0.003967854114889164,0.004264229905163623,0.0014860668565672248,26.656195041985484
1619,C,173259662178503.0,0.40144674491913096,9.005450082748835,1.2276269,96,1970-01-03 00:07:39.662178503,0.6625945,-0.572047,0.5944176,10.18574715259661,1.0581122458553298,-79.11976623535156,10.21776294708252,-75.65583801269531,26697931.0,41736.0,-0.030009838209735153,0.015139633113605364,0.021633632729760002,-0.002493131990043902,0.002041956608316712,0.001086745877481785,26.697931551985675
1619,C,173259700197826.0,4.0340492849191305,-0.503120917251163,3.5368345,96,1970-01-03 00:07:39.700197826,1.562743,0.33768883,1.3454291,20.32758704455438,2.089588211366675,-79.05873107910156,9.76035213470459,-75.66292572021484,26735950.0,38019.0,0.08431656177921042,-0.210961173728472,0.0905700289833,0.00103234366169394,-0.0037224695763183073,0.002132935507334414,26.73595087500871
1619,C,173259740457202.0,0.21649466491913097,6.182088082748836,3.5446155,96,1970-01-03 00:07:39.740457202,0.8969527,1.2399678,0.58483016,13.406492577069423,1.6383133421661913,-78.912109375,9.539311408996582,-75.70048522949219,26776210.0,40260.0,0.08556344971024421,-0.28023039095853186,0.1425495885,0.0034196846312827215,-0.009887686197149387,0.004692697899938828,26.77621025100234
1619,C,173259780499754.0,-4.194223415080869,5.659554082748835,4.286818,96,1970-01-03 00:07:39.780499754,0.4346279,0.7861652,-0.14487597,14.736119561896375,0.9099154794995472,-78.73738861083984,9.718949317932129,-75.71427154541016,26816252.0,40042.0,-0.07963810730698817,-0.15533008220457117,0.15679313010350002,0.00011863128025558917,-0.008720356233198487,0.005993140569160674,26.816252802993404
1619,C,173259820703035.0,-3.2054180150808693,7.721561082748837,3.281852,96,1970-01-03 00:07:39.820703035,-0.07989483,0.34194988,-0.020240024,12.286133908833174,0.3517421823783208,-78.62664794921875,9.860815048217773,-75.71148681640625,26856456.0,40204.0,-0.14874759202911125,-0.12501202294316582,0.15214540434,-0.0045910093280542704,-0.005635436997679808,0.0062102824193832375,26.856456084002275
1619,C,173259859590483.0,-0.682528115080869,13.112105482748836,3.198055,96,1970-01-03 00:07:39.859590483,-0.17150758,0.6498113,-0.165116,6.834788925683107,0.6920497590933374,-78.22579956054688,9.772762298583984,-75.67465209960938,26895343.0,38887.0,-0.07559528058179975,0.02398679586625397,0.1259920717545,-0.004362010643610248,-0.0019642840026699356,0.005407966016443411,26.89534353199997
1619,C,173259900049598.0,-0.28688621508086903,16.152142882748837,2.753332,96,1970-01-03 00:07:39.900049598,-0.45380265,0.59867865,-0.4889564,4.053666508656562,0.8963433115797791,-77.50458526611328,9.657866477966309,-75.58289337158203,26935802.0,40459.0,-0.01961076719200688,0.1955029123098352,0.12039358331650002,-0.0019259707434402214,0.0044401670515481955,0.004984258609258795,26.935802646999946
1619,C,173259941530483.0,-1.432511715080869,16.015673282748836,2.0805612,96,1970-01-03 00:07:39.941530483,-1.2144015,0.07669904,-0.958738,4.006014983312914,1.54913921213788,-77.07347869873047,9.919468879699707,-75.51332092285156,26977283.0,41481.0,-0.03566117277051953,0.26066279118050445,0.1002573619146,-0.0011463676707927789,0.009461104773241389,0.00457641092956563,26.97728353200364
