Subject-id_accel,Activity_accel,Timestamp_accel,accel_x,accel_y,accel_z,Segment_accel,DateTime,gyro_x,gyro_y,gyro_z,accel_magnitude,gyro_magnitude,Roll,Pitch,Yaw,Time_Difference,Difference_Microseconds,vx,vy,vz,dx,dy,dz,Time_diff
1622,C,1148762631053829.0,-1.4458771,8.799619651891284,-0.020111084,111,1970-01-14 07:06:02.631053829,-0.26434326,0.34407043,-0.043380737,10.036265768870665,0.43605470786413447,-81.70838928222656,-1.5740476846694946,-55.98128128051758,15005506.0,50354.0,-0.06301587836650001,-0.1008101354406663,-0.001325388379848,-0.0017235100220430912,-0.007814159654378053,0.00048360339694792325,15.005506416084245
1622,C,1148762681407833.0,-0.8138733,10.520841651891285,1.4472809,111,1970-01-14 07:06:02.681407833,-0.30584717,0.3511505,-0.18936157,8.376543511430398,0.5026996809628227,-81.68074798583984,-1.4026169776916504,-56.001155853271484,15055860.0,50354.0,-0.0568937358208,-0.007037945754666303,0.035931854457432,-0.0030189643563936523,-0.002715291140254889,0.0008712869964353326,15.055860419990495
1622,C,1148762731761837.0,-0.8276367,10.561628651891285,1.5609283,111,1970-01-14 07:06:02.731761837,0.02218628,0.26992798,-0.05279541,8.358400772667446,0.27593604462662524,-81.6171875,-1.2266197204589844,-56.016319274902344,15106214.0,50354.0,-0.04132829727,0.03732415483833372,0.0757376830284,-0.0024729361271270717,0.0007625158860994946,0.0028115039452807924,15.106214424129575
1622,C,1148762782115840.0,-0.5843353,11.390333051891284,0.17564392,111,1970-01-14 07:06:02.782115840,0.41046143,0.16218567,0.08395386,7.366150000895069,0.44925608251852683,-81.7708740234375,-1.0773515701293945,-56.020206451416016,15156568.0,50354.0,-0.035549219044000005,0.05921533981613371,0.043721678782940004,-0.001935545228237578,0.0024305748569155264,0.0030076283523241074,15.156568427104503
1622,C,1148762832469844.0,-1.8703613,11.997815951891283,0.27172852,111,1970-01-14 07:06:02.832469844,0.3977661,-0.24443054,0.023468018,6.993577508236852,0.46745578086354855,-81.89349365234375,-0.6690987944602966,-56.00570297241211,15206922.0,50354.0,-0.06180189629820001,0.09537422746823367,0.01126349592188,-0.0024510090309705695,0.003892101535518518,0.0013843617435432534,15.206922431010753
1622,C,1148762882823848.0,-2.1880035,12.087934351891285,-0.34492493,111,1970-01-14 07:06:02.882823848,0.451828,-0.512146,-0.33433533,7.002777626631039,0.760409218635735,-82.13253784179688,-0.22609691321849823,-55.98057174682617,15257276.0,50354.0,-0.1021774505696,0.11293773539833368,-0.0018428660145700013,-0.0041285080160906006,0.005244670289091566,0.00023718319917634382,15.257276435149834
1622,C,1148762933177852.0,-2.0395508,11.292402151891284,-0.30592346,111,1970-01-14 07:06:02.933177852,0.56596375,-0.88671875,-0.28419495,7.719365496637742,1.0896567705113054,-82.34944152832031,0.13765576481819153,-55.93832015991211,15307630.0,50354.0,-0.10643713461110002,0.09517753215573371,-0.01638640991503,-0.005252289411094485,0.005239718091208755,-0.00045895848007953925,15.307630439056084
1622,C,1148762983531856.0,1.9052734,10.079114651891285,3.6014862,111,1970-01-14 07:06:02.983531856,1.0456085,-0.83529663,0.07344055,9.563409851954166,1.3403026187193359,-81.9350814819336,-0.1530425250530243,-55.89662551879883,15357984.0,50354.0,-0.0033807020998000057,0.04460147856883371,0.08297238310498001,-0.00276488367487033,0.003519216153012434,0.0016764350470033715,15.357984442962334
1622,C,1148763033885860.0,3.9167328,5.941388651891284,2.185379,111,1970-01-14 07:06:03.033885860,2.0143738,-0.14776611,0.14079285,13.55341837503133,2.0246874464968894,-81.79536437988281,-0.5573983192443848,-55.888916015625,15408338.0,50354.0,0.1465806500974,-0.09012098832066631,0.1456959051404,0.003605345090735575,-0.0011460446970218896,0.005757181493153933,15.408338447101414
1622,C,1148763084239864.0,1.7319031,4.409696651891284,3.05513,111,1970-01-14 07:06:03.084239864,1.265976,-0.107666016,-0.13154602,14.745774578213029,1.2773376839955646,-81.63690948486328,-0.7190994620323181,-55.88568115234375,15458692.0,50354.0,0.1422157060543,-0.23285992530666633,0.131940295093,0.007271025858831352,-0.008131690462395353,0.006990046613276313,15.458692451007664
1622,C,1148763134593868.0,0.6533356,5.799894651891284,5.0208893,111,1970-01-14 07:06:03.134593868,0.5151062,-0.073150635,-0.030029297,13.88718920560089,0.5211402607337657,-81.29279327392578,-0.7709893584251404,-55.88642883300781,15509046.0,50354.0,0.0600531547499,-0.23642231974466632,0.20332993791610002,0.0050925231084673435,-0.011815119083657403,0.008441098656470112,15.509046455146745
1622,C,1148763184947872.0,0.8106079,9.644788651891284,4.5049744,111,1970-01-14 07:06:03.184947872,-0.41619873,0.15989685,0.056396484,10.17419190975862,0.44940955586313214,-80.88017272949219,-0.8627468943595886,-55.90006637573242,15559400.0,50354.0,0.0368577054995,-0.10461840846066632,0.23983267037490003,0.002439924728499144,-0.008586382414025661,0.01115750498894251,15.559400459052995
1622,C,1148763235301876.0,-0.3080902,12.086393251891284,4.2597656,111,1970-01-14 07:06:03.235301876,-1.0652771,0.45341492,0.07670593,7.898959593182165,1.1602948716426276,-80.36135864257812,-0.7796098589897156,-55.930084228515625,15609754.0,50354.0,0.012651888132900002,0.05365676679153369,0.22066985898,0.001246503038882935,-0.0012830612523037524,0.011594072181568318,15.609754462959245
1622,C,1148763285655880.0,-0.61083984,14.234830651891285,1.3969879,111,1970-01-14 07:06:03.285655880,-1.331665,0.43789673,-0.019195557,4.74781590977595,1.4019463926192874,-80.2392807006836,-0.5734380483627319,-55.95417022705078,15660108.0,50354.0,-0.023135901617080002,0.16922025422553374,0.1424200828695,-0.00026395600749119986,0.0056113747581467074,0.009141515465944862,15.660108467098325
1622,C,1148763336009883.0,0.7153015,13.862958651891283,0.4165039,111,1970-01-14 07:06:03.336009883,-1.259964,-0.20477295,-0.3769226,4.938076582913379,1.3309815508632952,-80.42271423339844,-0.7870776653289795,-55.94573211669922,15710462.0,50354.0,0.0026300312138200005,0.21394884130133363,0.0456582830486,-0.0005162762991428771,0.009647048318079941,0.004735249018720004,15.710462470073253
1622,C,1148763386363887.0,0.29934692,10.734296651891285,1.931427,111,1970-01-14 07:06:03.386363887,-0.82618713,-0.7052002,-0.39157104,8.232252463282846,1.1546516250472947,-80.36457824707031,-0.844733715057373,-55.91561508178711,15760816.0,50354.0,0.025545803270340003,0.12581589678333369,0.059113856269300005,0.0007093829848076965,0.00855425681075767,0.0026378481516067683,15.760816473979503
1622,C,1148763436717891.0,1.9874725,10.976957251891285,2.7599487,111,1970-01-14 07:06:03.436717891,-0.84495544,0.10032654,0.29782104,8.467299345173636,0.9015056750130012,-80.16600036621094,-1.1451624631881714,-55.922142028808594,15811170.0,50354.0,0.057575252537340006,0.05315503953553373,0.1181147659989,0.0020927388220699597,0.0045059512637001245,0.004462085022846472,15.811170478118584
1622,C,1148763487071895.0,0.91052246,10.534391651891283,1.9837799,111,1970-01-14 07:06:03.487071895,-0.8691406,0.48789978,0.2447815,8.482428132883737,1.026337936858352,-80.11531066894531,-1.2542508840560913,-55.94601058959961,15861524.0,50354.0,0.07296281910792,0.0481220313505337,0.1194328549622,0.0032865570298127116,0.00254985281369852,0.005980736452937615,15.861524482024834
1622,C,1148763537425899.0,1.7908325,8.118604651891284,1.8287048,111,1970-01-14 07:06:03.537425899,0.00036621094,0.27659607,0.14598083,10.916856550431323,0.3127553720999631,-80.1176528930664,-1.4486734867095947,-55.95832824707031,15911878.0,50354.0,0.06801201382792,-0.023842712059666347,0.0959869272919,0.003549323368825644,0.0006112804217861675,0.005423623857811476,15.911878486163914
1622,C,1148763587779903.0,-1.2084045,5.829389651891285,0.5807648,111,1970-01-14 07:06:03.587779903,-0.2073822,-0.0063476563,0.09843445,12.971254008513606,0.22964540179186133,-80.3094253540039,-1.2747105360031128,-55.9528694152832,15962232.0,50354.0,0.014663789755999999,-0.14230054741366632,0.0606632161192,0.002081528706832354,-0.004182988843760097,0.003943980660661265,15.962232490070164
1622,C,1148763638133907.0,0.24372864,2.426801651891285,0.039031982,111,1970-01-14 07:06:03.638133907,0.71965027,0.041900635,0.41781616,16.306235323221117,0.8332001667556374,-80.51123809814453,-1.243736743927002,-55.94618606567383,16012585.999999998,50353.99999999814,-0.024287644127219104,-0.2856030715446557,0.015604623580413422,-0.00024229978150417444,-0.010773329414513274,0.0019201954001170961,16.012586493976414
1622,C,1148763688487911.0,-0.8401184,8.006971651891284,2.1946564,111,1970-01-14 07:06:03.688487911,0.1526947,0.5174866,0.14102173,10.978648228943694,0.5576694190287315,-80.45135498046875,-1.0919349193572998,-55.971595764160156,16062940.000000002,50354.000000003725,-0.015015304987521112,-0.23077808953068335,0.05623757239361816,-0.0009895303498618875,-0.013000928492394773,0.0018087709680383267,16.062940498115495
1622,C,1148763738841915.0,-1.6653748,6.609510651891284,0.47424316,111,1970-01-14 07:06:03.738841915,-0.43959045,0.1149292,0.20689392,12.244712020633472,0.4992530208990317,-80.65377807617188,-0.8591760396957397,-55.97250747680664,16113294.0,50353.99999999814,-0.06308080229639766,-0.12547002503766166,0.06719488422211752,-0.0019662256930871504,-0.008969258780486891,0.0031076589602142624,16.113294502021745
1622,C,1148763789195919.0,-2.23909,8.825437651891285,0.0901947,111,1970-01-14 07:06:03.789195919,-0.50413513,0.3882599,-0.106658936,10.156040850467718,0.6451930779826911,-80.8930892944336,-0.5248578786849976,-55.990020751953125,16163647.999999998,50353.99999999814,-0.09830271026959636,-0.10486350655566241,0.014210852001219474,-0.0040631526958738815,-0.005799107324924906,0.0020495522208948797,16.163648506160825
1622,C,1148763839549923.0,0.11399841,11.013120651891285,1.2108917,111,1970-01-14 07:06:03.839549923,0.08178711,0.10346985,-0.29466248,7.813291193659392,0.32283295733385864,-80.89369201660156,-0.5463635921478271,-55.99741744995117,16214002.0,50354.00000000186,-0.05350343096143199,0.0060061824143339436,0.03275745229280121,-0.003822023217773742,-0.0024889308499063192,0.0011825209972106026,16.214002510067075
1622,C,1148763889903926.0,-0.6986084,11.308133951891286,1.3718414,111,1970-01-14 07:06:03.889903926,0.40249634,-0.056259155,-0.18121338,7.580992460140599,0.4449794212384816,-80.8396224975586,-0.41016486287117004,-55.996337890625,16264356.0,50354.0,-0.014718725718230002,0.06851302715943373,0.06502547125870001,-0.00171762923872385,0.0018761701394387489,0.0024618806662561467,16.264356513042003
1622,C,1148763940257930.0,0.2061615,12.031995651891284,0.420578,111,1970-01-14 07:06:03.940257930,0.111450195,0.39665222,0.16906738,6.715527328668632,0.4453514438918222,-80.97283935546875,-0.43245068192481995,-56.0135498046875,16314710.000000002,50354.00000000186,-0.012398335601300459,0.09416524303443721,0.04512774323380167,-0.0006827262528418437,0.00409575080867124,0.0027733274812778174,16.314710516948253
1622,C,1148763990611934.0,-1.2940674,11.912122651891284,0.11177063,111,1970-01-14 07:06:03.990611934,0.3191681,-0.1359253,0.04650879,6.941649044685949,0.35001004383440787,-81.15491485595703,-0.15367089211940765,-56.00542068481445,16365064.0,50353.99999999814,-0.027390206844298985,0.10937186653432965,0.013402941457509504,-0.00100175613315282,0.005124453807612654,0.0014736270484730868,16.365064521087334
1622,C,1148764040965938.0,-1.81633,11.462491851891285,0.22111511,111,1970-01-14 07:06:04.040965938,0.6698456,-0.07698059,-0.27911377,7.495439212189539,0.7297421706875115,-81.29325866699219,0.18274883925914764,-56.00370407104492,16415417.999999998,50353.99999999814,-0.0783104753397971,0.09503346936173018,0.00838106427597969,-0.0026612260753488886,0.005146313141854908,0.0005484559123520371,16.415418524993584
1622,C,1148764091319942.0,-1.9396515,11.549466951891285,0.91415405,111,1970-01-14 07:06:04.091319942,0.68859863,-0.24099731,-0.25845337,7.4949826468355845,0.7739805689611787,-81.29383850097656,0.5344324707984924,-55.99386215209961,16465772.000000002,50354.000000003725,-0.09456434622550698,0.08590288680284006,0.028582671641322114,-0.004352469382549983,0.004555434639155722,0.0009306359791899763,16.465772529132664
1622,C,1148764141673946.0,0.565506,8.203702651891284,3.7497406,111,1970-01-14 07:06:04.141673946,1.195816,-0.5050354,0.1403656,11.189633237263873,1.305656602163264,-80.96333312988281,0.45197707414627075,-55.96556091308594,16516126.0,50353.99999999814,-0.03459686125349872,0.003856351114433551,0.11742287560304564,-0.003251891720698806,0.002259868333043114,0.003675981662971311,16.516126533038914
1622,C,1148764192027950.0,1.9488525,5.807218651891285,3.2687683,111,1970-01-14 07:06:04.192027950,1.8075867,-0.48181152,0.20018005,13.472615034518768,1.8813782371547736,-80.74539947509766,0.23969592154026031,-55.9395866394043,16566479.999999998,50353.99999999814,0.06330400395449766,-0.1407162343346611,0.17670499857529348,0.0007227597317830235,-0.0034457212798355416,0.00740525748818777,16.566480536945164
1622,C,1148764242381954.0,1.1004944,4.130094651891284,3.1799622,111,1970-01-14 07:06:04.242381954,1.1065216,-0.25889587,0.18032837,14.983811580213366,1.1506239367388782,-80.61447143554688,0.13532835245132446,-55.9251708984375,16616834.0,50354.00000000186,0.07677340690130284,-0.24327746295067532,0.162359687798506,0.0035267289731166196,-0.009667809316553273,0.008536631608833466,16.616834541084245
1622,C,1148764292735958.0,-0.089660645,7.0675486518912845,4.7355957,111,1970-01-14 07:06:04.292735958,0.34518433,-0.32061768,0.031417847,12.588643182230573,0.472159930019741,-80.28196716308594,0.14111526310443878,-55.908321380615234,16667188.0,50354.0,0.025449761449635004,-0.21154613454066631,0.1992900012483,0.002573672709571562,-0.011451093714039509,0.009105254221131436,16.667188544990495
1622,C,1148764343089962.0,0.7052765,10.918180351891284,3.08844,111,1970-01-14 07:06:04.343089962,-0.46907043,0.012237549,0.051864624,8.43081625650738,0.4720876667829543,-80.01229858398438,0.02050764113664627,-55.908058166503906,16717542.000000002,50354.00000000186,0.015499360381335571,-0.04064250087176782,0.19698574681890726,0.0010309760403383844,-0.006349353273779089,0.009977034509088446,16.717542549129575
1622,C,1148764393443965.0,0.1826477,13.013593651891284,3.00737,111,1970-01-14 07:06:04.393443965,-1.0484009,0.13549805,-0.06593323,6.4628398076882805,1.0591748484045709,-79.62805938720703,-0.022510595619678497,-55.915287017822266,16767896.0,50353.99999999814,0.02235526758339917,0.10906107409322964,0.1534742083699943,0.0009530659682680913,0.0017225744179966804,0.008823530291790649,16.767896552104503
1622,C,1148764443797969.0,0.886673,13.662946651891286,2.3633423,111,1970-01-14 07:06:04.443797969,-1.3629761,-0.21643066,-0.37426758,5.6620181982383535,1.429902899220189,-79.33894348144531,-0.26665666699409485,-55.90876388549805,16818250.0,50354.0,0.026922287263900002,0.17816605522833373,0.13521842357709998,0.0012406609983904515,0.0072315174349290015,0.007268414394531993,16.818250556010753
1622,C,1148764494151973.0,-0.86357117,11.400419151891285,0.30792236,111,1970-01-14 07:06:04.494151973,-1.0629425,-0.5135956,-0.4430542,7.387858930515213,1.260921973312881,-79.59642791748047,-0.11914759874343872,-55.88700485229492,16868604.0,50354.0,0.0005816347739099998,0.13755116084183375,0.06725443034482,0.0006924662451459425,0.007948812348998606,0.00509765904319218,16.868604560149834
1622,C,1148764544505977.0,1.333786,12.830457651891283,0.82092285,111,1970-01-14 07:06:04.544505977,-1.0578003,-0.33753967,-0.030151367,6.105021680958154,1.1107581232814674,-79.7099609375,-0.4336972236633301,-55.8702392578125,16918958.0,50354.0,0.011838598774909998,0.11659158528883368,0.02842093585217,0.0003127042200586411,0.006398551919331814,0.002408818694741617,16.918958564056084
1622,C,1148764594859981.0,2.273407,11.377866651891285,2.3766937,111,1970-01-14 07:06:04.594859981,-0.8632202,-0.25553894,0.43023682,8.055315179089686,0.9977740149092259,-79.571044921875,-0.8087655901908875,-55.85566711425781,16969312.0,50354.0,0.09081829816100001,0.11602378099633369,0.08050639187935,0.0025845926941554065,0.005856557076961659,0.002742463330296479,16.969312567962334
1622,C,1148764645213985.0,1.4089661,10.481122651891285,1.8471985,111,1970-01-14 07:06:04.645213985,-0.9583893,0.13835144,0.29151917,8.570915165340713,1.0112539729375862,-79.56484985351562,-1.0086933374404907,-55.860599517822266,17019666.0,50354.0,0.09271110753870002,0.05687457370133373,0.1063449339194,0.004620719847301348,0.004353061876223173,0.00470435582963513,17.019666572101414
1622,C,1148764695567989.0,4.281006,10.346524651891285,2.4515686,111,1970-01-14 07:06:04.695567989,-0.41766357,0.35212708,0.3243103,9.728281244869411,0.6353058388371393,-79.45397186279297,-1.5972501039505005,-55.877872467041016,17070020.0,50354.0,0.14325642756169998,0.03090847616733372,0.10823005927670001,0.005940954631222771,0.0022101138465434405,0.00540235460369821,17.070020576007664
1622,C,1148764745921993.0,-3.122635,6.052594651891285,0.10266113,111,1970-01-14 07:06:04.745921993,-0.31744385,-0.07510376,-0.3474579,13.057856919277137,0.47659014356296764,-79.71337890625,-1.234423279762268,-55.87138366699219,17120374.0,50354.0,0.029164306666999998,-0.08058857328866628,0.06430784191221,0.004341036825675979,-0.00125079580522379,0.0043439867382331875,17.120374580146745
1622,C,1148764796275997.0,-0.7133026,3.002820651891284,2.250824,111,1970-01-14 07:06:04.796275997,0.8812103,0.3665619,0.7233887,15.90458864879085,1.1975768996792606,-79.72259521484375,-1.1005289554595947,-55.88182067871094,17170728.0,50354.0,-0.0965774009552,-0.2654810088966663,0.05925369511801001,-0.0016972594748940115,-0.008712993870680119,0.0031109088178098497,17.170728584052995
1622,C,1148764846630001.0,0.24804688,7.093961651891284,2.3858032,111,1970-01-14 07:06:04.846630001,0.30918884,0.29586792,0.78666687,11.88184206782168,0.895533544442233,-79.6742935180664,-1.0615813732147217,-55.889984130859375,17221082.0,50354.0,-0.011713743262440002,-0.23926251193766634,0.11673636301439999,-0.0027264461379675224,-0.012707927624045996,0.004430901693599687,17.221082587959245
1622,C,1148764896984005.0,-2.2151031,8.072232651891284,-2.0276031,111,1970-01-14 07:06:04.896984005,-0.19659424,0.21110535,-0.0001373291,11.073877944372297,0.2884697260703137,-80.18914031982422,-0.7489805817604065,-55.89241409301758,17271436.0,50354.0,-0.04952457445094,-0.11162992601366632,0.009018403917699999,-0.0015417971250697685,-0.008834418910300703,0.003166127767049482,17.271436592098325
1622,C,1148764947338008.0,-1.0123596,9.420560651891284,0.6959686,111,1970-01-14 07:06:04.947338008,-0.084106445,-0.15400696,-0.45274353,9.391307980338102,0.48556023496147266,-80.33076477050781,-0.5996673703193665,-55.887062072753906,17321790.0,50354.0,-0.0812578283979,-0.05305314299066633,-0.033526561806499995,-0.003292708556525245,-0.0041462256283220835,-0.0006170418911663175,17.321790595073253
1622,C,1148764997692012.0,0.86372375,10.538434651891285,1.5292969,111,1970-01-14 07:06:04.997692012,0.04624939,0.54141235,0.02116394,8.378881674747511,0.5437961485374995,-80.3056640625,-0.7268096208572388,-55.91384506225586,17372144.0,50354.0,-0.003742204795449998,0.009038424763333696,0.0560255094935,-0.0021400458357089727,-0.0011081585608095537,0.0005664560059155991,17.372144598979503
1622,C,1148765048046016.0,-1.1004639,10.174024651891285,0.71017456,111,1970-01-14 07:06:05.048046016,0.17549133,0.12963867,0.1703186,8.656793987245532,0.27678839782494097,-80.41943359375,-0.5172982215881348,-55.917449951171875,17422498.0,50354.0,-0.005960406756550001,0.028008387891333725,0.05638317294842,-0.000244282651044704,0.0009327276022065618,0.00283011339784022,17.422498603118584
1622,C,1148765098400020.0,-1.0575104,12.349973651891284,-0.15739441,111,1970-01-14 07:06:05.098400020,0.31796265,0.3326416,0.18890381,6.470143033537389,0.49742871879104306,-80.67292022705078,-0.25861403346061707,-55.930419921875,17472852.0,50354.0,-0.05433131895110001,0.07361750529433372,0.013917345836550002,-0.0015179647781415045,0.0025586351127355497,0.0017699561614491898,17.472852607024834
1622,C,1148765148754024.0,-2.1497803,11.221113151891284,0.28733826,111,1970-01-14 07:06:05.148754024,0.60858154,0.039398193,-0.44714355,7.81697206257053,0.7562149580291567,-80.81356048583984,0.1197315976023674,-55.9356803894043,17523206.0,50354.0,-0.08074995795390001,0.09998005245883371,0.0032715963114500002,-0.003400941308637186,0.004370665711551497,0.0004327659964601961,17.523206611163914
1622,C,1148765199108028.0,-3.01062,11.245817051891283,0.23057556,111,1970-01-14 07:06:05.199108028,0.50172424,-0.5291443,-0.3251648,8.07139928691995,0.7984065696029233,-80.95999908447266,0.6310077905654907,-55.91316223144531,17573560.0,50354.0,-0.12992339835310002,0.07218070174063367,0.01303951624614,-0.005304123091741339,0.00433449130847999,0.00041066488086244346,17.573560615070164
1622,C,1148765249462032.0,-0.9160309,10.105848651891284,2.3908234,111,1970-01-14 07:06:05.249462032,0.7859955,-0.5775757,0.15988159,8.997293717676575,0.9884051487480566,-80.76018524169922,0.7645462155342102,-55.88139724731445,17623914.0,50354.0,-0.0988612897093,0.04410168742413366,0.06599896161592,-0.005760112091347046,0.002927641712001347,0.0019899517571330847,17.623914618976414
1622,C,1148765299816036.0,1.57547,7.496564651891285,3.28508,111,1970-01-14 07:06:05.299816036,1.4809265,-0.45970154,0.5444641,11.810596232371843,1.6434445413427956,-80.51134490966797,0.5778045058250427,-55.85240936279297,17674268.0,50354.0,0.0166026982207,-0.050293240250666296,0.1429022199018,-0.0020710245579084823,-0.0001558847255136122,0.005259505047071637,17.674268623115495
1622,C,1148765350170040.0,1.028595,5.816739651891284,4.513977,111,1970-01-14 07:06:05.350170040,1.3281403,-0.5767212,0.38075256,13.71920086690894,1.4971761789983449,-80.20207977294922,0.4701544940471649,-55.81867980957031,17724622.0,50354.0,0.065562544505,-0.1582801375436663,0.196356858089,0.002068674316104949,-0.0052512519327279124,0.008541525806574373,17.724622627021745
1622,C,1148765400524044.0,0.79901123,5.010907651891284,5.2431946,111,1970-01-14 07:06:05.400524044,1.0543213,-0.4633789,0.24465942,14.709693078621875,1.1773579066679922,-79.87340545654297,0.3888712525367737,-55.79173278808594,17774976.0,50354.0,0.046013642052709997,-0.22086152383266633,0.2456563093732,0.0028091536489634646,-0.009545649608471927,0.01112856551719581,17.774976631160825
1622,C,1148765450878048.0,0.89398193,7.979825651891284,4.332611,111,1970-01-14 07:06:05.450878048,0.33029175,-0.35891724,-0.20118713,11.625923536310419,0.5276272231082444,-79.564208984375,0.25613805651664734,-55.774208068847656,17825330.0,50354.0,0.04262448878932,-0.16640150761066633,0.24109005759119997,0.0022316422202097895,-0.009750121342648787,0.012254813281062699,17.825330635067075
1622,C,1148765501232051.0,0.71829224,11.008207251891285,3.8027802,111,1970-01-14 07:06:05.501232051,-0.47218323,0.08287048,-0.07946777,8.638357122592595,0.4859420187814964,-79.19965362548828,0.1277468353509903,-55.77767562866211,17875684.0,50354.0,0.040592226778090004,-0.01540749558146629,0.20482474424240002,0.002095147247840682,-0.004577405273368323,0.011226796965764547,17.875684638042003
1622,C,1148765551586055.0,0.13749695,12.405088351891283,3.1052704,111,1970-01-14 07:06:05.551586055,-0.7615509,0.40924072,-0.22697449,7.048468034291108,0.893842916461102,-78.85879516601562,0.08947892487049103,-55.79916763305664,17926038.0,50354.0,0.021546204436630002,0.0960073434164337,0.1739239899562,0.0015644592826930058,0.002029262368940975,0.009535756880918152,17.926038641948253
1622,C,1148765601940059.0,0.83906555,13.159086151891284,1.9971313,111,1970-01-14 07:06:05.601940059,-1.1449127,0.23347473,-0.40605164,5.97834992397089,1.2370179766343543,-78.70452117919922,-0.1313924640417099,-55.81451416015625,17976392.0,50354.0,0.024586914062500003,0.15016002148173366,0.1284631676009,0.0011614935244525961,0.00619775574604116,0.007613201465815107,17.976392646087334
1622,C,1148765652294063.0,-0.45204163,10.849088651891284,1.9601288,111,1970-01-14 07:06:05.652294063,-1.1760559,-0.18829346,-0.47201538,8.134717676369752,1.281155894479718,-78.69671630859375,-0.07350480556488037,-55.810054779052734,18026746.0,50354.0,0.009744101233840001,0.11098461703483369,0.09963193753770001,0.0008643519721159523,0.006574838563931616,0.005742750462074534,18.026746649993584
1622,C,1148765702633854.0,-0.27661133,10.098783651891285,2.5885468,111,1970-01-14 07:06:05.702633854,-0.91426086,0.045669556,-0.12454224,9.01638281972874,0.9238340749384568,-78.60797119140625,-0.03339279815554619,-55.81365966796875,18077086.0,50340.0,-0.018340195003200003,0.03392594588620723,0.114490164852,-0.00021636368017479126,0.0036473988687226004,0.00538945331714875,18.077086440986022
1622,C,1148765752987858.0,1.2662048,11.190214051891285,1.8820801,111,1970-01-14 07:06:05.752987858,-0.68315125,0.2763214,-0.008529663,7.874737860882749,0.7369680465430072,-78.5774154663086,-0.2605760395526886,-55.82737350463867,18127440.0,50354.0,0.02491499479419,0.04252389518813374,0.1125569734613,0.0001655337343377552,0.0019247776487286827,0.005716365801313955,18.127440445125103
1622,C,1148765803341862.0,0.47291565,11.285642651891283,0.8243103,111,1970-01-14 07:06:05.803341862,-0.8747711,0.37675476,-0.05531311,7.505930595161203,0.9540587857756668,-78.74827575683594,-0.343355655670166,-55.8456916809082,18177794.0,50354.0,0.04378583556965,0.0724054442311337,0.06813879110080001,0.0017296808060703998,0.0028935759785588965,0.004549377264379992,18.177794449031353
1622,C,1148765853695866.0,0.39517212,11.420957651891285,1.0878143,111,1970-01-14 07:06:05.853695866,-0.94688416,0.1763916,-0.07342529,7.401262447733547,0.9659683650208477,-78.86511993408203,-0.4131599962711334,-55.85457229614258,18228148.0,50354.0,0.021855845785290002,0.0782148758483337,0.048141561054200005,0.0016526606114733245,0.003792167798640751,0.0029275904262064355,18.228148453170434
1622,C,1148765904049870.0,-0.26481628,9.892011651891284,2.6128082,111,1970-01-14 07:06:05.904049870,-0.62960815,0.19708252,-0.047714233,9.221040658341622,0.6614564159993849,-78.76346588134766,-0.3621765673160553,-55.86561584472656,18278502.0,50354.0,0.00328196898368,0.04312742816133372,0.0931705726825,0.0006328947624383577,0.0030550351880513967,0.003557815591088896,18.278502457076684
1622,C,1148765954403874.0,0.75297546,8.348020651891284,1.6463013,111,1970-01-14 07:06:05.954403874,-0.27670288,0.44047546,0.24925232,10.539783793021938,0.5768100499192853,-78.83268737792969,-0.43897882103919983,-55.8843879699707,18328856.0,50354.0,0.012290383674860001,-0.03423990668766632,0.10723159988150001,0.00039206512288406163,0.00022376112814252413,0.005045525498643828,18.328856460982934
1622,C,1148766004757877.0,1.3539124,6.503080651891285,-1.1060028,111,1970-01-14 07:06:06.004757877,0.2978058,0.25219727,0.16743469,12.3524271751031,0.42464824611022356,-79.21817779541016,-0.5748758912086487,-55.8916130065918,18379210.0,50354.0,0.053045115651220005,-0.11956302247466631,0.013603095334500001,0.0016449518665327162,-0.0038722963475200487,0.0030422551214532327,18.37921046395786
1622,C,1148766055111881.0,-0.7641754,6.883176651891285,0.4131012,111,1970-01-14 07:06:06.055111881,0.34733582,0.43295288,0.47314453,11.87979507716655,0.7293532165036963,-79.41897583007812,-0.44130459427833557,-55.906497955322266,18429564.0,50354.0,0.014847808449000003,-0.15644339986266628,-0.017445183583199998,0.0017093401500712392,-0.006949013695187023,-9.673225583751982e-05,18.42956446809694
1622,C,1148766105465885.0,-0.13667297,3.6113566518912847,-0.046707153,111,1970-01-14 07:06:06.105465885,0.65078735,0.14758301,0.4434204,15.120501842670896,0.8012032020011169,-79.65377807617188,-0.3943713903427124,-55.907718658447266,18479918.0,50354.0,-0.02268065941149,-0.2292483350106663,0.009224702921319,-0.0001972076886826107,-0.009710560808905895,-0.0002069670416241779,18.47991847200319
1622,C,1148766155819889.0,-0.70762634,7.555341651891284,1.960846,111,1970-01-14 07:06:06.155819889,0.24034119,0.42658997,0.1181488,11.368586596701755,0.503688424580769,-79.65148162841797,-0.28573527932167053,-55.92756271362305,18530272.0,50354.0,-0.02125692372787,-0.2123252368056663,0.048192273750919,-0.0011062165306996666,-0.011117497817619807,0.0014455872216769363,18.530272476142272
1622,C,1148766206173893.0,-1.8988037,7.536451651891284,1.261261,111,1970-01-14 07:06:06.206173893,-0.20465088,0.47322083,0.0605011,11.424444122640878,0.5191149388448316,-79.75823211669922,-0.03343548625707626,-55.95004653930664,18580626.0,50354.0,-0.06562208911708,-0.11350311999066633,0.08112298793900001,-0.002187352906397306,-0.008203380539061268,0.0032557703435670913,18.580626480048522
1622,C,1148766256527897.0,-2.2556152,8.645368651891284,1.4269257,111,1970-01-14 07:06:06.256527897,-0.29553223,0.6003876,-0.028549194,10.432989912953598,0.6697907327520907,-79.82649230957031,0.2809745967388153,-55.98000717163086,18630980.0,50354.0,-0.1045958046453,-0.08605951021166634,0.06768047654590001,-0.0042855759112554416,-0.00502438834060413,0.003746424825336328,18.630980483954772
1622,C,1148766306881901.0,-1.2744751,10.341687651891284,1.7547607,111,1970-01-14 07:06:06.306881901,0.10638428,0.5064697,-0.08287048,8.665267644114952,0.5241151481350628,-79.7807846069336,0.48510801792144775,-56.0053825378418,18681334.0,50354.0,-0.0888770834831,-0.015432083439666323,0.08010531849280002,-0.004871066904408727,-0.002555253853359603,0.003720802961689351,18.681334488093853
1622,C,1148766357235905.0,-1.209259,11.426786351891284,-0.19262695,111,1970-01-14 07:06:06.357235905,0.55130005,0.26670837,-0.18829346,7.406309017013846,0.640717977613264,-80.04069519042969,0.7003167271614075,-56.02310562133789,18731688.0,50354.0,-0.06253297343570001,0.05459566999323369,0.039329841423750005,-0.003812051003044628,0.0009860216186591657,0.00300701902121898,18.731688492000103
1622,C,1148766407589909.0,-0.9451752,12.054227651891285,-0.030471802,111,1970-01-14 07:06:06.407589909,0.24331665,-0.047821045,-0.111694336,6.74357663312972,0.2719659339082662,-80.28018951416016,0.8780858516693115,-56.0251579284668,18782042.0,50354.0,-0.0542421898534,0.0977122895732337,-0.005616957279104,-0.002940048286129671,0.0038346574980049498,0.0008487892841097524,18.782042496139184
1622,C,1148766457943913.0,-1.9146576,12.179609251891284,0.76916504,111,1970-01-14 07:06:06.457943913,0.35186768,-0.35403442,-0.29942322,6.868803327780198,0.5820700124971971,-80.33490753173828,1.2385258674621582,-56.01152801513672,18832396.0,50354.0,-0.0720020104056,0.11666611172653371,0.018598079653126,-0.0031784502299208434,0.005397405009524245,0.00032682571801075197,18.832396500045434
1622,C,1148766508297917.0,-1.8684387,10.898267651891285,0.9317932,111,1970-01-14 07:06:06.508297917,0.7264252,-0.5704346,-0.2729187,8.106394995250659,0.963106339342593,-80.3680419921875,1.5202760696411133,-55.98728942871094,18882750.0,50354.0,-0.09524701554510001,0.0875625068065337,0.04282502560848,-0.004210828726360774,0.005141863928807038,0.0015464495211714544,18.882750503951684
1622,C,1148766558651920.0,1.4399567,8.135724651891284,1.9848022,111,1970-01-14 07:06:06.558651920,1.4506226,-0.59298706,0.0055236816,10.875493029198067,1.5671534998259173,-80.27056121826172,1.2883129119873047,-55.957550048828125,18933104.0,50354.0,-0.010787891314000002,-0.01425037576766631,0.0734311223858,-0.002669640849991561,0.0018457795231655643,0.0029269810380519877,18.93310450715944
1622,C,1148766609005924.0,3.42659,5.942304651891284,4.50296,111,1970-01-14 07:06:06.609005924,1.6273193,-0.29878235,0.21147156,13.984749200475353,1.6679805806761798,-79.95562744140625,0.9144935607910156,-55.93681335449219,18983458.0,50354.0,0.1225250462659,-0.13902665621866633,0.1633423889094,0.0028132063502239865,-0.003859055834319897,0.005961246693879252,18.98345851106569
1622,C,1148766659359928.0,0.5764923,6.740049651891285,3.8880463,111,1970-01-14 07:06:06.659359928,0.43086243,-0.12136841,0.015960693,12.618881974052377,0.4479145769591265,-79.73680877685547,0.8261519074440002,-55.927730560302734,19033812.0,50354.0,0.10078560306710001,-0.1741655656936663,0.21126036561510003,0.005622292218256941,-0.0078852405710868,0.009431373550663338,19.03381251497194
1622,C,1148766709713932.0,-0.3442688,8.003385651891284,2.8415833,111,1970-01-14 07:06:06.709713932,-0.13848877,0.08227539,-0.03993225,11.103082668906925,0.16596072970985487,-79.62963104248047,0.8487571477890015,-55.93046569824219,19084166.0,50354.0,0.0058466910595,-0.1222737293566663,0.16943188443920001,0.0026846812692254084,-0.007463452131482225,0.009584688779617113,19.084166519111022
1622,C,1148766760067936.0,-0.013931274,11.702482151891285,3.4766388,111,1970-01-14 07:06:06.760067936,-0.7917938,0.22358704,-0.06726074,7.841533353964832,0.8255014193323651,-79.27577209472656,0.8296203017234802,-55.936302185058594,19134520.0,50354.0,-0.009018403263098,0.002665433695833703,0.15907387781170002,-7.985419814998684e-05,-0.0030113780598527823,0.00827078957619091,19.134520523017272
1622,C,1148766810421940.0,-0.043258667,12.733030251891284,2.577301,111,1970-01-14 07:06:06.810421940,-0.977478,0.276474,-0.06944275,6.5285538997871635,1.018196154327624,-79.01410675048828,0.8180487751960754,-55.9460563659668,19184874.0,50354.0,-0.0014398711445570002,0.12174369579003372,0.15242004234460002,-0.00026330797476152996,0.0031322486530656842,0.007842482427775167,19.184874527156353
1622,C,1148766860775944.0,0.15431213,12.071897451891285,2.0530396,111,1970-01-14 07:06:06.860775944,-1.2091522,-0.09791565,-0.14009094,6.970270923556899,1.2211723828967989,-78.92112731933594,0.7582004070281982,-55.94044494628906,19235228.0,50354.0,0.002795993037951,0.13104446479813373,0.11657808528620002,3.4143080909980736e-05,0.006364447519128292,0.006772565859360653,19.235228531062603
1622,C,1148766911129948.0,0.20831299,11.118268651891285,1.2969208,111,1970-01-14 07:06:06.911129948,-1.2102509,-0.1608429,-0.32052612,7.725389587151924,1.2622656903494898,-79.01683807373047,0.6833680868148804,-55.936031341552734,19285582.0,50354.0,0.009129812646240002,0.09038961199493373,0.08434195299080001,0.0003002560097108769,0.00557504575141906,0.0050585638037000304,19.285582534968853
1622,C,1148766961483952.0,0.7006836,10.283277651891284,1.6471405,111,1970-01-14 07:06:06.961483952,-0.97592163,-0.008880615,-0.023452759,8.635443919216327,0.9762437836572109,-79.06438446044922,0.5488908886909485,-55.93574523925781,19335936.0,50354.0,0.02288580714643,0.045357531290333694,0.0741226313501,0.0008060572595200527,0.0034177058264931786,0.0039896628399508395,19.335936539107934
1622,C,1148767011837956.0,1.1277466,11.360441151891283,1.8937988,111,1970-01-14 07:06:07.011837956,-0.6504059,0.30334473,0.17663574,7.693237950820788,0.739084599094671,-79.01114654541016,0.3369334638118744,-55.948238372802734,19386290.0,50354.0,0.04603438714540001,0.051454708322833664,0.0891502287561,0.0017352037316854042,0.0024374417567407146,0.004110720798893798,19.386290543014184
1622,C,1148767062191960.0,2.2219086,10.621824151891284,1.6535492,111,1970-01-14 07:06:07.062191960,-0.33120728,0.2951355,0.07797241,8.569280658448225,0.4504252683925009,-79.01478576660156,-0.03595411777496338,-55.961883544921875,19436644.0,50354.0,0.0843342689704,0.05997829355333366,0.089311580596,0.003282291655027497,0.002805548688236265,0.004493132974057822,19.436644547153264
1622,C,1148767112545963.0,1.6437988,7.712384651891284,1.0445251,111,1970-01-14 07:06:07.112545963,-0.28581238,0.18643188,-0.08610535,11.189580332526662,0.3519370593447375,-79.16658782958984,-0.24795882403850555,-55.97149658203125,19486998.0,50354.0,0.0973269152098,-0.03186882494716633,0.0679294166511,0.004573683634104896,0.0007077120910974749,0.003958856587690237,19.48699855012819
1622,C,1148767162899967.0,-1.9655304,5.813092651891285,-0.107437134,111,1970-01-14 07:06:07.162899967,0.15612793,0.2743225,0.07702637,13.0671932729589,0.32490279501369607,-79.43647003173828,-0.020161010324954987,-55.983577728271484,19537352.0,50354.0,-0.008100236493200004,-0.1529382579226663,0.023593063719982002,0.002246460090047838,-0.0046528879254137765,0.0023042614883027317,19.53735255403444
1622,C,1148767213253971.0,-0.4398651,4.525663651891284,0.51083374,111,1970-01-14 07:06:07.213253971,0.57917786,0.31532288,0.5017395,14.22149094578854,0.8286241838287874,-79.61922454833984,0.05217410996556282,-55.994510650634766,19587706.0,50354.0,-0.0605606425035,-0.23317033253966632,0.010156316349262002,-0.0017286749504999163,-0.009721055982070148,0.0008497081420033562,19.58770655794069
1622,C,1148767263607975.0,0.01008606,6.982999651891284,1.1447296,111,1970-01-14 07:06:07.263607975,0.0786438,0.6478119,0.37239075,11.803812199382177,0.7513454436846028,-79.7355728149414,0.07377630472183228,-56.02314758300781,19638060.0,50354.0,-0.010820546890080001,-0.20371558400066636,0.04168211821118,-0.0017971642053621637,-0.010999476720735956,0.0013051362669282483,19.638060562079772
1622,C,1148767313961979.0,-1.8429108,8.328305651891284,0.46289063,111,1970-01-14 07:06:07.313961979,-0.23771667,0.53045654,-0.15840149,10.574977378172846,0.6024818570371065,-79.93695068359375,0.3184865117073059,-56.05133819580078,19688414.0,50354.0,-0.046145028478980006,-0.10797646636666633,0.04047505453071,-0.001434222291066824,-0.007847470752098335,0.0020684711381225647,19.688414565986022
1622,C,1148767364315983.0,-1.451767,8.863828651891284,1.3678589,111,1970-01-14 07:06:07.364315983,0.029678345,0.33314514,-0.21185303,10.06692922733632,0.39591437810180563,-79.98927307128906,0.5096498131752014,-56.069969177246094,19738768.0,50354.0,-0.0829501029706,-0.06062283463366632,0.04609278091681,-0.003250228124506076,-0.004244824601285376,0.0021795183930622113,19.738768570125103
1622,C,1148767414669987.0,-0.86720276,9.914029651891285,1.3246765,111,1970-01-14 07:06:07.414669987,0.10383606,0.08305359,-0.008468628,8.958166587082696,0.13323491970356,-80.0206069946289,0.6359395384788513,-56.074485778808594,19789122.0,50354.0,-0.05838470164752,-0.020699061485666297,0.0677899637658,-0.0035583863758704075,-0.0020474413785964373,0.0028672258628740723,19.789122574031353
1622,C,1148767465023991.0,-0.7859955,11.210416651891284,0.44184875,111,1970-01-14 07:06:07.465023991,0.1940918,-0.008056641,0.021743774,7.574610873794166,0.19547206449824478,-80.17508697509766,0.7698554396629333,-56.075904846191406,19839476.0,50354.0,-0.04162257259202,0.03838098459033372,0.04447580621925,-0.0025178831435288987,0.00044517777800621175,0.002826515290913604,19.839476578170434
1622,C,1148767515377995.0,-0.72306824,11.644346151891284,-0.060958862,111,1970-01-14 07:06:07.515377995,0.44291687,-0.1763916,-0.28778076,7.123875125874911,0.5568726210789453,-80.4081039428711,0.8807192444801331,-56.073326110839844,19889830.0,50354.0,-0.03799369778198,0.08194516311083369,0.009589664710176,-0.002004498839206198,0.003029451420672292,0.0013612063615901584,19.889830582076684
1622,C,1148767565731999.0,-1.6600037,10.716443651891284,-0.11715698,111,1970-01-14 07:06:07.565731999,0.47180176,-0.55674744,-0.4600525,8.185667649471325,0.8626777587499872,-80.63805389404297,1.1226799488067627,-56.05409240722656,19940184.0,50354.0,-0.05999860223338001,0.06950840488983369,-0.004484422554034,-0.0024671521374867193,0.003813146481552803,0.00012853468176518716,19.940184585982934
1622,C,1148767616086002.0,-1.0237579,10.742231251891283,1.0014801,111,1970-01-14 07:06:07.616086002,0.45820618,-0.7658081,-0.16564941,8.11629000280468,0.9076644073935864,-80.66936492919922,1.2611117362976074,-56.01877975463867,19990538.0,50354.0,-0.06756906580320002,0.04679585805253366,0.022264603192240003,-0.0032117711781569757,0.0029281924280999826,0.0004476516079281125,19.99053858895786
1622,C,1148767666440006.0,0.27642822,10.718351651891284,1.8166351,111,1970-01-14 07:06:07.666440006,0.7345886,-0.63430786,0.090774536,8.22081576991319,0.9747855604663802,-80.54595184326172,1.1808080673217773,-55.984928131103516,20040892.0,50354.0,-0.018815519353360004,0.04684389576853367,0.0709516863904,-0.002174904700486712,0.0023575680819530125,0.0023469065228221273,20.04089259309694
1622,C,1148767716794010.0,1.3624878,8.995893651891285,1.9640656,111,1970-01-14 07:06:07.716794010,1.3182831,-0.6809845,0.14291382,10.024445421661849,1.4906490468694675,-80.43103790283203,0.9583526253700256,-55.949398040771484,20091246.0,50354.0,0.04126298863554,0.0028763540133337016,0.0951867015239,0.0005651599341174459,0.0012518067287580748,0.0041828661925183315,20.09124659700319
1622,C,1148767767148014.0,1.6492767,5.547651651891284,3.839386,111,1970-01-14 07:06:07.767148014,1.5694122,-0.41818237,0.10169983,13.829899456592152,1.6273518376521057,-80.18710327148438,0.7654188871383667,-55.925575256347656,20141600.0,50354.0,0.07582719481650001,-0.1273063598866663,0.14611350093320002,0.0029479795487720112,-0.003132774257872895,0.006075215197262408,20.141600601142272
1622,C,1148767817502018.0,1.1686707,4.677152651891284,4.6680756,111,1970-01-14 07:06:07.817502018,1.1634216,0.11050415,0.2050476,14.855035736766501,1.186509799698065,-79.91639709472656,0.6449251770973206,-55.92672348022461,20191954.0,50354.0,0.0709474616898,-0.23603930204366633,0.2141923607032,0.0036953455268591154,-0.009147953730419985,0.009071420678419644,20.191954605048522
1622,C,1148767867856022.0,0.23272705,7.889081651891285,3.5597076,111,1970-01-14 07:06:07.867856022,0.41381836,0.06980896,0.29751587,11.413874477707752,0.5144264951100673,-79.69410705566406,0.6150173544883728,-55.92533874511719,20242308.0,50354.0,0.03528299115175001,-0.17708911893366633,0.2071508976264,0.0026745641111917046,-0.010401334254946305,0.010608159214964339,20.242308608954772
1622,C,1148767918210026.0,0.27220154,11.166944451891284,3.5659332,111,1970-01-14 07:06:07.918210026,-0.5204315,0.11854553,0.11439514,8.367046134276197,0.5458829883142087,-79.35120391845703,0.5602670907974243,-55.926353454589844,20292662.0,50354.0,0.012712587110430001,-0.013695630785066288,0.17940225842159999,0.0012083846739069063,-0.004803387643668531,0.009732248809820496,20.292662613093853
1622,C,1148767968564030.0,0.1672821,12.140073651891285,3.2594604,111,1970-01-14 07:06:07.968564030,-1.0832672,0.28884888,-0.1308136,7.354903038053838,1.1287221535958505,-79.01884460449219,0.5104848146438599,-55.9381217956543,20343016.0,50354.0,0.01106487960428,0.09333159479893371,0.17184293466720002,0.0005986452794762537,0.00200499466597714,0.008843300226396717,20.343016617000103
1622,C,1148768018918034.0,0.8487396,12.317243651891285,2.3895874,111,1970-01-14 07:06:08.018918034,-1.0811615,0.08319092,-0.4108429,6.8970226008381275,1.1595787195068332,-78.83950805664062,0.30236876010894775,-55.944366455078125,20393370.0,50354.0,0.025580378340900004,0.12229267775733374,0.1422260764606,0.000922617659285797,0.005428772310149146,0.007907315493164622,20.393370621139184
1622,C,1148768069272038.0,0.46420288,11.355985651891285,1.2145844,111,1970-01-14 07:06:08.069272038,-1.0000153,-0.2740326,-0.6656494,7.488926749675994,1.2321581026058344,-78.9345932006836,0.17074301838874817,-55.93748474121094,20443724.0,50354.0,0.033055952818960004,0.10255169418133372,0.09074223340859999,0.0014762869096117954,0.005660906752299831,0.005865443137576849,20.443724625045434
1622,C,1148768119626042.0,0.124557495,10.581464651891284,1.6639252,111,1970-01-14 07:06:08.119626042,-1.168808,-0.008377075,-0.3887024,8.318764146697013,1.2317759017026255,-78.981201171875,0.12587536871433258,-55.94075393676758,20494078.0,50354.0,0.014823219961375,0.058849986298333705,0.07247223619920001,0.0012054539330904944,0.004063610109436587,0.004109250701315581,20.494078628951684
1622,C,1148768169980045.0,1.253128,10.601972651891284,2.1665497,111,1970-01-14 07:06:08.169980045,-1.0697327,0.47369385,0.030426025,8.505768336450863,1.1703160496098537,-78.93821716308594,-0.08223037421703339,-55.96356964111328,20544432.0,50354.0,0.034685987707615,0.03986620099733369,0.09643986655730001,0.0012464933214821614,0.002485377447543018,0.004252700011100402,20.54443263215944
1622,C,1148768220334049.0,0.883255,10.390699651891284,1.3639374,111,1970-01-14 07:06:08.220334049,-0.89201355,0.7384491,0.016098022,8.49728708271674,1.1581253787853563,-79.02682495117188,-0.22123035788536072,-55.99948501586914,20594786.0,50354.0,0.053787714791,0.035063310592333675,0.08888707371670002,0.00222750240780763,0.0018865003132930555,0.004665976375278499,20.59478663606569
1622,C,1148768270688053.0,-0.13232422,10.808301651891284,1.6043091,111,1970-01-14 07:06:08.270688053,-0.72991943,0.70610046,0.0030059814,8.08474729890987,1.0155635232854288,-79.05135345458984,-0.18539725244045258,-56.03417205810547,20645140.0,50354.0,0.018906184248060003,0.04025805582533368,0.07473154213050001,0.001830214296106414,0.001896366042297611,0.004119425891184955,20.64514063997194
1622,C,1148768321042057.0,-0.5789032,10.675092651891285,1.9485168,111,1970-01-14 07:06:08.321042057,-0.57470703,0.48005676,0.2311554,8.308562279517947,0.7836934873420083,-79.01402282714844,-0.06506268680095673,-56.05572509765625,20695494.0,50354.0,-0.01790657275334,0.04741821838633372,0.08944949768430001,2.516721860256549e-05,0.00220742555582715,0.004133586039417221,20.695494644111022
1622,C,1148768371396061.0,0.08554077,8.092405651891283,-1.2803192,111,1970-01-14 07:06:08.371396061,-0.20271301,0.30210876,0.13415527,10.71586733061724,0.38776269000610486,-79.4631576538086,-0.06553738564252853,-56.06877517700195,20745848.0,50354.0,-0.01242138590011,-0.020959895205666306,0.016823210975199995,-0.0007635670150179107,0.0006661412027196635,0.0026756279859202316,20.745848648017272
1622,C,1148768421750065.0,-0.036499023,5.068067651891285,-0.9976959,111,1970-01-14 07:06:08.421750065,0.20291138,0.029327393,-0.0067596436,13.699527664257543,0.20513121872421047,-79.81680297851562,-0.060206420719623566,-56.06986999511719,20796202.0,50354.0,0.001234724064219,-0.1621279636306663,-0.057353586172700005,-0.00028164658504222775,-0.004609603021922346,-0.0010204332563474579,20.796202652156353
1622,C,1148768472104069.0,0.7720947,4.046308651891284,1.0216827,111,1970-01-14 07:06:08.472104069,0.41105652,0.27319336,0.33616638,14.740592898009476,0.5971682423110797,-79.9508056640625,-0.11479335278272629,-56.08012390136719,20846556.0,50354.0,0.018520092359829002,-0.2639965477996663,0.0006039156635999994,0.0004973670131082566,-0.010728536824281484,-0.001428786454407611,20.846556656062603
1622,C,1148768522458073.0,0.4736786,5.014905651891285,0.41882324,111,1970-01-14 07:06:08.522458073,0.16719055,0.6321564,0.3224945,13.730828635141837,0.7290933387437526,-80.14904022216797,-0.1400241255760193,-56.10797119140625,20896910.0,50354.0,0.0313648343741,-0.26533500747366634,0.03626761805138,0.0012559528003801305,-0.013326980567116696,0.0009283146043420514,20.896910659968853
1622,C,1148768572812077.0,-0.99227905,7.899442651891285,-0.4572296,111,1970-01-14 07:06:08.572812077,-0.10614014,0.6799774,-0.07148743,10.886687501681173,0.6919143346383166,-80.45738983154297,-0.0038590566255152225,-56.141700744628906,20947264.0,50354.0,-0.013056803529650003,-0.1683246527556663,-0.0009669569257200008,0.00046094129257071763,-0.01091824926559391,0.0008887647451607419,20.947264664107934
1622,C,1148768623166081.0,-0.87939453,9.463315651891284,0.37083435,111,1970-01-14 07:06:08.623166081,-0.23963928,0.5719757,-0.342865,9.316863854545845,0.7086180876427078,-80.64940643310547,0.11921931803226471,-56.172943115234375,20997618.0,50354.0,-0.04712312572366,-0.056327034185666314,-0.002175173209250001,-0.0015151500788105861,-0.005656055522121932,-7.910941040813974e-05,20.997618668014184
1622,C,1148768673520085.0,-0.5926361,11.112165351891285,0.83833313,111,1970-01-14 07:06:08.673520085,-0.13743591,0.63612366,-0.36027527,7.6878625943294345,0.7438684092921923,-80.73291015625,0.21403640508651733,-56.207489013671875,21047972.0,50354.0,-0.03706131517151,0.024559685232233702,0.030443209643960002,-0.002119511668417695,-0.0007998065446005729,0.0007117043533166937,21.047972672153264
1622,C,1148768723874088.0,-1.1427612,10.818769351891284,1.0059814,111,1970-01-14 07:06:08.723874088,0.08590698,0.4873047,-0.124557495,8.05754084196983,0.5102552786747878,-80.77876281738281,0.4096611440181732,-56.23280715942383,21098326.0,50354.0,-0.043692097822100005,0.0586859430371337,0.046434306921810005,-0.002033128678940119,0.0020958751829378633,0.0019355452345763916,21.09832667512819
1622,C,1148768774228092.0,-1.6234894,11.076734651891284,0.660141,111,1970-01-14 07:06:08.774228092,0.21107483,0.15943909,-0.17196655,7.852506850181626,0.3155089564472925,-80.87318420410156,0.6885884404182434,-56.2430305480957,21148680.0,50354.0,-0.06964589135620002,0.05779390430323368,0.0419479636648,-0.0028535105535420595,0.0029326131164884297,0.00222520042655908,21.14868067903444
1622,C,1148768824582096.0,-2.7211761,10.742628051891284,0.11824036,111,1970-01-14 07:06:08.824582096,0.4994812,-0.4406128,-0.40101624,8.440116176202345,0.7774542645204395,-81.04319763183594,1.1109741926193237,-56.2274284362793,21199034.0,50354.0,-0.10938564329349999,0.05587689479313369,0.01959730750072,-0.0045074769478754976,0.0028618897088492417,0.0015495252921342972,21.19903468294069
1622,C,1148768874936100.0,-2.7941742,10.875577651891284,0.4547882,111,1970-01-14 07:06:08.874936100,0.5005188,-0.96585083,-0.3383484,8.350122856945632,1.1392394545255573,-81.14990997314453,1.5399643182754517,-56.185325622558594,21249388.0,50354.0,-0.1388599745031,0.05081236500413368,0.014427140055120002,-0.006250079919264998,0.002686115493915801,0.0008566335161133839,21.249388687079772
1622,C,1148768925290104.0,-2.7350464,10.483991651891284,1.3623352,111,1970-01-14 07:06:08.925290104,0.49020386,-1.2213287,-0.030212402,8.795019299389912,1.3163800389846387,-81.11096954345703,1.9377491474151611,-56.12470626831055,21299742.0,50354.0,-0.13920918704620003,0.04430067636133367,0.0457497158418,-0.007000947280326728,0.0023946610424583716,0.001515072700916755,21.299742690986022
1622,C,1148768975644108.0,-0.25228882,8.705625651891284,0.85517883,111,1970-01-14 07:06:08.975644108,0.872879,-1.251648,0.46502686,10.06511266329524,1.595239933385088,-81.16541290283203,1.938663125038147,-56.062652587890625,21350096.0,50354.0,-0.07521213883394,-0.010332205142666341,0.05583035073331,-0.005398485721684285,0.0008552241998723873,0.0025574813361615447,21.350096695125103
1622,C,1148769025998112.0,3.2453156,6.669599651891284,0.96784973,111,1970-01-14 07:06:09.025998112,1.0250397,-1.1665497,0.8882446,12.527978814845811,1.7890005753423726,-81.21467590332031,1.556099772453308,-56.00145721435547,21400450.0,50354.0,0.07535543524006001,-0.10636715252666634,0.04589839005512,3.6077736168835854e-06,-0.002938139728040789,0.002561224506830302,21.400450699031353
1622,C,1148769076352116.0,2.747467,4.488599651891285,3.6038666,111,1970-01-14 07:06:09.076352116,0.8056946,-0.8884125,1.1239777,14.946143352264675,1.6436990079460108,-81.04019165039062,1.303495168685913,-55.94573211669922,21450804.0,50354.0,0.1508802875202,-0.21253921612866633,0.11510210204041,0.0056959367919350665,-0.008029105643635312,0.00405350938948916,21.450804703170434
1622,C,1148769126706120.0,-1.3248596,4.356977651891285,3.470642,111,1970-01-14 07:06:09.126706120,0.67626953,-1.0986481,0.9355316,14.846480248070826,1.5936083268603332,-80.89009857177734,1.4365016222000122,-55.881385803222656,21501158.0,50354.0,0.0358169865098,-0.2707641002226663,0.1781149030222,0.00470047726825331,-0.012168127595777501,0.007382324536461333,21.501158707076684
1622,C,1148769177060124.0,-1.3622742,6.413068651891285,1.9222412,111,1970-01-14 07:06:09.177060124,0.37094116,-1.493927,0.9216614,12.541387077869938,1.7941223374567035,-80.8753890991211,1.5900142192840576,-55.80044174194336,21551512.0,50354.0,-0.0676539676826,-0.2223117442096663,0.1357766203264,-0.0008015596749875855,-0.012414170535272837,0.007902846883347704,21.551512710982934
1622,C,1148769227414127.0,0.7154846,10.664624651891284,3.2973175,111,1970-01-14 07:06:09.227414127,0.1098938,-1.7256317,0.6201477,8.74376080485848,1.8369715787509127,-80.54362487792969,1.4509161710739136,-55.70171356201172,21601866.0,50354.0,-0.016284221759200003,-0.0635041156906663,0.1314128293899,-0.0021133117955761988,-0.007195985904710674,0.0067270287755072855,21.60186671395786
1622,C,1148769277768131.0,0.007293701,13.454206351891283,1.8312683,111,1970-01-14 07:06:09.277768131,-0.062927246,-2.2028503,0.28652954,5.58568956354365,2.222298013271813,-80.30303955078125,1.409083604812622,-55.58466720581055,21652220.0,50354.0,0.018197389284277003,0.11377060818223367,0.1291224046866,4.816781877886362e-05,0.0012655594814601917,0.006559495588344042,21.65222071809694
1622,C,1148769328122135.0,-0.40312195,12.789197651891286,1.5158997,111,1970-01-14 07:06:09.328122135,-0.2729187,-2.273529,0.246521,6.145525085122743,2.3030830063399126,-80.19879150390625,1.460877776145935,-55.46762466430664,21702574.0,50354.0,-0.009965767825073002,0.16726098260323372,0.084271648736,0.00020724753347837915,0.007075532361205712,0.0053726220830208,21.70257472200319
1622,C,1148769378476139.0,-0.60972595,10.544080651891285,2.0209503,111,1970-01-14 07:06:09.378476139,-0.3562622,-2.224121,0.28785706,8.454845697522662,2.2707925190958513,-80.11237335205078,1.5229767560958862,-55.35292053222656,21752928.0,50354.0,-0.0255004715783,0.09399274785433374,0.08904727245,-0.000892933509458722,0.006577585171730176,0.004363650478699923,21.752928726142272
1622,C,1148769428830143.0,-1.0038147,8.689054651891285,2.772522,111,1970-01-14 07:06:09.428830143,-0.42095947,-2.4575195,0.7449646,10.46606782805348,2.6022262052934773,-79.99202728271484,1.638051152229309,-55.22163772583008,21803282.0,50354.0,-0.04062411294505,-0.00923655245666628,0.12068525209709999,-0.001664818664544383,0.002133906731527074,0.005280435770522337,21.803282730048522
1622,C,1148769479184147.0,1.71344,9.500135651891284,0.7593384,111,1970-01-14 07:06:09.479184147,-0.65068054,-2.5920868,0.98902893,9.419365248593111,2.8496451302304076,-80.1512680053711,1.363868236541748,-55.08871078491211,21853636.0,50354.0,0.017866236178100004,-0.0355199557216663,0.0889216492908,-0.0005729750633615001,-0.0011268346064058795,0.005277272956243159,21.853636733954772
1622,C,1148769529538151.0,3.8137665,9.381376151891285,1.4113159,111,1970-01-14 07:06:09.529538151,-0.6479492,-1.8464661,0.2531433,10.195844608426086,1.9731590798931393,-80.21124267578125,0.7933534979820251,-54.99597930908203,21903990.0,50354.0,0.13915847805050002,-0.018089377316166295,0.0546505633111,0.003953411230133463,-0.0013497221778935114,0.0036147175966780368,21.903990738093853
1622,C,1148769579892155.0,4.6073914,7.352826651891284,0.7394562,111,1970-01-14 07:06:09.579892155,-0.44007874,-1.636795,-0.7720947,12.29802901498758,1.862497622869108,-80.37305450439453,0.18663011491298676,-54.922977447509766,21954344.0,50354.0,0.21201949244830004,-0.07215217600916629,0.05414998916170001,0.00884160776324829,-0.0022720115880718985,0.002739271509607686,21.954344742000103
1622,C,1148769630246159.0,0.6508789,7.188810651891284,0.70376587,111,1970-01-14 07:06:09.630246159,-0.25338745,-1.1974945,-0.42036438,11.582096439868131,1.2941810110338263,-80.53850555419922,0.07084444910287857,-54.86778259277344,22004698.0,50354.0,0.13238747134310003,-0.1273543976026663,0.03633600205639,0.00867113412737608,-0.00502297700382511,0.0022781658008978523,22.004698746139184
1622,C,1148769680600163.0,-0.94052124,8.967603651891284,-1.553299,111,1970-01-14 07:06:09.680600163,-0.24349976,-1.1336212,0.28367615,9.93098784087047,1.1936755490032962,-81.00302124023438,0.20973508059978485,-54.810665130615234,22055052.0,50354.0,-0.007292325194180001,-0.08669915707366631,-0.021388695614010002,0.00314952049459136,-0.0053892263460860275,0.0003763283342998013,22.055052750045434
1622,C,1148769730954167.0,-3.8408966,8.846250651891284,-1.3843231,111,1970-01-14 07:06:09.730954167,-0.29405212,-1.8951569,0.40205383,10.694879195381741,1.9595238215218955,-81.40713500976562,0.7248338460922241,-54.71717834472656,22105406.0,50354.0,-0.12038175695768003,-0.04496979019366632,-0.0739605116117,-0.00321445036633738,-0.003315029085349634,-0.002400606990321701,22.105406753951684
1622,C,1148769781308170.0,-2.1295776,9.306882651891284,-1.6164398,111,1970-01-14 07:06:09.781308170,-0.018234253,-2.6808472,0.24053955,9.796180122437613,2.6916785604608346,-81.84565734863281,1.0117589235305786,-54.58948516845703,22155760.0,50354.0,-0.1503186289334,-0.036427762810666335,-0.0755502075333,-0.006815423615579723,-0.0020493461919900836,-0.003764231375913665,22.15576075715944
1622,C,1148769831662174.0,-0.52723694,8.771177651891284,-1.8316803,111,1970-01-14 07:06:09.831662174,0.07316589,-2.77211,0.07307434,10.14073233215381,2.7740380240230897,-82.29525756835938,1.0467437505722046,-54.459922790527344,22206114.0,50354.0,-0.06689061967358001,-0.038317875731666326,-0.0868133197577,-0.005468677252177936,-0.0018818709415803093,-0.004087826526605508,22.20611476106569
1622,C,1148769882016178.0,0.74201965,9.449247651891284,-1.7146912,111,1970-01-14 07:06:09.882016178,0.07460022,-2.6126862,0.17019653,9.468094661682708,2.619286397345378,-82.73468780517578,0.9011098146438599,-54.33687973022461,22256468.0,50354.0,0.0054075842896700015,-0.03473355212666633,-0.08928699525550002,-0.0015479583818607022,-0.0018392157991892414,-0.0044336776310873365,22.25646876497194
1622,C,1148769932370182.0,0.6394348,9.256971651891284,-1.3796539,111,1970-01-14 07:06:09.932370182,-0.05381775,-2.5663452,0.21095276,9.595453639200455,2.5755630651820045,-83.11869049072266,0.7786603569984436,-54.21387481689453,22306822.0,50354.0,0.03478087868765001,-0.022502716588666323,-0.0779063265827,0.001011824932379986,-0.0014410375374459303,-0.004209426263920362,22.306822769111022
1622,C,1148769982724186.0,0.13943481,9.141446651891284,-1.6494141,111,1970-01-14 07:06:09.982724186,-0.0990448,-2.4738617,0.16699219,9.731535180885006,2.4814689147065545,-83.53218078613281,0.7333876490592957,-54.09546661376953,22357176.0,50354.0,0.01960960017097,-0.030252222365666312,-0.076262845036,0.001369389086223476,-0.0013282110980532328,-0.0038815172338440103,22.357176773017272
1622,C,1148770033078190.0,0.67474365,8.705655651891284,-0.8845825,111,1970-01-14 07:06:10.033078190,-0.036315918,-2.261734,-0.02760315,10.087054877697978,2.262193949807599,-83.81787872314453,0.6058183312416077,-53.986576080322266,22407530.0,50354.0,0.020498571087420002,-0.04413270529766631,-0.0637984323982,0.001009803427772485,-0.0018727893237797256,-0.0035263227819608534,22.407530777156353
1622,C,1148770083432194.0,1.2426605,8.808423651891284,-0.71595764,111,1970-01-14 07:06:10.083432194,0.029830933,-1.7570801,0.010360718,10.025850028579104,1.7573638515848493,-84.06999206542969,0.4047449827194214,-53.901432037353516,22457884.0,50354.0,0.04827448428455,-0.052517225368666334,-0.040296799104780005,0.001731499215100089,-0.0024333553043862574,-0.0026208056435505275,22.457884781062603
1622,C,1148770133786198.0,0.8299713,9.425412651891284,-0.21061707,111,1970-01-14 07:06:10.133786198,-0.05430603,-1.2894287,-0.03239441,9.345068573345788,1.290978278313504,-84.2518081665039,0.2593619227409363,-53.838504791259766,22508238.0,50354.0,0.0521826508286,-0.03439590337966634,-0.02332837147367,0.0025292092907437773,-0.002188211842496772,-0.001601890919653636,22.508238784968853
1622,C,1148770184140202.0,-0.12371826,9.350095651891284,-1.070694,111,1970-01-14 07:06:10.184140202,-0.069732666,-1.0153961,-0.14875793,9.442786796323553,1.0286013835984096,-84.55919647216797,0.25943705439567566,-53.79011535644531,22558592.0,50354.0,0.01778133278808,-0.020758227435666337,-0.03225956880939,0.0017614832155171522,-0.0013886155515376308,-0.0013995375725066018,22.558592789107934
1622,C,1148770234494206.0,-0.13873291,9.122998651891285,-0.8323059,111,1970-01-14 07:06:10.234494206,-0.058532715,-0.9689789,-0.37088013,9.645149593468826,1.039181532841735,-84.82025909423828,0.2507114112377167,-53.744781494140625,22608946.0,50354.0,-0.006607733107089999,-0.02837210471366631,-0.04791182848230001,0.0002813177191682853,-0.001236954372523748,-0.0020184752696128794,22.608946793014184
1622,C,1148770284848210.0,0.18251038,9.543363651891283,-0.76231384,111,1970-01-14 07:06:10.284848210,-0.020141602,-0.80322266,-0.42651367,9.221181765234231,0.9096627047238284,-85.06790924072266,0.19140103459358215,-53.707664489746094,22659300.0,50354.0,0.0011021853621900003,-0.023506196277666314,-0.040147741193980006,-0.00013861317557334728,-0.0013061399840587815,-0.002217075785739702,22.659300797153264
1622,C,1148770335202213.0,-0.2296753,9.081037651891284,-0.3079071,111,1970-01-14 07:06:10.335202213,-0.09260559,-0.5986328,-0.33006287,9.657773337722391,0.6898394905249517,-85.24100494384766,0.20174027979373932,-53.679847717285156,22709654.0,50354.0,-0.0011874711908400001,-0.02456264837466633,-0.026944952606380003,-2.147241307921045e-06,-0.001210229301811779,-0.001689192751811664,22.70965480012819
1622,C,1148770385556217.0,-1.1816254,8.006971651891284,-0.9699249,111,1970-01-14 07:06:10.385556217,0.016998291,-0.66166687,-0.08911133,10.832607912796169,0.6678568842850139,-85.4854507446289,0.34593409299850464,-53.64841079711914,22760008.0,50354.0,-0.0355323177239,-0.06324438975866631,-0.03217197626400001,-0.0009244941255064091,-0.0022107177990829162,-0.0014883869181695577,22.76000880403444
1622,C,1148770435910221.0,-1.2756042,7.300184151891285,-0.8773651,111,1970-01-14 07:06:10.435910221,0.3338318,-1.1347046,0.031280518,11.535351846952734,1.1832060981751018,-85.68869018554688,0.49302276968955994,-53.593318939208984,22810362.0,50354.0,-0.0618656696392,-0.1080809383281663,-0.04650922033,-0.002452189127840769,-0.004313457785242184,-0.0019809564866471382,22.81036280794069
1622,C,1148770486264225.0,0.96315,7.229703651891285,-0.80506897,111,1970-01-14 07:06:10.486264225,1.1004639,-1.4408112,0.19415283,11.56976625153602,1.823363109927822,-85.83956909179688,0.3659895956516266,-53.522361755371094,22860716.0,50354.0,-0.007866659393400003,-0.12765021476416627,-0.04235864258039,-0.0017556508480537703,-0.005935003241405657,-0.0022374261844948892,22.860716812079772
1622,C,1148770536618229.0,4.125946,7.090467651891284,0.8406372,111,1970-01-14 07:06:10.536618229,1.9532166,-1.359909,0.5500488,12.37885378653213,2.4427364281023034,-85.74244689941406,-0.09761539846658707,-53.45295333862305,22911070.0,50354.0,0.128128169992,-0.1329302470846663,0.0008955013267099995,0.003027824052340952,-0.0065606342879680575,-0.0010439175073439016,22.911070815986022
1622,C,1148770586972233.0,2.0793,4.997876651891284,0.02015686,111,1970-01-14 07:06:10.586972233,2.5365295,-1.1909943,1.0180969,13.88982375504704,2.981437677495934,-85.7188949584961,-0.2633064091205597,-53.3896484375,22961424.0,50354.0,0.156229478542,-0.18912095546366633,0.02167221204862,0.007159272517140519,-0.008108283126559371,0.0005681873196506835,22.961424820125103
1622,C,1148770637326237.0,-0.069732666,7.906400651891284,1.193161,111,1970-01-14 07:06:10.637326237,2.0181885,-1.7285004,0.7780762,10.890550861662255,2.7687905351143574,-85.5681381225586,-0.21533074975013733,-53.300724029541016,23011778.0,50354.0,0.050594876768118,-0.16857821032266634,0.03054770376122,0.005207216793642841,-0.009005791897002497,0.0013147408203443417,23.011778824031353
1622,C,1148770687680241.0,2.7321625,7.965680651891285,1.4497681,111,1970-01-14 07:06:10.687680241,2.3209076,-1.5159607,0.84036255,11.20099421249417,2.896715061431613,-85.37415313720703,-0.5236078500747681,-53.22272491455078,23062132.0,50354.0,0.067031995930618,-0.09385780901466631,0.06654102595070001,0.0029614917739360764,-0.006607351658856024,0.0024444029479570102,23.062132828170434
1622,C,1148770738034245.0,2.1638489,9.475721651891284,4.0156097,111,1970-01-14 07:06:10.738034245,2.0395813,-1.4619293,0.25421143,10.318462215590767,2.5222514959160645,-84.82098388671875,-0.8054236173629761,-53.154327392578125,23112486.0,50354.0,0.12326687901780001,-0.0543470141976663,0.1376018168706,0.00479115477457632,-0.0037313528340168984,0.005139704353711871,23.112486832076684
1622,C,1148770788388249.0,-0.041412354,11.877744651891284,2.5984802,111,1970-01-14 07:06:10.788388249,1.8971558,-1.4186707,-0.09577942,7.329613554385515,2.370864901635618,-84.34223937988281,-0.7893813252449036,-53.08945083618164,23162840.0,50354.0,0.053436584918642,0.04414702113033368,0.1665229414123,0.004448863111527801,-0.0002568052254562333,0.007656949039288573,23.162840835982934
1622,C,1148770838742252.0,0.37701416,14.378782151891285,1.5767517,111,1970-01-14 07:06:10.838742252,1.2772827,-1.4206696,0.1446991,4.644518688268531,1.9159047569292844,-83.92779541015625,-0.8866229057312012,-53.023231506347656,23213194.0,50354.0,0.008449446669662,0.16759137533883367,0.10511981354630001,0.0015581046172987298,0.005330937607904227,0.006839149641592673,23.21319483895786
1622,C,1148770889096256.0,1.4065552,14.733594751891285,5.347931,111,1970-01-14 07:06:10.889096256,0.5903778,-1.3489227,0.26431274,6.8234419904744,1.4959945260041687,-82.87174987792969,-1.161556601524353,-52.973201751708984,23263548.0,50354.0,0.04490492577672,0.23949311330653378,0.1743427363379,0.0013433030350825596,0.010249166170624416,0.007036028618434505,23.26354884309694
1622,C,1148770939450260.0,1.7037659,14.065458251891284,5.198532,111,1970-01-14 07:06:10.939450260,0.5552521,-0.73960876,0.80366516,7.1900213305452,1.2252361820567386,-81.93236541748047,-1.4444937705993652,-52.952327728271484,23313902.0,50354.0,0.0783085543347,0.2316045574762338,0.265528298951,0.0031021457887652213,0.011860826057297739,0.011074633055468637,23.31390284700319
1622,C,1148770989804264.0,0.38458252,13.336606651891284,4.19458,111,1970-01-14 07:06:10.989804264,0.23474121,-0.39453125,1.1537323,6.844246069724083,1.2417151698204048,-81.21038055419922,-1.439384937286377,-52.94258117675781,23364256.0,50354.0,0.05257834817034,0.19643258808253375,0.23649038082400003,0.0032953395443693924,0.010776691213733092,0.012639324300695176,23.364256851142272
1622,C,1148771040158268.0,1.4238281,12.272062251891285,4.3544617,111,1970-01-14 07:06:11.040158268,-0.8096924,-0.30262756,1.2675171,7.918881148346491,1.5342049476786743,-80.65141296386719,-1.604551076889038,-52.93381118774414,23414610.0,50354.0,0.045530354179739996,0.1512802569905337,0.21523922288090003,0.0024700827990679643,0.008754366300404619,0.01137319623247827,23.414610855048522
1622,C,1148771090512272.0,2.761078,3.5082836518912845,5.450836,111,1970-01-14 07:06:11.090512272,-0.868454,-0.42504883,0.5272064,16.403395762591504,1.1012835448699525,-80.44174194335938,-1.7841423749923706,-52.915985107421875,23464964.0,50354.0,0.10536338087970001,-0.09616743118046629,0.24686798019290002,0.0037990515675915214,0.0013875756154200676,0.011634473051789064,23.464964858954772
1622,C,1148771140866276.0,3.3092499,6.870618651891284,5.708267,111,1970-01-14 07:06:11.140866276,-1.4183655,0.03656006,0.49090576,13.572328221290517,1.5013613138677282,-80.12627410888672,-2.0671441555023193,-52.92652893066406,23515318.0,50354.0,0.15283264553830003,-0.23215957669766632,0.28095273623100003,0.006500601357125988,-0.008266289077347746,0.013288942177404532,23.515318863093853
1622,C,1148771191220280.0,1.2999115,11.416608651891284,2.8708038,111,1970-01-14 07:06:11.191220280,-1.5906525,0.09182739,0.62150574,7.964550982919671,1.710227186710412,-79.92255401611328,-2.219416856765747,-52.93620681762695,23565672.0,50354.0,0.11604485656780002,-0.033051678172666306,0.2159952655316,0.0067695288705252816,-0.006677223763870366,0.012511659840376981,23.565672867000103
1622,C,1148771241574284.0,0.42533875,8.940564651891284,0.5757446,111,1970-01-14 07:06:11.241574284,-1.416626,0.5877991,0.0907135,9.816736809220094,1.5364133379136813,-80.15967559814453,-2.216829776763916,-52.95789337158203,23616026.0,50354.0,0.043436625544250006,0.01906335226933369,0.08677374906680001,0.004015265275135084,-0.0003521840812682053,0.007622815480543917,23.616026871139184
1622,C,1148771291928288.0,0.5971832,6.531705651891285,-0.50450134,111,1970-01-14 07:06:11.291928288,-1.1493225,0.37402344,-0.2673645,12.224485546017592,1.2378689423908873,-80.51911926269531,-2.2426657676696777,-52.96683120727539,23666380.0,50354.0,0.02574403513515,-0.10392385056166631,0.001793691557020001,0.0017417614939252543,-0.0021365327655060587,0.0022298624525859167,23.666380875045434
1622,C,1148771342282292.0,-1.0065918,7.497205651891285,1.850708,111,1970-01-14 07:06:11.342282292,-0.9111023,-0.13070679,-0.037124634,11.429797541446664,0.9211785410369849,-80.56803894042969,-2.0636839866638184,-52.96063995361328,23716734.0,50354.0,-0.0103076803222,-0.14026330010466628,0.03389344507882,0.0003886411051256422,-0.006147899892326256,0.0008984950390805437,23.716734878951684
1622,C,1148771392636295.0,0.9089203,11.707578651891284,-1.4195709,111,1970-01-14 07:06:11.392636295,-0.8878479,0.33657837,0.06225586,7.223028045077695,0.9515433173485097,-81.11815643310547,-2.190155267715454,-52.9578971862793,23767088.0,50354.0,-0.0024590753555000008,-0.009950345583666297,0.0108547387667,-0.000321428607697453,-0.00378192895749515,0.0011266250246786571,23.76708888215944
1622,C,1148771442990299.0,1.91922,11.780164651891283,-1.20047,111,1970-01-14 07:06:11.442990299,-0.8551178,-0.19566345,-0.582077,7.3103344819040945,1.0527698093466313,-81.60425567626953,-2.5460598468780518,-52.934268951416016,23817442.0,50354.0,0.0712040883331,0.09788171315933367,-0.0659647697393,0.0017307931917370355,0.0022138480414525775,-0.0013875052497971504,23.81744288606569
1622,C,1148771493344303.0,-1.5583191,10.637220651891285,0.8970642,111,1970-01-14 07:06:11.493344303,-0.992157,-0.5774536,0.028564453,8.291265091833118,1.148322298301809,-81.70594787597656,-2.217432975769043,-52.90351104736328,23867796.0,50354.0,0.009086401959299996,0.07093330979333369,-0.007638847826599999,0.002021473674091755,0.004250255832879307,-0.0018531182794566646,23.86779688997194
1622,C,1148771543698307.0,0.6329651,11.244428651891283,0.51812744,111,1970-01-14 07:06:11.543698307,-0.656662,-0.18748474,0.13574219,7.531293161834757,0.6962624879475151,-81.84716033935547,-2.2772791385650635,-52.888999938964844,23918150.0,50354.0,-0.023297637658000005,0.05744508452133369,0.03563027992028,-0.0003577962811861701,0.003232182833660381,0.0007047402858225813,23.918150894111022
1622,C,1148771594052311.0,-0.99095154,9.559339651891284,-0.10675049,111,1970-01-14 07:06:11.594052311,-0.4545288,-0.28884888,-0.1920166,9.22582396466487,0.5717521142787794,-82.08887481689453,-2.0791337490081787,-52.86779022216797,23968504.0,50354.0,-0.009013024599880001,0.030307274584333653,0.010357237470149999,-0.000813485543666645,0.0022093411452033867,0.0011578277253388562,23.968504898017272
1622,C,1148771644406315.0,-0.82128906,8.796949651891284,-0.5595398,111,1970-01-14 07:06:11.644406315,-0.34498596,-0.6083832,-0.20802307,9.983802264058555,0.7296704929566403,-82.3829574584961,-1.9249557256698608,-52.8294563293457,24018858.0,50354.0,-0.0456267815862,-0.031312904198666336,-0.01677519063133,-0.0013756664003469364,-2.531873680005396e-05,-0.00016158480673902892,24.018858902156353
1622,C,1148771694760319.0,0.35487366,7.2156966518912835,0.1609497,111,1970-01-14 07:06:11.694760319,-0.25679016,-0.5987091,-0.28375244,11.52206298816648,0.7105696446525063,-82.56676483154297,-1.939274787902832,-52.795921325683594,24069212.0,50354.0,-0.011742940525800001,-0.09031880400966634,-0.010035302947700001,-0.0014443974936138241,-0.003062321517561192,-0.0006750077968392384,24.069212906062603
1622,C,1148771745114323.0,0.13378906,5.809430651891285,-0.80722046,111,1970-01-14 07:06:11.745114323,-0.38153076,-0.4320526,-0.36660767,12.947618210476486,0.6831078638807832,-82.86013793945312,-1.927390217781067,-52.767635345458984,24119566.0,50354.0,0.01230306130144,-0.16553556987266632,-0.016271158924520003,1.4102160768288259e-05,-0.0064416455712354905,-0.0006623177905568831,24.119566909968853
1622,C,1148771795468327.0,0.67559814,6.834363651891284,-2.4349518,111,1970-01-14 07:06:11.795468327,-0.32289124,-0.52500916,-0.2627411,12.162211654264192,0.6700195941775533,-83.3360824584961,-1.9774811267852783,-52.727561950683594,24169920.0,50354.0,0.0203779415344,-0.1751363908136663,-0.08162817099002,0.0008228096083979438,-0.008577097954199798,-0.002464811429258374,24.169920914107934
1622,C,1148771845822331.0,4.2793884,5.167310651891285,-0.29362488,111,1970-01-14 07:06:11.845822331,0.30166626,-0.26820374,-0.3533783,14.225948983894662,0.5364811287298605,-83.50942993164062,-2.3804984092712402,-52.70918655395508,24220274.0,50354.0,0.12475169611758001,-0.19130304605366633,-0.06869737507236,0.003653928887163901,-0.009225845702008833,-0.0037847462732125414,24.220274918014184
1622,C,1148771896176335.0,3.0190277,9.096051651891285,-0.40585327,111,1970-01-14 07:06:11.896176335,0.59025574,0.30255127,-0.07443237,10.105183062855712,0.6674423475367572,-83.69100952148438,-2.7539749145507812,-52.71525955200195,24270628.0,50354.0,0.18375222214970002,-0.1343605272776663,-0.01761076138255,0.007767203150215309,-0.008199231785762961,-0.0021729799515252694,24.270628922153264
1622,C,1148771946530338.0,2.0648346,9.206876651891283,1.1054077,111,1970-01-14 07:06:11.946530338,1.1922455,0.05593872,0.34880066,9.808037836888705,1.2434791405897907,-83.62374114990234,-2.9702577590942383,-52.71662521362305,24320982.0,50354.0,0.1279964011271,-0.03265637409566631,0.017612681884110002,0.007848895088239995,-0.004204984525876395,4.835246777614191e-08,24.32098292512819
1622,C,1148771996884342.0,-0.16758728,8.570691651891284,0.99897766,111,1970-01-14 07:06:11.996884342,1.9987183,0.3828888,0.64590454,10.210843977317737,2.1351045292240243,-83.54206848144531,-2.8383426666259766,-52.73100280761719,24371336.0,50354.0,0.04776699577564001,-0.04588336281566634,0.052982110208720005,0.004425195043820286,-0.0019773949562166223,0.0017773650805211812,24.37133692903444
1622,C,1148772047238346.0,3.708435,10.364881651891285,-3.849884,111,1970-01-14 07:06:12.047238346,1.3506317,-0.03970337,0.66293335,9.928184885921997,1.5050790587794614,-84.16361999511719,-3.283477306365967,-52.688777923583984,24421690.0,50354.0,0.08914792304644001,-0.016728270930666304,-0.07177726892218,0.0034471069111835085,-0.0015763731028314168,-0.0004732057109287824,24.42169093294069
1622,C,1148772097592350.0,2.90242,10.621473651891284,2.332672,111,1970-01-14 07:06:12.097592350,1.141449,-0.7454376,-0.7650604,8.923707385891191,1.5632979404908456,-83.8679428100586,-3.714137077331543,-52.67041015625,24472044.0,50354.0,0.16644149633500002,0.034904267483333695,-0.038198846524,0.006434974811766516,0.0004576170652065069,-0.002768868658588474,24.472044937079772
1622,C,1148772147946354.0,1.4706573,9.882795651891284,1.6526031,111,1970-01-14 07:06:12.147946354,1.5388489,0.61761475,-0.4013977,9.12072555487237,1.706055107554871,-83.678955078125,-3.8699076175689697,-52.7107048034668,24522398.0,50354.0,0.11010096718210001,0.022766788261333677,0.1003372711927,0.006962509603970028,0.0014519841704834905,0.00156445911788386,24.522398940986022
1622,C,1148772198300358.0,1.39534,13.794462151891285,2.2546387,111,1970-01-14 07:06:12.198300358,1.0881805,0.5125122,-0.0068206787,5.603698818662539,1.2028516439640504,-83.18773651123047,-4.134109020233154,-52.76677322387695,24572752.0,50354.0,0.0721572140221,0.1026531197258337,0.09837262679860001,0.004588714228178144,0.003157697023392913,0.005002919101726961,24.572752945125103
1622,C,1148772248654362.0,-0.576355,12.619565651891286,1.3540955,111,1970-01-14 07:06:12.248654362,0.87112427,0.031967163,-0.040496826,6.286290713827531,0.8726507813606631,-83.00254821777344,-3.9025986194610596,-52.7784309387207,24623106.0,50354.0,0.020619585345000004,0.17155677801583374,0.0908571009534,0.002335841477665477,0.006903782595441961,0.004764236855612104,24.623106949031353
1622,C,1148772299008366.0,0.47673035,13.140958651891285,3.3554077,111,1970-01-14 07:06:12.299008366,0.57455444,-0.15666199,0.054229736,6.537314471855428,0.5979938527285238,-82.39251708984375,-3.9160687923431396,-52.80998611450195,24673460.0,50354.0,-0.002508249813049998,0.15510352039633377,0.11857116206640002,0.00045598909468790526,0.00822432633312314,0.005272775378049505,24.673460953170434
1622,C,1148772349362370.0,0.63549805,12.321287051891284,4.594742,111,1970-01-14 07:06:12.349362370,0.2124176,-0.08680725,0.056137085,7.912148503670566,0.23623739702811603,-81.70977020263672,-3.9423205852508545,-52.85139465332031,24723814.0,50354.0,0.0280025744268,0.14759376008413372,0.20016091899690003,0.0006418706108003838,0.007621009430656731,0.008024717604930705,24.723814957076684
1622,C,1148772399716374.0,0.14653015,11.736493951891283,5.0149994,111,1970-01-14 07:06:12.399716374,-0.25668335,0.010116577,0.3043213,8.607970970308825,0.398246331974457,-81.0632553100586,-3.8638150691986084,-52.89459228515625,24774168.0,50354.0,0.019689123991400003,0.11223355233223367,0.24194445922780003,0.0012007338910750215,0.006541672244706882,0.011130887107563275,24.774168960982934
1622,C,1148772450070377.0,0.21798706,10.197675651891284,3.9388733,111,1970-01-14 07:06:12.450070377,-0.6535034,0.042800903,0.48432922,9.40120971007611,0.8145387679263546,-80.70429229736328,-3.779789447784424,-52.91905975341797,24824522.0,50354.0,0.009177449796170002,0.058767388114433675,0.22543165296790002,0.00072677372824965,0.004305290677625744,0.011767128376751142,24.82452296395786
1622,C,1148772500424381.0,2.0166016,5.003843651891284,5.6266937,111,1970-01-14 07:06:12.500424381,-1.0754242,0.23860168,0.45936584,14.972168034802683,1.1935178870060423,-80.43770599365234,-3.856466293334961,-52.948402404785156,24874876.0,50354.0,0.05626023869282001,-0.11074054848866632,0.240832280359,0.0016475246830873016,-0.0013085282587420556,0.011739127049371363,24.87487696809694
1622,C,1148772550778385.0,2.333374,5.4641396518912835,5.1213074,111,1970-01-14 07:06:12.550778385,-1.4940948,-0.03894043,0.22123718,14.411331728747754,1.5108876590567473,-80.22908782958984,-3.9841067790985107,-52.96393966674805,24925230.0,50354.0,0.10951933568120002,-0.22991678436066634,0.2706024236947,0.004173832344014703,-0.008576729669147649,0.012876391543960005,24.92523097200319
1622,C,1148772601132389.0,0.76708984,9.952817651891284,2.2952728,111,1970-01-14 07:06:12.601132389,-1.3122864,0.075302124,0.09376526,9.105830567732527,1.3177852364807927,-80.17274475097656,-4.000409126281738,-52.975337982177734,24975584.0,50354.0,0.07806037809968001,-0.10531646596266635,0.1867272396954,0.004722694453861217,-0.008440167543390548,0.011514188935172549,24.975584976142272
1622,C,1148772651486393.0,1.671341,10.525342651891284,0.43907166,111,1970-01-14 07:06:12.651486393,-1.1379089,0.29811096,0.10946655,8.385806162985892,1.1813931330172163,-80.3944320678711,-4.180019378662109,-52.97721481323242,25025938.0,50354.0,0.06139237325868001,0.022109441968333678,0.06884259046942,0.0035110019209494306,-0.0020949032431053136,0.0064344816140596735,25.025938980048522
1622,C,1148772701840397.0,1.5328369,8.959302651891285,-0.83392334,111,1970-01-14 07:06:12.701840397,-1.1964569,0.6065521,-0.31922913,9.926448620778448,1.3788842594694368,-80.8067855834961,-4.311442852020264,-52.9835205078125,25076292.0,50354.0,0.0806715869883,-0.0029042851866662883,-0.009941180747360001,0.003576744327138216,0.0004835282322920399,0.0014829607925723046,25.076292983954772
1622,C,1148772752194401.0,-0.56858826,7.6417216518912845,-0.20095825,111,1970-01-14 07:06:12.752194401,-0.69392395,0.5615692,-0.36776733,11.105832323309311,0.9654756463979666,-81.0939712524414,-4.146178722381592,-52.99552917480469,25126646.0,50354.0,0.02427688800928,-0.07550521110366629,-0.02605521379143,0.0026422877550140718,-0.001974115888101703,-0.0009062812253031159,25.126646988093853
1622,C,1148772802548405.0,-0.5732422,10.107404651891285,-0.30693054,111,1970-01-14 07:06:12.802548405,-0.43463135,0.2768402,0.05256653,8.648243665851552,0.517984697471946,-81.3867416381836,-3.945268154144287,-52.98966979980469,25177000.0,50354.0,-0.028747865491420003,-0.046599447049666294,-0.01278711606583,-0.00011256580006783885,-0.0030742289783264546,-0.000977933338816235,25.177000992000103
1622,C,1148772852902409.0,-0.40481567,12.736966951891285,-1.0805359,111,1970-01-14 07:06:12.852902409,-0.6329346,-0.11766052,-0.054534912,6.104251598529442,0.6460837890480445,-81.881103515625,-3.7608509063720703,-52.95323944091797,25227354.0,50354.0,-0.024624562992990002,0.08168354386843373,-0.034932242559880006,-0.0013437576319519908,0.0008833123056061076,-0.001201430292119501,25.227354996139184
1622,C,1148772903256413.0,-0.07585144,10.949994951891284,-1.5585632,111,1970-01-14 07:06:12.903256413,-0.75805664,-0.58839417,-0.20864868,7.936090778142347,0.9820345413496517,-82.39859771728516,-3.672814130783081,-52.89458084106445,25277709.0,50355.0,-0.012101996162025,0.10289948333248558,-0.06644591759025,-0.0009246829431253901,0.004647339167351145,-0.002552448627179898,25.277709000045434
1622,C,1148772953610417.0,0.7842407,9.083310651891285,0.30088806,111,1970-01-14 07:06:12.953610417,-0.5918274,-0.66625977,-0.14698792,9.684354965011922,0.9031983177227133,-82.57521057128906,-3.7092158794403076,-52.853118896484375,25328063.0,50354.0,0.017835116399020003,0.01090933518643371,-0.03166448699978,0.0001443427682068232,0.0028653646238508313,-0.0024701256563631853,25.328063003951684
1622,C,1148773003964420.0,1.0485077,8.038221651891284,0.7523651,111,1970-01-14 07:06:13.003964420,-0.45011902,-0.10562134,0.014587402,10.77054024575677,0.46257517435144047,-82.68280029296875,-3.75624942779541,-52.842254638671875,25378417.0,50354.0,0.046143106466800005,-0.0624003811876663,0.026517754809320004,0.0016107797170927503,-0.001296390065173033,-0.00012957927635921134,25.37841700715944
1622,C,1148773054318424.0,-0.3935089,8.814267651891285,-0.32510376,111,1970-01-14 07:06:13.054318424,-0.45336914,0.06298828,0.031585693,9.930028557509104,0.4588123325761724,-82.93443298339844,-3.605055093765259,-52.83049774169922,25428771.0,50354.0,0.0164909047876,-0.0691740767986663,0.01075715875718,0.001576936501352029,-0.0033126501287218963,0.0009384704988637707,25.42877101106569
1622,C,1148773104672428.0,-0.6786041,8.230878651891285,-0.47317505,111,1970-01-14 07:06:13.104672428,-0.4290619,0.038146973,-0.26817322,10.532829070889706,0.5074112548080119,-83.19561004638672,-3.437392234802246,-52.8193473815918,25479125.0,50354.0,-0.026992589001000003,-0.06432355150966629,-0.020098265599370002,-0.0002644009034407719,-0.00336106978791889,-0.00023518104696581768,25.47912501497194
1622,C,1148773155026432.0,-0.62158203,7.1841866518912845,-0.34269714,111,1970-01-14 07:06:13.155026432,-0.36839294,0.0077209473,-0.4329834,11.568776895510911,0.5685486750882575,-83.42573547363281,-3.297182559967041,-52.80988311767578,25529479.0,50354.0,-0.03273478619501,-0.1053641008466663,-0.020541214127630002,-0.001503756125309944,-0.004272226023375386,-0.0010231801810866793,25.529479019111022
1622,C,1148773205380436.0,-0.48765564,6.493558651891284,-1.7884827,111,1970-01-14 07:06:13.205380436,-0.16355896,-0.21876526,-0.3707428,12.37722007978864,0.4604997243549546,-83.80272674560547,-3.180854320526123,-52.78031539916992,25579833.0,50354.0,-0.02792727681759,-0.14910460648666632,-0.053656714831680004,-0.0015272887604682304,-0.006406758644531315,-0.001868081257408548,25.579833023017272
1622,C,1148773255734440.0,2.362793,6.328702651891284,-1.2271729,111,1970-01-14 07:06:13.255734440,0.3085785,-0.3973999,-0.2585144,12.685026880874137,0.5656651537699843,-84.07780456542969,-3.38573956489563,-52.745384216308594,25630187.0,50354.0,0.047210333312719996,-0.17064312715466634,-0.0759251610412,0.0004854895133778879,-0.008050288689887834,-0.0032624828888515,25.630187027156353
1622,C,1148773306088444.0,4.372757,7.4389326518912835,-0.6923523,111,1970-01-14 07:06:13.306088444,0.70144653,0.058380127,-0.06526184,12.129095158669516,0.7068907846603764,-84.26193237304688,-3.826331853866577,-52.734962463378906,25680541.0,50354.0,0.16958094235,-0.14684144595666634,-0.048327885960400004,0.005458153947360302,-0.007993309097224024,-0.0031283189643592836,25.680541031062603
1622,C,1148773356442448.0,3.5339508,8.222196651891284,0.21365356,111,1970-01-14 07:06:13.356442448,1.2061768,0.09710693,0.42893982,11.089316867927678,1.2838541965090495,-84.30996704101562,-4.169647216796875,-52.730262756347656,25730895.0,50354.0,0.1990671822806,-0.09916894751866633,-0.01205219817698,0.009281453833824617,-0.006193803676528451,-0.0015201893783268164,25.730895034968853
1622,C,1148773406796452.0,1.4354858,8.241605651891284,1.3733063,111,1970-01-14 07:06:13.406796452,1.7183075,0.46855164,0.70321655,10.67602555291951,1.914845899830282,-84.17866516113281,-4.221245765686035,-52.75339889526367,25781249.0,50354.0,0.1251155052782,-0.07896004939766632,0.03995488839522,0.008161947524667907,-0.004484753755362508,0.0007025060316246286,25.781249039107934
1622,C,1148773457150456.0,1.3744965,10.178907651891285,-0.969162,111,1970-01-14 07:06:13.457150456,1.7463074,0.44309998,0.6472473,8.716058961645293,1.9143814131275017,-84.39179992675781,-4.3103346824646,-52.749820709228516,25831603.0,50354.0,0.07074692436709999,-0.02969593655066631,0.010175141041100004,0.004931228391179718,-0.002735631758221171,0.001262123751118229,25.831603043014184
1622,C,1148773507504460.0,3.9914856,11.477247151891284,-1.1249237,111,1970-01-14 07:06:13.507504460,1.2232971,-0.2102356,-0.22070313,8.355644065779208,1.2607000729624658,-84.64596557617188,-4.9129862785339355,-52.7154426574707,25881957.0,50354.0,0.13509933133170002,0.05176780949483369,-0.0527227956689,0.005182591179728688,0.0005557035451153022,-0.0010712223005641206,25.881957047153264
1622,C,1148773557858463.0,1.1126251,9.431058651891284,2.8242035,111,1970-01-14 07:06:13.557858463,1.5241241,0.037399292,-0.6894989,9.782949761429947,1.673248849497325,-84.28357696533203,-4.989935874938965,-52.745262145996094,25932311.0,50354.0,0.1285061950939,0.03293921522183368,0.042782767524599995,0.006636796338817331,0.0021326687612915345,-0.00025026008858904125,25.93231105012819
1622,C,1148773608212467.0,0.8086395,11.362211151891284,1.1579437,111,1970-01-14 07:06:13.608212467,1.2815704,0.46736145,-0.26271057,7.503083772032416,1.389196263561052,-84.13719177246094,-5.030756950378418,-52.77693176269531,25982665.0,50354.0,0.0483716788342,0.030042953849833683,0.1002585200544,0.004453254231887774,0.001585702070717369,0.0036013504973764834,25.98266505403444
1622,C,1148773658566471.0,0.5943451,11.492902651891285,1.5784607,111,1970-01-14 07:06:13.658566471,0.7852478,0.06692505,-0.18138123,7.432178615055918,0.8086978547755989,-83.93680572509766,-5.029095649719238,-52.7952880859375,26033019.0,50354.0,0.0353229432742,0.0819540002378337,0.06889445357879999,0.002107179500823187,0.002819747313065202,0.004258764417163076,26.03301905794069
1622,C,1148773708920475.0,0.33268738,13.648435651891283,3.4241638,111,1970-01-14 07:06:13.708920475,0.2253418,-0.10670471,-0.3540802,6.137569011533044,0.4330561279966652,-83.25390625,-5.013478755950928,-52.85065460205078,26083373.0,50354.0,0.02333989674896,0.1395142744743337,0.1259510770365,0.0014769543232630994,0.005575906752428239,0.004905625924301407,26.083373062079772
1622,C,1148773759274479.0,0.6605835,13.349958351891285,4.045517,111,1970-01-14 07:06:13.759274479,0.053115845,0.08604431,-0.24273682,6.7646140060307465,0.2629564223538808,-82.5311050415039,-5.0562520027160645,-52.919532775878906,26133727.0,50354.0,0.02500758094576,0.1862693658332337,0.18806415350160002,0.0012172444459199656,0.008202254712023625,0.007905961459257744,26.133727065986022
1622,C,1148773809628483.0,0.5794983,12.680204251891285,4.064148,111,1970-01-14 07:06:13.809628483,-0.37680054,0.2723236,0.26264954,7.312132891002068,0.53396963483279,-81.9111557006836,-5.041470527648926,-52.98751449584961,26184081.0,50354.0,0.031221539478600003,0.16189220387543368,0.204177035705,0.0014156805649241117,0.00876566384055512,0.00987545642065457,26.184081070125103
1622,C,1148773859982487.0,1.6821289,9.572858651891284,4.155426,111,1970-01-14 07:06:13.859982487,-0.7209625,0.36987305,0.5861664,10.196654595198918,1.000092019771937,-81.54743194580078,-5.125932216644287,-53.03702926635742,26234435.0,50354.0,0.0569409880144,0.0667961647285337,0.20694421459800005,0.002219667954691261,0.005757687056342087,0.010350799718878633,26.234435074031353
1622,C,1148773910336491.0,2.564087,4.821668651891285,5.130905,111,1970-01-14 07:06:13.910336491,-0.9984894,0.54367065,0.43040466,15.045760815345764,1.2156508663812557,-81.30549621582031,-5.220234394073486,-53.08694076538086,26284789.0,50354.0,0.1069069777143,-0.1310581860726663,0.23380195558700004,0.00412520023315148,-0.001617924911381227,0.011096666326747747,26.284789078170434
1622,C,1148773960690495.0,1.1861725,7.148114651891284,3.777481,111,1970-01-14 07:06:13.960690495,-1.2448578,0.6250763,0.104141235,12.241058282355871,1.3968667509357702,-81.13196563720703,-5.220525741577148,-53.13837814331055,26335143.0,50354.0,0.0944202834315,-0.19210596576066633,0.22428643432200002,0.0050688164538678065,-0.008136303850707816,0.011533291392738895,26.335143082076684
1622,C,1148774011044499.0,0.3993225,10.380048651891284,2.1016998,111,1970-01-14 07:06:14.011044499,-0.8501587,0.5819397,0.18429565,8.620777561376135,1.0466081005948227,-81.04033660888672,-5.143334865570068,-53.177730560302734,26385497.0,50354.0,0.03991800761500001,-0.05216263250066632,0.14802013500160002,0.0033822351536777306,-0.006149950498425573,0.00937356249586028,26.385497085982934
1622,C,1148774061398502.0,0.04019165,9.440061651891284,0.15177917,111,1970-01-14 07:06:14.061398502,-1.0233917,0.6277008,-0.1124115,9.292433565574983,1.205808944767694,-81.28936004638672,-5.023045063018799,-53.19199752807617,26435851.0,50354.0,0.011065647754550002,0.005541717118333693,0.056735840027690006,0.0012836154912391608,-0.0011737747865809888,0.005155141183312435,26.43585108895786
1622,C,1148774111752506.0,-0.43836975,7.300153651891284,-0.52272034,111,1970-01-14 07:06:14.111752506,-1.0033417,0.49380493,-0.3582306,11.451354003863027,1.174251693048622,-81.61937713623047,-4.859518527984619,-53.19498825073242,26486205.0,50354.0,-0.0100249300237,-0.07200079929666632,-0.009339185837090001,2.6202150309610503e-05,-0.0016732403120038807,0.0011933055625567364,26.48620509309694
1622,C,1148774162106510.0,-0.31988525,8.897245651891284,-0.031021118,111,1970-01-14 07:06:14.162106510,-0.69799805,0.292099,-0.06919861,9.83917326063824,0.7598102073746671,-81.86685943603516,-4.694477558135986,-53.19223403930664,26536559.0,50354.0,-0.019090586135,-0.08566727772866634,-0.013941548688066,-0.0007330413503275899,-0.0039696091752668,-0.0005861390531398526,26.53655909700319
1622,C,1148774212460514.0,0.5265198,11.816602651891284,-1.1664886,111,1970-01-14 07:06:14.212460514,-0.561203,0.19664001,-0.086135864,7.0320083704499385,0.6008622868917857,-82.33000946044922,-4.69277811050415,-53.16694259643555,26586913.0,50354.0,0.00520243806535,0.02804335874433367,-0.030149702170086005,-0.0003496619039495781,-0.0014507974082685437,-0.0011100854228556932,26.586913101142272
1622,C,1148774262814518.0,0.26678467,12.040616851891285,-1.364975,111,1970-01-14 07:06:14.262814518,-0.6119995,-0.14137268,-0.25656128,6.833579896310224,0.6784934141506982,-82.83332824707031,-4.651394844055176,-53.123165130615234,26637267.0,50354.0,0.019973026641190002,0.10718401544673369,-0.06373465905720001,0.0006338426749165577,0.0034046196000085027,-0.00236372656261938,26.637267105048522
1622,C,1148774313168522.0,0.4041443,11.249540251891284,-0.28556824,111,1970-01-14 07:06:14.313168522,-0.69044495,-0.23823547,-0.03945923,7.49797608362455,0.7314556712329301,-83.10198211669922,-4.617273807525635,-53.09273147583008,26687621.0,50354.0,0.016891978677690003,0.09290708540193371,-0.04155572715348,0.000928150238913442,0.005037693646066899,-0.0026508960536262907,26.687621108954772
1622,C,1148774363522526.0,0.91452026,10.426084651891284,0.6512604,111,1970-01-14 07:06:14.363522526,-0.4220581,0.05267334,0.016311646,8.380626925332892,0.4256449110674235,-83.18305206298828,-4.657430171966553,-53.09037780761719,26737975.0,50354.0,0.03320001762712,0.05225800820253368,0.00920703151232,0.0012611661909662016,0.003654821561679676,-0.0008144431101574853,26.737975113093853
1622,C,1148774413876530.0,-0.16358948,8.927701651891285,-0.03413391,111,1970-01-14 07:06:14.413876530,-0.24472046,0.2058258,-0.061157227,9.804891221317428,0.3255650010406234,-83.36991882324219,-4.519996643066406,-53.086971282958984,26788329.0,50354.0,0.018906184248060003,-0.006198922229666312,0.01553739363873,0.001311877844611407,0.0011596296075388817,0.0006229903920279858,26.788329117000103
1622,C,1148774464230534.0,-1.4340057,7.831327651891284,-0.4884491,111,1970-01-14 07:06:14.464230534,-0.2671051,0.0309906,-0.15815735,11.004612155646573,0.31196041270230507,-83.61067199707031,-4.231085777282715,-53.072105407714844,26838683.0,50354.0,-0.04022265384686,-0.07152711921866631,-0.013157072442770002,-0.0005366847550889876,-0.0019569085455446705,5.992934675068487e-05,26.838683121139184
1622,C,1148774514584538.0,-1.5280914,7.039960651891285,-0.15820313,111,1970-01-14 07:06:14.514584538,-0.18725586,-0.16763306,-0.23852539,11.791710480518073,0.34649669779661,-83.798095703125,-3.954751968383789,-53.05244064331055,26889037.0,50354.0,-0.07457671868670002,-0.1190547743756663,-0.016280763194710002,-0.0028903038022774405,-0.004798280335024513,-0.000741156387844834,26.889037125045434
1622,C,1148774564938542.0,-0.62835693,6.867109651891285,-0.2589569,111,1970-01-14 07:06:14.564938542,-0.16357422,-0.37768555,-0.2801361,11.883509038285686,0.49787461739942207,-83.99337768554688,-3.7972891330718994,-53.0225830078125,26939391.0,50354.0,-0.05429289960441,-0.1433308909616663,-0.010502838075310002,-0.003244550379715277,-0.006606083896198023,-0.0006743307291752937,26.939391128951684
1622,C,1148774615292545.0,0.5643616,6.420774651891284,-0.73698425,111,1970-01-14 07:06:14.615292545,-0.30654907,-0.46229553,-0.35639954,12.345341236091395,0.6593255049579513,-84.2451171875,-3.7892048358917236,-52.98586654663086,26989745.0,50354.0,-0.0016112104234100005,-0.1589201368836663,-0.02507481033355,-0.0014074977781704243,-0.007609774128061939,-0.0008957384539898684,26.98974513215944
1622,C,1148774665646549.0,2.3367157,5.455991651891285,-0.77793884,111,1970-01-14 07:06:14.665646549,-0.10671997,-0.44729614,-0.43086243,13.501694467093232,0.6301630125937299,-84.47569274902344,-3.9681129455566406,-52.95057678222656,27040099.0,50354.0,0.0730404231821,-0.1944478547696663,-0.03814121863693,0.001798373289625538,-0.008896745925855955,-0.0015915899613897749,27.04009913606569
1622,C,1148774716000553.0,2.477295,6.2694986518912845,-0.6860657,111,1970-01-14 07:06:14.716000553,0.32077026,-0.09022522,-0.27253723,12.724028287089018,0.43047728367544424,-84.67236328125,-4.164178848266602,-52.932342529296875,27090453.0,50354.0,0.1212023473939,-0.1982565306216663,-0.03685924230358,0.004890450234791952,-0.00988711831099758,-0.0018882866050992202,27.09045313997194
1622,C,1148774766354557.0,2.8103333,8.755918651891283,-0.05532837,111,1970-01-14 07:06:14.766354557,0.7845154,0.10072327,0.13040161,10.363717819784354,0.801632191124611,-84.76884460449219,-4.44498348236084,-52.926666259765625,27140807.0,50354.0,0.1331266177091,-0.11517426854266632,-0.018666078500390003,0.006403240354398231,-0.007891247230560401,-0.001397961001881553,27.140807144111022
1622,C,1148774816708561.0,2.2216797,9.322767151891284,1.239502,111,1970-01-14 07:06:14.816708561,1.4646759,0.15689087,0.43034363,9.746293894737544,1.534628905309601,-84.63961029052734,-4.6403584480285645,-52.937049865722656,27191161.0,50354.0,0.126690991301,-0.03830212751816633,0.029813939482510005,0.006541427942047287,-0.0038640752236235843,0.0002806696959468353,27.191161148017272
1622,C,1148774867062565.0,1.0641937,9.568570651891285,0.01687622,111,1970-01-14 07:06:14.867062565,1.8530121,0.3731079,0.8773804,9.224207019984165,2.083904919638365,-84.67652130126953,-4.645025253295898,-52.94099426269531,27241515.0,50354.0,0.0827284345918,-0.017841988114166287,0.031631834444940006,0.0052725528857030255,-0.0014135403992752383,0.001547020250171409,27.241515152156353
1622,C,1148774917416569.0,2.1119995,11.188993351891284,-0.14624023,111,1970-01-14 07:06:14.917416569,1.3987732,-0.10211182,0.5587921,7.833666852043224,1.5097158341371273,-84.76234436035156,-4.8915791511535645,-52.9205436706543,27291869.0,50354.0,0.07996701619640001,0.02914398892323371,-0.00325699767977,0.0040961833644945125,0.00028455047436989054,0.0007143932652366853,27.291869156062603
1622,C,1148774967770573.0,1.180481,10.781492151891285,2.2529907,111,1970-01-14 07:06:14.967770573,1.2886047,-0.3634491,-0.4076233,8.34666753502856,1.3995549563542655,-84.43782806396484,-4.996509075164795,-52.92683410644531,27342223.0,50354.0,0.0828947815485,0.05968171352873372,0.053041656583189996,0.004100371481823348,0.002236364710633184,0.0012534283572114052,27.342223159968853
1622,C,1148775018124577.0,0.3354187,10.672956651891285,2.8555756,111,1970-01-14 07:06:15.018124577,1.3400116,0.017562866,-0.46380615,8.555793262378948,1.4181169511625324,-84.02421569824219,-4.954346179962158,-52.959991455078125,27392577.0,50354.0,0.0381658067469,0.046689457532833746,0.1286183737351,0.0030479424315132857,0.0026781069738170842,0.004573654583323587,27.392577164107934
1622,C,1148775068478581.0,0.6268921,11.763883651891284,1.7930145,111,1970-01-14 07:06:15.068478581,0.9435425,0.030426025,-0.16952515,7.22156180984956,0.9591334468081452,-83.76619720458984,-4.964554786682129,-52.98059844970703,27442931.0,50354.0,0.0242280990116,0.07142312832833371,0.1170375529477,0.0015708913652817545,0.0029737205742266133,0.006184879266092856,27.442931168014184
1622,C,1148775118832585.0,0.7611389,12.759382151891284,2.234024,111,1970-01-14 07:06:15.118832585,0.51838684,-0.04777527,-0.08807373,6.421248294471369,0.5279814146585762,-83.38834381103516,-5.018967151641846,-53.00934982299805,27493285.0,50354.0,0.034946456487,0.12395306314183369,0.1013887483145,0.0014898377837882523,0.004918986372644404,0.00549931898687841,27.493285172153264
1622,C,1148775169186588.0,0.40071106,13.451017251891283,3.2335205,111,1970-01-14 07:06:15.169186588,0.28141785,-0.024154663,-0.2471466,6.204532454943607,0.37531439611987455,-82.77076721191406,-5.00979471206665,-53.06231689453125,27543639.0,50354.0,0.029251896442920002,0.16643002578903368,0.1376563678765,0.001616321931716596,0.007310975030012449,0.006018438890340807,27.54363917512819
1622,C,1148775219540592.0,-0.31729126,12.350919651891285,3.855713,111,1970-01-14 07:06:15.219540592,0.09208679,0.052719116,-0.088134766,7.461553041025868,0.1379384611419176,-82.18366241455078,-4.838644027709961,-53.11547088623047,27593993.0,50354.0,0.0021002603046,0.1561461654265337,0.17848563182950003,0.0007893532504323112,0.00812150076623434,0.007959507126597964,27.59399317903444
1622,C,1148775269894596.0,-0.25964355,10.324735651891285,4.324066,111,1970-01-14 07:06:15.269894596,-0.42152405,0.12315369,0.3852234,9.456906329709605,0.5841630114930066,-81.7271728515625,-4.665449619293213,-53.158531188964844,27644347.0,50354.0,-0.014525487711370001,0.07743577358333373,0.205942295883,-0.00031282995042024834,0.0058808924784514325,0.009678741936017613,27.64434718294069
1622,C,1148775320248600.0,2.489502,5.7722296518912835,4.1947327,111,1970-01-14 07:06:15.320248600,-0.8265228,0.06602478,0.47450256,13.846570067643984,0.955328158247438,-81.53115844726562,-4.785163402557373,-53.177894592285156,27694701.0,50354.0,0.056141146195650006,-0.08819590454666633,0.21447779486990004,0.0010477574336587177,-0.0002709078172638249,0.010584916624885764,27.694701187079772
1622,C,1148775370602604.0,2.420639,6.213910651891284,4.1388855,111,1970-01-14 07:06:15.370602604,-1.3254242,0.3523407,0.12663269,13.404164061551741,1.3772904984057526,-81.35468292236328,-4.918220520019531,-53.21479034423828,27745055.0,50354.0,0.123622619957,-0.19169414557166634,0.2098155054214,0.0045259123404252696,-0.007046791791829262,0.010682432421434063,27.745055190986022
1622,C,1148775420956608.0,0.6511841,9.618238651891284,2.7711945,111,1970-01-14 07:06:15.420956608,-1.337326,0.45602417,0.09005737,9.547201311055668,1.415806909077472,-81.2134017944336,-4.886388301849365,-53.25438690185547,27795409.0,50354.0,0.0773392901887,-0.09486317697866632,0.17397508416000002,0.005059618011738289,-0.007214653709849726,0.009662695673890909,27.795409195125103
1622,C,1148775471310612.0,0.7827606,11.000486251891285,0.52757263,111,1970-01-14 07:06:15.471310612,-1.1243134,0.493042,0.042526245,7.788099730133612,1.2284052737990667,-81.3893051147461,-4.903038024902344,-53.268104553222656,27845763.0,50354.0,0.036102425711900005,0.025648436902533708,0.08305306003201,0.0028561220812294064,-0.0017426195108967907,0.006471197586322237,27.845763199031353
1622,C,1148775521664616.0,-0.30187988,8.698529651891285,-0.4421234,111,1970-01-14 07:06:15.521664616,-1.0094299,0.36723328,-0.40571594,10.046912454435809,1.1482222907275628,-81.71540832519531,-4.757390975952148,-53.266082763671875,27896117.0,50354.0,0.012107133887440003,0.0024929234095337253,0.0021513552637099998,0.0012137720820325835,0.0007085150285769218,0.002145191563900343,27.896117203170434
1622,C,1148775572018620.0,-1.5329437,7.250257651891284,-0.03907776,111,1970-01-14 07:06:15.572018620,-0.6985779,-0.09240723,-0.18861389,11.582864967209854,0.7294692440573591,-81.96058654785156,-4.4619598388671875,-53.24606704711914,27946471.0,50354.0,-0.04619535327366,-0.09192658205266632,-0.012115201605320002,-0.0008582390994868609,-0.0022516712236581495,-0.00025085975934271504,27.946471207076684
1622,C,1148775622372624.0,-0.5534973,10.227811651891285,-0.08528137,111,1970-01-14 07:06:15.622372624,-0.58091736,-0.45544434,0.057617188,8.521778713544805,0.7404149284964698,-82.20606231689453,-4.259507656097412,-53.206787109375,27996825.0,50354.0,-0.052530325057,-0.05342384913866631,-0.0031309898160100003,-0.002485616403331027,-0.0036594878061041816,-0.00038385336141482545,27.996825210982934
1622,C,1148775672726627.0,0.2979889,12.550748651891285,-1.2454529,111,1970-01-14 07:06:15.672726627,-0.7658386,-0.93692017,-0.2818451,6.311698795652532,1.2424833305106346,-82.71917724609375,-4.2465386390686035,-53.127193450927734,28047179.0,50354.0,-0.0064329349868,0.08002661276833373,-0.03350389671579,-0.0014845179981227525,0.0006697777799041366,-0.0009223565382111288,28.04717921395786
1622,C,1148775723090458.0,0.18704224,8.934949651891284,1.1047363,111,1970-01-14 07:06:15.723090458,-1.0697632,-1.1537476,-0.30888367,9.860087919894168,1.6034138424538653,-82.79796600341797,-4.19019079208374,-53.070255279541016,28097543.0,50364.0,0.01221405416748,0.04748565468585259,-0.0035435254212000046,0.00014558014320788378,0.0032110139190313198,-0.0009329281842536823,28.097543044947088
1622,C,1148775773444462.0,0.52593994,7.065351651891284,1.132843,111,1970-01-14 07:06:15.773444462,-0.9768982,-0.51834106,-0.06565857,11.732486196907509,1.1078441205601124,-82.8901138305664,-4.156200408935547,-53.04188919067383,28147897.0,50354.0,0.01795075234586,-0.09062961407466634,0.056335534036100005,0.0007594593335863612,-0.0010862354655321639,0.0013291444008973374,28.14789704908617
1622,C,1148775823798466.0,-0.9309845,7.732663651891285,-0.9048004,111,1970-01-14 07:06:15.823798466,-0.60466003,-0.30841064,-0.20800781,11.074859282993415,0.7099282525479647,-83.21421813964844,-3.946979522705078,-53.007205963134766,28198251.0,50354.0,-0.010197806887120001,-0.12089956869666632,0.005741428540200003,0.00019519590781469698,-0.005325670234633842,0.0015629116867835054,28.19825105299242
1622,C,1148775874152470.0,0.15852356,8.233045651891285,-0.40023804,111,1970-01-14 07:06:15.874152470,0.009506226,-0.28404236,-0.09701538,10.506945642329512,0.30030387037745127,-83.43846130371094,-3.877599000930786,-52.97837448120117,28248605.0,50354.0,-0.01944824908638,-0.0915005368586663,-0.03285695280388,-0.0007463987512448095,-0.0053475974575666095,-0.0006826875543866713,28.2486050571315
1622,C,1148775924506474.0,1.8986053,7.7483196518912845,-0.4946289,111,1970-01-14 07:06:15.924506474,0.65948486,-0.056610107,-0.05757141,11.156716900177413,0.6644090999024315,-83.63043975830078,-4.029714107513428,-52.96043395996094,28298959.0,50354.0,0.05179233330822001,-0.09110636574666629,-0.022530064948380002,0.0008143270084532659,-0.004597493986894459,-0.0013944789459486501,28.29895906103775
1622,C,1148775974860478.0,3.457138,7.1746046518912845,-0.60491943,111,1970-01-14 07:06:15.974860478,1.2984772,0.048065186,0.123794556,12.077744083806857,1.305250318184329,-83.78937530517578,-4.337108612060547,-52.94597625732422,28349313.0,50354.0,0.1348415490641,-0.1177547348036663,-0.02768332830441,0.0046988812564879015,-0.005258495928555724,-0.001264222601925494,28.349313064944
1622,C,1148776025214482.0,2.8400574,7.606900651891284,0.576828,111,1970-01-14 07:06:16.025214482,1.2595673,0.1720581,0.4900818,11.495564149388354,1.362458786054147,-83.8046646118164,-4.559886932373047,-52.94590377807617,28399667.0,50354.0,0.1585444885858,-0.12131524096666632,-0.0007072579331100007,0.007386580269911533,-0.0060190647799696646,-0.0007147897897020411,28.39966706908308
1622,C,1148776075568486.0,1.2384186,8.350904651891284,0.71990967,111,1970-01-14 07:06:16.075568486,1.6117249,0.63093567,0.7021332,10.478636899496111,1.8678136961433276,-83.77735137939453,-4.577333927154541,-52.96916198730469,28450021.0,50354.0,0.10268379025200002,-0.09169953586666633,0.03264796431759,0.006576944376299292,-0.005363073036332816,0.0008041711646420529,28.45002107298933
1622,C,1148776125922490.0,1.5055237,9.540769651891285,-0.38168335,111,1970-01-14 07:06:16.125922490,1.5041199,-0.053115845,0.23019409,9.32071443453397,1.5225594522503882,-83.91455841064453,-4.685243129730225,-52.94820785522461,28500375.0,50354.0,0.06908423528709999,-0.0430105160536663,0.008515524058639999,0.0043246035789979214,-0.003391594977198215,0.0010363731468483427,28.50037507712841
1622,C,1148776176276494.0,2.0462494,10.087598651891284,1.0255585,111,1970-01-14 07:06:16.176276494,1.4468842,-0.26116943,-0.49388123,8.941488085817854,1.551000331631969,-83.8264389038086,-4.924006462097168,-52.9393424987793,28550729.0,50354.0,0.0894229913387,0.0007142287843337018,0.016210844651550003,0.003990736444757767,-0.0010648936245799868,0.0006225357850164538,28.55072908103466
1622,C,1148776226630497.0,1.265091,9.771283651891284,2.076355,111,1970-01-14 07:06:16.226630497,1.3600769,0.3726349,-0.3874817,9.283923983829844,1.462466413442206,-83.58614349365234,-5.014726161956787,-52.974849700927734,28601083.0,50354.0,0.08336961725080001,0.006517879762333688,0.07809687618950001,0.004350399506457842,0.0001820827968794449,0.0023743854876151164,28.601083084009588
1622,C,1148776276984501.0,0.017623901,10.534162651891284,1.7605743,111,1970-01-14 07:06:16.276984501,0.7618103,0.24681091,-0.027893066,8.383963253243834,0.8012793405623276,-83.40399169921875,-4.893106460571289,-52.9996223449707,28651437.0,50354.0,0.032294913062477004,0.0177610215903337,0.0966023689861,0.0029120858796973757,0.0006112698993561068,0.004398402895786082,28.65143708814867
1622,C,1148776327338505.0,0.06474304,13.082364951891284,2.6143188,111,1970-01-14 07:06:16.327338505,0.16793823,-0.22442627,-0.15666199,6.224776115684449,0.3211127198857216,-82.94660186767578,-4.800877571105957,-53.02734375,28701791.0,50354.0,0.002073752473557,0.1011241154804337,0.1101466835787,0.0008652998922007282,0.002993171096030711,0.00520532089642397,28.70179109205492
1622,C,1148776377692509.0,-0.48442078,13.811841651891285,3.66922,111,1970-01-14 07:06:16.377692509,-0.22827148,-0.28901672,-0.087875366,6.156104046669842,0.3786299155779727,-82.25015258789062,-4.590579032897949,-53.07156753540039,28752145.0,50354.0,-0.010566226459980002,0.18364623966343369,0.15820065636760003,-0.00021381501755617194,0.00716966323145715,0.006756180977827995,28.75214509596117
1622,C,1148776428046513.0,0.0010528564,13.327680651891285,3.0369415,111,1970-01-14 07:06:16.428046513,-0.6650543,0.28611755,0.4376526,6.198443139133636,0.8459907048267449,-81.75391387939453,-4.460384368896484,-53.12456512451172,28802499.0,50354.0,-0.0121697542124772,0.18982255304233375,0.16884102808550003,-0.0005724237853904551,0.009402823793953108,0.008233928489475701,28.80249910010025
1622,C,1148776478400517.0,1.4060669,7.638700651891284,1.6149597,111,1970-01-14 07:06:16.478400517,-1.1574554,0.29330444,0.59983826,11.297254767903736,1.336239662512942,-81.81005859375,-4.495811462402344,-53.134857177734375,28852853.0,50354.0,0.0354270541068828,0.03440138208533371,0.11712091651240002,0.0005855490394414499,0.005645286014709284,0.007199663879141329,28.8528531040065
1622,C,1148776528754521.0,1.6233215,6.175733651891285,2.7740173,111,1970-01-14 07:06:16.528754521,-1.6291351,0.8048248,0.3269043,12.960296783341287,1.8462639448642062,-81.7824478149414,-4.54166316986084,-53.180816650390625,28903207.0,50354.0,0.07627091174680001,-0.1456631875336663,0.11050127392900003,0.002812219686298172,-0.00280123847577267,0.005730843888743129,28.90320710814558
1622,C,1148776579108525.0,-0.15667725,8.369397651891285,1.8839874,111,1970-01-14 07:06:16.579108525,-0.7105408,0.45637512,0.12922668,10.532817977182901,0.8543102559629474,-81.7639389038086,-4.397425174713135,-53.20664978027344,28953561.0,50354.0,0.036925702282250006,-0.12726642916466627,0.11727458433190001,0.0028499511514093923,-0.00687154895961392,0.00573471278343468,28.95356111205183
1622,C,1148776629462529.0,-0.49998474,9.429090651891284,0.6023712,111,1970-01-14 07:06:16.629462529,-0.3788452,0.045043945,-0.26148987,9.334960681272648,0.46252523677829727,-81.89586639404297,-4.224216461181641,-53.2022705078125,29003915.0,50354.0,-0.01653277892223,-0.045356659975666284,0.0625990504722,0.0005134326314352237,-0.004346131515286153,0.0045286785034628265,29.00391511595808
1622,C,1148776679816533.0,0.6817169,9.498685651891284,-0.7283325,111,1970-01-14 07:06:16.679816533,-0.48995972,0.369812,-0.6029968,9.286223586991154,0.8604804375328461,-82.23155212402344,-4.253643035888672,-53.20177459716797,29054269.0,50354.0,0.004575470592319999,-0.01692457599966631,-0.0031713276501000014,-0.00030104915182214406,-0.001568054678150949,0.0014962117774920119,29.05426912009716
1622,C,1148776730170537.0,-0.81555176,8.423185651891284,0.9199219,111,1970-01-14 07:06:16.730170537,-0.8830719,0.2644043,-0.27772522,10.381035329080992,0.9627340817962915,-82.34126281738281,-4.047601222991943,-53.212032318115234,29104623.0,50354.0,-0.00336956027022,-0.042250246184666315,0.004823646323799998,3.036120417951168e-05,-0.0014898444981349425,4.160042724774482e-05,29.10462312400341
1622,C,1148776780524540.0,-0.6994934,9.866849651891284,-0.7597809,111,1970-01-14 07:06:16.780524540,-0.7377167,0.090927124,0.12461853,8.924276405760267,0.7536733041292907,-82.68904876708984,-3.8303894996643066,-53.194419860839844,29154977.0,50354.0,-0.038144291993320006,-0.03298098115666631,0.004031869957,-0.0010451942584391468,-0.0018940966107727317,0.0002229553334017016,29.154977126978338
1622,C,1148776830878544.0,0.5705261,11.102872651891285,-1.9803009,111,1970-01-14 07:06:16.830878544,-0.69636536,-0.21463013,0.0390625,7.901771418418658,0.729737409084937,-83.25782012939453,-3.8442039489746094,-53.14780807495117,29205331.0,50354.0,-0.0032470097121000004,0.03448549844233372,-0.0689870394786,-0.0010421088030373596,3.787923170124839e-05,-0.0016353763030453234,29.20533113111742
1622,C,1148776881232548.0,1.4340363,10.889829651891285,0.740448,111,1970-01-14 07:06:16.881232548,-0.6726227,-0.4379425,-0.20152283,8.00570550690835,0.8275423740647659,-83.32611083984375,-4.018317699432373,-53.12487030029297,29255685.0,50354.0,0.050468867544800004,0.06024106590233374,-0.031215776463300003,0.0011889047146538881,0.002384930710505693,-0.0025228062969692164,29.25568513502367
1622,C,1148776931586552.0,0.4306488,9.824323651891284,0.9792938,111,1970-01-14 07:06:16.931586552,-0.55900574,-0.06314087,-0.23632813,8.970861864374287,0.6101845391736842,-83.36417388916016,-3.998755693435669,-53.12240982055664,29306039.0,50354.0,0.0469471767627,0.02805103772933369,0.0432979392986,0.0024526437475299277,0.0022229302931344908,0.00030419261370434803,29.30603913916275
1622,C,1148776981940556.0,-1.3722229,8.406492151891284,0.014205933,111,1970-01-14 07:06:16.981940556,-0.6123352,-0.050842285,-0.26315308,10.415476096917946,0.6684226796096521,-83.55734252929688,-3.725473642349243,-53.11052322387695,29356393.0,50354.0,-0.0237060111157,-0.03447195050816634,0.025013342777741,0.0005851428274945191,-0.0001616593210326695,0.0017198731488360375,29.356393143069
1622,C,1148777032294560.0,-2.4308472,6.441098651891284,-0.51234436,111,1970-01-14 07:06:17.032294560,-0.5105438,-0.27809143,-0.22975159,12.538633715755145,0.6251204750009497,-83.7997055053711,-3.371063470840454,-53.084678649902344,29406747.0,50354.0,-0.09574989590770001,-0.11965140633316633,-0.012541631176579002,-0.0030075413711281424,-0.0038803637551942326,0.00031400028298245565,29.40674714697525
1622,C,1148777082648564.0,0.98880005,5.556516651891284,-0.5162964,111,1970-01-14 07:06:17.082648564,-0.25180054,-0.6904602,-0.20814514,13.221790454875503,0.7638476281523372,-84.02438354492188,-3.408902168273926,-53.03898620605469,29457101.0,50354.0,-0.036306421095550004,-0.19140523949666632,-0.02589808841452,-0.0033247818931908257,-0.007831473172057698,-0.0009677968201450996,29.45710115111433
1622,C,1148777133002568.0,3.726654,5.167249651891284,0.43370056,111,1970-01-14 07:06:17.133002568,0.20791626,-0.38311768,-0.38964844,14.073235052752487,0.5846659171658662,-84.11509704589844,-3.726972818374634,-53.015743255615234,29507455.0,50354.0,0.11872098661685,-0.22347693576966632,-0.0020795154636799994,0.0020749515161297702,-0.010445488526680457,-0.0007043921328414415,29.50745515502058
1622,C,1148777183356572.0,3.008606,8.271436651891284,-0.22805786,111,1970-01-14 07:06:17.183356572,0.81192017,0.18257141,-0.13578796,10.886216696473012,0.8431992957084219,-84.2452163696289,-4.039031505584717,-53.014041900634766,29557809.0,50354.0,0.16957364102000003,-0.15512339492966634,0.0051774662579,0.007258393840012974,-0.009532020526017098,7.799710714607697e-05,29.55780915915966
1622,C,1148777233710576.0,2.9707336,8.853528651891285,0.13780212,111,1970-01-14 07:06:17.233710576,1.2005463,0.3614807,0.32432556,10.315620171179503,1.2950547416173162,-84.30279541015625,-4.3363142013549805,-53.02191925048828,29608163.0,50354.0,0.1505418331092,-0.06231394854666632,-0.0022723687659800002,0.00805954729215087,-0.005474419996703627,7.314163955406984e-05,29.60816316306591
1622,C,1148777284064579.0,-0.45407104,8.257398651891284,1.6283417,111,1970-01-14 07:06:17.284064579,1.7717896,0.91278076,0.924942,10.609313607120187,2.1972539238463855,-84.13261413574219,-4.116523265838623,-53.06846618652344,29658517.0,50354.0,0.06336201327312001,-0.0626673832726663,0.044466202956140004,0.005385457140367671,-0.0031466549912153373,0.0010623141634056585,29.658517166040838
1622,C,1148777334418583.0,4.1047363,11.065763351891285,-2.811905,111,1970-01-14 07:06:17.334418583,1.548996,0.29475403,0.6281128,9.138605376906849,1.697290262666077,-84.61735534667969,-4.642799377441406,-53.03731918334961,29708871.0,50354.0,0.09191279925102,-0.006969950230766299,-0.0297985732041,0.003909353954920273,-0.0017532591456159226,0.0003692869142671112,29.708871169947088
1622,C,1148777384772587.0,1.5904541,9.820020651891284,2.364624,111,1970-01-14 07:06:17.384772587,1.5746918,-0.384964,-1.0258026,9.355722825281156,1.9183645431590943,-84.3065185546875,-4.82566499710083,-53.04228973388672,29759225.0,50354.0,0.1433878087008,0.032372183863233685,-0.011261193736999997,0.0059241634064029726,0.0006395520361646314,-0.0010337617522760746,29.75922517408617
1622,C,1148777435126591.0,2.0181732,10.463956651891284,2.286728,111,1970-01-14 07:06:17.435126591,1.3847351,0.93637085,-0.40742493,8.811863722512182,1.7205454773086464,-83.99557495117188,-5.052402019500732,-53.111663818359375,29809579.0,50354.0,0.09085440953210001,0.017220496577333662,0.11710708930400002,0.005897516328449724,0.0012485949154521642,0.00266488211269036,29.80957917799242
1622,C,1148777485480595.0,0.91815186,11.079084251891285,1.344574,111,1970-01-14 07:06:17.485480595,0.8774719,0.29431152,-0.29421997,7.823380199390851,0.9711547749154721,-83.85160064697266,-5.107939720153809,-53.13666915893555,29859933.0,50354.0,0.07392785603562001,0.04891994083453369,0.091425290454,0.0041487231001984875,0.0016652177927185842,0.005250219725167166,29.8599331821315
1622,C,1148777535834599.0,-1.0623779,13.674146651891284,2.5647278,111,1970-01-14 07:06:17.535834599,0.17845154,-0.11506653,-0.30184937,5.7688774470416035,0.3690505393899451,-83.3426513671875,-4.743431568145752,-53.175479888916016,29910287.0,50354.0,-0.003631179009079999,0.12974289446453371,0.0984244914186,0.001769859437497198,0.00449819420432462,0.00477984795820645,29.91028718603775
1622,C,1148777586188603.0,-0.21983337,14.423292051891284,3.5237885,111,1970-01-14 07:06:17.586188603,-0.09492493,-0.058166504,-0.19778442,5.569848553069049,0.2269642291591856,-82.57340240478516,-4.597158908843994,-53.23677444458008,29960641.0,50354.0,-0.03228223314479,0.2139400142451337,0.1532905748851,-0.000904191977797985,0.008652904592583298,0.006337430224328255,29.960641189944
1622,C,1148777636542607.0,0.30351257,13.644987051891285,3.8448486,111,1970-01-14 07:06:17.636542607,-0.16117859,0.23439026,0.36897278,6.383120232711313,0.4658951000366757,-81.8704605102539,-4.545186519622803,-53.302650451660156,30010995.0,50354.0,0.0021067912183999997,0.21320586299593372,0.18552017626670003,-0.0007597271013807211,0.010754251751298356,0.00853023828174887,30.01099519408308
1622,C,1148777686896611.0,2.5919037,7.363874651891285,3.7953186,111,1970-01-14 07:06:17.686896611,-0.70755005,0.16212463,0.7681427,12.261230808855025,1.056860764940647,-81.6536636352539,-4.698673248291016,-53.32551574707031,30061349.0,50354.0,0.07289789542979001,0.03547091111613372,0.19235648959440002,0.0018883929957414802,0.006260935141819523,0.009513800816384916,30.06134919798933
1622,C,1148777737250615.0,0.6726532,3.8776526518912835,3.091278,111,1970-01-14 07:06:17.737250615,-1.5723419,0.3242035,0.008682251,15.186684943166835,1.6054414786563498,-81.64556884765625,-4.642109394073486,-53.34852981567383,30111703.0,50354.0,0.0821917490713,-0.21044126707266633,0.1733838425982,0.003904691979603944,-0.004405228651917621,0.009208244343613092,30.11170320212841
1622,C,1148777787604619.0,0.7166443,8.728070651891285,2.6347198,111,1970-01-14 07:06:17.787604619,-1.0884552,0.3943329,0.1326294,10.36905478213123,1.16525693139917,-81.53865051269531,-4.616398811340332,-53.38005828857422,30162057.0,50354.0,0.0349783431575,-0.17609490438066633,0.14416344661060002,0.002949991412044498,-0.009731821188680555,0.007994888100409958,30.16205720603466
1622,C,1148777837958622.0,0.44262695,11.175886051891284,0.12301636,111,1970-01-14 07:06:17.837958622,-0.67485046,0.22146606,-0.055541992,7.569236870884456,0.712429134700051,-81.75942993164062,-4.586903095245361,-53.37638473510742,30212411.0,50354.0,0.029186972261250003,0.0076527179311337064,0.06943152330032,0.001615490146297869,-0.0042408689282398835,0.0053776805574472335,30.212411209009588
1622,C,1148777888312626.0,0.7373352,8.838636651891285,0.12512207,111,1970-01-14 07:06:17.888312626,-0.73275757,0.31915283,-0.5846863,9.920761467779785,0.9902778674175262,-81.9819107055664,-4.606423377990723,-53.38140869140625,30262765.0,50354.0,0.02970790705055,0.010436438113133717,0.006247381252110001,0.0014827963764331886,0.000455430681726521,0.00190536777991653,30.26276521314867
1622,C,1148777938666630.0,-0.34454346,6.697034651891284,1.0338593,111,1970-01-14 07:06:17.938666630,-0.76353455,0.0552063,-0.32250977,12.083375206372649,0.8306896510423405,-82.09754180908203,-4.466474533081055,-53.380287170410156,30313119.0,50354.0,0.009889317637979999,-0.10232760358466629,0.029179673952490003,0.0009969393259831197,-0.0023135438730767757,0.0008919469688862143,30.31311921705492
1622,C,1148777989020634.0,-0.22465515,9.949796651891285,-0.23321533,111,1970-01-14 07:06:17.989020634,-0.7150116,0.33047485,0.12008667,8.787340526516115,0.796791078595118,-82.36723327636719,-4.311733722686768,-53.3779411315918,30363473.0,50354.0,-0.014330713403970002,-0.07435192826466629,0.020157813232690003,-0.00011182102120033031,-0.004448260573370647,0.0012421699148612772,30.36347322096117
1622,C,1148778039374638.0,0.9948425,12.898984651891285,-1.260025,111,1970-01-14 07:06:18.039374638,-0.6931,-0.46385193,-0.18093872,6.0491110760414415,0.8533961819459726,-82.88417053222656,-4.458495140075684,-53.31929397583008,30413827.0,50354.0,0.01939100691095,0.08179456688533372,-0.037595311788409996,0.00012740300962523537,0.00018738331255254405,-0.0004390239011373623,30.41382722510025
