Subject-id_accel,Activity_accel,Timestamp_accel,accel_x,accel_y,accel_z,Segment_accel,DateTime,gyro_x,gyro_y,gyro_z,accel_magnitude,gyro_magnitude,Roll,Pitch,Yaw,Time_Difference,Difference_Microseconds,vx,vy,vz,dx,dy,dz,Time_diff
1604,C,19727874771224.0,1.7683716,4.1385803,1.2205397400576143,23,1970-01-01 05:28:47.874771224,-0.025787354,-0.027114868,-0.18632507,4.610137554263467,0.19004535091257466,81.4229965209961,-4.868136882781982,151.4864501953125,15005502.0,50354.0,0.02435718048352,-0.22300161928190007,0.08094956574466113,0.0007862968394730187,-0.01083234459508497,0.0012587884578755123,15.005502326999704
1604,C,19727925125228.0,1.2109222,8.830383,1.7835280400576143,23,1970-01-01 05:28:47.925125228,-0.5821991,0.0013122559,0.19535828,9.048889523239744,0.6141028998636267,81.35755920410156,-4.948352813720703,151.49111938476562,15055856.0,50354.0,0.0750096800026,-0.16694961099590006,0.07563341449996111,0.0025017594464590434,-0.009817802124704173,0.003942289693618855,15.055856331000541
1604,C,19727975479232.0,-0.066711426,8.149063,0.8871199400576144,23,1970-01-01 05:28:47.975479232,-1.4663849,-0.22232056,-0.32192993,8.176486402027475,1.517679144673382,81.38494873046875,-4.799205780029297,151.46910095214844,15106210.0,50354.0,0.028807794656998002,-0.06597768805800006,0.06723890419536112,0.002613812559504699,-0.005864410608280043,0.0035970963677921285,15.106210335001379
1604,C,19728025833236.0,2.4475555,15.278885,4.206898440057614,23,1970-01-01 05:28:48.025833236,-2.202057,-0.75868225,1.008728,15.97871908418523,2.5381461671263263,81.12875366210938,-4.955656051635742,151.4518280029297,15156564.0,50354.0,0.05994251125109801,0.09637624679599999,0.1282521007561611,0.0022344664518481336,0.0007653445133466243,0.004921877031664476,15.156564339002216
1604,C,19728076187240.0,-6.2065125,15.737564,7.2835584400576145,23,1970-01-01 05:28:48.076187240,-1.4051971,-0.23806763,2.100006,18.33211739409423,2.5379677473006286,80.70149993896484,-4.465672016143799,151.48526000976562,15206918.0,50354.0,-0.094639260389,0.287431936473,0.2892952328706611,-0.0008735600530449585,0.009663138630163614,0.010512589218722505,15.206918342999415
1604,C,19728126541244.0,-0.49363708,9.053848,0.6709334000576144,23,1970-01-01 05:28:48.126541244,-0.53686523,-0.69369507,0.6476288,9.078434215772736,1.0903486542912306,80.8381576538086,-4.314873695373535,151.4438018798828,15257272.0,50354.0,-0.16868966597566,0.130704179924,0.20027024105858113,-0.006629832379083045,0.01052741300252727,0.012325789937116532,15.257272347000253
1604,C,19728176877970.0,-2.8653107,5.7351837,3.566181840057615,23,1970-01-01 05:28:48.176877970,0.50032043,-0.29588318,0.12712097,7.231199620673997,0.5950017898259116,80.38994598388672,-3.6651484966278076,151.46331787109375,15307609.0,50337.0,-0.08453967720093,-0.12108485565855003,0.10664183492084015,-0.006373402723740006,0.00024210396277497747,0.007724516584288064,15.307609072999185
1604,C,19728227231974.0,-0.63027954,4.127548,0.6909987100576145,23,1970-01-01 05:28:48.227231974,1.4301605,-1.2078552,-0.19543457,4.201722999789216,1.8821444979273974,80.5423812866211,-3.360687494277954,151.3975067138672,15357963.0,50354.0,-0.08800847547248002,-0.2451552039891,0.10718303471025115,-0.004344244839858444,-0.009220825981748886,0.005383468742701986,15.357963077000022
1604,C,19728277585978.0,3.9325562,3.343399,3.5359999400576143,23,1970-01-01 05:28:48.277585978,1.351181,-0.16293335,-1.2657623,6.134348352173333,1.8585993574206658,79.9743423461914,-4.163559436798096,151.42031860351562,15408317.0,50354.0,0.08314141946882,-0.30537316738100007,0.10642314501395113,-0.0001225378690041481,-0.013860652805985012,0.0053779627869162405,15.40831708100086
1604,C,19728327939982.0,2.6166382,5.94928,0.6904341400576144,23,1970-01-01 05:28:48.327939982,1.2545624,1.3649902,-1.0831604,6.516192859488102,2.1471752405702613,80.15921783447266,-4.5772929191589355,151.46841430664062,15458671.0,50354.0,0.16488906740880002,-0.25950742081700007,0.10640893083506112,0.006244663568117839,-0.01422199856906105,0.005358473173650582,15.458671085001697
1604,C,19728378293986.0,0.59736633,5.5869904,-0.03882915994238556,23,1970-01-01 05:28:48.378293986,0.9236908,0.65515137,-0.24293518,5.624855611075861,1.1582078886362108,80.51241302490234,-4.600412368774414,151.47393798828125,15509025.0,50354.0,0.08091899205181001,-0.20302052013920005,0.016405458584361116,0.006188709513039779,-0.01164506596945425,0.0030920978824127937,15.509025089002535
1604,C,19728428647990.0,-0.8421478,7.948166,2.741459440057614,23,1970-01-01 05:28:48.428647990,1.313797,-0.21531677,0.15124512,8.380543844698973,1.3398876650585478,80.37733459472656,-4.353002071380615,151.4804229736328,15559379.0,50354.0,-0.006162863070190002,-0.15269456731720005,0.06804412256246112,0.001882135059370247,-0.008955838756889786,0.0021261871045335436,15.559379092999734
1604,C,19728479001994.0,-2.576233,12.876282,2.2143751400576144,23,1970-01-01 05:28:48.479001994,0.5302124,-0.7031708,0.2510376,13.281858681702868,0.9157479127468214,80.42647552490234,-3.987560272216797,151.44639587402344,15609733.0,50354.0,-0.08606457340160002,0.030827927295999973,0.12477304722356111,-0.0023220101680502575,-0.0030682363958137544,0.004854557883702682,15.609733097000571
1604,C,19728529355998.0,2.776123,18.679352,0.16713396205761444,23,1970-01-01 05:28:48.529355998,-0.55448914,-1.8350677,-0.27183533,18.884596613659976,1.9361885539888513,80.64561462402344,-4.102158546447754,151.33648681640625,15660087.0,50354.0,0.005032630529999998,0.301006997218,0.05995925466395512,-0.002040141225678274,0.008354607894488978,0.004651005164621996,15.660087101001409
1604,C,19728579710002.0,10.677139,19.475021,5.992741440057614,23,1970-01-01 05:28:48.579710002,-1.2846527,-2.6604767,-0.105392456,22.947477363235617,2.956277456640681,80.4331283569336,-4.693568706512451,151.21641540527344,15710441.0,50354.0,0.338712777374,0.4671434490210001,0.15508718299905513,0.008654478134799009,0.019339723784959306,0.005414224161041609,15.710441105002246
1604,C,19728630064006.0,5.198181,16.677795,-3.3572648599423855,23,1970-01-01 05:28:48.630064006,0.49832153,0.40534973,0.67196655,17.83189291471107,0.9296084095959526,80.96395111083984,-5.035218238830566,151.19891357421875,15760795.0,50354.0,0.39969293164,0.41675024843200004,0.06635339385756112,0.01859084053584548,0.022253791620774184,0.0055752094035190275,15.760795108999446
1604,C,19728680418010.0,3.1978455,9.694153,0.22076860605761445,23,1970-01-01 05:28:48.680418010,0.7499695,-0.19166565,-0.31263733,10.207978182063611,0.8348245758419558,81.21720123291016,-5.3502984046936035,151.16741943359375,15811149.0,50354.0,0.2113867591905,0.17049733479599996,-0.07896756618405688,0.0153851533760395,0.014785132402931356,-0.00031758701666418396,15.811149113000283
1604,C,19728730772013.0,1.0945892,7.196274,0.38251177005761444,23,1970-01-01 05:28:48.730772013,0.4590454,0.14888,-0.36914063,7.280828154734139,0.6075794091128804,81.42538452148438,-5.4143877029418945,151.15455627441406,15861503.0,50354.0,0.10807062844190002,-0.06821891942100004,0.01518879002945312,0.008042978648420936,0.002575063663896373,-0.0016057582472444592,15.861503116000677
1604,C,19728781126017.0,0.3681488,6.360779,0.8629957800576145,23,1970-01-01 05:28:48.781126017,-0.07182312,0.35357666,-0.24368286,6.403651640643135,0.43538069700099197,81.49082946777344,-5.34691858291626,151.16366577148438,15911857.0,50354.0,0.036827354626,-0.15214327661900004,0.03135814358925112,0.003648096519700519,-0.005548059009699082,0.0011719121477181166,15.911857120001514
1604,C,19728831480021.0,1.1089172,6.2595367,0.06241289005761444,23,1970-01-01 05:28:48.831480021,-0.43955994,0.28504944,-0.14483643,6.358990294390811,0.5435473443521384,81.7127685546875,-5.456877708435059,151.1536865234375,15962211.0,50354.0,0.037188090682000005,-0.17572751162110004,0.02329901408749112,0.001863486866519516,-0.008254802835521,0.0013761032588273394,15.962211124002351
1604,C,19728881834025.0,1.2778625,5.7213135,-0.2812302999423856,23,1970-01-01 05:28:48.881834025,-0.6643219,0.5209198,-0.044296265,5.883786716400288,0.845365710177909,82.00048065185547,-5.631207466125488,151.1480712890625,16012564.999999998,50353.99999999814,0.06009195250689778,-0.19182733451459294,-0.005509165928668679,0.002449219647366789,-0.009253928361158001,0.00044789500709465594,16.01256512799955
1604,C,19728932188029.0,0.8986206,7.1769867,0.23340288305761445,23,1970-01-01 05:28:48.932188029,-0.4715271,0.28996277,0.06439209,7.23303548894358,0.5572813968499675,82.17182159423828,-5.671329498291016,151.14361572265625,16062919.0,50354.00000000186,0.054797315008702024,-0.1687286958646063,-0.0012041508749079273,0.0028925670882403633,-0.009077719176857435,-0.00016902117716365448,16.06291913200039
1604,C,19728982542033.0,2.3364105,11.418442,2.801457040057614,23,1970-01-01 05:28:48.982542033,-1.1086426,0.024719238,0.6230011,11.937193645060308,1.2719393955150813,81.99510955810547,-5.8426713943481445,151.16131591796875,16113273.0,50354.0,0.0814483780047,-0.025292091620100054,0.07640866828427212,0.0034302578129984233,-0.0048848613665024515,0.0018934241348155625,16.113273136001226
1604,C,19729032896037.0,-2.3028107,15.264862,4.331669440057614,23,1970-01-01 05:28:49.032896037,-1.8454895,-0.24427795,1.773941,15.975408843660919,2.571452873950338,81.72764587402344,-5.583568096160889,151.17880249023438,16163627.000000002,50354.00000000186,0.0008459421646000246,0.17833634480800664,0.17959072538986776,0.002071924098902544,0.003853195162512067,0.006445296734534058,16.163627140002063
1604,C,19729083250041.0,-2.3372192,14.942703,2.782444640057615,23,1970-01-01 05:28:49.083250041,-1.121109,-1.0112152,1.4922333,15.33969296565978,2.1227816167050557,81.63928985595703,-5.309799671173096,151.1426239013672,16213981.0,50353.99999999814,-0.11682203279229568,0.2670666640049901,0.1791120501950545,-0.0029199300337333853,0.011213911552884403,0.009031059780901253,16.213981143999263
1604,C,19729133604045.0,0.43997192,9.397415,2.957600240057614,23,1970-01-01 05:28:49.133604045,-0.27153015,-0.67396545,0.3171692,9.797553668422374,0.7928141973888743,81.43174743652344,-5.263287544250488,151.12957763671875,16264335.0,50354.0,-0.047766994768559994,0.11934195088599998,0.14451710994666112,-0.004143857946899664,0.009728609697110457,0.008148011364887974,16.2643351480001
1604,C,19729183958049.0,-2.2754364,5.8315735,1.8833662400576145,23,1970-01-01 05:28:49.183958049,0.44436646,-0.6720123,0.061325073,6.47666298828834,0.807974533449339,81.28492736816406,-4.648220062255859,151.11166381835938,16314689.000000002,50354.00000000186,-0.046211489212961705,-0.11004895653550409,0.12188101306986561,-0.0023660962912028594,0.0002339697187624438,0.006707105543187341,16.314689152000938
1604,C,19729234312052.0,-0.08657837,4.874878,1.8388563400576146,23,1970-01-01 05:28:49.234312052,1.0255737,-0.39048767,-0.88822937,5.1369507624268955,1.411819198156873,81.09768676757812,-4.468803882598877,151.10476684570312,16365043.0,50353.99999999814,-0.05946844586428779,-0.22391287058449175,0.09371439789955766,-0.002660703725439812,-0.008408156921399824,0.005428045661976968,16.36504315500133
1604,C,19729284666056.0,2.6124573,4.5117645,2.1597639400576147,23,1970-01-01 05:28:49.284666056,1.6278839,1.1396942,-1.7494202,5.562230370851587,2.6475233516554466,80.86104583740234,-4.948686122894287,151.1731719970703,16415396.999999998,50353.99999999814,0.06359405382060765,-0.2571417017774905,0.1006732627924574,0.00010387043151626127,-0.012111510968357178,0.004894098133242682,16.41539715900217
1604,C,19729335020060.0,3.127121,4.6948395,0.15344683005761445,23,1970-01-01 05:28:49.335020060,1.4876556,1.7701111,-1.1519165,5.641366351163682,2.583277784816573,81.13558959960938,-5.567656517028809,151.23236083984375,16465751.0,50354.00000000186,0.14450536285910534,-0.2616745310920097,0.05823970755919328,0.005239319013745328,-0.013062236294955893,0.004000951854543657,16.465751162999368
1604,C,19729385374064.0,0.4494934,6.767105,-0.3418534599423856,23,1970-01-01 05:28:49.385374064,1.2366333,-0.025802612,0.2371521,6.805361913802392,1.2594319401973744,81.53555297851562,-5.538851737976074,151.20021057128906,16516105.0,50354.0,0.0900484207488,-0.20489182332350006,-0.004743513720608883,0.0059053606098962335,-0.01174674110511929,0.0013468736722740393,16.516105167000205
1604,C,19729435728068.0,-1.5761566,7.6561737,0.33849016005761445,23,1970-01-01 05:28:49.435728068,1.2234955,-1.1030273,0.8265991,7.81760753267007,1.8430617285338953,81.78727722167969,-5.166031360626221,151.13438415527344,16566459.000000002,50354.00000000186,-0.028365999386401053,-0.13033431217010485,-8.467780119888591e-05,0.0015529783226411757,-0.008439988413322804,-0.00012155937794455869,16.566459171001043
1604,C,19729486082072.0,0.42407227,9.803375,3.7252394400576145,23,1970-01-01 05:28:49.486082072,-0.22688293,-0.9235077,-0.35188293,10.419369022195585,1.0139841874063225,81.49490356445312,-5.087033271789551,151.11148071289062,16616813.0,50353.99999999814,-0.02900602717640893,-0.05389014238009802,0.10231252014209734,-0.0014444555127718136,-0.004638219092210286,0.002573790386616705,16.61681317500188
1604,C,19729536436076.0,4.5008698,16.654175,6.583561440057614,23,1970-01-01 05:28:49.536436076,-0.18440247,-0.6767273,-0.09625244,18.387417658402878,0.7079750290182165,81.189208984375,-5.316263675689697,151.10433959960938,16667167.0,50354.0,0.12399526649639,0.17265253635,0.25954467975866113,0.0023915440783591636,0.0029900807929802223,0.009110478721901396,16.66716717899908
1604,C,19729586790080.0,-6.961914,8.374359,2.567829740057615,23,1970-01-01 05:28:49.586790080,-1.6182556,0.44328308,1.3386536,11.140202408193788,2.1464492858529423,80.9720230102539,-4.384772300720215,151.147216796875,16717521.000000002,50354.00000000186,-0.06196170982340229,0.136674200518005,0.23040457574176965,0.0015618188563558694,0.00778791925412605,0.012335452405734802,16.717521182999917
1604,C,19729637144084.0,2.444046,7.745163,-0.040568659942385565,23,1970-01-01 05:28:49.637144084,0.40905762,-0.015548706,0.03929138,8.125854497464092,0.41123437512037253,81.25325012207031,-4.7138142585754395,151.1260223388672,16767875.0,50353.99999999814,-0.11374636263599579,-0.0876279946059968,0.06362885221405877,-0.004423802140310101,0.0012348363262465847,0.007402879615643619,16.767875187000755
1604,C,19729687498088.0,5.4387665,8.106949,1.1425673400576144,23,1970-01-01 05:28:49.687498088,1.1113739,0.077682495,-0.84931946,9.805684442803596,1.400903301718333,81.35635375976562,-5.365163326263428,151.11891174316406,16818229.0,50354.0,0.1984655703125,-0.09436057617600004,0.02774502076926112,0.002132975491671347,-0.004581926246578334,0.002300520000101045,16.818229191001592
1604,C,19729737852092.0,0.1355133,9.847107,1.5714155400576144,23,1970-01-01 05:28:49.737852092,0.7121124,0.13902283,-0.51208496,9.94014895755734,0.8880666775378808,81.41268157958984,-5.224344253540039,151.12005615234375,16868583.0,50354.0,0.14034364252460002,-0.04143993208800005,0.06832994697266112,0.008530199551599667,-0.0034190493965627305,0.0024188794628383766,16.86858319500243
1604,C,19729788206095.0,0.22880554,7.080963,0.15257708005761444,23,1970-01-01 05:28:49.788206095,0.02758789,0.21044922,-0.44848633,7.0849924828795645,0.4961753259384523,81.64183807373047,-5.1179375648498535,151.1065673828125,16918937.0,50354.0,0.009172455434680002,-0.06727118161000006,0.04340496219664112,0.0037643667983207935,-0.002737019709574549,0.0028131498081555226,16.918937197999185
1604,C,19729838560099.0,1.3463745,6.6697693,0.12605730005761445,23,1970-01-01 05:28:49.838560099,-0.41603088,0.05595398,-0.3354187,6.804970772224906,0.5373250834467946,81.84587097167969,-5.259523868560791,151.08657836914062,16969291.0,50354.0,0.03965830786708,-0.14726701288290006,0.007015177788161118,0.0012294121276484116,-0.005401428122747747,0.001269427864397366,16.969291202000022
1604,C,19729888914103.0,1.2781067,6.381897,0.8598066900576145,23,1970-01-01 05:28:49.888914103,-0.72457886,0.83166504,-0.44140625,6.539862001004835,1.1880743834693868,81.86619567871094,-5.381889343261719,151.11924743652344,17019645.0,50354.0,0.0660765631724,-0.16486739756490004,0.02482109767913112,0.002662086848160988,-0.007858608051844263,0.0008015419074400167,17.01964520600086
1604,C,19729939268107.0,1.1980133,6.2351074,-1.5724900599423854,23,1970-01-01 05:28:49.939268107,-0.77949524,0.6127014,-0.09587097,6.597700866255903,0.996095917888111,82.40412139892578,-5.511119842529297,151.09405517578125,17069999.0,50354.0,0.06234127324,-0.17581088022120003,-0.01794322920358888,0.003233175867354995,-0.008577256999820641,0.00017316409460872698,17.069999210001697
1604,C,19729989622111.0,5.3581085,8.581711,-0.4473985099423855,23,1970-01-01 05:28:49.989622111,-0.42066956,-1.5393677,0.1898346,10.13914754150602,1.6070634616812876,82.64613342285156,-6.169728755950928,150.9927215576172,17120353.0,50354.0,0.1650634785586,-0.12042616314320002,-0.05085473452398888,0.005725369436033353,-0.007458360040785501,-0.0017321263327692254,17.120353214002535
1604,C,19730039976115.0,2.2621155,12.874817,2.7838637400576145,23,1970-01-01 05:28:50.039976115,-1.5168152,1.0384064,1.1945343,13.320831955308323,2.1922427777024356,82.4671630859375,-6.31268835067749,151.0628204345703,17170707.0,50354.0,0.191854379648,0.04674180545599998,0.05882518509861113,0.00898612091606757,-0.0018551510734906359,0.0002006720341172644,17.170707217999734
1604,C,19730090330119.0,-2.935608,16.55426,4.516483940057614,23,1970-01-01 05:28:50.090330119,-0.94236755,-1.5085144,2.3249054,17.352507237878456,2.927261077056422,82.25318908691406,-6.042973041534424,151.021484375,17221061.0,50354.0,-0.016956520672500003,0.24746667162899996,0.1838008535422611,0.004403403395426164,0.007407286827569044,0.006108595774861241,17.22106122200057
1604,C,19730140684123.0,0.076293945,14.242432,5.242451440057614,23,1970-01-01 05:28:50.140684123,-0.5511017,-0.85905457,1.1081543,15.101793449033684,1.506550294742683,81.93794250488281,-5.96320104598999,151.01666259765625,17271415.0,50354.0,-0.071988949962735,0.28189911448399996,0.24570071606516114,-0.0022393801141833117,0.013327842396966999,0.01081356101800607,17.27141522600141
1604,C,19730191038127.0,0.26979065,9.281204,0.7710615700576144,23,1970-01-01 05:28:50.191038127,-0.9363251,0.26809692,-0.11230469,9.301382650430947,0.980404505701342,82.00708770751953,-5.848828315734863,151.01710510253906,17321769.0,50354.0,0.008713371848315,0.09878538357200001,0.15140221705567114,-0.0015930892301867525,0.009584493607555911,0.009997860547183195,17.321769230002246
1604,C,19730241392131.0,-0.49551392,5.12735,0.5680128700576145,23,1970-01-01 05:28:50.241392131,-0.5693512,-0.68847656,-0.868454,5.162889529560069,1.2459426602885357,82.08565521240234,-5.528903484344482,150.96649169921875,17372123.0,50354.0,-0.0056830347687899995,-0.13070503594200003,0.03371387717878112,7.629479665120097e-05,-0.0008036410877194906,0.0046606679045408045,17.372123233999446
1604,C,19730291746135.0,0.87664795,3.3767548,2.697025940057615,23,1970-01-01 05:28:50.291746135,0.36531067,-0.0932312,-1.2512054,4.277845683468315,1.3067742327037402,81.4366226196289,-5.640562534332275,151.01824951171875,17422477.0,50354.0,0.00959581147331,-0.27936135345040003,0.08220388212227113,9.851197908970005e-05,-0.010324241485732456,0.0029184614259225926,17.422477238000283
1604,C,19730342100138.0,2.994751,2.307907,-0.5156968599423856,23,1970-01-01 05:28:50.342100138,0.89341736,1.3954315,-2.0025482,3.852038946701096,2.5991581220973954,81.876953125,-6.560005187988281,151.0296630859375,17472831.0,50354.0,0.09747021136415,-0.35034646986140006,0.05491932225006113,0.0026956012569787306,-0.015854153867521193,0.00345235091648221,17.472831241000677
1604,C,19730392454142.0,2.7684174,4.7214355,-0.5868333199423855,23,1970-01-01 05:28:50.392454142,1.3979645,1.2873688,-0.8574219,5.532562321246794,2.0848969962742285,82.32276153564453,-7.085696220397949,151.04197692871094,17523185.0,50354.0,0.1450992908068,-0.31649144387750006,-0.027758402338958883,0.0061071723561580095,-0.016788978154204288,0.0006838304806018213,17.523185245001514
1604,C,19730442808146.0,2.1349335,6.7191315,1.9760786400576145,23,1970-01-01 05:28:50.442808146,2.6151886,-1.5612793,0.34120178,7.26524240741536,3.064836556955953,82.29582977294922,-7.363103866577148,150.9869842529297,17573539.0,50354.0,0.1234516656093,-0.20543004464100006,0.03497702942454112,0.00676130742968815,-0.01314041731643028,0.00018174337413370391,17.57353924900235
1604,C,19730493162150.0,-0.7313843,11.158859,3.2576185400576145,23,1970-01-01 05:28:50.493162150,0.59999084,-0.4629364,0.28388977,11.587665567158965,0.8092542987463943,82.14002227783203,-7.108974456787109,150.98959350585938,17623893.0,50354.0,0.0353371582084,-0.04335503318150006,0.13176879390376112,0.003997826217258233,-0.0062636619043370855,0.004198159593936665,17.62389325299955
1604,C,19730543516154.0,2.0520782,11.849075,1.8114058400576145,23,1970-01-01 05:28:50.543516154,-0.046813965,-1.3073578,0.10952759,12.130123075626026,1.312772736428918,82.1511001586914,-7.189078330993652,150.92440795898438,17674247.0,50354.0,0.0332511103203,0.08580155431799993,0.12762282681816112,0.0017268468367470802,0.0010686760626536574,0.006530702834915836,17.67424725700039
1604,C,19730593870158.0,4.8196564,19.189453,2.3509871400576143,23,1970-01-01 05:28:50.593870158,0.34729004,0.21081543,0.7118683,19.899737567259717,0.8196401612623533,82.2035903930664,-7.393242359161377,150.93508911132812,17724601.0,50354.0,0.1730096620242,0.287987819456,0.10479656806036111,0.0051930274653174775,0.009410895063507996,0.005851623104856554,17.724601261001226
1604,C,19730644224162.0,-9.032349,-0.32025146,11.182316440057614,23,1970-01-01 05:28:50.644224162,-1.8972015,-1.3358307,1.3216553,14.206643127511057,2.6703164461694104,79.90695190429688,-5.627499580383301,151.12661743164062,17774955.0,50354.0,-0.1060629615902,-0.018399312827420022,0.3407279842365611,0.0016855170768268184,0.006787429831387758,0.011216971653179612,17.774955265002063
1604,C,19730694578166.0,9.364838,6.2469788,-4.505778559942386,23,1970-01-01 05:28:50.694578166,2.2597198,0.22087097,-0.81282043,12.209449806114215,2.411595864013323,80.69854736328125,-6.61720085144043,151.0570068359375,17825309.0,50354.0,0.008371075553000018,-0.34425198576082006,0.16809519420766109,-0.0024595886147585843,-0.009130471744556121,0.012810641163690182,17.825309268999263
1604,C,19730744932170.0,-0.4560852,4.4991302,-2.2268479599423854,23,1970-01-01 05:28:50.744932170,0.2168274,0.73568726,-0.6869507,5.14235859107317,1.0296364067706412,81.5867691040039,-6.3208231925964355,150.9887237548828,17875663.0,50354.0,0.22429566924560002,-0.22291441370700005,-0.1695073378911389,0.005857850633794353,-0.014279548439401308,-3.555354151892074e-05,17.8756632730001
1604,C,19730795286174.0,4.2075806,8.006775,0.5619093400576145,23,1970-01-01 05:28:50.795286174,0.32269287,0.5363312,-0.7467041,9.051417686347822,0.9743453481179488,81.73348236083984,-6.802908420562744,150.9946746826172,17926017.0,50354.0,0.0944513996858,-0.17860802477960008,-0.04191815963283888,0.008025094954485858,-0.010109130433777131,-0.005323059751161189,17.926017277000938
1604,C,19730845640177.0,2.588684,6.2519836,1.3491102400576145,23,1970-01-01 05:28:50.845640177,-0.020401001,0.39511108,-0.56277466,6.860060529183704,0.687927528391388,81.68486022949219,-7.151893615722656,151.01583862304688,17976371.0,50354.0,0.17110955383420004,-0.13447643472780005,0.04811373996856112,0.006686028126773041,-0.007882527437017815,0.00015598612611247888,17.97637128000133
1604,C,19730895994181.0,2.4580536,6.9071045,0.06161944005761444,23,1970-01-01 05:28:50.895994181,-0.41522217,0.66108704,-0.19570923,7.333187126197872,0.8048277005811016,81.88798522949219,-7.448187828063965,151.01849365234375,18026725.0,50354.0,0.12706171255520002,-0.16216283890630004,0.03551794115626112,0.007507057973885926,-0.007468486992285739,0.0021055948356796497,18.02672528400217
1604,C,19730946348185.0,1.6834564,7.4486847,-0.24261029994238553,23,1970-01-01 05:28:50.946348185,-0.5421448,0.8095856,-0.1252594,7.650633106033608,0.982364364776512,82.1409912109375,-7.571425437927246,151.02078247070312,18077079.0,50354.0,0.10427079727,-0.13203349531160002,-0.0045568068793188825,0.005824258599869062,-0.007406981106604069,0.0007795084776905748,18.077079287999368
1604,C,19730996702189.0,1.5560455,9.030548,0.3923842100576145,23,1970-01-01 05:28:50.996702189,-0.4078827,0.5550537,-0.19264221,9.165223838673757,0.7152369732589781,82.28509521484375,-7.614466190338135,151.02500915527344,18127433.0,50354.0,0.0815609393363,-0.07857155831210004,0.0037708577349711194,0.004678685632536816,-0.0053024034350838975,-1.978784160724363e-05,18.127433292000205
1604,C,19731047056193.0,4.255768,8.417999,1.9357039400576144,23,1970-01-01 05:28:51.047056193,-0.48217773,0.039855957,-0.18333435,9.587141555969914,0.517392833837367,82.1750259399414,-8.065632820129395,151.0375518798828,18177787.0,50354.0,0.1463240284895,-0.05416713218100005,0.05861427535545112,0.005737459834950167,-0.0033419620105447807,0.0015706704958175608,18.177787296001043
1604,C,19731097410197.0,1.489685,15.129272,2.5089918400576146,23,1970-01-01 05:28:51.097410197,-2.0671997,1.2911682,1.3244324,15.373592455076093,2.7739053881740614,82.04191589355469,-8.059773445129395,151.11398315429688,18228141.0,50354.0,0.144653270181,0.09938044196699998,0.11190410565596112,0.007325935448627178,0.0011383355004821205,0.004293141278724327,18.22814130000188
1604,C,19731147764201.0,-4.207062,17.386612,2.2389876400576147,23,1970-01-01 05:28:51.147764201,-1.6948547,-0.50860596,2.5015259,18.001792006679906,3.0641221100064566,81.99111938476562,-7.660511016845703,151.1012420654297,18278495.0,50354.0,-0.068415400729,0.325183211468,0.11953987937086114,0.0019194408391930038,0.010689239102532994,0.005827065211020305,18.27849530399908
1604,C,19731198118205.0,3.9047394,10.372162,1.1711012400576144,23,1970-01-01 05:28:51.198118205,-0.18611145,0.005432129,0.1461792,11.12343313537975,0.23671784545998037,82.0472640991211,-7.987461090087891,151.09364318847656,18328849.0,50354.0,-0.007611576100199992,0.20541345299799996,0.08585580773466113,-0.0019141311956287685,0.013358832221260481,0.005171247214255734,18.328849307999917
1604,C,19731248472209.0,-0.5708618,8.151718,0.6164595200576144,23,1970-01-01 05:28:51.248472209,0.4319458,0.3888092,0.20256042,8.181228655389239,0.6154514537255203,82.19612884521484,-7.69808292388916,151.09678649902344,18379203.0,50354.0,0.08393703633520001,-0.027093473240000034,0.04500541725742112,0.0019216461123365955,0.004489562130367165,0.003294693061625655,18.379203312000755
1604,C,19731298826213.0,0.1146698,5.9957123,-0.029490789942385576,23,1970-01-01 05:28:51.298826213,1.1142883,-0.05923462,-0.4102173,6.002052604460437,1.1888756827114955,82.50838470458984,-7.516367435455322,151.05723571777344,18429557.0,50354.0,-0.011485545984000001,-0.13727934733690003,0.014778111718111117,0.0018241111725721627,-0.004138414503664613,0.0015051699090169752,18.429557316001592
1604,C,19731349180217.0,2.1207275,4.6799927,2.1799818400576143,23,1970-01-01 05:28:51.349180217,1.5562286,0.65322876,-1.3831024,5.498732726447531,2.1820924630351617,82.23291778564453,-7.82425594329834,151.12734985351562,18479911.0,50354.0,0.05628059782210001,-0.22468697521500003,0.05414291316875111,0.001127805020127844,-0.009113226102889189,0.0017352246435765307,18.47991132000243
1604,C,19731399534220.0,2.5946808,4.49646,-0.5478318599423856,23,1970-01-01 05:28:51.399534220,1.7860413,1.8967285,-1.3768463,5.248062434784549,2.9467317933333583,82.6880874633789,-8.283267974853516,151.1596221923828,18530265.0,50354.0,0.1187198347691,-0.2624336503721001,0.04109264004936111,0.004405985891348643,-0.01226423599040642,0.0023977455233724116,18.530265322999185
1604,C,19731449888224.0,0.32992554,5.0533295,-2.776515359942386,23,1970-01-01 05:28:51.449888224,1.3512878,0.6767731,0.22680664,5.884910981558258,1.5282152332903043,83.63994598388672,-8.206536293029785,151.06747436523438,18580619.0,50354.0,0.07363281382218001,-0.2530341497585001,-0.0836970899550389,0.0048428626335826576,-0.01297793280388812,-0.0010726522352752497,18.580619327000022
1604,C,19731500242228.0,-0.10267639,9.3591,1.0819136400576146,23,1970-01-01 05:28:51.500242228,1.2687988,-1.0709839,0.90211487,9.399141860537826,1.8896211651057908,83.73819732666016,-8.037352561950684,151.01492309570312,18630973.0,50354.0,0.0057214518495500005,-0.13060746247850005,-0.04266498750153889,0.001997902346817147,-0.009658944871290952,-0.003181418024124259,18.63097333100086
1604,C,19731550596232.0,2.1014404,7.914627,4.785725440057615,23,1970-01-01 05:28:51.550596232,0.6421509,-0.8774109,-0.16111755,9.375015184094913,1.0991662889334,83.20956420898438,-8.173190116882324,151.04989624023438,18681327.0,50354.0,0.05032288147977,-0.05856857532100004,0.14772954912006112,0.0014110281802322897,-0.004762885103678014,0.0026452104678695346,18.681327335001697
1604,C,19731600950236.0,2.5851593,10.987595,4.497669840057614,23,1970-01-01 05:28:51.600950236,-0.67463684,-0.9894867,-0.16664124,12.070510229750003,1.209126998388016,82.82963562011719,-8.281828880310059,151.0498504638672,18731681.0,50354.0,0.11799452064690001,-0.01756795670599999,0.23372804296746114,0.004237727233343171,-0.0019168894668437795,0.009603957795987548,18.731681339002535
1604,C,19731651304240.0,9.142868,19.613052,-4.377757559942386,23,1970-01-01 05:28:51.651304240,0.40974426,-2.7388,0.9513397,22.12273988499987,2.9281330269301353,83.32891845703125,-8.754925727844238,150.85028076171875,18782035.0,50354.0,0.2952765433321,0.27696328951899996,0.003019031476461099,0.010404925577799285,0.006530796294232901,0.005960581093274631,18.782035342999734
1604,C,19731701658244.0,5.8781433,16.321365,-13.802867559942385,23,1970-01-01 05:28:51.701658244,-1.704071,-1.0393219,1.8347626,22.307356601202567,2.711162441319105,84.27914428710938,-9.08096981048584,150.64952087402344,18832389.0,50354.0,0.3781840015001,0.41125161680899996,-0.45773359864333885,0.016955716137240298,0.017327186696620055,-0.011448348657560482,18.83238934700057
1604,C,19731752012248.0,-6.8279114,10.913559,-10.218791559942385,23,1970-01-01 05:28:51.752012248,-1.7961273,1.3760529,0.63272095,16.57475994855826,2.349453268735644,85.18085479736328,-8.388378143310547,150.56912231445312,18882743.0,50354.0,-0.0239123114537,0.19222448154799995,-0.6047933116613389,0.008919498340298215,0.015193717728334187,-0.026751240020740873,18.88274335100141
1604,C,19731802366252.0,1.5453186,8.408112,-0.8919633599423855,23,1970-01-01 05:28:51.802366252,0.3963318,-1.3736725,-1.0607147,8.621126384879716,1.7802164777755485,85.51638793945312,-8.39415454864502,150.45094299316406,18933097.0,50354.0,-0.1329998389256,-0.0070074892330000745,-0.2797354766179389,-0.003950577210099637,0.004663208215514752,-0.02226978130250738,18.933097355002246
1604,C,19731852720256.0,2.0359344,6.5173035,-2.043330559942386,23,1970-01-01 05:28:51.852720256,0.4050598,-0.49708557,-1.0484314,7.193680891258425,1.2289735172021505,86.09815979003906,-8.56060791015625,150.3395538330078,18983451.0,50354.0,0.09016520678100001,-0.11769201395650007,-0.0739018950209389,-0.0010784475335045938,-0.0031395593918020453,-0.008903528105752028,18.983451358999446
1604,C,19731903074260.0,3.1684265,6.9421387,0.7129561100576145,23,1970-01-01 05:28:51.903074260,0.12835693,-0.781723,-0.60702515,7.646822498080021,0.9980209832165591,86.10748291015625,-8.925821304321289,150.2985076904297,19033805.0,50354.0,0.1310301943793,-0.15460082373060005,-0.03349483752474889,0.005569036615012873,-0.00685551677444812,-0.0027039275353027818,19.033805363000283
1604,C,19731953428263.0,3.254776,7.2642975,0.22971025605761444,23,1970-01-01 05:28:51.953428263,-0.7331848,-0.11720276,-0.35183716,7.960129075501795,0.8216360660654589,86.16032409667969,-9.28488540649414,150.27749633789062,19084159.0,50354.0,0.16171696934250002,-0.13579375579260006,0.023733511099683118,0.007370495341023759,-0.00731126432865561,-0.00024576091540388093,19.084159366000677
1604,C,19732003782267.0,3.3086548,6.302414,-0.15748151994238557,23,1970-01-01 05:28:52.003782267,-0.53759766,0.72491455,-0.616745,7.128192684794136,1.0931087520755554,86.29081726074219,-9.70479965209961,150.28529357910156,19134513.0,50354.0,0.1652474972516,-0.15190010456450007,0.0018185028891731173,0.008231984375439658,-0.007243268322210709,0.0006433230561974334,19.134513370001514
1604,C,19732054136271.0,3.3829346,6.5346375,-0.2830308599423855,23,1970-01-01 05:28:52.054136271,-0.44728088,0.94955444,-0.3474121,7.375644530653026,1.1056260612719375,86.44303131103516,-10.119583129882812,150.30091857910156,19184867.0,50354.0,0.1684741463238,-0.17027075438450007,-0.011090780188358882,0.008402109820297847,-0.008111295715758976,-0.00023344812556160002,19.18486737400235
1604,C,19732104490275.0,5.0141907,8.88501,-0.08791669994238555,23,1970-01-01 05:28:52.104490275,-0.24716187,0.68525696,-0.32962036,10.206917066523355,0.7995721811924601,86.54736328125,-10.575554847717285,150.3126678466797,19235221.0,50354.0,0.21141442367810004,-0.10524873489250007,-0.009339346715218882,0.009564454526937837,-0.006936754181527033,-0.0005143693050513774,19.23522137799955
1604,C,19732154844279.0,4.1613617,10.038071,1.7852522400576145,23,1970-01-01 05:28:52.154844279,-0.5621643,-0.042236328,-0.327713,10.978414990103186,0.6520800702110235,86.39275360107422,-10.850829124450684,150.33319091796875,19285575.0,50354.0,0.23101288277480003,-0.017042789663000043,0.04273381689348112,0.011138992294564666,-0.0030789337137338267,0.0008407725756781085,19.28557538200039
1604,C,19732205198283.0,2.5361786,14.88916,2.3875776400576143,23,1970-01-01 05:28:52.205198283,-1.103241,0.5813751,0.79829407,15.258172772112347,1.4806792809984797,86.21443176269531,-10.857568740844727,150.38735961914062,19335929.0,50354.0,0.16862397213310001,0.134123694887,0.10505933789166112,0.0100616570960162,0.0029477459508246468,0.0037209882580255265,19.335929386001226
1604,C,19732255552287.0,1.945816,19.086853,1.2682844400576145,23,1970-01-01 05:28:52.255552287,-0.87094116,0.5135498,2.1979065,19.214323624253886,2.41931082831546,86.18093872070312,-10.839568138122559,150.41773986816406,19386283.0,50354.0,0.11284317804420001,0.36194487930100006,0.09204363959106113,0.007086498440013883,0.012489518492331278,0.004962461664082499,19.386283390002063
1604,C,19732305906291.0,1.0656586,15.123962,2.2203261400576144,23,1970-01-01 05:28:52.305906291,-0.017333984,0.4631195,1.113617,15.292670357864099,1.2062018740536604,86.08087158203125,-10.72342300415039,150.46263122558594,19436637.0,50354.0,0.0758198960042,0.367856489255,0.08783274857556113,0.004749970215316567,0.018374209056134416,0.00452874782487105,19.436637393999263
1604,C,19732356260295.0,-2.949768,10.207092,0.6192061100576145,23,1970-01-01 05:28:52.356260295,0.14399719,0.628479,0.7664795,10.63222220779202,1.001604646599219,86.12295532226562,-10.113114356994629,150.48973083496094,19486991.0,50354.0,-0.04743622236380001,0.14429074655799998,0.07149090346115113,0.0007146157512443505,0.0128943309560639,0.004011291587328305,19.4869913980001
1604,C,19732406614299.0,-1.754303,5.8451843,0.29629961005761446,23,1970-01-01 05:28:52.406614299,0.2733612,0.35943604,0.16021729,6.103226703528213,0.47915570802325386,86.20966339111328,-9.47403335571289,150.4955596923828,19537345.0,50354.0,-0.118434395567,-0.08932103959490006,0.023049687515341123,-0.004176124547643752,0.0013839723122099667,0.0023802484590151455,19.537345402000938
1604,C,19732456968302.0,0.05064392,3.6292725,0.33252398005761447,23,1970-01-01 05:28:52.456968302,0.4058838,0.6633148,-0.55255127,3.6313280885350343,0.9539607376512373,86.27635955810547,-9.228392601013184,150.51890563964844,19587699.0,50354.0,-0.04289302465716,-0.2549308011464001,0.01583189152833112,-0.004061740458983676,-0.008667228594343714,0.000978921515582536,19.58769940500133
1604,C,19732507322306.0,3.840805,6.8408813,0.8304335400576145,23,1970-01-01 05:28:52.507322306,0.8505554,0.30741882,-1.0872345,7.868953212960204,1.4142240548617473,86.28675079345703,-9.662806510925293,150.53567504882812,19638053.0,50354.0,0.09797500945884001,-0.22986213777740006,0.02927978148394112,0.0013867991313518976,-0.012205631823284517,0.0011357765914299784,19.63805340900217
1604,C,19732557676310.0,6.0559235,11.403717,4.7816511400576145,23,1970-01-01 05:28:52.557676310,0.6705475,0.13923645,0.2340393,13.693623755951839,0.7237369223062634,85.91393280029297,-10.093280792236328,150.6128692626953,19688407.0,50354.0,0.2491699334445,-0.03412494860090004,0.14129545599126114,0.008740068227477393,-0.0066464028737464615,0.004294572753913167,19.688407412999368
1604,C,19732608030314.0,0.046951294,14.451523,2.573414440057615,23,1970-01-01 05:28:52.608030314,0.0066833496,0.52557373,0.5648651,14.64175317070648,0.7715860250328531,85.77859497070312,-9.874032020568848,150.66416931152344,19738761.0,50354.0,0.153652078688538,0.15748817747999994,0.18517848611056115,0.0101418497994735,0.003105916013489098,0.00821963444029758,19.738761417000205
1604,C,19732658384318.0,3.8193817,17.374878,-0.6946519299423856,23,1970-01-01 05:28:52.658384318,0.5424347,0.19863892,-0.043518066,17.813284895353213,0.579298408742193,85.98300170898438,-9.935664176940918,150.6432647705078,19789115.0,50354.0,0.097342665789938,0.307824097977,0.047301603717171126,0.006319294681734591,0.011715167159180888,0.005853151221592816,19.789115421001043
1604,C,19732708738322.0,1.9884338,9.624664,-3.2400620599423853,23,1970-01-01 05:28:52.708738322,0.782959,-0.46237183,0.6968689,10.419663561717751,1.1456171998733953,86.60191345214844,-10.018668174743652,150.52247619628906,19839469.0,50354.0,0.1462233708435,0.18629826893399992,-0.09906429412332889,0.006132262104320069,0.012440518831718246,-0.001303229256355834,19.83946942500188
1604,C,19732759092326.0,-0.09954834,16.797577,-3.0921281599423853,23,1970-01-01 05:28:52.759092326,-1.5660553,-0.013061523,-0.50968933,17.121554547460732,1.6469617540055441,86.88929748535156,-9.743717193603516,150.45741271972656,19889823.0,50354.0,0.047556469226420005,0.17176356165699996,-0.15942555316603887,0.004878795033440376,0.009014922708789605,-0.0065079988852044125,19.88982342899908
1604,C,19732809446330.0,1.6834412,9.7547455,-5.854762559942386,23,1970-01-01 05:28:52.809446330,-0.117263794,0.83477783,-0.4373932,11.614997155744323,0.9496934422480885,87.70184326171875,-9.727126121520996,150.35891723632812,19940177.0,50354.0,0.03987767053622001,0.17503862358249994,-0.22525586765453887,0.0022013293368039876,0.00873143861777489,-0.009685124131999687,19.940177432999917
1604,C,19732859800334.0,2.1763458,9.303818,-2.6186021599423857,23,1970-01-01 05:28:52.859800334,0.6297455,-0.8808136,-0.34979248,9.96809058088569,1.1378781884629656,88.209228515625,-9.796175003051758,150.23416137695312,19990531.0,50354.0,0.097177857299,-0.013631746760500036,-0.2133339035525389,0.0034506470243073346,0.004063740937747492,-0.011042374669680598,19.990531437000755
1604,C,19732910154338.0,2.2849274,9.080429,-1.0040238599423856,23,1970-01-01 05:28:52.910154338,1.4950104,-0.47940063,-0.51449585,9.443337403742337,1.6521461920241136,88.52056121826172,-9.879323959350586,150.1692657470703,20040885.0,50354.0,0.11232147535640001,-0.030609013281000033,-0.0912068553026389,0.005274564698265006,-0.0011138496155648474,-0.007667422685696812,20.040885441001592
1604,C,19732960508342.0,1.7892761,8.6922455,-0.8990586599423855,23,1970-01-01 05:28:52.960508342,1.0261383,-0.9005127,-0.25291443,8.94494007045502,1.3884698925401318,88.79832458496094,-9.911978721618652,150.08567810058594,20091239.0,50354.0,0.1025762215195,-0.046006574113500016,-0.047913908603138884,0.005410479314244534,-0.0019289506438313281,-0.0035026434728557677,20.09123944500243
1604,C,19733010862345.0,2.3564606,10.107346,-0.07950909994238553,23,1970-01-01 05:28:53.010862345,-0.16023254,-0.81378174,-0.31748962,10.382767693753108,0.8880961918846537,88.86932373046875,-9.977344512939453,150.03163146972656,20141593.0,50354.0,0.10437721289590002,-0.020151884804500038,-0.024637400490618883,0.005210466618276527,-0.0016656715201784874,-0.0018266243090535393,20.141593447999185
1604,C,19733061216349.0,4.065735,8.2061615,-0.5030473099423856,23,1970-01-01 05:28:53.061216349,-0.38917542,-0.5140381,-0.54467773,9.186731565520207,0.8440180716914415,88.99502563476562,-10.353653907775879,149.98023986816406,20191947.0,50354.0,0.16169161862120002,-0.03239002167250004,-0.014667022731668882,0.006698814971106028,-0.001322847579371431,-0.000989567463467539,20.191947452000022
1604,C,19733111570353.0,2.9017944,7.498657,-0.8091843599423856,23,1970-01-01 05:28:53.111570353,-0.65049744,0.19677734,-0.37878418,8.106310220772222,0.7780396493767535,89.16959381103516,-10.601375579833984,149.95199584960938,20242301.0,50354.0,0.1754214877038,-0.09806898462550004,-0.03303805675268889,0.008487496677944526,-0.0032845664015647485,-0.0012010707861776755,20.24230145600086
1604,C,19733161924357.0,1.0624542,9.29599,-1.6198838599423855,23,1970-01-01 05:28:53.161924357,-0.75816345,0.17004395,0.19017029,9.5359517296262,0.7999321852795955,89.43193054199219,-10.511392593383789,149.9054412841797,20292655.0,50354.0,0.0998078870022,-0.07063037248100006,-0.06115665057203888,0.0069294499669729625,-0.004247343713870352,-0.002371540146314671,20.292655460001697
1604,C,19733212278361.0,0.6472473,15.5767975,1.4218794400576145,23,1970-01-01 05:28:53.212278361,-0.8616333,-0.58203125,1.3834534,15.636394216868688,1.7306402369114768,89.29666900634766,-10.378658294677734,149.89418029785156,20343009.0,50354.0,0.043045154665500004,0.13275297088749996,-0.0049851572794388805,0.0035966110300676836,0.0015640606600804481,-0.0016652522962766556,20.343009464002535
1604,C,19733262632365.0,-0.22825623,14.346466,1.2462202400576146,23,1970-01-01 05:28:53.262632365,-3.1966553,-0.86528015,1.8296814,14.384837496549101,3.7835233408171374,89.05867767333984,-10.190800666809082,149.86642456054688,20393363.0,50354.0,0.01054893816939,0.2599088051395,0.06717474564626112,0.0013493384753040256,0.009886045535031777,0.0015657472663114836,20.393363467999734
1604,C,19733312986369.0,-1.34758,8.830536,-1.4620164599423855,23,1970-01-01 05:28:53.312986369,-1.6170349,0.33569336,0.9853821,9.08999754071738,1.9231406040033863,89.26712799072266,-9.785338401794434,149.83328247070312,20443717.0,50354.0,-0.03967482876271,0.09005817935399997,-0.005433101428038878,-0.0007333025474680178,0.008811118768592849,0.0015544693764821815,20.44371747200057
1604,C,19733363340373.0,1.9685822,8.754456,1.3776747400576144,23,1970-01-01 05:28:53.363340373,-0.6239624,-1.2537384,0.24737549,9.04725959869421,1.4221053706744309,89.07893371582031,-9.86975383758545,149.79849243164062,20494071.0,50354.0,0.0156349723894,-0.050731856416000046,-0.0021234714815388826,-0.000605251463910826,0.0009901188326100242,-0.00019025183614443928,20.49407147600141
1604,C,19733413694377.0,0.6540375,3.8225098,0.9291578900576144,23,1970-01-01 05:28:53.413694377,0.040908813,-0.5576782,0.17955017,3.9421238488930803,0.5872961512587478,88.84745025634766,-9.874529838562012,149.8112030029297,20544425.0,50354.0,0.06602969618690001,-0.17681893205340005,0.05807912512841112,0.002056071360745505,-0.005729046201294086,0.0014087954918673023,20.544425480002246
1604,C,19733464048381.0,1.6563568,5.3218536,1.1047255400576144,23,1970-01-01 05:28:53.464048381,0.6236725,0.071777344,-0.3846283,5.643225911616831,0.7362460889735404,88.67802429199219,-10.03699016571045,149.8489990234375,20594779.0,50354.0,0.058168797291100006,-0.26324156267820004,0.05120708312001111,0.0031269454702956066,-0.011079403075857495,0.0027514988650705263,20.594779483999446
1604,C,19733514402385.0,1.4720917,2.1296082,0.28268877205761445,23,1970-01-01 05:28:53.514402385,0.9625244,-0.009246826,-1.0144501,2.589603771824176,1.398444753923602,88.71961212158203,-10.582709312438965,149.84832763671875,20645133.0,50354.0,0.0787649478845,-0.30586374626140006,0.034930930136125124,0.0034475809022860814,-0.014328364363172313,0.002168696759749742,20.645133488000283
1604,C,19733564756388.0,1.9583893,8.382294,1.1151167400576143,23,1970-01-01 05:28:53.564756388,1.5883942,0.86605835,-0.4035797,8.65430315663112,1.8536261150648619,88.6720962524414,-10.624822616577148,149.91375732421875,20695487.0,50354.0,0.08636922013700002,-0.22881103831060007,0.03519254937852512,0.0041575829482773064,-0.013461507051169249,0.0017654988437403492,20.695487491000677
1604,C,19733615110392.0,2.973526,6.593704,0.9469038400576144,23,1970-01-01 05:28:53.615110392,1.7706757,-0.4008026,-0.047607422,7.269471779349663,1.816095158676091,88.64959716796875,-10.9586763381958,149.91456604003906,20745841.0,50354.0,0.1241708315081,-0.11641849835400005,0.05191549214556112,0.005300766880268684,-0.008691844044604637,0.0021931191614519194,20.745841495001514
1604,C,19733665464396.0,0.26359558,6.921692,1.7157484400576144,23,1970-01-01 05:28:53.665464396,0.5082245,-0.2887268,0.2576294,7.086080308087084,0.6387708628161196,88.40386199951172,-10.75686264038086,149.95181274414062,20796195.0,50354.0,0.08150101001966001,-0.15319207490800005,0.06703759645646112,0.005178199954144414,-0.006787985403017377,0.0029948819117331144,20.79619549900235
1604,C,19733715818400.0,1.3592682,11.224213,1.2128492900576144,23,1970-01-01 05:28:53.715818400,-0.1368103,-0.06591797,-0.36766052,11.349609748553075,0.3977895108241057,88.31061553955078,-10.642166137695312,149.96409606933594,20846549.0,50354.0,0.040858841389060006,-0.036609749815000016,0.07373330505111111,0.0030806539789173444,-0.004778640541050973,0.0035441889872561464,20.84654950299955
1604,C,19733766172404.0,5.561676,16.902435,1.0666243400576145,23,1970-01-01 05:28:53.766172404,0.37184143,-0.34472656,0.102508545,17.814012467867027,0.5173107886289396,88.30408477783203,-10.8360595703125,149.95196533203125,20896903.0,50354.0,0.1742486121234,0.21467541669599996,0.05739030758541112,0.005415760357083206,0.004483159295062936,0.00330129919534972,20.89690350700039
1604,C,19733816526408.0,14.910248,18.01622,-4.406642259942386,23,1970-01-01 05:28:53.816526408,-0.83610535,-0.08061218,0.3732605,23.83942063954555,0.919181092453073,88.57929229736328,-11.532709121704102,149.88731384277344,20947257.0,50354.0,0.515421630548,0.385677776935,-0.08409163116893889,0.017363827699737842,0.015115092356047686,-0.0006722592238624788,20.947257511001226
1604,C,19733866880412.0,-0.7047882,9.535782,-4.529658559942386,23,1970-01-01 05:28:53.866880412,-2.1664429,4.454239,1.1002808,10.67707508039689,5.073887833499087,89.10789489746094,-11.237434387207031,149.9807891845703,20997611.0,50354.0,0.3576508613846,0.20020755435399992,-0.22498924574223889,0.021981346129387073,0.01475083498586315,-0.007781729237992724,20.997611515002063
1604,C,19733917234416.0,4.4309235,7.9171753,-0.042262399942385565,23,1970-01-01 05:28:53.917234416,0.88204956,-1.3284149,-0.6556549,9.076576362745364,1.7241174324077273,89.2279281616211,-11.648127555847168,149.8999481201172,21047965.0,50354.0,0.0938129084481,-0.05405609405790005,-0.11510725400701892,0.011366503333077888,0.003679655315874907,-0.008562609574187065,21.047965518999263
1604,C,19733967588420.0,1.6622314,8.546646,-2.3042252599423856,23,1970-01-01 05:28:53.967588420,0.40394592,0.9176941,-0.52479553,9.065687706434282,1.13170009974703,89.6646728515625,-11.606816291809082,149.86058044433594,21098319.0,50354.0,0.1534073609173,-0.07895957112990001,-0.05907751981291889,0.006224264721812677,-0.0033489354024332425,-0.004385450050464574,21.0983195230001
1604,C,19734017942424.0,1.987503,6.382675,-0.15348370994238553,23,1970-01-01 05:28:54.017942424,0.32322693,0.0024871826,-0.23094177,6.695461707104867,0.3972605385452267,89.77088928222656,-11.737130165100098,149.8424072265625,21148673.0,50354.0,0.0918893629888,-0.11759368518300002,-0.061877738734788884,0.006175835617783881,-0.004948621334189885,-0.003045290544455639,21.148673527000938
1604,C,19734068296427.0,1.2954407,2.1271057,0.6604353400576144,23,1970-01-01 05:28:54.068296427,0.2375946,0.16571045,-0.072280884,2.528940998113754,0.2985559803122087,89.53150177001953,-12.206473350524902,149.90257263183594,21199027.0,50354.0,0.0826546735349,-0.27921845131610007,0.012763521191411116,0.0043944952075571945,-0.009990539160637843,-0.0012365486550896222,21.19902753000133
1604,C,19734118650431.0,-1.3363647,6.586685,0.7134596400576145,23,1970-01-01 05:28:54.118650431,-0.64494324,0.72328186,-0.44761658,6.738877008359518,1.0674497807942318,89.39661407470703,-11.609917640686035,149.95875549316406,21249381.0,50354.0,-0.0010303435480000047,-0.2740820915461,0.03459055391436112,0.002055055756080181,-0.013930447767641612,0.0011922335489380276,21.24938153400217
1604,C,19734169004435.0,3.1628876,14.665405,2.1261946400576144,23,1970-01-01 05:28:54.169004435,-0.84443665,0.013519287,-0.5383911,15.12304204946588,1.0015592860851628,89.18507385253906,-11.596465110778809,149.99317932128906,21299735.0,50354.0,0.0459863670533,0.04159466992999994,0.07149397581046113,0.001131857803792938,-0.005853335814028552,0.0026708902048818497,21.299735537999368
1604,C,19734219358439.0,3.109787,14.761459,5.557728440057614,23,1970-01-01 05:28:54.219358439,-2.4077759,-0.1819458,1.6956024,16.0015123815985,2.950518015136361,88.59774017333984,-11.686664581298828,150.07977294921875,21350089.0,50354.0,0.1579271284042,0.24741095492799994,0.19345813138806112,0.005133930075133478,0.007276294617049863,0.006670699202937195,21.350089542000205
1604,C,19734269712443.0,0.18434143,16.60173,-0.2806809599423855,23,1970-01-01 05:28:54.269712443,-2.2457123,-0.17048645,1.9737549,16.610341786795924,2.994661545029572,88.56666564941406,-11.511414527893066,150.0572967529297,21400443.0,50354.0,0.08293627148211,0.296161809453,0.13286022440686113,0.006064217818937627,0.013685531488820438,0.008215717243848758,21.400443546001043
1604,C,19734320066447.0,4.4553375,8.879959,0.6582686100576145,23,1970-01-01 05:28:54.320066447,-0.6759491,-0.81814575,0.7243805,9.944576577991647,1.2849111886874216,88.5095443725586,-11.922001838684082,150.02296447753906,21450797.0,50354.0,0.11681319642061,0.14808328395299997,0.009506524266951122,0.005029092353386781,0.011184758716682862,0.0035843676313605712,21.45079755000188
1604,C,19734370420451.0,0.9378052,6.047226,2.9190870400576143,23,1970-01-01 05:28:54.370420451,0.053222656,0.108047485,-0.6350403,6.687766027766895,0.6463614257910272,87.95555877685547,-11.815507888793945,150.14193725585938,21501151.0,50354.0,0.13578315375789998,-0.11764746325500006,0.09006708320295112,0.0063596183084443465,0.0007662826577135437,0.002506964715269729,21.50115155399908
1604,C,19734420774455.0,-0.5291748,4.4792786,-0.6686356899423855,23,1970-01-01 05:28:54.420774455,0.9873047,0.031829834,-1.296875,4.597394316025639,1.6302357113618746,88.33837890625,-11.305496215820312,150.07461547851562,21551505.0,50354.0,0.010288087580800001,-0.22844339368580008,0.05665961364185112,0.0036776356431844496,-0.008713529505198525,0.0036941380464615863,21.551505557999917
1604,C,19734471128459.0,2.516983,4.022217,1.3930403400576143,23,1970-01-01 05:28:54.471128459,1.5133362,0.30693054,-1.8863068,4.887360732123589,2.437733815317286,88.09590148925781,-11.701029777526855,150.15017700195312,21601859.0,50354.0,0.050047047051400013,-0.2794270452788,0.018238335875951115,0.0015190576846348999,-0.012786654041811736,0.001885705675009707,21.601859562000755
1604,C,19734521482463.0,2.27063,5.8025665,1.2846266400576145,23,1970-01-01 05:28:54.521482463,2.172989,1.0779419,-1.3486023,6.321083697786124,2.775350085567927,87.99237823486328,-11.867465019226074,150.243896484375,21652213.0,50354.0,0.12053773250100001,-0.24611062582050003,0.06741562155836112,0.004294812994790776,-0.013231461945267078,0.002156509686323679,21.652213566001592
1604,C,19734571836467.0,1.8746185,8.999054,1.2519423400576144,23,1970-01-01 05:28:54.571836467,1.4376526,0.026885986,-0.046661377,9.249826549842728,1.4386608838199113,87.9509048461914,-11.861610412597656,150.26844787597656,21702567.0,50354.0,0.10436492148450001,-0.12080880067150006,0.06386319721236113,0.005662374119392934,-0.009237930400789088,0.003305206820190474,21.70256757000243
1604,C,19734622190470.0,0.8831177,9.775452,3.8200728400576143,23,1970-01-01 05:28:54.622190470,0.22869873,-0.7612152,0.68284607,10.454194181452372,1.047869479052185,87.51566314697266,-11.736546516418457,150.32376098632812,21752921.0,50354.0,0.0694315243074,-0.020783462438000066,0.12769812618976112,0.004375673115702667,-0.003564868408307885,0.004822939439295231,21.752921572999185
1604,C,19734672544474.0,3.4473572,7.762909,0.6538893400576145,23,1970-01-01 05:28:54.672544474,-0.17678833,-0.33714294,-0.094680786,8.50494676272848,0.3922804186466746,87.49392700195312,-12.034672737121582,150.30975341796875,21803275.0,50354.0,0.1090283665573,-0.05190588510300006,0.11264094580876112,0.004493084672300552,-0.00183009970303976,0.006051016815706794,21.803275577000022
1604,C,19734722898478.0,4.4298706,12.661301,-1.6684983599423855,23,1970-01-01 05:28:54.722898478,0.17553711,-0.72406006,0.1504364,13.546358088904029,0.7600706269283899,87.77457427978516,-12.224615097045898,150.21754455566406,21853629.0,50354.0,0.1983249643206,0.02075113516999993,-0.02554481129363888,0.007738234811512889,-0.0007843831390631443,0.002192819378687233,21.85362958100086
1604,C,19734773252482.0,8.614105,18.838104,-5.624186859942386,23,1970-01-01 05:28:54.773252482,0.36947632,-0.77394104,0.43603516,21.52317937037619,0.9620936260017783,88.2494888305664,-12.545572280883789,150.0826416015625,21903983.0,50354.0,0.3284081736812,0.29959131968499997,-0.1836079357810389,0.01326156021547132,0.008065261985884333,-0.005265838713099163,21.903983585001697
1604,C,19734823606486.0,8.390823,18.82927,-6.237284959942386,23,1970-01-01 05:28:54.823606486,-0.7243805,-0.656662,0.6960144,21.602343964158717,1.2001533802108837,88.69857788085938,-12.855693817138672,149.94505310058594,21954337.0,50354.0,0.428133072256,0.45488227519800006,-0.2986362760092389,0.01904743894896089,0.01899538169836929,-0.012141462520243826,21.954337589002535
1604,C,19734873960490.0,4.530075,16.126328,-2.6678727599423855,23,1970-01-01 05:28:54.873960490,-0.45401,-0.23800659,0.04638672,16.99787143767532,0.5147076303842664,88.95999908447266,-12.929240226745605,149.8701171875,22004691.0,50354.0,0.325309448946,0.38660789084600006,-0.2242051559135389,0.018969422356302754,0.021186197910489795,-0.01316357873151978,22.004691592999734
1604,C,19734924314494.0,3.2376099,7.520813,-2.0820420599423857,23,1970-01-01 05:28:54.924314494,0.3771057,0.36724854,-0.96144104,8.5059011186962,1.096106323538416,89.39665222167969,-13.130188941955566,149.7929229736328,22055045.0,50354.0,0.19556700272730002,0.101894868957,-0.11958860542023889,0.013114106423778674,0.012299033983560134,-0.008655695529100525,22.05504559700057
1604,C,19734974668498.0,1.92099,5.5785065,-1.1777146599423856,23,1970-01-01 05:28:54.974668498,0.3895111,0.49447632,-0.64733887,6.063605767892884,0.9029248809711854,89.76417541503906,-13.240768432617188,149.73727416992188,22105399.0,50354.0,0.1298780696823,-0.16366763294850004,-0.0820708949365389,0.0081937305880565,-0.0015552528790139964,-0.005077181240482594,22.10539960100141
1604,C,19735025022502.0,1.4629517,8.268494,0.7040297100576145,23,1970-01-01 05:28:55.025022502,0.115112305,0.067840576,-0.1187439,8.410778912382474,0.1787548609175001,89.69068145751953,-13.154723167419434,149.75865173339844,22155753.0,50354.0,0.08519750018090001,-0.14484326841150005,-0.011925965983248882,0.005414957622445787,-0.007767378963540723,-0.002366558967377497,22.155753605002246
1604,C,19735075376506.0,1.8404846,7.815323,0.35484759005761446,23,1970-01-01 05:28:55.075376506,-0.6229553,0.40704346,-0.14715576,8.030222859934641,0.7585594912912494,89.63806915283203,-13.149637222290039,149.78330993652344,22206107.0,50354.0,0.08317061572510001,-0.08852693939100002,0.02665935378500112,0.004239004054165363,-0.005875561721843545,0.00037094250468471614,22.206107608999446
1604,C,19735125730510.0,2.2460938,7.762512,-0.4650071599423855,23,1970-01-01 05:28:55.125730510,-0.80599976,1.1401367,-0.28871155,8.110031684167073,1.4257986067149702,89.71784210205078,-13.209444999694824,149.81137084960938,22256461.0,50354.0,0.10288778437680002,-0.10126604820500003,-0.002773487490988881,0.004684392339365537,-0.004778418048704494,0.0006013744556843462,22.256461613000283
1604,C,19735176084513.0,3.6020966,7.2817993,-1.2983201599423855,23,1970-01-01 05:28:55.176084513,-0.50538635,0.85321045,-0.13412476,8.264931555375279,1.0006862075598837,89.9596939086914,-13.52216625213623,149.7911834716797,22306815.0,50354.0,0.14723988970080001,-0.11469857439990003,-0.04439529193273888,0.006297464450251737,-0.0054373413033235694,-0.001187568359551194,22.306815616000677
1604,C,19735226438517.0,4.297928,8.0894165,-0.6628983599423856,23,1970-01-01 05:28:55.226438517,-0.26464844,-1.102478,0.26507568,9.202865684501024,1.1643717848719524,90.10259246826172,-13.891382217407227,149.70065307617188,22357169.0,50354.0,0.1988989193542,-0.10646809980340002,-0.04937759867513888,0.008714736795577736,-0.005568313356416486,-0.0023609200668345386,22.357169620001514
1604,C,19735276792521.0,4.011307,10.887497,3.6330458400576147,23,1970-01-01 05:28:55.276792521,-1.1607513,-0.50027466,1.0870972,12.094124768763747,1.6671528538612306,89.63178253173828,-14.097174644470215,149.77618408203125,22407523.0,50354.0,0.20920160959500003,-0.01568744881050003,0.07477940310686113,0.01027474701735401,-0.003075510247452162,0.000639541230177471,22.40752362400235
1604,C,19735327146525.0,-1.194046,17.024597,4.421971040057614,23,1970-01-01 05:28:55.327146525,-1.7041473,-0.3378601,2.6045685,17.575775348193197,3.130821703396977,89.20731353759766,-13.794417381286621,149.84217834472656,22457877.0,50354.0,0.07093018019700001,0.20927359063799997,0.20280115999066112,0.007052878071593186,0.0048739182927909665,0.006988645837106317,22.45787762799955
1604,C,19735377500529.0,3.3586273,15.623413,1.3930708400576144,23,1970-01-01 05:28:55.377500529,-0.45681763,-0.59506226,1.0515594,16.023243881671902,1.2917269882151896,89.10365295410156,-13.8056640625,149.83326721191406,22508231.0,50354.0,0.0544976633901,0.32850974776999997,0.14640530941566113,0.003157896817992417,0.013539771111098216,0.008791971280242976,22.50823163200039
1604,C,19735427854533.0,1.0494995,8.138382,3.4447676400576146,23,1970-01-01 05:28:55.427854533,-0.070007324,0.14425659,0.15682983,8.81618637038447,0.2242912944139785,88.58075714111328,-13.6609525680542,149.9636993408203,22558585.0,50354.0,0.1109834084436,0.10478151271499996,0.12180225941386112,0.004166316945557066,0.010908974065230843,0.006752661960420882,22.558585636001226
1604,C,19735478208537.0,-1.7744446,5.8316193,1.3889662400576144,23,1970-01-01 05:28:55.478208537,0.19128418,-0.120773315,-0.21168518,6.206429619795788,0.30981679516448757,88.34959411621094,-12.933145523071289,150.01300048828125,22608939.0,50354.0,-0.018251942782700002,-0.14174647726990006,0.12169891789966113,0.002334700110944479,-0.0009306669125987199,0.00613062914122255,22.608939640002063
1604,C,19735528562541.0,0.70492554,5.104538,2.9446760400576144,23,1970-01-01 05:28:55.528562541,0.6873474,-0.07312012,-1.0386658,5.828356666103238,1.247645640526674,87.73621368408203,-12.76449203491211,150.15206909179688,22659293.0,50354.0,-0.026927281373620007,-0.21812956765790006,0.10910811168646113,-0.001137477326583669,-0.009060599183147224,0.0058110285838898,22.659293643999263
1604,C,19735578916545.0,3.764801,5.4568787,1.9126021400576145,23,1970-01-01 05:28:55.578916545,0.85427856,1.3698578,-2.077301,6.841899648042083,2.6308709004619577,87.44712829589844,-13.171062469482422,150.28912353515625,22709647.0,50354.0,0.11253430509758,-0.22756441174410008,0.12229169274076111,0.002155328036298141,-0.01122123731940416,0.005825952876064175,22.7096476480001
1604,C,19735629270549.0,3.0118103,3.6349945,-2.106196759942385,23,1970-01-01 05:28:55.629270549,1.2423706,1.2131653,-0.89442444,5.263235977633853,1.9532664518026628,88.19197082519531,-13.702381134033203,150.187255859375,22760001.0,50354.0,0.17061474270010002,-0.26456310844360004,-0.004874131744838871,0.00712884357640219,-0.012390294575765726,0.0029562219331943345,22.760001652000938
1604,C,19735679624552.0,2.9603424,8.294098,0.8101698400576145,23,1970-01-01 05:28:55.679624552,1.4319916,-0.35081482,0.24671936,8.826233590832485,1.4948382598130816,88.21317291259766,-13.862618446350098,150.18252563476562,22810355.0,50354.0,0.15036088852790003,-0.19313043812750005,-0.03263006976193887,0.008081203467427358,-0.011523350422020587,-0.0009442432813361434,22.81035565500133
1604,C,19735729978556.0,0.97265625,9.959976,2.1508375400576147,23,1970-01-01 05:28:55.729978556,1.8491821,-1.2115173,0.5932007,10.191668670451314,2.2889158301781634,88.0861587524414,-13.689624786376953,150.17703247070312,22860709.0,50354.0,0.09902110701105,-0.03388637890200006,0.07454928280916114,0.006278690501684145,-0.005715602402351724,0.001055400026889915,22.86070965900217
1604,C,19735780332560.0,1.4996643,7.310898,0.8416334700576145,23,1970-01-01 05:28:55.780332560,-0.40559387,0.6500397,-0.26460266,7.488856795101679,0.8106001274591206,87.984130859375,-13.622271537780762,150.22744750976562,22911063.0,50354.0,0.062245614487350005,-0.05864040530200006,0.07534144262167113,0.004060212247165218,-0.002329546845904111,0.003773798794172064,22.911063662999368
1604,C,19735830686564.0,2.7738953,6.7534943,0.2951094300576145,23,1970-01-01 05:28:55.830686564,0.09335327,-0.27526855,-0.05607605,7.3013437858479415,0.29602724709458406,88.02529907226562,-13.836857795715332,150.205322265625,22961417.0,50354.0,0.10759541004920002,-0.13936999506290004,0.02861977599620112,0.0042760874747567205,-0.004985307849987091,0.00261743160114217,22.961417667000205
1604,C,19735881040568.0,2.6841736,17.770676,0.33530108005761444,23,1970-01-01 05:28:55.881040568,0.52659607,-1.092102,0.47169495,17.972609677397326,1.3009559274621671,88.10570526123047,-13.731389999389648,150.1402587890625,23011771.0,50354.0,0.1374178006953,0.12397583564310001,0.015871845413171118,0.0061686976069142765,-0.00038757875171230543,0.001120165552223765,23.011771671001043
1604,C,19735931394572.0,9.135742,7.2074127,12.602451940057614,23,1970-01-01 05:28:55.931394572,-1.1205444,-4.4563293,0.17311096,16.991183113497353,4.598310340427446,87.04933166503906,-14.342974662780762,150.16714477539062,23062125.0,50354.0,0.29759001506120003,0.1354041391999,0.32573380778744115,0.010952191777301402,0.006530409626622212,0.008600605530631815,23.06212567500188
1604,C,19735981748576.0,10.095657,18.502167,-3.7903703599423855,23,1970-01-01 05:28:55.981748576,-1.0022583,-2.230606,1.8910522,21.45568366861824,3.09131092746746,87.36927032470703,-14.793420791625977,149.97105407714844,23112479.0,50354.0,0.484188932623,0.15382088810689995,0.22186177794256115,0.019682848565845106,0.007281818512503303,0.01378681406192427,23.11247967899908
1604,C,19736032102580.0,5.947876,13.42749,3.0809828400576142,23,1970-01-01 05:28:56.032102580,0.73939514,-0.78930664,-0.9819946,14.96169193350603,1.4608297434789823,87.19532012939453,-14.965621948242188,149.98486328125,23162833.0,50354.0,0.403928030341,0.31042377428900003,-0.017860249588138886,0.022360120776544628,0.011688287865141575,0.005136146479379289,23.162833682999917
1604,C,19736082456584.0,1.2262573,8.69043,-1.7008775599423855,23,1970-01-01 05:28:56.082456584,-0.13174438,0.3336029,-0.48745728,8.984555267000102,0.6051958991723199,87.57129669189453,-14.775583267211914,149.90162658691406,23213187.0,50354.0,0.1806231540941,0.06339367183999996,0.03474691063746112,0.014717245170522513,0.009411601841189833,0.00042515546523878584,23.213187687000755
1604,C,19736132810588.0,1.79599,6.489151,0.5255781800576145,23,1970-01-01 05:28:56.132810588,0.41397095,0.40774536,-0.5987549,6.739971551542444,0.8343474434067872,87.58060455322266,-14.76177978515625,149.92300415039062,23263541.0,50354.0,0.07609112027210001,-0.11129288916300006,-0.029590512487358882,0.006463295285717818,-0.0012059585945411737,0.000129822636225124,23.263541691001592
1604,C,19736183164592.0,3.3479156,7.4833374,0.9635969800576144,23,1970-01-01 05:28:56.183164592,-0.3824005,-0.06666565,-0.23925781,8.231634734491944,0.455981086160565,87.48580169677734,-14.980408668518066,149.93873596191406,23313895.0,50354.0,0.12950811129120002,-0.14168385955320006,0.037492963006221125,0.005176371853069205,-0.006369195602427771,0.0001989599967133947,23.31389569500243
1604,C,19736233518595.0,2.0279999,6.9079285,0.31132952005761444,23,1970-01-01 05:28:56.233518595,-0.7657776,0.49131775,-0.17576599,7.200024746504016,0.9266618301017381,87.48493957519531,-15.005197525024414,149.95240783691406,23364249.0,50354.0,0.1353494245435,-0.13114029843570005,0.03209882449340112,0.006668318179710243,-0.006868893825686539,0.0017521124338779894,23.364249697999185
1604,C,19736283872599.0,-0.20481873,5.25473,-0.9859269599423857,23,1970-01-01 05:28:56.283872599,-0.5924835,1.1750336,-0.26089478,5.395521474010087,1.3415687627298343,87.83409881591797,-14.579760551452637,149.91172790527344,23414603.0,50354.0,0.04590223231709001,-0.18724994694550004,-0.016984339743978883,0.004563372964779075,-0.008016111207962475,0.0003805373825362036,23.414603702000022
1604,C,19736334226603.0,2.1307678,7.7178955,-0.15140851994238558,23,1970-01-01 05:28:56.334226603,-0.65864563,-1.0345917,0.36088562,8.015299752203005,1.278449249031721,87.93712615966797,-14.62188720703125,149.82809448242188,23464957.0,50354.0,0.048489619735390004,-0.16685740778650004,-0.028634695377058886,0.0023765036591252894,-0.008915360870087565,-0.0011485504472423678,23.46495770600086
1604,C,19736384580607.0,5.641464,7.7168427,-2.0284531599423854,23,1970-01-01 05:28:56.384580607,-1.1846313,-1.408081,0.26617432,9.820253793013796,1.8592719510948774,88.27814483642578,-15.152471542358398,149.6579132080078,23515311.0,50354.0,0.1956814800286,-0.10486879633860004,-0.05488237751445888,0.006147495778757977,-0.006841250641257645,-0.002102709344189743,23.515311710001697
1604,C,19736434934611.0,6.268997,19.190002,-4.264582959942386,23,1970-01-01 05:28:56.434934611,-2.5946808,1.9167023,2.2508698,20.680427477968607,3.9335138257372337,88.4847640991211,-15.336382865905762,149.66539001464844,23565665.0,50354.0,0.29986967659700003,0.1839644290119,-0.1584397703903389,0.012476491470362732,0.001991390743815673,-0.005370811717799094,23.565665714002535
1604,C,19736485288615.0,-1.3816986,13.16362,1.9736220400576145,23,1970-01-01 05:28:56.485288615,-0.77093506,-0.51553345,1.5928955,13.35142109645632,1.843212326002177,88.29682159423828,-14.899001121520996,149.681396484375,23616019.0,50354.0,0.1230475118168,0.3210979410939999,-0.057679523079938885,0.010647786052694244,0.012715955292156243,-0.005441235451701184,23.616019717999734
1604,C,19736535642619.0,4.915756,8.876358,4.278507840057614,23,1970-01-01 05:28:56.535642619,0.35832214,-1.2181396,0.4501648,10.92771388684332,1.3471849124234503,87.81585693359375,-15.242623329162598,149.75286865234375,23666373.0,50354.0,0.0889769631598,0.06143132610599996,0.15740987399166112,0.005338140206485858,0.009630939360294397,0.0025109110449044307,23.66637372200057
1604,C,19736585996623.0,-0.35220337,5.8174133,0.40607134005761447,23,1970-01-01 05:28:56.585996623,0.21354675,0.785553,-0.5331726,5.830991962491516,0.9731231944801862,87.82572937011719,-14.755125045776367,149.79002380371094,23716727.0,50354.0,0.11489656456551,-0.12352411997990005,0.11794365001776112,0.00513292380754013,-0.0015633102713631826,0.006932575673985224,23.71672772600141
1604,C,19736636350627.0,-0.63412476,3.981186,1.0477492000576145,23,1970-01-01 05:28:56.636350627,0.73805237,-0.32958984,-1.2888947,4.1152028375244925,1.5213810539052774,87.6252670288086,-14.122384071350098,149.83111572265625,23767081.0,50354.0,-0.02483278332901,-0.24676986542390006,0.03660283973848112,0.002267535820191361,-0.009322891670511476,0.0038910169725929113,23.767081730002246
1604,C,19736686704631.0,4.819397,4.8769684,2.0956007400576144,23,1970-01-01 05:28:56.686704631,1.526535,0.6134949,-2.0547485,7.108039807307135,2.6322379255688992,87.34683990478516,-14.716622352600098,149.94467163085938,23817435.0,50354.0,0.10537259918648002,-0.2704474466712001,0.07914012144228112,0.002027750943843523,-0.013021980266618337,0.002914060533648051,23.817435733999446
1604,C,19736737058635.0,5.9376373,5.1083527,1.8509413400576145,23,1970-01-01 05:28:56.737058635,1.5533752,0.5431671,-1.145874,8.000398554677073,2.0052511649101343,87.15959167480469,-15.450652122497559,150.0367889404297,23867789.0,50354.0,0.27082985257110004,-0.24206877066530005,0.09936208995106113,0.009471649127900593,-0.012903620803881063,0.004494150176250178,23.867789738000283
1604,C,19736787412638.0,1.815445,5.6018524,1.6465193400576144,23,1970-01-01 05:28:56.787412638,1.1265717,-0.08027649,0.454422,6.0586882205323604,1.2174183603723125,86.93558502197266,-15.53026294708252,150.10885620117188,23918143.0,50354.0,0.19519935306709998,-0.22381836619730006,0.08805556754326112,0.011733217310352963,-0.011729640444789684,0.004718614362734552,23.918143741000677
1604,C,19736837766642.0,-0.54811096,8.181,-0.19134075994238553,23,1970-01-01 05:28:56.837766642,0.27215576,-0.48823547,0.2622223,8.20971978816992,0.6174165259244269,87.10912322998047,-15.071825981140137,150.0438995361328,23968497.0,50354.0,0.03190766912508,-0.14645832512520005,0.036637031111561115,0.005717873497732516,-0.009322456257426585,0.00313938555633246,23.968497745001514
1604,C,19736888120646.0,0.35560608,9.684357,0.6326796200576145,23,1970-01-01 05:28:56.888120646,0.2670288,-0.9733887,0.09880066,9.699609246109977,1.0141752864932005,87.14718627929688,-14.757701873779297,149.99087524414062,24018851.0,50354.0,-0.004846695363760001,-0.04367310681100005,0.011111588481121119,0.0006813141363887537,-0.0047869390618577095,0.0012021669954849607,24.01885174900235
1604,C,19736938474650.0,7.3716736,12.2942505,-5.217006059942386,23,1970-01-01 05:28:56.938474650,-0.11155701,-0.72146606,0.15324402,15.3318579007685,0.7459503816460075,87.7360610961914,-15.1464204788208,149.8030548095703,24069205.0,50354.0,0.19454972050336003,0.05988620102749999,-0.11541958677697889,0.00477615306393971,0.000408197073088819,-0.002626162473094811,24.06920575299955
1604,C,19736988828654.0,12.278244,17.598022,-10.153086559942386,23,1970-01-01 05:28:56.988828654,0.13093567,0.34088135,1.0928192,23.83431466615403,1.1522144107521013,88.42765808105469,-15.64197063446045,149.63967895507812,24119559.0,50354.0,0.4947259754152001,0.2591285447325,-0.3869728218908389,0.017353894196141587,0.008031834253999521,-0.012648733673029648,24.11955975700039
1604,C,19737039182658.0,-3.0786743,12.938568,-10.408061559942386,23,1970-01-01 05:28:57.039182658,-1.3228912,1.7507629,1.3329926,17.02554358263502,2.5675048453135605,89.29411315917969,-15.168814659118652,149.47769165039062,24169913.0,50354.0,0.23161756633690006,0.27535052642999996,-0.5176680262143388,0.018287151350692626,0.013456579574658265,-0.02277614263274406,24.169913761001226
1604,C,19737089536662.0,5.0653076,8.784409,1.6995894400576144,23,1970-01-01 05:28:57.089536662,0.6897125,0.7368469,-1.2986908,10.247359611918563,1.6447627429816434,89.12007141113281,-15.464731216430664,149.56747436523438,24220267.0,50354.0,0.0500174665941,0.053450191928999975,-0.2192532025623389,0.007090725224103789,0.008278215686124541,-0.018553465776910416,24.220267765002063
1604,C,19737139890666.0,1.4363403,6.3636475,-2.624568259942386,23,1970-01-01 05:28:57.139890666,-0.13369751,0.23527527,-0.39143372,7.117466180109269,0.47586745424205196,89.72457122802734,-15.383702278137207,149.4159698486328,24270621.0,50354.0,0.16369198917830002,-0.11208658149950004,-0.023288191748238894,0.005380562967981716,-0.0014762883802164803,-0.0061064646845574175,24.270621768999263
1604,C,19737190244670.0,2.3454437,7.043289,-0.04105695994238556,23,1970-01-01 05:28:57.190244670,0.23744202,-0.063812256,-0.48971558,7.4281816537656,0.5479708625211986,89.796630859375,-15.435063362121582,149.39678955078125,24320975.0,50354.0,0.095213975768,-0.15592275973950007,-0.06711244616103888,0.0065184754794529965,-0.006747671184374306,-0.0022760168606418864,24.3209757730001
1604,C,19737240598674.0,2.8599854,6.676178,0.5080153100576145,23,1970-01-01 05:28:57.240598674,-0.13143921,0.0101623535,-0.28599548,7.268634470810371,0.3149173763616633,89.7361068725586,-15.613826751708984,149.4116668701172,24371329.0,50354.0,0.1310570884507,-0.14805417934100004,0.011756610380851119,0.0056968265838342105,-0.007653227395229752,-0.0013936938774377875,24.371329777000938
1604,C,19737290952677.0,2.0993042,6.0023804,0.17549578005761446,23,1970-01-01 05:28:57.290952677,-0.67030334,0.16871643,-0.0769043,6.359068411085925,0.695475429275248,89.71742248535156,-15.701473236083984,149.41578674316406,24421683.0,50354.0,0.1248600342592,-0.17426113516320005,0.01720875871583112,0.006443225398467152,-0.008114932673272245,0.0007292610977471688,24.42168378000133
1604,C,19737341306681.0,3.1507874,7.1304474,-0.39762435994238554,23,1970-01-01 05:28:57.341306681,-0.84983826,0.80158997,-0.13923645,7.820093905529867,1.1765025869810193,89.78816986083984,-15.896614074707031,149.423583984375,24472037.0,50354.0,0.13218155621320002,-0.16282399447940005,-0.0055925312557588815,0.006471536123323616,-0.008486792309011743,0.0002924617587622388,24.47203778400217
1604,C,19737391660685.0,5.6913605,9.957123,1.1517378400576144,23,1970-01-01 05:28:57.391660685,-0.5222168,0.3504181,0.0061035156,11.50658538462743,0.6289200934240609,89.64112091064453,-16.238567352294922,149.47398376464844,24522391.0,50354.0,0.22261875767830003,-0.06325544003920004,0.018986315088861117,0.008932807502846297,-0.005692001922874794,0.000337215295566015,24.522391787999368
1604,C,19737442014689.0,4.7125244,12.997971,2.8029524400576147,23,1970-01-01 05:28:57.442014689,-1.3953247,0.52630615,0.7220764,14.064843246558148,1.6569017802497745,89.29818725585938,-16.364376068115234,149.5762176513672,24572745.0,50354.0,0.2619386101273001,0.08447120163799994,0.09956723718246113,0.012199700849241595,0.0005341492297729851,0.0029848227855350804,24.572745792000205
1604,C,19737492368693.0,1.6184998,17.044266,2.5145308400576143,23,1970-01-01 05:28:57.492368693,-1.0846252,1.173645,1.7002563,17.2738308027208,2.3333936436421805,89.0466079711914,-16.17837142944336,149.688720703125,24623099.0,50354.0,0.15939619628340002,0.26290420094899997,0.13387827654346113,0.010607946421002197,0.008745870510932896,0.005877457699077545,24.623099796001043
1604,C,19737542722697.0,1.2949371,12.83255,3.1104780400576146,23,1970-01-01 05:28:57.542722697,-0.094940186,0.005645752,1.3233337,13.217347367798599,1.3267469973544506,88.73988342285156,-15.990199089050293,149.77371215820312,24673453.0,50354.0,0.0733516008313,0.258739396432,0.14162084857466112,0.005859891287956802,0.013133420851261436,0.006936241473098964,24.67345380000188
1604,C,19737593076701.0,1.378479,9.294266,-0.6325639099423855,23,1970-01-01 05:28:57.593076701,-0.27223206,0.17710876,0.21214294,9.43465691658576,0.38792065471230686,88.89064025878906,-15.81391429901123,149.7373809814453,24723807.0,50354.0,0.0673085971497,0.06361764643199996,0.062386444053911125,0.003541401804567637,0.008115983268186928,0.005136291606509564,24.72380780399908
1604,C,19737643430705.0,0.15402222,6.744217,-0.3362687599423856,23,1970-01-01 05:28:57.643430705,-0.06556702,-0.56381226,-0.08036804,6.768982399820416,0.5732733383748363,89.04633331298828,-15.45348834991455,149.66734313964844,24774161.0,50354.0,0.03858378321594,-0.08966831350900004,-0.024392300129688883,0.0026660524604657184,-0.0006558776449976308,0.0009565785615801434,24.774161807999917
1604,C,19737693784709.0,1.8768768,4.299118,2.016056740057614,23,1970-01-01 05:28:57.693784709,0.92536926,-0.25071716,-0.6502838,5.022555124873308,1.1584629395081454,88.5860824584961,-15.607708930969238,149.79029846191406,24824515.0,50354.0,0.051131944626540006,-0.21543115470500007,0.04229202197536112,0.002258772879890119,-0.007681489311223882,0.00045066129690848986,24.824515812000755
1604,C,19737744138713.0,1.9976654,3.3720093,-0.4213670099423855,23,1970-01-01 05:28:57.744138713,1.3511658,0.33924866,-1.0304718,3.9716743219091306,1.7328043175721473,88.92143249511719,-15.923958778381348,149.7324676513672,24874869.0,50354.0,0.09754934896940001,-0.3003332279679001,0.04014950333511111,0.003743348928864982,-0.012985399862555608,0.002075630282741759,24.874869816001592
1604,C,19737794492717.0,2.5224304,5.1124115,0.26732317005761447,23,1970-01-01 05:28:57.794492717,1.642456,0.3014984,-0.73124695,5.701010449383073,1.8229879590998022,89.01261901855469,-16.144161224365234,149.74365234375,24925223.0,50354.0,0.1138024519566,-0.2798569375184,-0.0038783617567788808,0.005321204291913903,-0.014607447796448578,0.0009131985315176706,24.92522382000243
1604,C,19737844846720.0,3.052826,6.380005,-0.17925580994238555,23,1970-01-01 05:28:57.844846720,1.9255371,-0.5322418,-0.22270203,7.084115622392047,2.010117074030707,89.22433471679688,-16.36805534362793,149.68540954589844,24975577.0,50354.0,0.14036823038280002,-0.20412462977950002,0.0022172719256211186,0.0063992552692590755,-0.01218520391985923,-4.182125867905898e-05,24.975577822999185
1604,C,19737895200724.0,2.6986084,7.1430206,-0.22802289994238556,23,1970-01-01 05:28:57.895200724,0.70584106,-0.18719482,-0.15510559,7.6489976591569375,0.746532816871438,89.36905670166016,-16.468658447265625,149.64537048339844,25025931.0,50354.0,0.1448038638888,-0.15299998446880006,-0.010254056078768883,0.007179777817476076,-0.008991326412929452,-0.00020234211462380125,25.025931827000022
1604,C,19737945554728.0,4.066574,10.477997,0.05089251005761444,23,1970-01-01 05:28:57.945554728,-0.14646912,-0.32556152,-0.065582275,11.240751774394681,0.3629663086464919,89.40457916259766,-16.58405876159668,149.6175537109375,25076285.0,50354.0,0.17032699728480002,-0.049824839884800035,-0.004459611826128883,0.007934049691767728,-0.005106520602750591,-0.0003704460168416111,25.07628583100086
1604,C,19737995908732.0,12.759674,16.748138,-1.6021531599423855,23,1970-01-01 05:28:57.995908732,1.0006256,1.7202606,0.7086487,21.13373050690584,2.1125177166829654,89.57012939453125,-17.123891830444336,149.66661071777344,25126639.0,50354.0,0.423634445896,0.19200320089500006,-0.039056089382148884,0.014954167254963003,0.0035796245951538064,-0.0010955948093208095,25.126639835001697
1604,C,19738046262736.0,5.6357117,7.3891144,-4.823802359942386,23,1970-01-01 05:28:58.046262736,-0.5611267,4.866745,1.5461731,10.574204678203694,5.137190022146494,90.1905517578125,-17.63595199584961,149.70611572265625,25176993.0,50354.0,0.46314062576889997,0.1142344036748,-0.1617862821241389,0.02232633597930719,0.007710144170253857,-0.005056608387413807,25.176993839002535
1604,C,19738096616740.0,1.7019348,4.045746,3.2151686400576143,23,1970-01-01 05:28:58.096616740,0.37413025,0.5086975,0.44081116,5.312965476068435,0.7701045833209007,89.3498306274414,-17.76371955871582,149.99156188964844,25227347.0,50354.0,0.1847399259305,-0.20557371970920002,-0.040500571165538894,0.016311688650135794,-0.0022996499597980895,-0.005092976105274218,25.227347842999734
1604,C,19738146970744.0,3.509735,6.314682,0.5072981400576144,23,1970-01-01 05:28:58.146970744,1.0423431,0.13290405,-0.8448639,7.230160147761534,1.348309176022778,89.35536193847656,-18.001731872558594,150.01165771484375,25277701.0,50354.0,0.1312142105546,-0.23262470424400003,0.09372054612296112,0.007954777294285363,-0.01103252171986972,0.0013399193095030193,25.27770184700057
1604,C,19738197342090.0,2.9639893,8.010986,-1.2557633599423856,23,1970-01-01 05:28:58.197342090,0.4403534,0.51815796,-0.97190857,8.668505553577834,1.186172439758388,89.64143371582031,-18.010286331176758,149.9541473388672,25328073.0,50372.0,0.1630472202198,-0.132839325752,-0.018850845028017846,0.007411268395484039,-0.009204577059479257,0.0018856682917772413,25.328073192999
1604,C,19738247696094.0,1.827591,5.9237823,-0.8699448599423856,23,1970-01-01 05:28:58.247696094,-0.60317993,0.5220642,-0.7970123,6.294617277301232,1.127654939787759,89.87279510498047,-17.949369430541992,149.89797973632812,25378427.0,50354.0,0.1206376172131,-0.14263353851090002,-0.05351895585203889,0.007142333152048124,-0.006935580303547034,-0.0018220544767571885,25.378427196999837
1604,C,19738298050098.0,5.2414093,3.1655426,0.9507795900576145,23,1970-01-01 05:28:58.298050098,-0.74523926,0.36753845,-0.541626,6.166449643444076,0.9918794234934759,89.65201568603516,-18.853626251220703,149.97361755371094,25428781.0,50354.0,0.1779762205531,-0.2646272669927,0.0020351760001111182,0.007518200593439618,-0.010253605300164137,-0.0012962071253319856,25.428781201000675
1604,C,19738348404102.0,5.3237762,5.3702087,-1.5298875599423856,23,1970-01-01 05:28:58.348404102,-0.30723572,1.3546753,-0.41906738,7.761994720233848,1.45091571948686,89.96218872070312,-19.442279815673828,149.93089294433594,25479135.0,50354.0,0.2659996753335,-0.27856458951990004,-0.014580201357788883,0.01117798113073693,-0.013675941371417732,-0.0003158461034302531,25.479135205001512
1604,C,19738398758105.0,1.1815948,7.124832,1.0496565400576143,23,1970-01-01 05:28:58.398758105,-0.44895935,1.3230896,-0.09655762,7.269490464134102,1.4005191757204352,89.74475860595703,-19.189395904541016,150.05772399902344,25529489.0,50354.0,0.163785725667,-0.17888156029610006,-0.012090776387638886,0.010820707040989589,-0.011517121713917434,-0.0006714952066966349,25.529489208001905
1604,C,19738449112109.0,5.304535,8.237396,5.274754440057614,23,1970-01-01 05:28:58.449112109,-1.2552185,0.46842957,-0.20617676,11.024050826618907,1.3555473437533387,88.98233795166016,-19.47557258605957,150.31155395507812,25579843.0,50354.0,0.1633012899746,-0.10669438564400004,0.1592296952463611,0.008235069792808565,-0.0071899455909339004,0.0037045165601060494,25.579843211999105
1604,C,19738499466113.0,5.195587,12.58403,1.8582197400576144,23,1970-01-01 05:28:58.499466113,-1.8663483,2.3952637,0.7502899,13.712449925824075,3.1278553520731407,88.6895980834961,-19.58298110961914,150.49183654785156,25630197.0,50354.0,0.264361571594,0.030751842401999983,0.17958689093276112,0.010767267865712643,-0.0019120054112038356,0.00853038519023176,25.630197215999942
1604,C,19738549820117.0,0.3872223,11.69957,2.354756040057614,23,1970-01-01 05:28:58.549820117,-0.57551575,1.9234619,1.9653168,11.898794362550142,2.8095184967556115,88.38837432861328,-19.24858283996582,150.67503356933594,25680551.0,50354.0,0.14055838974610002,0.11791899719999997,0.10607009121596112,0.010194669866659699,0.003743085728659553,0.007191985839558381,25.68055122000078
1604,C,19738600174121.0,3.3741302,11.503281,2.6220137400576142,23,1970-01-01 05:28:58.600174121,0.80311584,0.20826721,1.6414642,12.225932367477627,1.8392321775952403,88.16642761230469,-19.256635665893555,150.77346801757812,25730905.0,50354.0,0.09469957189250001,0.09070897962699995,0.12530013275396112,0.005923089700175033,0.0052526265725733766,0.005825208128890732,25.730905224001617
1604,C,19738650528125.0,3.1749725,9.845428,1.0672041400576144,23,1970-01-01 05:28:58.650528125,1.8486938,1.2272949,0.5384979,10.379228041822895,2.2833969269552896,88.15959930419922,-19.246116638183594,150.8649139404297,25781259.0,50354.0,0.16488675867790004,0.04402724649299995,0.09288343856766113,0.006535605044770962,0.003392253965023238,0.005493207775164484,25.781259228002455
1604,C,19738700882129.0,-0.1836853,7.03833,0.10332171005761445,23,1970-01-01 05:28:58.700882129,1.2552185,1.7141418,0.26493835,7.0417156849258395,2.1410389820248983,88.26657104492188,-18.749961853027344,150.9320526123047,25831613.0,50354.0,0.07531163783440001,-0.06838682483400003,0.02947032932835112,0.006047475028990178,-0.0006133011038913591,0.0030805008143179003,25.831613231999654
1604,C,19738751236133.0,2.8871613,6.1426544,0.6548811400576144,23,1970-01-01 05:28:58.751236133,1.42482,2.760025,-0.64115906,6.801165639214085,3.1715824083957025,88.2360610961914,-18.87295150756836,151.09446716308594,25881967.0,50354.0,0.068065415252,-0.16161155576120004,0.01908927315735112,0.003609804065556293,-0.005790669228245352,0.0012225851117825253,25.88196723600049
1604,C,19738801590137.0,0.9349518,3.4267883,1.4160811400576145,23,1970-01-01 05:28:58.801590137,1.6399384,2.7175598,-0.22341919,3.7475857756413555,3.1818933603800827,87.83241271972656,-18.766773223876953,151.37940979003906,25932321.0,50354.0,0.0962293415187,-0.2525393411421001,0.05214061732646112,0.004136449091215914,-0.010427077131334388,0.001793354952710941,25.93232124000133
1604,C,19738851944141.0,2.5299835,7.070236,0.29669634005761447,23,1970-01-01 05:28:58.851944141,2.1421814,2.470932,-0.28982544,7.50964252890926,3.28305420071024,87.93644714355469,-18.77090835571289,151.49676513671875,25982675.0,50354.0,0.08723667604810001,-0.22918561919890007,0.04312259861686112,0.004619123924279324,-0.01212838932650536,0.0023984419878050243,25.982675244002166
1604,C,19738902298144.0,2.0442352,7.3099365,3.334568640057615,23,1970-01-01 05:28:58.902298144,0.3678589,2.8945313,-0.2230835,8.204036153055357,2.926328393219249,87.38108825683594,-18.67428970336914,151.81752014160156,26033029.0,50354.0,0.11516510420990002,-0.13141959696750002,0.09142435840436113,0.0050958696215556674,-0.009078957527421456,0.0033874887369233124,26.03302924700256
1604,C,19738952652148.0,1.4037628,1.8611908,-8.159068559942385,23,1970-01-01 05:28:58.952652148,0.4845276,2.6579895,0.3852539,8.698618872358844,2.729119957923656,88.83113861083984,-18.82463264465332,151.4857635498047,26083383.0,50354.0,0.08681024564600001,-0.26256772796790007,-0.12146643448293887,0.005085133383321996,-0.00991941887989857,-0.0007563693494303518,26.08338325099976
1604,C,19739003006152.0,-0.98480225,19.523193,-7.703868259942386,23,1970-01-01 05:28:59.003006152,0.15934753,2.0225525,0.06846619,21.093457756584453,2.0299748446092796,89.40045928955078,-18.338146209716797,151.40269470214844,26133737.0,50354.0,0.01054816976735,0.04492543093259992,-0.3993811603142389,0.002451192824861913,-0.005479580112457752,-0.013113379894208545,26.133737255000597
1604,C,19739053360156.0,10.629105,13.089874,8.483982440057614,23,1970-01-01 05:28:59.053360156,-1.3593292,-1.2546387,2.6676483,18.777481062561534,3.2462657922608895,88.69786834716797,-18.92475128173828,151.54754638671875,26184091.0,50354.0,0.24281461033675,0.32762998785899994,0.019640934712761113,0.006378914714680927,0.00937982777891611,-0.009560719659968407,26.184091259001434
1604,C,19739103714160.0,16.594055,11.426849,-5.631846559942386,23,1970-01-01 05:28:59.103714160,1.037674,1.5054779,-0.6633606,20.980834852785318,1.945065120579969,89.16688537597656,-19.711267471313477,151.47967529296875,26234445.0,50354.0,0.68539749932,0.12378833497099999,0.0718082250536611,0.023369596284827997,0.011365359113890909,0.002302415495439212,26.23444526300227
1604,C,19739154068164.0,7.82872,7.578171,-0.32302411994238556,23,1970-01-01 05:28:59.154068164,1.6669769,1.8002777,-0.5782623,10.909348011119727,2.520753670998456,89.30934143066406,-20.313587188720703,151.5433807373047,26284799.0,50354.0,0.6148922061750001,-0.014979811459999992,-0.1499257791074589,0.03273739391524762,0.002739472196436447,-0.0019667656584124674,26.28479926699947
1604,C,19739204422168.0,0.08470154,7.339691,-1.5018571599423856,23,1970-01-01 05:28:59.204422168,1.1045227,1.1200409,-0.86024475,7.539739774437227,1.7928979453361709,89.71004486083984,-19.802114486694336,151.47715759277344,26335153.0,50354.0,0.19923621411258,-0.11788218842600003,-0.045945035983658886,0.020497311237580404,-0.003345066571129822,-0.004931439511549073,26.33515327100031
1604,C,19739254776172.0,4.453598,5.9298096,-1.4683640599423855,23,1970-01-01 05:28:59.254776172,0.97727966,1.2901611,-0.9766388,7.606070297500044,1.8903477308337653,90.08055877685547,-20.164155960083008,151.4275360107422,26385507.0,50354.0,0.11426076751858003,-0.15938298339380005,-0.07478125965303889,0.007892913506527717,-0.006980705230907107,-0.00303952594524514,26.385507275001146
1604,C,19739305130176.0,5.8025513,9.5455475,-2.567897159942386,23,1970-01-01 05:28:59.305130176,0.7042999,1.9860382,-0.94989014,11.513773042795629,2.3114232323545747,90.44745635986328,-20.384843826293945,151.40582275390625,26435861.0,50354.0,0.2582190709261,-0.10384613429330006,-0.1016209487330389,0.00937792489252171,-0.0066273194960081196,-0.00444127840053628,26.435861279001983
1604,C,19739355484180.0,3.0618896,8.524567,-2.592784259942386,23,1970-01-01 05:28:59.355484180,0.3126831,2.1120453,-0.6740265,9.484869704602506,2.238932288609897,90.8663101196289,-20.335712432861328,151.36477661132812,26486215.0,50354.0,0.22318002853930002,-0.03851792723350007,-0.1299304761084389,0.012120185127240378,-0.003584299977060247,-0.005829770223233887,26.486215282999183
1604,C,19739405838184.0,5.383148,9.4077,-2.2438462599423854,23,1970-01-01 05:28:59.405838184,0.060073853,2.48378,-0.49461365,11.115767476373914,2.5332616562409394,91.14249420166016,-20.54043960571289,151.38616943359375,26536569.0,50354.0,0.21262071165520002,-0.04198851374100005,-0.1217718465991389,0.010972155235876928,-0.0020269106644149894,-0.006337109378808687,26.53656928700002
1604,C,19739456192187.0,4.888504,8.126221,-4.3933365599423855,23,1970-01-01 05:28:59.456192187,-0.24220276,2.782074,-0.405365,10.54648077550431,2.821864401712566,91.72435760498047,-20.75275230407715,151.30735778808594,26586923.0,50354.0,0.258609382404,-0.05201767098300005,-0.1671043518562389,0.01186416007812848,-0.0023667937127961505,-0.007273036048511048,26.586923290000414
1604,C,19739506546191.0,3.756668,9.570831,-3.2949479599423857,23,1970-01-01 05:28:59.506546191,-0.20495605,3.4009094,-0.30056763,10.86635637485896,3.420311773748671,92.10437774658203,-20.75420570373535,151.3284149169922,26637277.0,50354.0,0.21765949544400004,-0.047910521796000055,-0.1935679393571389,0.011991021537579097,-0.002515892109596886,-0.009080646275879213,26.63727729400125
1604,C,19739556900195.0,4.1133575,13.588425,-1.9488023599423856,23,1970-01-01 05:28:59.556900195,-0.8404083,3.782959,0.36120605,14.362261604572307,3.8919833911447377,92.16914367675781,-20.680164337158203,151.4667510986328,26687631.0,50354.0,0.19814363201350002,0.089611388312,-0.1320219018037389,0.010468675339997478,0.0010499027162733305,-0.00819737543090742,26.68763129800209
1604,C,19739607254199.0,3.8589172,14.111923,1.3325392400576144,23,1970-01-01 05:28:59.607254199,-1.722992,3.0578308,1.3852844,14.672162680000161,3.7733332085009406,91.85488891601562,-20.622318267822266,151.68765258789062,26737985.0,50354.0,0.20071796012190002,0.20394246159600002,-0.015515656569338886,0.010042138305192969,0.007390805279133717,-0.0037145531071589803,26.737985301999288
1604,C,19739657608203.0,0.0021209717,10.711227,-0.7768510199423856,23,1970-01-01 05:28:59.657608203,-2.0626984,1.9976807,2.2985992,10.757638704938655,3.678180413024311,91.80850219726562,-20.23708724975586,151.75746154785156,26788339.0,50354.0,0.09720935804889091,0.13150324754999998,0.013990562317841116,0.007500916089586003,0.008445516619168843,-3.8397297969959353e-05,26.788339306000125
1604,C,19739707962207.0,1.7608185,10.4826355,0.38400713005761444,23,1970-01-01 05:28:59.707962207,-1.0742645,1.5706024,2.6294098,10.630737823182125,3.2457097854216803,91.65672302246094,-20.10536003112793,151.86097717285156,26838693.0,50354.0,0.044385527078990905,0.04012867616249996,-0.009890630615628884,0.003564934422864681,0.004321176943309611,0.00010322398046659738,26.838693310000963
1604,C,19739758316211.0,2.0168,10.74234,3.5531965400576144,23,1970-01-01 05:28:59.758316211,-1.3049927,1.8123474,3.2724457,11.426572656622529,3.961882116467947,91.07424926757812,-20.04916000366211,152.11912536621094,26889047.0,50354.0,0.09510910097450001,0.04091200816349999,0.09912697680249112,0.003512056250502741,0.002040361309275701,0.0022467034879466307,26.8890473140018
1604,C,19739808670215.0,2.4220428,6.2489166,1.2438856400576144,23,1970-01-01 05:28:59.808670215,-0.8592529,1.5739899,2.8660583,6.7794418888409425,3.3808356852203434,90.7468032836914,-20.223020553588867,152.28851318359375,26939401.0,50354.0,0.1117567451756,-0.06568033258180002,0.12077613804876113,0.005208261408521068,-0.0006235921038795398,0.005536500722609978,26.939401317999
1604,C,19739859024219.0,1.9995117,3.8004303,1.6342817400576144,23,1970-01-01 05:28:59.859024219,-0.3223877,1.355835,2.2376251,4.520807230334409,2.636131344316193,90.21131896972656,-20.514999389648438,152.5315704345703,26989755.0,50354.0,0.11132147764650001,-0.24045679309870005,0.07246362012916112,0.005616440415992012,-0.00770761441325795,0.004865197391645548,26.989755321999837
1604,C,19739909378223.0,0.80104065,1.0295868,1.3335921400576145,23,1970-01-01 05:28:59.909378223,0.5233002,0.66926575,1.2269745,1.7142931925071487,1.492389415364955,89.22677612304688,-20.899934768676758,152.92001342773438,27040109.0,50354.0,0.07050950651595,-0.3718638594733001,0.07472216067966111,0.0045779586882580044,-0.01541639706980525,0.0037056964034237173,27.040109326000675
1604,C,19739959732227.0,1.9555206,2.4166412,2.1511427400576144,23,1970-01-01 05:28:59.959732227,1.0301666,-0.4267273,0.7116394,3.6590055407001354,1.3227887389727848,88.48931884765625,-21.30828094482422,153.1844482421875,27090463.0,50354.0,0.06940194259125,-0.40670351764400003,0.08773517007666112,0.0035225505541719745,-0.019601990853682263,0.004090188216451926,27.090463330001512
1604,C,19740010086230.0,3.3062592,4.39151,2.579594240057615,23,1970-01-01 05:29:00.010086230,1.3816833,-0.709198,0.06149292,5.981474168706431,1.5542818032496606,87.99481201171875,-21.66179084777832,153.3577117919922,27140817.0,50354.0,0.1324758300246,-0.3220603772376,0.11910576494836113,0.0050826766811492554,-0.018348088581434045,0.0052076342211249856,27.140817333001905
1604,C,19740060440234.0,6.865494,8.706528,6.542088140057614,23,1970-01-01 05:29:00.060440234,1.4135437,-0.80088806,-0.4758606,12.762851876989565,1.6929178323511787,87.35427856445312,-21.98471450805664,153.58395385742188,27191171.0,50354.0,0.2560942303164,-0.16369989727400003,0.2296565972841611,0.009783028409205358,-0.012229986431378554,0.008780789993928213,27.191171336999105
1604,C,19740110794238.0,10.246307,12.980896,8.785298440057614,23,1970-01-01 05:29:00.110794238,1.1115112,-0.77012634,-0.5275879,18.62341826044738,1.451516696257279,86.76471710205078,-22.305187225341797,153.79019165039062,27241525.0,50354.0,0.430823813777,0.052555074047999965,0.3858976119275611,0.017294535596139533,-0.0027982932143610036,0.01549780832532353,27.241525340999942
1604,C,19740161148242.0,4.213333,7.872345,5.002827440057614,23,1970-01-01 05:29:00.161148242,1.1481781,-0.15699768,-0.86302185,10.12859971542735,1.444911047235232,86.16422271728516,-22.37629508972168,154.03074645996094,27291879.0,50354.0,0.36405035628000004,0.031552848656999984,0.3471436452836611,0.020012546979525092,0.002117585169943784,0.018455779732806942,27.29187934500078
1604,C,19740211502246.0,3.0269775,10.112183,1.0366102800576145,23,1970-01-01 05:29:00.211502246,1.3653107,-0.71739197,-1.7219391,10.58694902598267,2.3116658085164,86.22941589355469,-22.148990631103516,153.9936065673828,27342233.0,50354.0,0.18228929745850003,-0.04067273854400001,0.15205492347934113,0.013755193462174218,-0.00022961146768499973,0.012568322365746109,27.342233349001617
1604,C,19740261856250.0,3.70076,9.517136,-0.23478253994238557,23,1970-01-01 05:29:00.261856250,1.0550537,-1.2545624,-1.3900452,10.221524235211291,2.1492535409812614,86.47289276123047,-22.063690185546875,153.85968017578125,27392587.0,50354.0,0.16938424703750002,0.0007381644629999801,0.02018761701288112,0.008854084829775795,-0.001005432771637338,0.0043365504419726805,27.392587353002455
1604,C,19740312210254.0,4.0467224,10.667938,-0.5808213599423856,23,1970-01-01 05:29:00.312210254,0.9650116,-1.4281921,-1.4021149,11.437846814087772,2.221914997347779,86.74842834472656,-21.968862533569336,153.7044677734375,27442941.0,50354.0,0.1950583643848,0.01473040809799997,-0.020534459387398885,0.00917557162777925,0.00038945225136829574,-8.732450463233745e-06,27.442941356999654
1604,C,19740362564258.0,3.2651672,8.542618,-1.1684525599423856,23,1970-01-01 05:29:00.362564258,0.68048096,-0.9589844,-1.5039368,9.250361396047229,1.9090655606238673,87.11579132080078,-21.87537956237793,153.53167724609375,27493295.0,50354.0,0.18409144445920003,-0.009805031588000071,-0.044041469480938886,0.00954585473726539,0.00012400620439226745,-0.00162582816111814,27.49329536100049
1604,C,19740412918262.0,4.109833,8.227722,-1.4705460599423856,23,1970-01-01 05:29:00.412918262,0.48831177,-0.60020447,-1.2953186,9.351397948772325,1.5088220789856153,87.5009536743164,-21.93177032470703,153.3662567138672,27543649.0,50354.0,0.18568038003540002,-0.07124234982000006,-0.06644206825283888,0.009309745225300547,-0.0020405299217092195,-0.002781644029523323,27.54364936500133
1604,C,19740463272266.0,3.883133,6.5767975,-1.1273759599423856,23,1970-01-01 05:29:00.463272266,1.0418091,-0.4329071,-0.5936279,7.75577492961539,1.2748211018537583,87.88815307617188,-22.11867904663086,153.21925354003906,27594003.0,50354.0,0.201238904982,-0.12073581254850005,-0.06540788269463889,0.009741466838883082,-0.004833434193951728,-0.0033195862150046476,27.594003369002166
1604,C,19740513626269.0,2.7415009,4.8191223,-0.7089188899423855,23,1970-01-01 05:29:00.513626269,1.1650391,-0.42364502,0.017456055,5.621847048108249,1.2397967258207183,88.260009765625,-22.308298110961914,153.08102416992188,27644357.0,50354.0,0.1667884077003,-0.20655412719540006,-0.046232395435548884,0.009265823651402268,-0.008240178812932172,-0.002810767282483738,27.64435737200256
1604,C,19740563980273.0,1.8869934,6.3980255,-1.4771989599423856,23,1970-01-01 05:29:00.563980273,0.5804901,-0.50094604,-0.23846436,6.883352210975446,0.8029825291872179,88.72451782226562,-22.158641815185547,152.8927764892578,27694711.0,50354.0,0.1165316009911,-0.21105506983940006,-0.05503988910654888,0.007133147858823378,-0.010514146753745164,-0.002549732307916396,27.69471137599976
1604,C,19740614334277.0,0.6859741,10.991074,-1.2302964599423856,23,1970-01-01 05:29:00.614334277,0.061050415,-0.5155029,-0.9035492,11.107724386886938,1.0420516061600416,88.97362518310547,-21.662857055664062,152.7761688232422,27745065.0,50354.0,0.0647796027475,-0.05566384188850005,-0.0681666121864389,0.004564872176526733,-0.006715182040573342,-0.003101970083053553,27.745065380000597
1604,C,19740664688281.0,0.7251282,16.531769,-2.7420457599423855,23,1970-01-01 05:29:00.664688281,-0.19639587,-0.9344177,-0.97932434,16.810916166598115,1.367766039475605,89.28020477294922,-21.15353775024414,152.6164093017578,27795419.0,50354.0,0.0355273226071,0.19947341821099993,-0.1000116600700389,0.0025254274596527644,0.0036206937030715796,-0.004234224360601342,27.795419384001434
1604,C,19740715042285.0,-0.30070496,16.432175,-3.2285111599423857,23,1970-01-01 05:29:00.715042285,-0.20170593,-0.621933,-0.56585693,16.793103642963256,0.8646849159752874,89.615234375,-20.596881866455078,152.46405029296875,27845773.0,50354.0,0.01068570391348,0.336464018088,-0.15032071157193888,0.0011635053687086428,0.013493296833699922,-0.0063026181208300745,27.84577338800227
1604,C,19740765396289.0,2.3222198,12.9179535,-2.0768845599423855,23,1970-01-01 05:29:00.765396289,-0.81314087,-0.04573059,-0.2700653,13.324717721211332,0.858035330036121,89.8488998413086,-20.328960418701172,152.36582946777344,27896127.0,50354.0,0.050895679126680006,0.2454789852445,-0.1335739480395389,0.0015504344808021085,0.014651578994902355,-0.007147615845038176,27.89612739199947
1604,C,19740815750293.0,5.538437,11.374283,-1.8047135599423856,23,1970-01-01 05:29:00.815750293,-1.3912811,-0.17506409,0.2246399,12.812241232309903,1.420131550067369,90.02792358398438,-20.47913360595703,152.2710723876953,27946481.0,50354.0,0.19790775625360002,0.11813643836049996,-0.09772699586433888,0.00626412409256931,0.009154745520103084,-0.005823463864667931,27.94648139600031
1604,C,19740866104297.0,3.0559387,11.74144,0.34581438005761445,23,1970-01-01 05:29:00.866104297,-1.896698,-0.56430054,0.97991943,12.133246324952683,2.2081984720445345,89.92723846435547,-20.381145477294922,152.24658203125,27996835.0,50354.0,0.21638059699890003,0.08851535797099999,-0.036730704651958886,0.010430537869838193,0.005202872276238175,-0.003385241525898829,27.996835400001146
1604,C,19740916458301.0,1.2615356,9.363266,2.0706679400576142,23,1970-01-01 05:29:00.916458301,-2.3231354,-0.16275024,1.373352,9.627159750928806,2.703616363920225,89.52295684814453,-20.140174865722656,152.3385772705078,28047189.0,50354.0,0.1087010504511,0.03788398296199997,0.06083977537354112,0.008184580637848651,0.00318235620667014,0.000606994073557276,28.047189404001983
1604,C,19740966812305.0,1.362793,8.142334,2.3833510400576143,23,1970-01-01 05:29:00.966812305,-2.2575684,-0.5027313,1.544281,8.533994549495082,2.781035355337873,89.04512023925781,-19.960357666015625,152.4405517578125,28097543.0,50354.0,0.0660727211622,-0.05273070880000005,0.11213883586236112,0.004400279247908054,-0.00037379601642332816,0.004355082495086311,28.097543407999183
1604,C,19741017166309.0,2.3140411,6.849457,0.9240004400576145,23,1970-01-01 05:29:01.017166309,-1.8431549,-0.16841125,2.0218506,7.26385347046884,2.741069532726401,88.83190155029297,-20.02861785888672,152.4756622314453,28147897.0,50354.0,0.0925716521357,-0.11602087799300004,0.08326918821486112,0.003994189386521229,-0.004248658700687364,0.004919787822192225,28.14789741200002
1604,C,19741067520312.0,2.555313,4.1979675,-0.15888531994238553,23,1970-01-01 05:29:01.067520312,-1.5448456,0.63890076,2.2664948,4.9292122465226615,2.816334636969651,88.88634490966797,-20.421966552734375,152.4625701904297,28198251.0,50354.0,0.1225957281757,-0.21532819336350004,0.01926330337914112,0.005417269134100118,-0.008342375569542601,0.0025814605408621947,28.198251415000414
1604,C,19741117874316.0,0.52386475,1.4780731,-0.06421979994238552,23,1970-01-01 05:29:01.117874316,-0.78712463,0.8434143,1.7759857,1.5939521902908098,2.1177908468972135,89.1320571899414,-20.48934555053711,152.4040985107422,28248605.0,50354.0,0.07752445821175,-0.35056352581380007,-0.005617117603338881,0.005038425932676829,-0.014247455813726885,0.000343570019277373,28.24860541900125
1604,C,19741168228320.0,1.560379,0.52693176,1.4491164400576144,23,1970-01-01 05:29:01.168228320,0.39082336,0.24855042,0.70329285,2.0542283137863957,0.8421051257800231,88.2332763671875,-21.407878875732422,152.7444305419922,28298959.0,50354.0,0.052475004893749996,-0.4429891926397801,0.03486754270818112,0.003272996482607173,-0.01997927679250579,0.0007364379528646131,28.29895942300209
1604,C,19741218582324.0,1.5556641,2.770813,0.9481398400576144,23,1970-01-01 05:29:01.218582324,1.6683655,-0.25982666,-0.46891785,3.2597118296119016,1.7523804623670134,88.01923370361328,-21.573318481445312,152.84051513671875,28349313.0,50354.0,0.0784526171287,-0.41044188017748007,0.06035572136446112,0.003296364739659224,-0.02148683412032016,0.002397436119556914,28.349313426999288
1604,C,19741268936328.0,15.301956,16.056274,1.6963545400576145,23,1970-01-01 05:29:01.268936328,2.305481,-0.7770233,-0.15974426,22.22902236230935,2.4381398808737034,88.08650207519531,-22.102214813232422,152.821533203125,28399667.0,50354.0,0.4244243012577001,-0.019459630601000068,0.06658043500816112,0.012660932174214398,-0.010823630336869795,0.00319587160899351,28.399667431000125
1604,C,19741319290332.0,0.8229065,10.009781,2.9653059400576147,23,1970-01-01 05:29:01.319290332,1.7639313,-0.13717651,-0.51789856,10.411637409049044,1.8434993746854225,87.8211669921875,-21.658580780029297,152.94642639160156,28450021.0,50354.0,0.4059756631625,0.16279586673499993,0.11736662590786112,0.020906979904207378,0.003608776417145715,0.004631235152682693,28.450021435000963
1604,C,19741369644336.0,0.767395,13.624359,0.49618974005761446,23,1970-01-01 05:29:01.369644336,1.3199158,-0.2621765,-1.7914429,13.648721221678302,2.2405762428898286,87.92089080810547,-21.11665916442871,152.91908264160156,28500375.0,50354.0,0.04003902086550001,0.10156754277999998,0.08715007673826113,0.011229311699772957,0.006655877561359154,0.00514911702252142,28.5003754390018
1604,C,19741419998340.0,2.5059052,7.9765625,-1.1553910599423856,23,1970-01-01 05:29:01.419998340,0.9417267,-0.16217041,-1.47229,8.473518858104557,1.755216870780491,88.27351379394531,-20.955785751342773,152.79942321777344,28550729.0,50354.0,0.0824118791354,0.05037720060549997,-0.01659671163073888,0.0030829463093226595,0.003825512804216733,0.0017763220733120878,28.550729442999
1604,C,19741470352344.0,4.2507477,6.8560486,-1.4398148599423854,23,1970-01-01 05:29:01.470352344,0.76597595,-0.09207153,-1.0779114,8.236122991061034,1.325552454211037,88.66242980957031,-21.16887092590332,152.6675262451172,28601083.0,50354.0,0.1701122500633,-0.12002855033530004,-0.06533949944493889,0.00635780000083567,-0.0017536120321471765,-0.002062907986252339,28.601083446999837
1604,C,19741520706348.0,4.532913,8.17514,-0.6417649599423856,23,1970-01-01 05:29:01.520706348,0.92967224,-0.33140564,-0.9031067,9.387501213125278,1.3378048750230047,88.88838195800781,-21.31972312927246,152.58602905273438,28651437.0,50354.0,0.22114622544389997,-0.11502896461780002,-0.05240793512523889,0.009850714637844774,-0.0059180430539742005,-0.002964527160173366,28.651437451000675
1604,C,19741571060352.0,2.7723083,6.8780518,-0.05607159994238553,23,1970-01-01 05:29:01.571060352,1.1999054,0.23472595,-0.49404907,7.4209333477889246,1.318693946342527,89.02909851074219,-21.311054229736328,152.56715393066406,28701791.0,50354.0,0.1839235566701,-0.11447499005140004,-0.017569431068218882,0.010198441904284178,-0.0057782210667064494,-0.0017618201486526866,28.701791455001512
1604,C,19741621414355.0,1.1998749,8.784271,-0.9969285599423856,23,1970-01-01 05:29:01.621414355,2.0383606,0.74975586,-0.27241516,8.949151670735054,2.188894196765692,89.35082244873047,-20.965892791748047,152.52288818359375,28752145.0,50354.0,0.1000076564264,-0.09913889886440004,-0.026511385025418884,0.00714853615213058,-0.005378156881233099,-0.001109822706789518,28.752145458001905
1604,C,19741671768359.0,3.9235535,8.419037,-1.1619523599423855,23,1970-01-01 05:29:01.671768359,1.0349121,0.35473633,-0.016418457,9.390845392083286,1.094143721948145,89.637451171875,-21.0649471282959,152.4551544189453,28802499.0,50354.0,0.1289925568268,-0.06034151448400004,-0.05435414491993888,0.0057655383690758165,-0.0040152383668726685,-0.0020359514474342726,28.802499461999105
1604,C,19741722122363.0,4.8754425,9.613449,-1.2738450599423856,23,1970-01-01 05:29:01.722122363,-0.66770935,0.68174744,0.53990173,10.88227663905166,1.0964074179250014,89.81051635742188,-21.23616600036621,152.41268920898438,28852853.0,50354.0,0.22153232229200004,-0.03946529997800007,-0.06132607164043889,0.008825164881574029,-0.002512836167709777,-0.0029124808123406312,28.852853465999942
1604,C,19741772476367.0,-2.5078278,11.307877,3.9212385400576144,23,1970-01-01 05:29:01.772476367,-2.22937,-0.015686035,0.8737488,12.15921334929443,2.394529935936375,89.23889923095703,-20.520709991455078,152.575439453125,28903207.0,50354.0,0.059609435301900014,0.03326702470199994,0.06665342564886112,0.007078306030941621,-0.00015605397662385543,0.00013412679187004643,28.90320747000078
1604,C,19741822830371.0,3.3542023,5.640991,-3.9484208599423853,23,1970-01-01 05:29:01.822830371,-0.46453857,-0.19430542,-0.92515564,7.775501819601663,1.0533107981421395,90.0553207397461,-20.690576553344727,152.27029418945312,28953561.0,50354.0,0.021309170786500003,-0.06674755036400006,-0.0006843692677388778,0.0020372877454876473,-0.000842939194592177,0.001660902932507515,28.953561474001617
1604,C,19741873184375.0,8.5061035,19.561646,-2.6462357599423854,23,1970-01-01 05:29:01.873184375,1.1675262,-0.18841553,-1.2171783,21.52289084036152,1.697097773736832,90.31990814208984,-20.699079513549805,152.18865966796875,29003915.0,50354.0,0.2986069191266,0.14105759174899996,-0.16603366971883887,0.008054527395742118,0.0018709039119501425,-0.004197460067565068,29.003915478002455
1604,C,19741923538379.0,1.2982941,19.544754,-1.4898026599423855,23,1970-01-01 05:29:01.923538379,-0.033172607,0.0039367676,-0.7322998,19.6624264671897,0.7330613324097464,90.44247436523438,-20.24739646911621,152.14556884765625,29054269.0,50354.0,0.24684531837520002,0.4911126328,-0.10413303929743888,0.01373285098358282,0.015916149743470172,-0.006801987232902825,29.054269481999654
1604,C,19741973892383.0,4.587509,11.638443,2.6902357400576147,23,1970-01-01 05:29:01.973892383,-1.0995636,0.024795532,-0.60284424,12.751235186813522,1.254223308088835,90.08060455322266,-20.24873924255371,152.25315856933594,29104623.0,50354.0,0.14818686464869998,0.29163015086900007,0.030223303658061126,0.00994572527199273,0.019707115064434417,-0.0018608254141926138,29.10462348600049
1604,C,19742024246387.0,3.590332,9.211777,-0.9949448599423856,23,1970-01-01 05:29:02.024246387,-1.2111816,0.4890442,0.20176697,9.961259396259987,1.3216788596006146,90.19549560546875,-20.284666061401367,152.21533203125,29154977.0,50354.0,0.20589350285700003,0.03147678893999997,0.042682338488661126,0.00891468141269101,0.008134863423571195,0.0018355453523280262,29.15497749000133
1604,C,19742074600391.0,2.6609344,10.379318,1.0771223400576144,23,1970-01-01 05:29:02.074600391,-1.8948822,-0.16365051,1.445694,10.749100566752018,2.3890146887233867,89.97733306884766,-20.2100887298584,152.25009155273438,29205331.0,50354.0,0.1573881341528,-0.00022420118500005444,0.002068982416861117,0.009146341774995737,0.0007868464019076329,0.0011267040064383337,29.205331494002166
1604,C,19742124954394.0,-1.1747284,9.882874,1.0544935800576143,23,1970-01-01 05:29:02.124954394,-2.2516785,-0.41645813,2.0376587,9.987257688572383,3.065215558340235,89.74618530273438,-19.664152145385742,152.2705078125,29255685.0,50354.0,0.037418208462,0.016672007983999936,0.05366769402074111,0.00490463928801282,0.00041410643177842006,0.0014032823026695115,29.25568549700256
1604,C,19742175308398.0,0.26934814,7.0216827,1.5585829400576146,23,1970-01-01 05:29:02.175308398,-1.7041321,-0.7383728,1.9218597,7.15295550580255,2.672602722537403,89.39677429199219,-19.33748435974121,152.32411193847656,29306039.0,50354.0,-0.022794758806020003,-0.06786317596410005,0.06578942754694111,0.0003681745919886085,-0.0012888400362349806,0.003007571949709536,29.30603950099976
1604,C,19742225662402.0,1.6650085,5.0931396,1.2364546400576144,23,1970-01-01 05:29:02.225662402,-2.0546417,-0.18284607,2.1869965,5.453692775307283,3.0063164989244866,89.02909851074219,-19.415464401245117,152.404541015625,29356393.0,50354.0,0.04870129712528,-0.18845431895290005,0.07037066115456113,0.000652248915264009,-0.006453305569525311,0.0034281025532377227,29.356393505000597
1604,C,19742276016406.0,2.0535583,2.2648926,0.5367476100576145,23,1970-01-01 05:29:02.276016406,-1.7920074,0.61968994,2.1071625,3.0734861017207056,2.834685157966968,88.79010009765625,-20.071090698242188,152.48638916015625,29406747.0,50354.0,0.09362235632360001,-0.30821602330060005,0.04464391305115112,0.0035832826228824523,-0.012504669206916372,0.0028957219347772174,29.406747509001434
1604,C,19742326370410.0,-1.2784882,-2.4677582,0.5919996900576144,23,1970-01-01 05:29:02.326370410,-0.59547424,0.523407,0.8671875,2.803880339874197,1.1749717521322918,86.44691467285156,-18.250825881958008,153.27088928222656,29457101.0,50354.0,0.019513939907700006,-0.49857674721120016,0.028418470775001117,0.0028484325302154407,-0.020312621583175594,0.001839491637591035,29.45710151300227
1604,C,19742376724414.0,1.7022247,0.36499023,1.7279249400576144,23,1970-01-01 05:29:02.376724414,0.55744934,-0.7272339,-0.07066345,2.3022944094180904,0.9190278750623118,85.51181030273438,-19.164026260375977,153.5448760986328,29507455.0,50354.0,0.0106684138605,-0.5464105891806901,0.05840874241241112,0.0007599011208219716,-0.026309646168338623,0.002186048746419478,29.50745551699947
1604,C,19742427078418.0,5.853882,6.5339966,2.614704740057615,23,1970-01-01 05:29:02.427078418,1.3395996,-0.7700958,-0.40597534,9.093360237969529,1.5976202947465068,85.2794189453125,-19.67116928100586,153.6063690185547,29557809.0,50354.0,0.19024009838589998,-0.31977340858109005,0.10933438745626115,0.005058273612827612,-0.02180791451164834,0.004223268780703562,29.55780952100031
1604,C,19742477432422.0,15.504532,16.616287,8.694111440057615,23,1970-01-01 05:29:02.477432422,0.925766,-0.79356384,0.06506348,24.254468022604865,1.2210730982792373,84.89476013183594,-20.196468353271484,153.7161102294922,29608163.0,50354.0,0.5377407892780001,0.08938549019719996,0.28472206496676117,0.01832837480871401,-0.005800476621151201,0.009921159302654433,29.608163525001146
1604,C,19742527786426.0,1.4748383,6.7661285,1.5082594400576144,23,1970-01-01 05:29:02.527786426,0.97694397,-0.29455566,-1.6224518,7.043563218398777,1.9166461334009042,84.80452728271484,-19.917247772216797,153.74337768554688,29658517.0,50354.0,0.4274896060431,0.09522987504349999,0.2568650916486611,0.02430160566299934,0.0046480610506651025,0.013635539842106486,29.658517529001983
1604,C,19742578140430.0,3.5231323,11.313843,2.2166792400576147,23,1970-01-01 05:29:02.578140430,0.8076935,-1.2281799,-1.8647003,12.01652402458302,2.374426639322923,84.74806213378906,-19.759933471679688,153.7108612060547,29708871.0,50354.0,0.12583390579620002,-0.03826975754450006,0.09378278114926113,0.013931026057578058,0.0014340848782723214,0.00882826149343329,29.708871532999183
1604,C,19742628494434.0,4.6090393,7.6010284,-1.7235520599423855,23,1970-01-01 05:29:02.628494434,0.75798035,-1.1565857,-1.6278076,9.099533722199798,2.135879742646662,85.25041198730469,-19.972740173339844,153.49176025390625,29759225.0,50354.0,0.2047436843732,-0.01724948276220006,0.012415463013761128,0.008322951987694985,-0.001397807913201789,0.0026737531932924117,29.75922553700002
1604,C,19742678848437.0,5.2828827,11.346649,-0.38628705994238555,23,1970-01-01 05:29:02.678848437,0.9205322,-0.57658386,-1.5919647,12.530942265129966,1.9272208189243467,85.49728393554688,-20.023616790771484,153.3898468017578,29809579.0,50354.0,0.24904892019400005,-0.01642352610020004,-0.05311941952133888,0.011425136405188396,-0.0008477853441286473,-0.0010248035129912852,29.809579540000414
1604,C,19742729202441.0,3.7920227,7.8907623,-0.05660565994238553,23,1970-01-01 05:29:02.729202441,1.0270386,0.10354614,-1.2176514,8.759042431346213,1.5963098135765563,85.70463562011719,-20.10580062866211,153.33663940429688,29859933.0,50354.0,0.22847889325580004,-0.009128895699900087,-0.011150710008538883,0.012022717759225619,-0.000643333323661121,-0.0016181290511737324,29.85993354400125
1604,C,19742779556445.0,3.3250275,6.998825,-0.38102275994238555,23,1970-01-01 05:29:02.779556445,0.9372711,-0.25746155,-0.6486511,7.771885892045167,1.1685511602642062,85.9780502319336,-20.21038246154785,153.24420166015625,29910287.0,50354.0,0.1791859728854,-0.11859406054790005,-0.011018170727438882,0.010263778334836993,-0.0032156808694508644,-0.0005581459102897122,29.91028754800209
1604,C,19742829910449.0,2.9241486,4.144409,-0.22849591994238555,23,1970-01-01 05:29:02.829910449,0.9437866,0.5853729,-0.3242035,5.0920654888155905,1.15693668271268,86.23699951171875,-20.565275192260742,153.19662475585938,29960641.0,50354.0,0.1573355066697,-0.21291599758200005,-0.015345851803458883,0.008472601290758754,-0.008346428733536495,-0.000663766995260413,29.960641551999288
1604,C,19742880264453.0,3.183319,5.984619,-0.6047166199423856,23,1970-01-01 05:29:02.880264453,0.61187744,0.36201477,0.10255432,6.828731061791408,0.7183077918481526,86.53368377685547,-20.7581729888916,153.11990356445312,30010995.0,50354.0,0.1537677117652,-0.23845066204400006,-0.020977792116678884,0.007832645730535477,-0.011364058389403804,-0.0009145203829773087,30.010995556000125
1604,C,19742930618457.0,2.9072876,8.93663,-1.9105637599423855,23,1970-01-01 05:29:02.930618457,0.027160645,-0.14768982,-0.12321472,9.636427064764336,0.1942468810383498,86.96196746826172,-20.69286346435547,152.9615936279297,30061349.0,50354.0,0.1533432023682,-0.11779691392700005,-0.06332721412435888,0.007732131485136611,-0.00896924522022187,-0.002122547142130608,30.061349560000963
1604,C,19742980972461.0,2.949707,13.202972,-3.671428059942386,23,1970-01-01 05:29:02.980972461,0.023361206,0.1627655,-0.9146576,14.077391445064858,0.929320654657898,87.45914459228516,-20.460224151611328,152.7926025390625,30111703.0,50354.0,0.1474615530442,0.06393955955399996,-0.14053780804923888,0.007573361327017996,-0.0013559666110490231,-0.005132709663264671,30.1117035640018
1604,C,19743031326465.0,3.2234955,16.814102,-2.7648728599423853,23,1970-01-01 05:29:03.031326465,0.2843933,0.24108887,-1.0701141,17.378793599024586,1.1332023558665845,87.79719543457031,-20.174734115600586,152.6892547607422,30162057.0,50354.0,0.15542271934250002,0.2622706720979999,-0.1620467482599389,0.007625717325879947,0.008212995002302402,-0.00761817137419617,30.162057567999
1604,C,19743081680469.0,2.6243896,15.637482,-0.48583539994238556,23,1970-01-01 05:29:03.081680469,-0.29216003,0.42660522,-0.4893341,15.871936651098043,0.7118970138184731,87.90068054199219,-19.88625144958496,152.66790771484375,30212411.0,50354.0,0.1472322031627,0.323564330368,-0.08184308185911889,0.0076199429839134206,0.014749567857086482,-0.006140414252907518,30.212411571999837
1604,C,19743132034473.0,4.400467,12.317383,0.7040449700576145,23,1970-01-01 05:29:03.132034473,-1.1387329,0.60995483,-0.1028595,13.088736750613178,1.2958925838675783,87.82915496826172,-19.873960494995117,152.70132446289062,30262765.0,50354.0,0.1768648146182,0.210350436105,0.005493862346791119,0.00815979061666972,0.01344237207549072,-0.001922244299661876,30.262765576000675
1604,C,19743182388477.0,3.5256042,10.616379,-0.13196881994238557,23,1970-01-01 05:29:03.182388477,-1.5461426,0.62046814,0.70632935,11.192060629433373,1.8095410476032983,87.84292602539062,-19.871435165405273,152.70077514648438,30313119.0,50354.0,0.19955469460240002,0.08393412587399997,0.01440316123145112,0.009477113983647048,0.007409202416945283,0.0005009473626294049,30.313119580001512
1604,C,19743232742480.0,1.2446442,10.248856,-0.06663068994238558,23,1970-01-01 05:29:03.232742480,-2.00029,-0.084198,1.3715057,10.328171206590506,2.426783317982158,87.84276580810547,-19.62017059326172,152.66531372070312,30363473.0,50354.0,0.1201005439668,0.03185482159499997,-0.005000139860368884,0.00804795994145675,0.0029152183304270115,0.00023673986905973745,30.363473583001905
1604,C,19743283096484.0,0.37339783,8.775925,0.6961867000576145,23,1970-01-01 05:29:03.283096484,-1.9226837,-0.18075562,1.4218292,8.79669011152681,2.398120822306481,87.7240982055664,-19.268342971801758,152.6665496826172,30413827.0,50354.0,0.04073744418931,-0.014482288763000015,0.01585033166667112,0.004049418027806382,0.00043738825911126297,0.0002731752791072714,30.413827586999105
1604,C,19743333450488.0,1.1403503,7.567871,2.4396712400576144,23,1970-01-01 05:29:03.333450488,-1.7267761,-0.036712646,1.554779,7.968313894692586,2.3238849491204445,87.27291870117188,-19.08536148071289,152.78744506835938,30464181.0,50354.0,0.038111636669010004,-0.08198144810800001,0.07895149535828112,0.001985183308769923,-0.002428667503201168,0.0023868255990072227,30.464181590999942
1604,C,19743383804492.0,1.5056305,6.6821136,1.8655592400576144,23,1970-01-01 05:29:03.383804492,-1.6995544,0.22427368,1.8679352,7.044217097781119,2.535343320637097,86.89769744873047,-19.018129348754883,152.8969268798828,30514535.0,50354.0,0.06661785860160001,-0.13469733772580003,0.10839278779786113,0.0026367745024281483,-0.005455321790937584,0.004716767017022194,30.51453559500078
1604,C,19743434158496.0,0.279953,2.6253052,0.6601912100576144,23,1970-01-01 05:29:03.434158496,-1.3736725,0.7697296,1.6359711,2.6764125339972,2.270652160593432,86.64702606201172,-18.777843475341797,152.9962615966797,30564889.0,50354.0,0.0449556357795,-0.2591363168724,0.06359081908255113,0.002809085868032955,-0.009915549921818884,0.00433003127042814,30.564889599001617
1604,C,19743484512500.0,-0.12982178,1.0333099,1.0949293700576144,23,1970-01-01 05:29:03.484512500,-0.6745148,0.5475006,0.8186035,1.3593111068699626,1.1936661227628311,85.70246124267578,-18.317859649658203,153.3140106201172,30615243.0,50354.0,0.0037798537259400005,-0.4013562476273001,0.044188670845561114,0.001227013419278463,-0.016629221296408953,0.0027135642179200816,30.615243603002455
1604,C,19743534866504.0,1.0492249,2.5597992,1.9534956400576144,23,1970-01-01 05:29:03.534866504,0.51823425,-0.39657593,0.17605591,3.2640126772989855,0.6758956203248809,85.02462005615234,-18.394134521484375,153.51747131347656,30665597.0,50354.0,0.02314781235224,-0.4030054921893001,0.07675019647967112,0.0006779578488503379,-0.020251415523362546,0.003044877862647372,30.665597606999654
