Subject-id_accel,Activity_accel,Timestamp_accel,accel_x,accel_y,accel_z,Segment_accel,DateTime,gyro_x,gyro_y,gyro_z,accel_magnitude,gyro_magnitude,Roll,Pitch,Yaw,Time_Difference,Difference_Microseconds,vx,vy,vz,dx,dy,dz,Time_diff
1617,C,268694707941152.0,4.165506695485402,9.658871731258056,-0.7611110673868873,86,1970-01-04 02:38:14.707941152,0.69836426,-0.12289429,-1.7793121,10.139428668488664,1.9154026196511171,-99.50672912597656,14.08376693725586,-77.62535858154297,15005503.0,50354.0,0.20972956350457195,-0.06112382776023186,0.0016226039028006732,0.0105113455573173,-0.001111932489005959,0.0014777698435737242,15.005503258027602
1617,C,268694758295156.0,1.8316138954854018,11.989316031258056,0.7053959326131127,86,1970-01-04 02:38:14.758295156,-0.3828125,-1.4787292,-1.9369507,8.135606810200825,2.4667718725734207,-99.50363159179688,14.000456809997559,-77.53370666503906,15055857.0,50354.0,0.15098950511887194,0.05156722329686813,-0.0014027399481993219,0.009081823990732447,-0.0002406066305741087,5.535514784998223e-06,15.05585726199206
1617,C,268694808649159.0,0.8103738954854016,11.815228731258056,2.6316349426131125,86,1970-01-04 02:38:14.808649159,-1.0731049,-1.6005554,-1.3919525,8.49345570321459,2.3771544916410923,-99.53478240966797,13.945047378540039,-77.44051361083984,15106211.0,50354.0,0.06651732661327192,0.10585782348586813,0.08401642634557067,0.005476169502520186,0.0039634904028489504,0.0020799647824266184,15.106211265025195
1617,C,268694859003163.0,-0.7366234045145976,12.045437731258055,3.5167362326131126,86,1970-01-04 02:38:14.859003163,-0.89779663,-0.059127808,-0.56311035,9.232859316839562,1.0614274128716312,-99.57779693603516,13.917776107788086,-77.43270111083984,15156565.0,50354.0,0.0018568161111719322,0.1072707995267681,0.1547975410786707,0.001721455791373323,0.005365939341589143,0.006012619257840125,15.156565268989652
1617,C,268694909357167.0,-1.3144585045145982,9.555584731258056,0.5896427326131124,86,1970-01-04 02:38:14.909357167,-0.27513123,1.773819,0.58535767,11.757131199075994,1.8880610796026018,-99.61444854736328,13.93185043334961,-77.52782440185547,15206919.0,50354.0,-0.05164008922362807,0.0503797425387681,0.10338630320750068,-0.0012533934671523082,0.003969167697584005,0.006500294647592937,15.206919273012318
1617,C,268694959711171.0,6.761667595485402,4.9023562312580555,-1.5887936673868874,86,1970-01-04 02:38:14.959711171,-0.15267944,1.8355103,0.42105103,14.937162081674677,1.889363131499306,-99.64541625976562,13.937254905700684,-77.62468719482422,15257273.0,50354.0,0.13714438328337195,-0.1294616203867319,-0.025155623084799336,0.002152741611542172,-0.001991044438578185,0.0019696138334492517,15.257273276976775
1617,C,268695010065175.0,8.029062595485403,2.1966377312580576,-2.5328396673868876,86,1970-01-04 02:38:15.010065175,0.040130615,-1.3098602,-1.3273163,17.944189144116443,1.865237992871153,-99.62464904785156,13.882786750793457,-77.54670715332031,15307627.0,50354.0,0.372386214018072,-0.3147378290057319,-0.10377036246959934,0.012828451848258454,-0.011183609537354061,-0.0032459695383030953,15.30762728099944
1617,C,268695060419179.0,0.29381789548540205,6.588574731258056,0.003415332613112554,86,1970-01-04 02:38:15.060419179,0.59129333,-0.06813049,-1.0485687,13.718386787941066,1.2057221422823,-99.66690826416016,14.008167266845703,-77.55220794677734,15357981.0,50354.0,0.20954516212117197,-0.27228390583123185,-0.06368331647659933,0.014651286257057746,-0.014779446217990237,-0.0042159812748284444,15.357981285022106
1617,C,268695110773183.0,0.14879839548540197,7.282147731258055,3.4352848326131125,86,1970-01-04 02:38:15.110773183,0.7186432,-1.22406,0.03616333,12.851978296550673,1.41988686836062,-99.61600494384766,14.020201683044434,-77.49034118652344,15408335.0,50354.0,0.011143750357771933,-0.1442460205612319,0.08657615405990067,0.005556284749482371,-0.010486973956783061,0.0005763729718347778,15.408335288986564
1617,C,268695161127187.0,0.5909218954854021,7.523449731258056,1.5208103326131126,86,1970-01-04 02:38:15.161127187,1.270935,-0.017700195,1.2915192,12.514270371616956,1.8120736505718187,-99.47903442382812,14.273356437683105,-77.48188781738281,15458689.0,50354.0,0.018623937765771936,-0.12070867268623191,0.12477960797490067,0.0007494610838864641,-0.006670764311891396,0.005321304020750193,15.458689293009229
1617,C,268695211481191.0,1.589197495485402,7.045498731258055,-4.000139967386888,86,1970-01-04 02:38:15.211481191,0.859848,1.281189,2.2198029,14.303957369996775,2.7033883834316907,-99.45684814453125,14.372298240661621,-77.56594848632812,15509043.0,50354.0,0.05488886590647194,-0.12666678455923192,-0.062422082214699345,0.0018508318580560841,-0.0062281718870690434,0.001569975426064589,15.509043297031894
1617,C,268695261835195.0,2.491571895485402,7.569256731258056,-1.1115596673868873,86,1970-01-04 02:38:15.261835195,-0.8902588,-0.1265564,2.306778,12.468547323024323,2.475843693499733,-99.74116516113281,14.445625305175781,-77.63795471191406,15559397.0,50354.0,0.10274153095647194,-0.1255135017202319,-0.12869726170469933,0.003968660501818338,-0.006349143067658061,-0.0048118117218587005,15.559397300996352
1617,C,268695312189199.0,5.801416755485402,9.343487731258056,1.0234196326131126,86,1970-01-04 02:38:15.312189199,-0.085754395,-1.3937988,2.5514984,9.926188714879922,2.9086376529822022,-99.73326873779297,14.583148002624512,-77.58930206298828,15609751.0,50354.0,0.20879257526549194,-0.06765703266723187,-0.002219101655499324,0.007843494192350385,-0.004863454544273176,-0.0032960812803197216,15.609751305019017
1617,C,268695362543202.0,6.870294895485402,11.967129731258055,1.9893925326131126,86,1970-01-04 02:38:15.362543202,0.32907104,-0.12083435,2.522812,7.360339185854919,2.547051055014525,-99.7208251953125,14.70849609375,-77.60517120361328,15660105.0,50354.0,0.3190356842364919,0.043068215853768105,0.07585357188390067,0.013289132089481449,-0.0006190726409125774,0.0018538950569404607,15.660105307993945
1617,C,268695412897206.0,6.177011845485402,14.857129131258056,2.9185001726131126,86,1970-01-04 02:38:15.412897206,0.17962646,-0.11303711,2.4481812,4.341404556685141,2.457363270133808,-99.71582794189453,14.83010196685791,-77.62078094482422,15710459.0,50354.0,0.3284920418174219,0.1818851653815681,0.12356601463948068,0.01630280555885939,0.00566365127936206,0.005020786929899173,15.71045931201661
1617,C,268695463251210.0,4.040064195485402,14.287625431258057,1.8142216326131126,86,1970-01-04 02:38:15.463251210,-0.030380249,-0.014892578,1.3217316,5.03848520057851,1.3221645778220454,-99.77587890625,14.856760025024414,-77.6458511352539,15760813.0,50354.0,0.25723532348352196,0.24030828562046816,0.11915573689018068,0.014746857876181864,0.010629564515878268,0.006111005538262285,15.760813315981068
1617,C,268695513605214.0,4.890756965485402,15.232876831258055,1.9757206326131125,86,1970-01-04 02:38:15.513605214,0.09576416,-0.36766052,-0.53704834,3.957674545715654,0.6578494902361266,-99.76508331298828,14.833415985107422,-77.62239837646484,15811167.0,50354.0,0.22485128436976196,0.2497684854633682,0.09541937641160067,0.012137494525922131,0.012338662865577749,0.005402357627598949,15.811167320003733
1617,C,268695563959218.0,3.034433695485402,12.733288731258057,-1.0937678673868874,86,1970-01-04 02:38:15.563959218,0.027175903,0.28440857,-2.142624,7.772295786713465,2.1615883904595043,-99.76261901855469,14.725425720214844,-77.61810302734375,15861521.0,50354.0,0.19953252527126195,0.21063495036746818,0.02220492477010067,0.01068471117533206,0.011591577303912968,0.002961427030851695,15.861521324026398
1617,C,268695614313222.0,-2.1680351045145976,3.791424731258056,-1.1113306673868872,86,1970-01-04 02:38:15.614313222,-0.69137573,1.8221436,-1.995636,17.426212921420333,2.7894032952497194,-99.81623840332031,14.611604690551758,-77.69335174560547,15911875.0,50354.0,0.021813317324871948,-0.07742648915423186,-0.05551776580999933,0.005572824279042863,0.003353789427965651,-0.0008387173988615285,15.911875327990856
1617,C,268695664667226.0,-1.502645104514598,6.1930517312580555,3.2599003326131126,86,1970-01-04 02:38:15.664667226,-0.4185028,0.7304077,-1.2503662,14.535761668850071,1.5073339497037708,-99.84375762939453,14.54377555847168,-77.71952056884766,15962229.0,50354.0,-0.09241671562272806,-0.2420900361032319,0.05409453846140068,-0.0017775817589451234,-0.008044467556407166,-3.583259495566819e-05,15.962229332013521
1617,C,268695715021230.0,4.382440895485402,10.148312731258056,0.9749882326131125,86,1970-01-04 02:38:15.715021230,0.65335083,-1.1087646,-1.029892,9.163580625044155,1.64830330247162,-99.8428726196289,14.26768684387207,-77.66610717773438,16012583.0,50354.0,0.07250461862927193,-0.0820426669272319,0.10662178940670067,-0.000501326866004245,-0.008160689064197988,0.004046354986735189,16.01258333597798
1617,C,268695765375234.0,3.856668795485402,7.538769731258055,-0.2977168673868875,86,1970-01-04 02:38:15.765375234,0.5808563,-0.3863678,-0.938385,12.03721927444756,1.1692906081687007,-99.94266510009766,14.03001880645752,-77.67143249511719,16062937.000000002,50354.00000000186,0.2074360646895796,-0.04816152484123369,0.017051661162301297,0.007048066583918986,-0.0032781509361547796,0.0031137264649758775,16.062937340000644
1617,C,268695815729238.0,2.927484895485402,10.519192731258055,0.06223793261311261,86,1970-01-04 02:38:15.815729238,0.13194275,-0.44311523,-1.7618713,9.283467482994517,1.8215242172694837,-100.12480926513672,13.95331859588623,-77.68114471435547,16113291.0,50353.99999999814,0.1708046374775656,-0.03882387908123048,-0.005928653140799111,0.009522966158461862,-0.0021900315145557997,0.00028004397295735016,16.11329134402331
1617,C,268695866083242.0,1.347269395485402,11.708340731258055,1.9014866326131126,86,1970-01-04 02:38:15.866083242,-0.45228577,-0.4668579,-1.5900574,8.37270907346364,1.7177896413215628,-100.13826751708984,13.879166603088379,-77.64306640625,16163644.999999998,50353.99999999814,0.10762548878376796,0.06615340998576562,0.049440693378698844,0.007010035288881336,0.0006880755995834557,0.0010955026370695609,16.163645347987767
1617,C,268695916437245.0,-0.054464104514598155,11.588284731258057,2.2835514326131126,86,1970-01-04 02:38:15.916437245,-0.51834106,-0.08947754,-1.1035461,9.16971068183277,1.2224964946663794,-100.16069793701172,13.825642585754395,-77.6285171508789,16213999.000000002,50354.000000003725,0.03254895881077433,0.09306993926977498,0.10536670336820846,0.003529172067088052,0.004008766264207042,0.0038975858278971734,16.213999351020902
1617,C,268695966791249.0,-2.806509104514599,11.253430431258057,1.4205296326131125,86,1970-01-04 02:38:15.966791249,-0.2689972,-0.29013062,-0.32661438,11.286273257114821,0.5130421264303827,-100.169921875,13.812125205993652,-77.61083984375,16264353.0,50353.99999999814,-0.07203072248372543,0.08161666264666513,0.09325764897919721,-0.0009940323639938528,0.00439808457645005,0.005000765319050447,16.26435335498536
1617,C,268696017145253.0,5.158289312485402,8.526776731258057,1.7685673326131126,86,1970-01-04 02:38:16.017145253,-0.15756226,1.4258728,0.21453857,10.611839988510216,1.4505053966027814,-100.19552612304688,13.810079574584961,-77.68505859375,16314706.999999998,50353.99999999814,0.05921077029607871,0.004537075730667982,0.0802918942934977,-0.00032276793622836936,0.0021690926711260355,0.0043694568509764775,16.314707359008025
1617,C,268696067499257.0,7.653192895485402,6.918652731258057,1.6164829326131125,86,1970-01-04 02:38:16.067499257,-0.15020752,0.8668976,-0.69137573,12.471296135743371,1.1189611914554245,-100.21199798583984,13.76838207244873,-77.72267150878906,16365061.0,50354.00000000186,0.32255468755009287,-0.10459962242223572,0.08522541052760382,0.009611708932193416,-0.0025192747380536943,0.004167229183481027,16.36506136303069
1617,C,268696117853261.0,2.686594395485402,4.657711731258056,1.6257755326131125,86,1970-01-04 02:38:16.117853261,0.0051116943,-0.83395386,-1.5124359,14.693864994110939,1.7271269558536588,-100.06062316894531,13.60455322265625,-77.63404083251953,16415415.0,50354.0,0.26032482462477197,-0.2020110719272319,0.08163034137900067,0.014675157478026574,-0.007719537451636547,0.004200927265752582,16.41541536699515
1617,C,268696168207265.0,2.183725695485402,4.915570731258056,2.2696964626131124,86,1970-01-04 02:38:16.168207265,0.3583374,-1.2356262,-0.89508057,14.497568970851098,1.5672737556523828,-99.83045196533203,13.533905029296875,-77.51752471923828,16465769.000000002,50354.00000000186,0.12262004893037647,-0.2524426674412412,0.09807629842381428,0.009641403081498329,-0.01144178179608047,0.004524474070315639,16.465769371017814
1617,C,268696218561269.0,-0.4494377045145983,6.750790731258055,3.8794987326131123,86,1970-01-04 02:38:16.218561269,0.9697418,-0.9044647,0.2796631,13.606398930310068,1.3552368802961865,-99.77179718017578,13.555381774902344,-77.47412872314453,16516123.0,50353.99999999814,0.04366416874867031,-0.19974521745822452,0.15481828743020495,0.0041865377485052055,-0.011384734378113427,0.006367126988046407,16.51612337498227
1617,C,268696268915273.0,1.501749395485402,7.883267731258057,0.06324503261311243,86,1970-01-04 02:38:16.268915273,1.7140503,-0.05496216,1.6930695,12.115694810056372,2.4098700383614475,-99.78911590576172,13.745060920715332,-77.50962829589844,16566476.999999998,50353.99999999814,0.026494051443570945,-0.12502751008922725,0.09926645977709699,0.0017663735097799929,-0.008176802961461891,0.006397091680438004,16.566477379004937
1617,C,268696319269277.0,1.2212928954854019,7.5611387312580565,-1.8163630673868876,86,1970-01-04 02:38:16.319269277,-0.20114136,-0.3521576,2.3067474,13.04564462677611,2.3421264674110085,-99.79974365234375,13.861717224121094,-77.51197814941406,16616831.000000002,50354.000000003725,0.068558035759777,-0.10462537849323958,-0.0441382527615026,0.0023931263995188683,-0.005781970775841194,0.0013879628680317224,16.616831383027602
1617,C,268696369623281.0,4.120218595485402,7.745343731258057,-6.803118667386888,86,1970-01-04 02:38:16.369623281,-0.8596344,-0.124938965,2.45755,14.917066716925143,2.606555782855727,-99.84638214111328,13.983853340148926,-77.52722930908203,16667185.0,50353.99999999814,0.13448323480816696,-0.10809789104122786,-0.21701269163639134,0.005111970069088936,-0.0053557337570690885,-0.006574997327105532,16.66718538699206
1617,C,268696419977284.0,7.7375434954854025,9.019116731258055,-4.194246967386887,86,1970-01-04 02:38:16.419977284,-0.047821045,1.7375488,2.5765076,12.533929566461728,3.108014494429537,-99.87568664550781,14.095893859863281,-77.63819122314453,16717538.999999998,50353.99999999814,0.2985428761643609,-0.07139037893522923,-0.2768806745866891,0.01090229839595493,-0.004518976173197093,-0.012434753281398037,16.717539390025195
1617,C,268696470331288.0,6.322428095485402,11.712231731258056,1.3849003326131126,86,1970-01-04 02:38:16.470331288,0.41900635,0.5604248,3.0986328,7.597011447056299,3.176659803477735,-99.86841583251953,14.243734359741211,-77.69407653808594,16767893.0,50354.00000000186,0.35398790474588504,0.02848396024076915,-0.07073092022370192,0.01642876747097787,-0.0010802549034704615,-0.008751817122541538,16.767893393989652
1617,C,268696520685292.0,3.7824195954854023,13.107358031258055,2.6867954626131128,86,1970-01-04 02:38:16.520685292,0.3576355,-0.38157654,2.5485077,6.144885846238499,2.601613980531684,-99.63825988769531,14.352876663208008,-77.64457702636719,16818247.0,50354.0,0.25440975031557195,0.1314136114508681,0.10251308503641068,0.015317627761482303,0.0040257411624803514,0.0008001795634895685,16.818247398012318
1617,C,268696571039296.0,4.463266725485402,14.229107731258056,1.0197575326131125,86,1970-01-04 02:38:16.571039296,0.8744812,-1.8496857,1.1666565,5.233849886731064,2.355237131783163,-99.57365417480469,14.425827026367188,-77.56048583984375,16868601.0,50354.0,0.20760164450308197,0.19478099850286806,0.09331988476081068,0.011632060887349251,0.008212601694805217,0.004930486680584643,16.868601401976775
1617,C,268696621393300.0,5.801279395485402,19.278546411258056,0.4696018326131126,86,1970-01-04 02:38:16.621393300,0.42318726,-1.213211,-0.5815277,2.442267008639154,1.4103697576928533,-99.53587341308594,14.407224655151367,-77.49374389648438,16918955.0,50354.0,0.25843047768768196,0.35015300834612817,0.03749760073830067,0.011733290740396864,0.01371980349043718,0.0032935918324111264,16.91895540599944
1617,C,268696671747304.0,-8.771566104514598,15.508908331258056,-0.6246669673868874,86,1970-01-04 02:38:16.671747304,-1.1374207,1.4307098,-2.0369415,14.826869915200993,2.736747532204383,-99.60646057128906,14.294898986816406,-77.54907989501953,16969309.0,50354.0,-0.07478290847322808,0.3823745480523281,-0.0039040748981993287,0.0046236948501123054,0.018442846287443936,0.0008457842000762315,16.969309410022106
1617,C,268696722101308.0,-1.7495321045145982,5.751248731258055,0.9979069326131125,86,1970-01-04 02:38:16.722101308,-0.3317566,0.6226654,-1.4266815,15.146204027272027,1.591601314539219,-99.62782287597656,14.219371795654297,-77.56845092773438,17019663.0,50354.0,-0.2648896896087281,0.04179777436296809,0.009397062604500668,-0.008551937001909411,0.010679386561449913,0.00013829695148154882,17.019663413986564
1617,C,268696772455312.0,2.943033595485402,11.119351431258057,2.8710758586131124,86,1970-01-04 02:38:16.772455312,-0.16526794,0.52783203,-1.4807892,8.279032492241566,1.5807140154760457,-99.39421081542969,14.186421394348145,-77.52232360839844,17070017.0,50354.0,0.03004878703817193,-0.06871809970833188,0.09740937973470266,-0.005912589404018893,-0.0006777730312202243,0.0026890657987741224,17.07001741800923
1617,C,268696822809316.0,6.174936655485402,6.034008731258057,0.3174870326131125,86,1970-01-04 02:38:16.822809316,-0.469162,1.9884491,-0.24389648,13.32671152438821,2.057553960043624,-99.44193267822266,14.158123016357422,-77.62142944335938,17120371.0,50354.0,0.2295631370086919,-0.061599051188331845,0.08027844791240267,0.006536249411727891,-0.003280994908125303,0.004473646436671171,17.120371422031894
1617,C,268696873163320.0,3.858438895485402,7.433911731258055,1.3942387326131125,86,1970-01-04 02:38:16.873163320,0.24235535,2.5085907,-0.81243896,11.815574369438025,2.6479842294707865,-99.3969955444336,13.907071113586426,-77.72700500488281,17170725.0,50354.0,0.25261029624679193,-0.15438736651523188,0.04309611959110067,0.012139680529073318,-0.005437890038522624,0.0031062014860357037,17.170725425996352
1617,C,268696923517324.0,4.097116795485402,10.038617231258057,1.5525944326131125,86,1970-01-04 02:38:16.923517324,1.3925629,1.7262726,-0.6365814,9.202347209377608,2.307484430888566,-99.31196594238281,13.686124801635742,-77.80107879638672,17221079.0,50354.0,0.20029702563157192,-0.053563338310731894,0.07419241860090067,0.011402847642931568,-0.00523557489540329,0.002952973526060018,17.221079430019017
1617,C,268696973871327.0,3.875147195485402,10.445065731258056,-0.019411767386887657,86,1970-01-04 02:38:16.973871327,2.2687378,0.39726257,-1.3460693,9.193098427524241,2.667750234762305,-99.20066833496094,13.616500854492188,-77.81010437011719,17271433.0,50354.0,0.20071769050067195,0.02224848594726814,0.03860093996240067,0.010096347508061505,-0.0007884140379549268,0.002839798388548238,17.271433432993945
1617,C,268697024225331.0,0.8147834954854023,9.587658731258056,-2.346224667386888,86,1970-01-04 02:38:17.024225331,1.1894531,-2.436676,-1.5914154,11.6699194576226,3.144008839273956,-99.10905456542969,13.557324409484863,-77.67333984375,17321787.0,50354.0,0.11807838500657195,0.01089470379276813,-0.05955962851829935,0.00802632879304588,0.0008344460880848933,-0.0005276769017718612,17.32178743701661
1617,C,268697074579335.0,-2.8735251045145977,9.308438731258056,1.8616459326131125,86,1970-01-04 02:38:17.074579335,-0.971817,-2.1856384,-1.0872345,12.71454697553091,2.6274554905904326,-99.12960052490234,13.520971298217773,-77.55350494384766,17372141.0,50354.0,-0.05183293749052806,-0.01772215418623189,-0.012200238805399343,0.001667861632111437,-0.00017189471855623715,-0.0018066981796087621,17.372141440981068
1617,C,268697124933339.0,0.502527595485402,11.012112731258055,2.1462986326131124,86,1970-01-04 02:38:17.124933339,0.021713257,2.2749634,0.041931152,9.363941568649807,2.2754533962217627,-99.15559387207031,13.504971504211426,-77.66934967041016,17422495.0,50354.0,-0.05969460428482806,0.018141324171768086,0.10090802031870068,-0.0028079289192781414,1.0553442725844777e-05,0.0022333958151603875,17.422495445003733
1617,C,268697175287343.0,2.543695895485402,10.043866231258056,1.9832127026131126,86,1970-01-04 02:38:17.175287343,0.5686493,3.139389,0.76008606,9.460743765770275,3.279764646787603,-99.07176208496094,13.58786678314209,-77.81290435791016,17472849.0,50354.0,0.07669476883217194,0.03665718233926809,0.10396870688699066,0.00042801314280847683,0.001379661998428358,0.005158181360857691,17.4728494490264
1617,C,268697225641347.0,3.6429389954854017,10.931332731258056,2.5857212426131126,86,1970-01-04 02:38:17.225641347,0.17512512,4.37825,1.2381287,8.304507286023995,4.553317971317038,-98.931884765625,13.547416687011719,-78.00175476074219,17523203.0,50354.0,0.15576090664997194,0.034623384279268116,0.11503204993896068,0.005852536541613937,0.0017946308257548863,0.005513782054606977,17.523203452990856
1617,C,268697275995351.0,3.7464545954854023,8.668408731258056,2.4989902926131125,86,1970-01-04 02:38:17.275995351,0.847702,4.290802,1.104187,10.522775934950623,4.510965463731351,-98.76155090332031,13.431112289428711,-78.18633270263672,17573557.0,50354.0,0.18604276243987194,-6.509198231874438e-06,0.12801778232239067,0.008605590976675,0.0008715490639152494,0.006119265626844043,17.57355745701352
1617,C,268697326349355.0,5.077356695485402,5.0123567312580555,2.6603062026131123,86,1970-01-04 02:38:17.326349355,-0.27183533,6.2811584,1.3809509,14.074674858841478,6.436914686457913,-98.85183715820312,13.451261520385742,-78.51628875732422,17623911.0,50354.0,0.22215709687277194,-0.1490285679502319,0.12989560786031068,0.010277247857914435,-0.003752256137366872,0.006493485424629871,17.62391146097798
1617,C,268697376703359.0,4.139185295485402,6.797390731258057,6.073315832613113,86,1970-01-04 02:38:17.376703359,2.6231384,1.0661469,0.41893005,12.753390440193611,2.862346356527661,-98.73405456542969,13.463808059692383,-78.57373809814453,17674265.0,50354.0,0.23204487770667193,-0.19613518813623187,0.2198864019808907,0.011435443113986659,-0.0086901878869889,0.008806461661771929,17.674265465000644
1617,C,268697427057363.0,5.995050795485402,9.194638731258056,-2.0325953673868873,86,1970-01-04 02:38:17.427057363,1.6391907,3.8169708,0.10472107,11.0495409923324,4.155379494284616,-98.69741821289062,13.440071105957031,-78.7685317993164,17724619.0,50354.0,0.25514966206237194,-0.09083787422223186,0.1017332191530007,0.012266096927765218,-0.007225120790999042,0.008097417201287985,17.72461946902331
1617,C,268697477411367.0,4.069879895485402,11.743634331258056,-0.6161372673868875,86,1970-01-04 02:38:17.477411367,1.25737,2.871872,0.016708374,8.18757403236273,3.1351088132703984,-98.66846466064453,13.419214248657227,-78.91459655761719,17774973.0,50354.0,0.25340476000657197,0.03369370089496812,-0.06668714154569932,0.012803874684429803,-0.0014387188518605193,0.0008823550959190267,17.774973472987767
1617,C,268697527765370.0,1.0403388954854016,11.571515131258057,0.12632483261311256,86,1970-01-04 02:38:17.527765370,1.2801819,1.1312866,-0.083221436,9.00211288681824,1.7104387962850562,-98.61764526367188,13.40660572052002,-78.97145080566406,17825327.0,50354.0,0.12865997850027192,0.09353631801776813,-0.01233200767029933,0.009619243921386808,0.0032032701861659605,-0.0019894651198111984,17.825327476020902
1617,C,268697578119374.0,-0.9636131045145984,10.022457731258056,0.3544133326131127,86,1970-01-04 02:38:17.578119374,0.098983765,4.087021,0.0103302,11.234411336503307,4.088232521910491,-98.66081237792969,13.376424789428711,-79.17920684814453,17875681.0,50354.0,0.001931725239271913,0.05020225475956814,0.012103544785900673,0.003287907325050495,0.0036189060468149953,-5.752010040504993e-06,17.87568147998536
1617,C,268697628473378.0,2.015421295485402,10.103863731258055,2.7688114546131124,86,1970-01-04 02:38:17.628473378,1.2817383,3.8802185,0.76483154,9.528722151888593,4.15739292850795,-98.64371490478516,13.385042190551758,-79.38227844238281,17926035.0,50354.0,0.02648137482407192,0.013251195461768105,0.07863343046799467,0.0007153566202948077,0.001597567516222583,0.0022844848259673234,17.926035484008025
1617,C,268697678827382.0,2.297556295485402,9.734219731258056,-2.7548243673868877,86,1970-01-04 02:38:17.678827382,1.78302,2.3600159,0.38394165,11.270430926167146,2.982657633597516,-98.5830078125,13.386344909667969,-79.5051498413086,17976389.0,50354.0,0.10858783680787194,0.005994227335768111,0.0003521528950946583,0.0034006375412574505,0.00048454200977356935,0.0019886200323325004,17.97638948803069
1617,C,268697729181386.0,-0.24469510451459797,10.843991731258056,2.9777347926131124,86,1970-01-04 02:38:17.729181386,0.22987366,3.3800964,0.06738281,9.877143039140336,3.3885740387275365,-98.61136627197266,13.364408493041992,-79.67742919921875,18026743.0,50354.0,0.05168488620507194,0.02462842999176812,0.005612215775920658,0.004035186347296888,0.0007709866435353798,0.00015016491003015263,18.02674349199515
1617,C,268697779535390.0,0.6459601954854017,12.771435731258055,-1.0291316673868875,86,1970-01-04 02:38:17.779535390,0.7883301,1.9910736,0.13859558,8.68666559541467,2.145937362081779,-98.5955810546875,13.356369972229004,-79.77967071533203,18077097.0,50354.0,0.010102651195371928,0.1010964172237681,0.049059980883820666,0.0015556248291309753,0.0031653744783455558,0.0013764818953023075,18.077097496017814
1617,C,268697829889394.0,-2.339589704514598,11.790097331258057,1.3677647326131126,86,1970-01-04 02:38:17.829889394,0.53585815,2.4184418,-0.005142212,10.590411477686752,2.4771013582921704,-98.5971450805664,13.33803939819336,-79.90251159667969,18127451.0,50354.0,-0.042640510148828074,0.12491651791496812,0.008525764683200668,-0.0008192056748711655,0.005690327667987962,0.0014498363161408962,18.12745149998227
1617,C,268697880243398.0,-0.5993859045145982,11.655606331258056,1.1690800326131126,86,1970-01-04 02:38:17.880243398,0.1325531,1.767868,-0.004348755,9.568421173990174,1.7728357231886038,-98.61123657226562,13.324605941772461,-79.9923095703125,18177805.0,50354.0,-0.07399458890852807,0.09682328111116814,0.06387014065410067,-0.002936521888967056,0.005582742920081033,0.001822711708677236,18.177805504004937
1617,C,268697930597402.0,-0.4905754045145976,12.720654731258055,1.7549107326131126,86,1970-01-04 02:38:17.930597402,0.35224915,1.1815796,-0.49116516,8.603046839582802,1.3271974341482538,-98.60655212402344,13.291478157043457,-80.04854583740234,18228159.0,50354.0,-0.02744195587742806,0.12025192477096809,0.07361731549610068,-0.0025538678880760177,0.005465302458494544,0.0034615216834936197,18.228159508027602
1617,C,268697980951406.0,-0.6877037045145977,10.840161731258055,3.1587650726131127,86,1970-01-04 02:38:17.980951406,0.4213562,1.1887665,-0.65252686,10.135374149527701,1.4200345565591528,-98.59819793701172,13.25032901763916,-80.10391235351562,18278513.0,50354.0,-0.02966553312802805,0.09972147607676807,0.12371161574818067,-0.0014377952506903686,0.0055382703131434535,0.004968150501937272,18.27851351199206
1617,C,268698031305409.0,-3.533056104514597,3.6340607312580566,0.6565220326131125,86,1970-01-04 02:38:18.031305409,0.4757843,0.13813782,-0.116607666,17.879547565942836,0.5089696505792953,-98.57581329345703,13.243534088134766,-80.11003112792969,18328867.0,50354.0,-0.10626606971192805,-0.1290517010612319,0.09605748344828068,-0.0034223499647015746,-0.000738447074433846,0.005533126610469307,18.328867515025195
1617,C,268698081659413.0,3.459329995485402,10.011303731258057,5.832425332613113,86,1970-01-04 02:38:18.081659413,0.062454224,0.56933594,1.1080017,9.715316035041505,1.2472817283492994,-98.58128356933594,13.294066429138184,-80.14745330810547,18379221.0,50354.0,-0.0018562022470280473,-0.14991985892723186,0.1633722278143007,-0.002722194441110638,-0.007023666965829553,0.006531661840458011,18.379221518989652
1617,C,268698132013417.0,6.821894095485402,10.605908731258056,-0.4809443673868876,86,1970-01-04 02:38:18.132013417,1.0449066,1.360321,1.3623962,9.24626692183312,2.190531084358083,-98.54737091064453,13.351300239562988,-80.22699737548828,18429575.0,50354.0,0.25885037893837193,0.025610358168768138,0.13473423626150066,0.006470342386557966,-0.0031297403005958414,0.007505426446036451,18.429575523012318
1617,C,268698182367421.0,4.253061655485402,4.378842731258056,0.15836833261311245,86,1970-01-04 02:38:18.182367421,0.32711792,-0.55952454,0.20036316,14.976809866916554,0.6783946051764589,-98.56947326660156,13.123251914978027,-80.21036529541016,18479929.0,50354.0,0.278834160942192,-0.1161981124282319,-0.008121496827499337,0.013537283660572956,-0.0022807278889905194,0.003187728940729852,18.479929526976775
1617,C,268698232721425.0,5.8124030954854025,10.545819731258057,1.2854130326131126,86,1970-01-04 02:38:18.232721425,0.25056458,0.9619293,-0.49291992,8.699708954793794,1.109531718556019,-98.5671615600586,13.091715812683105,-80.25542449951172,18530283.0,50354.0,0.25341820603519194,-0.11771097318123189,0.03635008343230067,0.013400517843389597,-0.005889129048389469,0.0007107111249490832,18.53028353099944
1617,C,268698283075429.0,3.495493295485402,10.162167731258055,-1.2824580673868877,86,1970-01-04 02:38:18.283075429,-0.11526489,0.15942383,-0.9582672,9.970856026154792,0.9782525129200645,-98.5730972290039,13.043147087097168,-80.25617980957031,18580637.0,50354.0,0.23434490743547193,0.027895800343768113,7.4397159500663e-05,0.012280411907850905,-0.002261276606528826,0.0009170591478597822,18.580637535022106
1617,C,268698333429433.0,-0.5139671045145979,10.731518731258056,1.6508457326131125,86,1970-01-04 02:38:18.333429433,-0.7471466,0.20831299,-1.3645172,10.187790321740056,1.569563484791278,-98.6104736328125,12.974136352539062,-80.25628662109375,18630991.0,50354.0,0.07506588491007195,0.0325711440667681,0.009274896247400662,0.007790035518883758,0.0015223762594240703,0.00023538716010555467,18.630991538986564
1617,C,268698383783437.0,-2.7377068045145982,12.457059031258055,1.7034428326131126,86,1970-01-04 02:38:18.383783437,-0.47590637,1.981308,-0.7545624,10.400089043621676,2.1728857952879936,-98.65548706054688,12.921965599060059,-80.3509750366211,18681345.0,50354.0,-0.08186739400762807,0.0903496223268681,0.08445092320670068,-0.00017124159454917062,0.003094776135492579,0.0023597349563959096,18.68134554300923
1617,C,268698434137441.0,-3.4318751045145985,12.905682731258056,-0.2537256673868873,86,1970-01-04 02:38:18.434137441,-0.20202637,1.8510132,0.35775757,11.051985671766772,1.8960630262841798,-98.68721008300781,12.92569637298584,-80.44761657714844,18731699.0,50354.0,-0.1553315637236281,0.1450885493548681,0.03649952906890068,-0.005971958158799837,0.005927626848431073,0.0030451695369428156,18.731699547031894
1617,C,268698484491445.0,0.5784248954854023,12.989651731258057,-0.8532893673868873,86,1970-01-04 02:38:18.484491445,-0.30877686,1.3173676,1.1193237,8.487861565954082,1.7560427352951609,-98.71955871582031,12.971050262451172,-80.52310943603516,18782053.0,50354.0,-0.07184131591272808,0.15849763576276818,-0.027871317530499325,-0.00571953159060454,0.007643389382706728,0.00021723248190233093,18.782053550996352
1617,C,268698534845449.0,2.795801495485402,11.565594731258056,-0.4907252673868876,86,1970-01-04 02:38:18.534845449,0.028518677,-1.6151733,1.1697693,8.563277008840233,1.994481967627988,-98.70174407958984,13.041096687316895,-80.45027923583984,18832407.0,50354.0,0.08495289784547194,0.12475824018676815,-0.03383825645969933,0.0003301102983206923,0.007131533188781476,-0.0015536619443512316,18.832407555019017
1617,C,268698585199452.0,2.241831195485402,10.596386731258056,1.1038334326131125,86,1970-01-04 02:38:18.585199452,0.10549927,-0.9820709,0.63804626,9.152692520119798,1.1758811072967073,-98.7537841796875,13.225095748901367,-80.42070770263672,18882761.0,50354.0,0.12683247826057195,0.06450300728176811,0.015436224275900665,0.005332120414221868,0.004765030427515337,-0.000463307964291499,18.882761557993945
1617,C,268698635553456.0,2.987558695485402,11.847592431258056,0.8418247326131125,86,1970-01-04 02:38:18.635553456,0.20283508,0.3088379,0.5100708,7.823980780245303,0.6298373910523702,-98.9102554321289,13.329376220703125,-80.47760009765625,18933115.0,50354.0,0.13166034928497194,0.0716028633746681,0.04898583562590067,0.006508073919114159,0.0034267375055170943,0.0016219542021476522,18.93311556201661
1617,C,268698685907460.0,-1.037847104514598,11.074673731258056,0.9359104326131125,86,1970-01-04 02:38:18.685907460,0.31861877,0.40937805,0.57392883,10.326084784053092,0.7736295045584056,-98.9001693725586,13.3545560836792,-80.50293731689453,18983469.0,50354.0,0.049087888725871935,0.0836446951736681,0.04475803825490067,0.004550698388399017,0.003908667781571461,0.0023601895126969356,18.983469565981068
1617,C,268698736261464.0,-4.677236104514598,6.5141117312580565,0.4264805326131125,86,1970-01-04 02:38:18.736261464,0.4149933,0.16397095,1.4461365,16.16507735405722,1.5134122664102607,-98.88402557373047,13.424729347229004,-80.52276611328125,19033823.0,50354.0,-0.14388864995372808,-0.05063634841023188,0.03430091733150067,-0.002386798765433734,0.0008310511464630337,0.0019904673247988264,19.033823570003733
1617,C,268698786615468.0,1.4639533954854018,3.2094847312580566,1.4070713326131126,86,1970-01-04 02:38:18.786615468,0.13471985,1.4236908,2.4028778,16.37082448230132,2.796223641578317,-98.80429077148438,13.527099609375,-80.59220123291016,19084177.0,50354.0,-0.08090081876522806,-0.24865821186323186,0.04616333531080067,-0.005659524453937159,-0.007535339144004997,0.002025848488775221,19.0841775740264
1617,C,268698836969472.0,5.702188845485402,8.974041731258056,0.36921433261311254,86,1970-01-04 02:38:18.836969472,0.27044678,0.04647827,0.9036255,10.41840341983292,0.9443731966997004,-98.79297637939453,13.571389198303223,-80.60166931152344,19134531.0,50354.0,0.18042196320092194,-0.18672455425323187,0.04472154419340067,0.002505643853457465,-0.010961631902514209,0.0022882086112772774,19.134531577990856
1617,C,268698887323476.0,0.717630895485402,8.496258731258056,0.4123356326131127,86,1970-01-04 02:38:18.887323476,0.26661682,-0.38002014,-0.4886322,11.7487677993523,0.6739890669657572,-98.87063598632812,13.771071434020996,-80.60126495361328,19184885.0,50354.0,0.16163180161842194,-0.05361944525523187,0.019677083474500673,0.008611887636856622,-0.006051140875624592,0.0016213642487947523,19.18488558201352
1617,C,268698937677480.0,4.489725495485402,12.335507431258055,1.3631565326131125,86,1970-01-04 02:38:18.937677480,0.1775055,-0.8338928,-1.6056213,6.943268495893133,1.8179398129299493,-98.93502807617188,13.50131893157959,-80.56652069091797,19235239.0,50354.0,0.13110561185547195,0.03101217667366809,0.044701566243900676,0.007370249859032228,-0.0005691832010780314,0.0016208612639601909,19.23523958597798
1617,C,268698988031484.0,4.146799395485402,14.935711731258056,1.3865025326131126,86,1970-01-04 02:38:18.988031484,0.09024048,-1.6298981,-2.109375,4.516865553509944,2.667240906112389,-99.16148376464844,13.413629531860352,-80.52608489990234,19285593.0,50354.0,0.21744178717997195,0.1931382848546681,0.06922816628520068,0.008775377865515372,0.005643436169898921,0.002868408875885185,19.285593590000644
1617,C,268699038385488.0,4.345026395485402,16.810498331258056,1.9408695326131125,86,1970-01-04 02:38:19.038385488,-0.15592957,-0.6800995,-2.082672,2.586273342831892,2.196445314658354,-99.1573715209961,13.316240310668945,-80.47454071044922,19335947.0,50354.0,0.21379869793927195,0.30580513074396815,0.08377324648620067,0.010857341693847205,0.012561898374526866,0.0038521165693455716,19.33594759402331
1617,C,268699088739492.0,2.780084895485402,15.409405731258056,2.1253330326131126,86,1970-01-04 02:38:19.088739492,-0.08015442,-1.1024323,-2.1070557,4.455271156713011,2.3793834138346255,-99.14459228515625,13.220993041992188,-80.40141296386719,19386301.0,50354.0,0.17938892697277192,0.3177313245819681,0.10237478198470068,0.009899284832410529,0.0156987773357411,0.004686648912811883,19.386301597987767
1617,C,268699139093495.0,-0.5165917045145978,11.511349731258056,1.3295567326131126,86,1970-01-04 02:38:19.139093495,-0.108062744,-2.1203156,-1.4981537,9.605178297717492,2.5984380518049415,-99.12267303466797,13.163862228393555,-80.28168487548828,19436655.0,50354.0,0.056987968069071936,0.18431466027976814,0.08698375961910068,0.005951261086468504,0.012640011760863934,0.004767480001958907,19.436655601020902
1617,C,268699189447499.0,-2.2425438045145984,8.587841731258056,2.4886295726131125,86,1970-01-04 02:38:19.189447499,-0.49342346,-2.4696045,-0.45401,12.87106263169169,2.559011171800276,-99.11799621582031,13.161022186279297,-80.15279388427734,19487009.0,50354.0,-0.06946675471082808,0.012568143451768115,0.09613047660668067,-0.00031417841127949454,0.004956918349548889,0.004610267125456497,19.48700960498536
1617,C,268699239801503.0,-2.054342104514598,4.849652731258056,3.1048862826131125,86,1970-01-04 02:38:19.239801503,-0.20353699,0.20431519,1.2970276,15.978719807326822,1.3287033522666962,-99.13294219970703,13.22343635559082,-80.1737060546875,19537363.0,50354.0,-0.10818269653162808,-0.1551534019172319,0.14082794868703066,-0.004472680233931319,-0.0035898690523849816,0.00596590227361977,19.537363609008025
1617,C,268699290155507.0,1.822656895485402,0.008160731258055165,1.0182621326131125,86,1970-01-04 02:38:19.290155507,0.29008484,3.9734497,2.6343231,19.457844770873,4.776202458860127,-99.07561492919922,13.241852760314941,-80.37520599365234,19587717.0,50354.0,-0.005833138507728065,-0.3711640304542319,0.10380850765015068,-0.00287057667878587,-0.013251093994816344,0.006159212061201215,19.58771761303069
1617,C,268699340509511.0,6.800440195485402,3.712536731258057,-1.2854336673868878,86,1970-01-04 02:38:19.340509511,0.45391846,3.2071075,1.0208588,15.994385316233064,3.396135034774451,-99.09211730957031,13.266942024230957,-80.54617309570312,19638071.0,50354.0,0.21710371545937193,-0.3997931999862319,-0.006726577730999341,0.005319159315911538,-0.01941039019079956,0.0024442317495744735,19.63807161699515
1617,C,268699390863515.0,7.600778895485401,9.320721731258056,2.1138431926131127,86,1970-01-04 02:38:19.390863515,0.06349182,-1.4523315,-0.23518372,10.08163188859795,1.4726199031835068,-99.07159423828125,13.266791343688965,-80.47058868408203,19688425.0,50354.0,0.36257949305337195,-0.16533085168923187,0.020856866616620666,0.014594684140725353,-0.014228128249033151,0.0003557582832732881,19.688425621017814
1617,C,268699441217519.0,5.013971685485402,11.863125731258055,1.2222721326131125,86,1970-01-04 02:38:19.441217519,0.019989014,0.35964966,-1.1842194,7.40102015977821,1.2377895725668269,-99.07257843017578,13.205482482910156,-80.47924041748047,19738779.0,50354.0,0.31760157537710193,0.03987652756376809,0.08399337554322067,0.01712491875987404,-0.003158563518506802,0.002639814546858326,19.73877962498227
1617,C,268699491571523.0,2.125360895485402,14.646176431258056,1.3422062326131126,86,1970-01-04 02:38:19.491571523,-0.07142639,0.8001251,-1.7529297,5.599188153913092,1.9282283158330944,-99.08216094970703,13.11262321472168,-80.505615234375,19789133.0,50354.0,0.17974697639110196,0.1739555005456681,0.06456587180130068,0.01252174448786807,0.005383648971711275,0.0037402761703930146,19.789133629004937
1617,C,268699541925527.0,-1.1826836045145983,15.237149331258056,1.7559025326131126,86,1970-01-04 02:38:19.541925527,-0.2561798,0.06744385,-1.668457,7.527327212431731,1.689356541313841,-99.09268951416016,13.029718399047852,-80.4955062866211,19839487.0,50354.0,0.023733786154771924,0.2589032927228681,0.07800108438210068,0.005123035158617467,0.010898085838121936,0.0035894082558294966,19.839487633027602
1617,C,268699592279531.0,-4.423376104514598,13.577374731258056,2.7974674606131127,86,1970-01-04 02:38:19.592279531,-0.47099304,-0.2246399,-0.41529846,11.085732167374058,0.6669110430026055,-99.1129150390625,13.010991096496582,-80.48075866699219,19889841.0,50354.0,-0.1411437652942281,0.2319940723219681,0.11464019631945667,-0.002956031044794088,0.01235932295973384,0.004850129524223109,19.88984163699206
1617,C,268699642633534.0,-1.6560875045145984,11.066937731258056,1.9697391926131127,86,1970-01-04 02:38:19.642633534,0.15971375,0.35206604,1.4035645,10.583008976513227,1.4558338793009986,-99.11152648925781,13.077498435974121,-80.50999450683594,19940195.0,50354.0,-0.1530626552845281,0.12700065486876813,0.12002396190827667,-0.0074072350509113444,0.009038410246481166,0.0059081395116996425,19.940195640025195
1617,C,268699692987538.0,2.972284695485402,8.928158731258057,0.5836765326131124,86,1970-01-04 02:38:19.692987538,0.64949036,0.21343994,1.8776398,10.637619101500432,1.9982306058771528,-99.16897583007812,13.143892288208008,-80.55512237548828,19990549.0,50354.0,0.03313789667707192,0.009947343636768136,0.06428734771402067,-0.003019345647459924,0.003447939758373887,0.004640405842360581,19.990549643989652
1617,C,268699743341542.0,-0.5177208045145978,3.9162267312580568,-0.0966060673868876,86,1970-01-04 02:38:19.743341542,0.38978577,0.43572998,2.0653992,16.471792915297897,2.146547790599113,-99.20046997070312,13.420944213867188,-80.60375213623047,20040903.0,50354.0,0.06179855508297194,-0.17008610721023185,0.012262973103000662,0.0023902150459626246,-0.004031813650489096,0.0019273074272101462,20.040903648012318
1617,C,268699793695546.0,2.027902895485402,1.4018377312580554,1.6363193326131125,86,1970-01-04 02:38:19.793695546,-0.4143219,2.1956787,2.2374878,18.00490302503932,3.162122585479908,-99.11628723144531,13.433281898498535,-80.70220184326172,20091257.0,50354.0,0.03802185450437194,-0.3595762910272319,0.03876536087860066,0.002513178452180557,-0.013335310200424626,0.0012847403646547766,20.091257651976775
1617,C,268699844049550.0,5.568750735485402,6.191235731258056,2.3139011726131127,86,1970-01-04 02:38:19.844049550,-0.3164978,0.7836151,0.9756775,12.909885766430342,1.2908021019347233,-99.14321899414062,13.47523021697998,-80.74993896484375,20141611.0,50354.0,0.19126094846695196,-0.30229838943423193,0.09945470166008068,0.005772653130409023,-0.016664018829978276,0.0034799665145363807,20.14161165599944
1617,C,268699894403554.0,4.2920630954854015,9.769513231258056,1.6404240326131125,86,1970-01-04 02:38:19.894403554,0.17131042,-1.0573578,-0.51737976,9.43491060839704,1.1895522658879154,-99.0732650756836,13.259597778320312,-80.6810073852539,20191965.0,50354.0,0.24826570982235194,-0.09162542337073189,0.09955804569198068,0.011065962675749805,-0.009917819834990575,0.005010543940082849,20.191965660022106
1617,C,268699944757558.0,5.960153935485402,12.275876131258055,2.0763523326131126,86,1970-01-04 02:38:19.944757558,0.16862488,-0.81944275,-1.2652283,6.893378177576211,1.516813575164551,-99.05298614501953,13.203577995300293,-80.62920379638672,20242319.0,50354.0,0.25812006818875194,0.06156756798006811,0.09357727854730068,0.012749274732985563,-0.0007567666251707421,0.004862568058372387,20.242319663986564
1617,C,268699995111562.0,5.682276125485402,14.971264731258056,1.8217899326131126,86,1970-01-04 02:38:19.995111562,-0.075042725,-0.79577637,-1.713501,4.263230450024541,1.890760989291561,-99.04438781738281,13.125228881835938,-80.57501220703125,20292673.0,50354.0,0.293121461645062,0.19253206549556812,0.09814352781160067,0.013878607996625934,0.006397466472016094,0.004826954741698059,20.29267366800923
1617,C,268700045465566.0,4.705255865485402,15.497403231258057,3.1750919726131124,86,1970-01-04 02:38:20.045465566,-0.07698059,-0.70458984,-1.8839417,3.6382557610101327,2.012860944741803,-99.0367202758789,13.037741661071777,-80.52410125732422,20343027.0,50354.0,0.2615268929366719,0.2736404532922681,0.12580649572788066,0.013964381623304316,0.011736825505521353,0.005638389742653523,20.343027672031894
1617,C,268700095819570.0,2.691629795485402,13.658490231258057,2.5126621626131125,86,1970-01-04 02:38:20.095819570,0.44895935,-0.8628082,-2.0448914,5.985762140296201,2.2644167738589163,-99.00074005126953,12.943521499633789,-80.46392059326172,20393381.0,50354.0,0.18623139028626193,0.2405887297057682,0.14320058586259068,0.011273210296703806,0.01294674814034156,0.006772791293203298,20.393381675996352
1617,C,268700146173574.0,-0.1856131045145979,10.896817731258055,-0.17865256738688728,86,1970-01-04 02:38:20.146173574,0.45959473,-2.6156158,-1.719284,10.250288201270402,3.1636388545011602,-98.94507598876953,12.879007339477539,-80.31763458251953,20443735.0,50354.0,0.06309398222857193,0.12475978857226813,0.058763359579010674,0.006277264903805972,0.009198379644686122,0.005084846254383197,20.443735680019017
1617,C,268700196527577.0,-0.5333761045145984,10.716854731258056,2.1440098326131123,86,1970-01-04 02:38:20.196527577,-0.37161255,-3.1750793,-0.7535553,10.165650506520487,3.284367524922277,-98.9264907836914,12.86644458770752,-80.15077209472656,20494089.0,50354.0,-0.018101991315728077,0.050698231588768114,0.04948179986660067,0.0011327633552126698,0.00441750657359441,0.002725288379362157,20.494089682993945
1617,C,268700246881581.0,0.3633218954854023,8.562893731258056,4.430997132613113,86,1970-01-04 02:38:20.246881581,-0.7036896,0.20895386,0.9111481,11.690173935325456,1.170056250310501,-98.96566009521484,12.909825325012207,-80.16863250732422,20544443.0,50354.0,-0.00428145482072807,-0.00806297295923188,0.1655389503635007,-0.0005635480233775564,0.001073427906515834,0.005413577428543263,20.54444368701661
1617,C,268700297235585.0,0.04523689548540233,2.264157731258056,4.196027032613113,86,1970-01-04 02:38:20.297235585,0.7463074,1.2512817,2.7501984,17.645706317691747,3.1122776012772717,-98.947509765625,13.03591251373291,-80.2540054321289,20594797.0,50354.0,0.010286284680271948,-0.2208765253282319,0.21720258740790072,0.00015118360137373623,-0.005764009748383476,0.009636283696470575,20.594797690981068
1617,C,268700347589589.0,2.656229395485402,4.412655731258056,-2.557451967386888,86,1970-01-04 02:38:20.347589589,0.90911865,3.824173,2.070816,15.835170011629875,4.4428678530384875,-98.94966125488281,13.108448028564453,-80.4644546508789,20645151.0,50354.0,0.06801481680777194,-0.3253670674542319,0.04125440441720067,0.001971386832164481,-0.013752774935484092,0.006507171683180578,20.645151695003733
1617,C,268700397943593.0,6.750330295485402,9.849087731258056,-0.8906733673868876,86,1970-01-04 02:38:20.397943593,-0.25561523,0.410141,1.1023254,10.077368803445056,1.2036096016458628,-98.96916961669922,13.159700393676758,-80.49407196044922,20695505.0,50354.0,0.23682895333957193,-0.1344012848442319,-0.08681345155359935,0.0076750516009996776,-0.011575587805818424,-0.0011470401297531095,20.6955056990264
1617,C,268700448297597.0,7.000101495485402,11.403653231258055,2.6642582326131126,86,1970-01-04 02:38:20.448297597,-0.13705444,-1.0211334,0.21305847,7.892331865156711,1.0520889942196026,-98.96461486816406,13.178180694580078,-80.44398498535156,20745859.0,50354.0,0.346194621201272,0.04161105921326808,0.044653546151800665,0.014678784536214826,-0.002336179510710776,-0.0010614599383010855,20.745859702990856
1617,C,268700498651601.0,3.475107595485402,12.469891731258056,5.848538632613113,86,1970-01-04 02:38:20.498651601,-0.7001953,2.1878204,-1.0923157,7.473619154015327,2.5436165491804656,-99.0228500366211,13.10713005065918,-80.5461654663086,20796213.0,50354.0,0.2637343392833719,0.10759504152126807,0.21432668667580068,0.015356181438121879,0.003756561998193417,0.00652034532190052,20.79621370701352
1617,C,268700549005605.0,2.649439195485402,14.889523731258056,2.2139561326131125,86,1970-01-04 02:38:20.549005605,0.1321106,0.21134949,-1.2219238,4.947111705452317,1.2470844360194941,-99.01644897460938,13.045136451721191,-80.54704284667969,20846567.0,50354.0,0.15419771455627193,0.1953588030997681,0.20298943070410067,0.010522275319520713,0.007627468946023829,0.010506767887273777,20.84656771097798
1617,C,268700599359609.0,1.3658698954854018,16.953503731258056,-2.4792201673868877,86,1970-01-04 02:38:20.599359609,-0.31419373,-1.8314362,-1.2638702,6.884095734188134,2.2472748245574667,-99.00895690917969,12.997069358825684,-80.44406127929688,20896921.0,50354.0,0.10109343698337195,0.3082427024237681,-0.006678552603499337,0.006427465322313614,0.012679175104566072,0.00494251897793884,20.896921715000644
1617,C,268700649713613.0,-4.0343991045145975,12.495389031258057,3.3559696326131125,86,1970-01-04 02:38:20.649713613,-0.86468506,-1.874527,-2.00943,11.354665188881862,2.8808576243223483,-99.02725982666016,12.91252613067627,-80.33290100097656,20947275.0,50354.0,-0.06718555989572807,0.24796557308186817,0.022073921286000664,0.0008536986214356101,0.014003655752405407,0.0003876091973193359,20.94727571902331
1617,C,268700700067617.0,-3.234212104514598,10.684338731258055,4.019910132613113,86,1970-01-04 02:38:20.700067617,0.7209778,-1.1935272,0.3523407,11.961888539314913,1.4382142170445853,-98.97831726074219,12.939265251159668,-80.27525329589844,20997629.0,50354.0,-0.18300182440972806,0.09012680587686812,0.1857025248491007,-0.006298967774658469,0.008512151825044103,0.005231187584343447,20.997629722987767
1617,C,268700750421620.0,-3.559133104514598,3.6025367312580556,0.9432194326131125,86,1970-01-04 02:38:20.750421620,1.6919098,1.9832611,2.3775024,17.887046579640156,3.5282291626416518,-98.92057037353516,13.041268348693848,-80.39476013183594,21047983.0,50354.0,-0.1710360523277281,-0.13376853648023193,0.12495671306370068,-0.008913611622618934,-0.0010987678514008906,0.0078214676329306,21.047983726020902
1617,C,268700800775624.0,-0.47897870451459834,0.09112273125805714,-1.7643456673868871,86,1970-01-04 02:38:20.800775624,-0.011367798,5.062683,3.4875336,20.349321126428208,6.147664515606665,-99.10099029541016,13.253676414489746,-80.70563507080078,21098337.0,50354.0,-0.10166754101592808,-0.4004739357122319,-0.020673495212899327,-0.006865858369613232,-0.01345062272238966,0.002625538575829626,21.09833772998536
1617,C,268700851129628.0,8.108209895485402,4.429470731258055,0.6672794326131126,86,1970-01-04 02:38:20.851129628,-0.5928345,2.6722565,1.1091003,15.09780187060274,2.9533897510559948,-99.16382598876953,13.287217140197754,-80.85021209716797,21148691.0,50354.0,0.19208115369507192,-0.3796542183942319,-0.027620836592899323,0.0022763435264228048,-0.01964128653593844,-0.0012159063918745926,21.148691734008025
1617,C,268700901483632.0,3.482508095485402,8.602108731258056,1.7637608326131125,86,1970-01-04 02:38:20.901483632,0.3083496,-1.482193,-0.33355713,10.675879325975481,1.5502373766759068,-99.0453109741211,13.181961059570312,-80.7528305053711,21199045.0,50354.0,0.2918195068586719,-0.1653731238722319,0.061206300757600675,0.012183166930761609,-0.013722153396242758,0.000845581231274686,21.19904573803069
1617,C,268700951837636.0,7.414667495485402,13.199307731258056,2.0575840326131125,86,1970-01-04 02:38:20.951837636,0.38658142,-0.80010986,-1.1189117,6.337107928163418,1.4288402201629564,-99.01470184326172,13.1329927444458,-80.7032470703125,21249399.0,50354.0,0.27435818985387195,0.055425062276768126,0.09620999967180066,0.014254655870131716,-0.0027681623467889914,0.003963270195911038,21.24939974199515
1617,C,268701002191640.0,6.476175695485402,15.840054631258056,2.0538456326131125,86,1970-01-04 02:38:21.002191640,0.55667114,-1.068985,-1.434967,3.5733185208702762,1.873964241767409,-98.97196197509766,13.070481300354004,-80.63752746582031,21299753.0,50354.0,0.34972975901907194,0.23765482620106812,0.10351346468140069,0.015712662288774108,0.0073788723522064835,0.0050284376620205505,21.299753746017814
1617,C,268701052545644.0,5.111826299485402,16.717969031258058,1.6981632326131126,86,1970-01-04 02:38:21.052545644,0.32115173,-0.56385803,-1.3105316,2.6247371955288736,1.462384144565317,-98.94709777832031,13.010148048400879,-80.59846496582031,21350107.0,50354.0,0.2917511262273799,0.32624416175116816,0.09446432719980066,0.01615056424784992,0.014197284819673453,0.004984486866193007,21.35010774998227
1617,C,268701102899648.0,5.297205325485402,15.885571531258055,3.4282200326131127,86,1970-01-04 02:38:21.102899648,-0.061309814,-0.69296265,-1.7869263,3.257285196929998,1.9175666166314607,-98.93907165527344,12.927276611328125,-80.5490951538086,21400461.0,50354.0,0.26206818922188996,0.32739014074246814,0.1290669514686007,0.013943508905066269,0.016456550833882283,0.005627847003034341,21.400461754004937
1617,C,268701153253652.0,-1.852285104514598,9.129849731258055,-1.8651456673868876,86,1970-01-04 02:38:21.153253652,0.57110596,-2.2609863,-2.55159,13.070382930663776,3.4567083467419133,-98.8804702758789,12.818745613098145,-80.41426086425781,21450815.0,50354.0,0.08673275640338193,0.13634406112636807,0.03935352329330067,0.00878176140800747,0.01167543600045169,0.004240322293080391,21.450815758027602
1617,C,268701203607656.0,-2.824865104514598,8.693402731258056,0.7218143326131123,86,1970-01-04 02:38:21.203607656,-1.0216217,-1.2491913,-1.1990051,13.29600493805331,2.0104235950994482,-98.91545104980469,12.76917839050293,-80.34149169921875,21501169.0,50354.0,-0.11775661081272808,-0.04473317275123192,-0.028785653015599343,-0.000781087582464108,0.0023064873366208027,0.00026606726998168635,21.50116976199206
1617,C,268701253961659.0,-0.763326104514598,4.409985731258056,3.3223698026131125,86,1970-01-04 02:38:21.253961659,-0.8522644,0.7496948,1.5748291,15.847458856625146,1.9412582504296563,-98.9692611694336,12.841136932373047,-80.39201354980469,21551523.0,50354.0,-0.09033989006972806,-0.16356518867923192,0.10182042397259065,-0.005239245602717598,-0.005244327845734789,0.0018387964283841705,21.551523765025195
1617,C,268701304315663.0,3.4186042954854017,0.07894573125805593,2.4498722326131124,86,1970-01-04 02:38:21.304315663,0.8201294,1.2613373,2.8614502,19.0933472101485,3.2328750771094903,-98.94762420654297,12.972641944885254,-80.47876739501953,21601877.0,50354.0,0.06685193901407192,-0.3804513725682319,0.14532773772089067,-0.0005913561437282547,-0.013696704962527399,0.006222449266956779,21.601877768989652
1617,C,268701354669667.0,3.9285834954854018,1.8141297312580562,-1.1487910673868873,86,1970-01-04 02:38:21.354669667,0.55378723,3.085678,0.9097595,17.768663670155426,3.26431483831375,-99.0590591430664,12.773107528686523,-80.66522216796875,21652231.0,50354.0,0.18498014701327192,-0.4458072390802319,0.03275732049690067,0.006340376429910437,-0.020802713065473374,0.004483647510749333,21.652231773012318
1617,C,268701405023671.0,5.288034795485402,8.527447731258055,-0.15851096738688764,86,1970-01-04 02:38:21.405023671,-0.34843445,-0.86180115,0.3202057,10.972731559520023,0.9831782536247509,-99.06739807128906,12.795705795288086,-80.62417602539062,21702585.0,50354.0,0.23204679871177192,-0.2330993042262319,-0.03291394332949933,0.01049948741251943,-0.017092830040826842,-3.943293056336432e-06,21.702585776976775
1617,C,268701455377675.0,6.733331995485402,11.743420731258055,2.2958500326131124,86,1970-01-04 02:38:21.455377675,0.20069885,-1.8907928,-0.10670471,7.51996253091767,1.904406294901208,-99.03596496582031,12.80530834197998,-80.52757263183594,21752939.0,50354.0,0.30266195169627197,0.016890455280768088,0.053811785645200665,0.013462362209023322,-0.0054434901898999435,0.0005261449759824125,21.75293978099944
1617,C,268701505731679.0,5.218790411485402,13.715283431258056,1.2414524326131124,86,1970-01-04 02:38:21.505731679,0.2543335,0.8522644,-0.6581726,5.599756250876574,1.1064498669711025,-99.03162384033203,12.76611328125,-80.56541442871094,21803293.0,50354.0,0.30091858584030395,0.14750459469966812,0.08905866416700067,0.015196347193558373,0.004138974173357442,0.0035970493149217937,21.803293785022106
1617,C,268701556085683.0,4.292230965485402,15.339978331258056,1.2634251326131125,86,1970-01-04 02:38:21.556085683,0.09490967,0.78009033,-0.81477356,4.158834969388238,1.1319914851685464,-99.03414916992188,12.719758987426758,-80.5983657836914,21853647.0,50354.0,0.2394589852079939,0.23805512539486817,0.06306530245970067,0.013605086106282997,0.009707237072820141,0.00383002510776046,21.853647788986564
1617,C,268701606439687.0,5.8624824254854015,20.390561231258054,0.8634617326131127,86,1970-01-04 02:38:21.606439687,-0.7696686,0.16053772,-1.7482758,2.450624727808787,1.9169325460835598,-99.07131958007812,12.632170677185059,-80.59239196777344,21904001.0,50354.0,0.2556652190444719,0.4061185945654681,0.05354863060580067,0.012465742090464332,0.01621836174744139,0.0029359889927901275,21.90400179300923
1617,C,268701656793691.0,-1.5296684045145978,13.317364731258056,0.19657633261311247,86,1970-01-04 02:38:21.656793691,-1.1736298,-2.3410645,-2.9907074,9.243660559925763,3.975213283966415,-99.0989761352539,12.502992630004883,-80.44978332519531,21954355.0,50354.0,0.10908725860598194,0.3551952519582681,0.026688578368200672,0.009183373129805477,0.01916759871392811,0.002020132210338432,21.954355797031894
1617,C,268701707147695.0,-6.149847104514598,9.546582731258056,4.249234432613113,86,1970-01-04 02:38:21.707147695,-0.57392883,0.20266724,-0.8826599,14.891724317823126,1.0721738716935778,-99.12834167480469,12.45781135559082,-80.45286560058594,22004709.0,50354.0,-0.19334716197082807,0.08217640526376813,0.11193217763610068,-0.0021214115870167314,0.011011706213879207,0.0034900547739202953,22.004709800996352
1617,C,268701757501699.0,-1.3064476045145978,7.006344731258055,3.2429783326131125,86,1970-01-04 02:38:21.757501699,2.090042,0.07133484,3.0422974,13.724952935772249,3.691739114727446,-99.02995300292969,12.607457160949707,-80.4810562133789,22055063.0,50354.0,-0.18772713188922807,-0.07671614527623191,0.1886314407901007,-0.009594307496514635,0.00013747296570619928,0.007567290221116472,22.055063805019017
1617,C,268701807855702.0,-5.058385104514598,-0.15631426874194432,-0.5695674673868876,86,1970-01-04 02:38:21.807855702,1.584671,3.6599426,5.103409,22.06731442126494,6.47697039014513,-99.00054168701172,12.830801010131836,-80.70733642578125,22105417.0,50354.0,-0.16024739311522807,-0.3210059830452319,0.06730846535380067,-0.008760954616037193,-0.010013450024749494,0.0064437990169850055,22.105417807993945
1617,C,268701858209706.0,15.047082895485403,3.6798527312580553,-1.280001367386887,86,1970-01-04 02:38:21.858209706,-2.625702,5.2049713,3.792328,18.74123157629915,6.954695456036281,-99.19756317138672,12.976873397827148,-81.00172424316406,22155771.0,50354.0,0.25148544428327196,-0.40475707212923195,-0.046566594553099326,0.0022971004142578414,-0.018272536440127475,0.0005222180811492577,22.15577181201661
1617,C,268701908563710.0,8.656839695485402,10.192303731258056,-3.377856067386887,86,1970-01-04 02:38:21.908563710,1.5388031,-2.2022705,-0.43292236,11.383005639239427,2.7212739857514956,-99.09478759765625,12.972997665405273,-80.88663482666016,22206125.0,50354.0,0.596793659072872,-0.14420991674323191,-0.11727087663529932,0.021357122985197634,-0.013821341878842024,-0.004124936012110313,22.206125815981068
1617,C,268701958917714.0,7.324793195485402,12.301236231258056,3.9333622326131126,86,1970-01-04 02:38:21.958917714,0.02809143,-0.0055389404,-1.2430878,7.19551762409229,1.2434175030170034,-99.091064453125,12.91167163848877,-80.87628173828125,22256479.0,50354.0,0.40236957129597195,0.07285065563626811,0.013985978721900678,0.025155932650996384,-0.0017966121168900278,-0.002600403874765638,22.256479820003733
1617,C,268702009271718.0,6.876505295485402,15.998593431258056,2.2024509826131125,86,1970-01-04 02:38:22.009271718,0.6646271,-0.7808533,-1.9629822,3.569460876242962,2.214669315200836,-99.04550170898438,12.820906639099121,-80.82086944580078,22306833.0,50354.0,0.3575460921071719,0.21903561141316819,0.15448136931975068,0.019132396657500956,0.007348820545503659,0.004241502421644657,22.3068338240264
1617,C,268702059625722.0,5.272730230485402,18.143857081258055,2.4918796926131126,86,1970-01-04 02:38:22.059625722,0.2167511,-0.78923035,-2.7631836,1.0027352533867973,2.881848225014859,-99.02091217041016,12.69064998626709,-80.75865173339844,22357187.0,50354.0,0.3058813028373669,0.3661352765536181,0.11818916341017068,0.016703111522518656,0.01473284744633978,0.006865026002541231,22.357187827990856
1617,C,268702109979726.0,-0.06894460451459761,11.815335331258055,2.0611240726131124,86,1970-01-04 02:38:22.109979726,0.15795898,-2.370285,-3.229309,9.009697111997568,4.008944828513937,-98.98115539550781,12.549718856811523,-80.61282348632812,22407541.0,50354.0,0.13101571070506693,0.2608133873699181,0.11463097579710067,0.010999756109957856,0.01578468651160287,0.005861712644821471,22.40754183201352
1617,C,268702160333730.0,-2.0994164045145984,8.851895731258056,-0.057986067386887274,86,1970-01-04 02:38:22.160333730,0.08895874,-5.3358154,-1.6873322,12.895541351666733,5.596957172737379,-98.91522979736328,12.507874488830566,-80.32941436767578,22457895.0,50354.0,-0.05459282512432807,0.026869676460968082,0.05043300555758067,0.0019240989902662624,0.007242996498070223,0.0041558158585668125,22.45789583597798
1617,C,268702210687734.0,-3.3932396045145987,6.374371731258057,3.8121006326131126,86,1970-01-04 02:38:22.210687734,-1.1286316,-3.470398,-0.38719177,15.3731900706928,3.6697941405041092,-98.93295288085938,12.515666961669922,-80.15074157714844,22508249.0,50354.0,-0.1382886003393281,-0.11011746409623188,0.09451734240870067,-0.004856175648898471,-0.002095929549293037,0.0036494149107470656,22.508249840000644
1617,C,268702261041738.0,-2.0534571045145977,-0.30083026874194374,5.055569832613113,86,1970-01-04 02:38:22.261041738,1.0419464,0.94078064,3.482956,20.8173606042539,3.7552234302379093,-98.89727783203125,12.680421829223633,-80.22602081298828,22558603.0,50354.0,-0.1371314830432281,-0.3405556465982319,0.2232613393030007,-0.006934251439322618,-0.011346596907954516,0.008000713869455505,22.55860384402331
1617,C,268702311395742.0,7.571710895485402,0.42304673125805436,2.5835087226131126,86,1970-01-04 02:38:22.311395742,0.68766785,8.613953,3.2686462,18.814536250007194,9.238891780885144,-98.96471405029297,12.775007247924805,-80.6882095336914,22608957.0,50354.0,0.13893307569527194,-0.49039215612323195,0.1923290807849307,4.535869820050812e-05,-0.020920772829118296,0.01046332000655385,22.608957847987767
1617,C,268702361749745.0,9.872064895485401,5.038815731258056,-0.042177967386887616,86,1970-01-04 02:38:22.361749745,-3.064972,0.4742279,2.0515594,15.079917248881788,3.718580567051193,-99.12696838378906,12.872584342956543,-80.728759765625,22659311.0,50354.0,0.43918194308927194,-0.3559558887812319,0.06398308442433066,0.014555201827938461,-0.021308504726559686,0.006453171383473574,22.659311851020902
1617,C,268702412103749.0,7.134073595485402,10.800091731258055,3.6226475326131125,86,1970-01-04 02:38:22.412103749,0.6144562,-2.2443542,-0.05545044,8.54586147857127,2.3276075588621623,-99.07081604003906,12.887595176696777,-80.61465454101562,22709665.0,50354.0,0.428163548787172,-0.0946930268162319,0.09014548224370067,0.02183715744897323,-0.011345987747997346,0.003880494923001025,22.70966585498536
1617,C,268702462457753.0,7.692941995485402,15.098553731258056,1.0707829326131126,86,1970-01-04 02:38:22.462457753,0.23895264,0.3266449,-0.18833923,5.0212913334762375,0.4463932351816865,-99.06221771240234,12.875722885131836,-80.62967681884766,22760019.0,50354.0,0.37329977153387195,0.1585809968097681,0.11816649882300068,0.020178442015722924,0.0016085074205272607,0.00524467074731634,22.760019859008025
1617,C,268702512811757.0,4.726114625485402,16.633221731258057,2.5088169526131123,86,1970-01-04 02:38:22.512811757,0.33288574,1.1347504,-1.1504517,2.5174368909434524,1.6498516600677764,-99.01483917236328,12.757790565490723,-80.66865539550781,22810373.0,50354.0,0.3126745885461819,0.30544171081976823,0.09012358631034066,0.017270776463735517,0.011682699709988838,0.005244119473402135,22.81037386303069
1617,C,268702563165761.0,2.402017895485402,17.749005431258055,0.5404636326131125,86,1970-01-04 02:38:22.563165761,0.12004089,-0.4744873,-1.2772675,3.8511884778832335,1.367830501081743,-99.00129699707031,12.6984281539917,-80.63439178466797,22860727.0,50354.0,0.17946499248048195,0.37217213327066817,0.07677173729424067,0.012390598231508317,0.01706028375266492,0.004201923562392544,22.86072786699515
1617,C,268702613519765.0,-3.2237301045145985,13.725781731258056,7.042294732613113,86,1970-01-04 02:38:22.613519765,-1.6331177,-1.1376648,-0.6957855,10.834958451421056,2.1084288181540725,-99.06908416748047,12.673004150390625,-80.57120513916016,22911081.0,50354.0,-0.020688248286728078,0.2989715163906681,0.1909111073613007,0.003997522088566141,0.016897383667523466,0.006739450979892566,22.911081871017814
1617,C,268702663873769.0,-6.422170104514598,7.443005731258056,0.8816502326131126,86,1970-01-04 02:38:22.663873769,1.0947418,0.4421997,0.48568726,16.56331097743794,1.2766723533756175,-99.02011108398438,12.693511009216309,-80.59749603271484,22961435.0,50354.0,-0.2428548295627281,0.039497361943768135,0.1995011623895007,-0.006635224071015759,0.008521630949826102,0.009829409715515927,22.96143587498227
1617,C,268702714227773.0,-4.5765281045145985,2.048489731258055,-0.2881648673868873,86,1970-01-04 02:38:22.714227773,0.57806396,1.8578033,2.8900452,19.887041526098233,3.483956414966297,-99.0171127319336,12.821667671203613,-80.71479034423828,23011789.0,50354.0,-0.2769142248087281,-0.2545018187402319,0.014942181040300675,-0.013086225481910156,-0.005413167208764569,0.005399040057532109,23.011789879004937
1617,C,268702764581777.0,2.220789295485402,1.977169731258055,-1.9430262673868879,86,1970-01-04 02:38:22.764581777,-0.23049927,3.5532684,2.7965698,18.00880945118232,4.527653794426108,-99.2392807006836,12.850850105285645,-80.95404815673828,23062143.0,50354.0,-0.059310435994928086,-0.392115171712232,-0.05617469920019934,-0.008465128285053653,-0.016279875968621686,-0.0010381111097117685,23.062143883027602
1617,C,268702814935781.0,6.9550727954854015,8.688961731258056,1.4136021326131125,86,1970-01-04 02:38:22.814935781,0.07444763,0.15054321,0.1666565,10.638598487568956,0.2366011341519119,-99.23755645751953,12.857868194580078,-80.96304321289062,23112497.0,50354.0,0.23102067986437191,-0.22492800816823194,-0.013329311441199343,0.004323148809900988,-0.015535296139850439,-0.0017499024759184945,23.11249788699206
1617,C,268702865289784.0,3.881296495485402,11.604031731258056,1.3907749326131125,86,1970-01-04 02:38:22.865289784,0.6813965,-1.0439911,-0.75390625,7.731089080235923,1.4569122282692675,-99.23175048828125,12.752730369567871,-80.91320037841797,23162851.0,50354.0,0.27282726963877196,0.01744749640576811,0.07060580137120068,0.012685379824640653,-0.005223736844643552,0.0014420501869676437,23.162851890025195
1617,C,268702915643788.0,6.521845195485402,12.915539731258056,2.8225834273131127,86,1970-01-04 02:38:22.915643788,0.57281494,-0.5495148,-1.3898315,6.3106078169772495,1.6005358694195184,-99.19447326660156,12.68853759765625,-80.87399291992188,23213205.0,50354.0,0.26191989835357193,0.12386005071176812,0.10607972342786258,0.013463329448543244,0.00355770011377821,0.004448411457866015,23.213205893989652
1617,C,268702965997792.0,5.093820925485402,15.014081031258055,1.5464146326131125,86,1970-01-04 02:38:22.965997792,0.7842102,-1.1032257,-1.7497711,4.269650392948622,2.2121915571034396,-99.13992309570312,12.610956192016602,-80.80390167236328,23263559.0,50354.0,0.292447625927682,0.20971486193786815,0.10999826415476258,0.01395731115882913,0.008398415575779892,0.005440195493367754,23.263559898012318
1617,C,268703016351796.0,3.993006095485402,15.305768131258056,3.5079471926131127,86,1970-01-04 02:38:23.016351796,0.5230408,-0.5863037,-2.415924,4.024740984009125,2.540474853422944,-99.10306549072266,12.496336936950684,-80.75463104248047,23313913.0,50354.0,0.22877904390698198,0.2698936423646681,0.12725366767372068,0.013122923866427334,0.012075103312824955,0.005973291887645723,23.313913901976775
1617,C,268703066705800.0,-0.47600310451459826,11.469678031258056,2.9985477826131124,86,1970-01-04 02:38:23.066705800,0.10977173,-1.445404,-2.7226868,9.498095736429313,3.084520378732718,-99.07709503173828,12.373326301574707,-80.65953063964844,23364267.0,50354.0,0.08854758430367193,0.1806562080336681,0.16381402399127068,0.007989332518459635,0.011343493583478912,0.007328211273049488,23.36426790599944
1617,C,268703117059804.0,-3.3510491045145985,10.296536731258056,0.9629185326131124,86,1970-01-04 02:38:23.117059804,-0.046066284,-3.0788574,-1.3201904,12.40142065413914,3.350281732079929,-99.0438232421875,12.332383155822754,-80.49325561523438,23414621.0,50354.0,-0.09635369346672809,0.05453878907586812,0.09973783741845067,-0.00019653441039826488,0.005921504442226794,0.006635445214712555,23.414621910022106
1617,C,268703167413808.0,-2.210714104514598,6.886059731258056,4.364697732613113,86,1970-01-04 02:38:23.167413808,-0.34332275,-1.5477448,1.0888977,14.354904882316356,1.9232999447979746,-99.04611206054688,12.398314476013184,-80.42378234863281,23464975.0,50354.0,-0.1400285123137281,-0.06086296886323187,0.1341333947096007,-0.005951394794934546,-0.00015922387450645713,0.00588817601128795,23.464975913986564
1617,C,268703217767812.0,-0.3119866045145976,-0.21820326874194507,1.5653965326131125,86,1970-01-04 02:38:23.217767812,0.6114197,0.8258972,3.0138245,20.11411880385485,3.184191946368212,-98.89935302734375,12.62934398651123,-80.4615249633789,23515329.0,50354.0,-0.06351403575122806,-0.3255925778432319,0.14930198331560068,-0.005124590732631401,-0.00972979129942864,0.007136052512540495,23.51532991800923
1617,C,268703268121816.0,3.637781495485402,4.301297731258057,0.05000033261311243,86,1970-01-04 02:38:23.268121816,0.39953613,3.1342468,1.7789612,15.123567275486632,3.6259943565305033,-98.96137237548828,12.52562141418457,-80.64390563964844,23565683.0,50354.0,0.08373353796997195,-0.3906691307172319,0.040670846875800665,0.0005090664073613148,-0.0180333210364268,0.004782945945728912,23.565683922031894
1617,C,268703318475820.0,6.400461595485402,9.550228731258056,-0.6690699673868874,86,1970-01-04 02:38:23.318475820,-0.47039795,1.2978516,1.1346893,10.227410710137526,1.7869562989959358,-99.0011215209961,12.571529388427734,-80.71863555908203,23616037.0,50354.0,0.25273284630137194,-0.14472931825323188,-0.015586316194699334,0.008471214156799627,-0.013479726749729366,0.0006315532289580881,23.616037925996352
1617,C,268703368829824.0,7.590250395485402,10.202954731258057,2.1452152626131125,86,1970-01-04 02:38:23.368829824,-0.74746704,-0.58462524,0.10865784,9.224621630531557,0.9551440589381712,-99.0322494506836,12.581473350524902,-80.68993377685547,23666391.0,50354.0,0.35224415579667195,0.003856700035768128,0.03716491009791067,0.01523150598182245,-0.003546749908861085,0.0005432842587011518,23.666391930019017
1617,C,268703419183827.0,5.528009775485402,13.554974731258056,2.4234898026131124,86,1970-01-04 02:38:23.419183827,-0.048187256,0.5870209,-0.8003082,5.555192688149263,0.9936844386750048,-99.03971862792969,12.537345886230469,-80.71319580078125,23716745.0,50354.0,0.3302784363245319,0.10468419007776815,0.11502628742720067,0.017183871301835553,0.002732733990388503,0.0038317177800897286,23.716745932993945
1617,C,268703469537831.0,2.222833895485402,14.213391431258056,1.0245182326131126,86,1970-01-04 02:38:23.469537831,0.4894104,-0.07723999,-1.4940948,5.986356430582905,1.5741054053240529,-99.01181030273438,12.46417236328125,-80.69729614257812,23767099.0,50354.0,0.19514299110403194,0.20565495487366814,0.08681049830289068,0.01322853527836895,0.007813408652442311,0.00508164475432651,23.76709993701661
1617,C,268703519891835.0,0.9274085954854021,14.164609031258056,-1.1462581673868875,86,1970-01-04 02:38:23.519891835,-0.377594,-1.3742523,-1.6063538,7.631549412349293,2.147444794090346,-99.01295471191406,12.395607948303223,-80.61490631103516,23817453.0,50354.0,0.07931365519517193,0.22100371764476814,-0.0030650463377993303,0.006909994983875056,0.01074198539799667,0.002108459244125105,23.817453940981068
1617,C,268703570245839.0,-2.604268704514598,12.352704131258056,1.2883122326131125,86,1970-01-04 02:38:23.570245839,-1.3163147,-1.3921204,-1.9635773,10.419329763567,2.7434138241627966,-99.06033325195312,12.309576988220215,-80.52873992919922,23867807.0,50354.0,-0.04221830696502807,0.17415719349266817,0.0035764952002006667,0.000933949582390332,0.009948966259707235,1.2876748008678447e-05,23.867807945003733
1617,C,268703620599843.0,-3.8293051045145985,11.421887431258057,3.7093632326131125,86,1970-01-04 02:38:23.620599843,-0.5636139,-0.061920166,-0.57969666,11.87363888069023,0.8108902224381752,-99.08686065673828,12.281445503234863,-80.52093505859375,23918161.0,50354.0,-0.1619780877899281,0.10510369176946814,0.12582647518800066,-0.0051410526307455314,0.007030951308244807,0.003257978585463745,23.9181619490264
1617,C,268703670953847.0,-0.47154770451459793,9.557385731258057,1.5982792326131126,86,1970-01-04 02:38:23.670953847,1.2380981,0.60313416,2.0297089,11.15485963611652,2.452830189581359,-99.03496551513672,12.376919746398926,-80.56778717041016,23968515.0,50354.0,-0.10828257117292808,0.03472596041266816,0.13363051434700068,-0.00680435261070783,0.003520491152989646,0.006532348625522729,23.968515952990856
1617,C,268703721307851.0,-1.304647104514598,3.3080717312580568,-1.7352626673868872,86,1970-01-04 02:38:23.721307851,1.0756836,0.86413574,2.7413635,17.664204083599632,3.069022584404774,-98.99532318115234,12.505516052246094,-80.63346862792969,24018869.0,50354.0,-0.04471925670692807,-0.16955557746623184,-0.0034488319372993235,-0.0038521270205311387,-0.0033946052685575735,0.003277584218029051,24.01886995701352
1617,C,268703771661855.0,1.048532895485402,0.05599673125805538,0.1631596326131124,86,1970-01-04 02:38:23.771661855,-1.1471252,3.4296112,2.2734222,19.657946325066103,4.271601304791134,-99.0687026977539,12.58284854888916,-80.81969451904297,24069223.0,50354.0,-0.006448187440728065,-0.4087720483192319,-0.03958083810649933,-0.0012882427413055386,-0.01456055463440062,-0.0010833580026927186,24.06922396097798
1617,C,268703822014927.0,5.303430915485402,4.956372731258057,2.4875004326131127,86,1970-01-04 02:38:23.822014927,-0.51246643,0.19213867,1.2412262,14.133654015063641,1.3565329299183098,-99.09864807128906,12.642619132995605,-80.83946228027344,24119577.0,50354.0,0.15992339286881194,-0.3672727740422319,0.06673566846220068,0.003864045247062868,-0.019538480492594573,0.0006836771638654928,24.119577032979578
1617,C,268703872368931.0,4.5668738954854025,9.266445731258056,0.20232893261311258,86,1970-01-04 02:38:23.872368931,0.72288513,-2.2604065,-0.08129883,10.18360843138044,2.3745757423541445,-99.03731536865234,12.656415939331055,-80.72441864013672,24169931.0,50354.0,0.24850466422581197,-0.13538129956923187,0.06772183392830068,0.010282993193471347,-0.012655321611315823,0.0033852365376856527,24.169931037002243
1617,C,268703922722935.0,6.550440195485402,12.853039731258056,2.1818363326131127,86,1970-01-04 02:38:23.922722935,0.38243103,0.16970825,-0.9013519,6.410388749430481,0.9937251282213475,-99.01847839355469,12.61057186126709,-80.72575378417969,24220285.0,50354.0,0.279900616868372,0.06343308548976812,0.06002612888260068,0.01330365976210827,-0.001811440185878659,0.003216310459690064,24.22028504102491
1617,C,268703973076938.0,6.9405005954854015,15.523739931258056,2.9475529126131126,86,1970-01-04 02:38:23.973076938,0.55700684,-0.51620483,-1.2442932,3.967386224294835,1.4577344113000676,-98.9827651977539,12.553165435791016,-80.68966674804688,24270639.0,50354.0,0.33966141629427193,0.22097298156316808,0.12914263302706067,0.015598713308935887,0.007160491550191775,0.004762701918599544,24.270639043999836
1617,C,268704023430942.0,5.095163705485402,15.217190731258055,2.1446049326131127,86,1970-01-04 02:38:24.023430942,0.6813812,-1.142868,-1.2242279,3.929565924380228,1.808082286920551,-98.93403625488281,12.501601219177246,-80.62207794189453,24320993.0,50354.0,0.30302192010554196,0.2804952112901681,0.12820525806926067,0.016180838360538116,0.012625464691468446,0.006479247854132082,24.3209930480225
1617,C,268704073784946.0,4.438989995485402,14.268841731258057,2.2650120326131127,86,1970-01-04 02:38:24.073784946,0.44914246,-0.87023926,-1.5291901,4.908371764196463,1.815893080816767,-98.84220886230469,12.34264850616455,-80.55362701416016,24371347.0,50354.0,0.24004138772934197,0.2489006393087681,0.11102092633350069,0.013672704901358872,0.013328599330529418,0.006022997644708323,24.37134705198696
1617,C,268704124138950.0,1.5650580954854019,12.071423731258056,0.12263233261311246,86,1970-01-04 02:38:24.124138950,0.380661,-1.5638275,-1.9418182,8.349154595469917,2.522125525926196,-98.80308532714844,12.258702278137207,-80.45931243896484,24421701.0,50354.0,0.15116391878637192,0.1696996635497681,0.060113722183300675,0.009849376002146129,0.010539099825069367,0.0043086570457075085,24.421701056009624
1617,C,268704174492954.0,-1.3943231045145978,9.361065731258057,2.2790501026131125,86,1970-01-04 02:38:24.174492954,-0.48275757,-2.3558044,-1.4484406,11.760647664722386,2.807285061083043,-98.79957580566406,12.205144882202148,-80.32884979248047,24472055.0,50354.0,0.004298594867671933,0.04613658719776814,0.06046715867169067,0.003914079706267862,0.00543410928507072,0.0030358648372861173,24.47205506003229
1617,C,268704224846958.0,-0.32617710451459825,7.709393731258055,3.602139702613113,86,1970-01-04 02:38:24.224846958,-0.5087433,0.19525146,0.75782776,12.66971496911686,0.9334054808890074,-98.82836151123047,12.241098403930664,-80.34467315673828,24522409.0,50354.0,-0.04331703376272807,-0.06368624211223188,0.1480707157261807,-0.0009823672360608285,-0.00044184766178145357,0.005250358063715208,24.522409063996747
1617,C,268704275200962.0,1.7091010954854018,2.1775027312580555,1.8622257326131124,86,1970-01-04 02:38:24.275200962,1.0829163,0.46203613,2.6100616,17.291033782540705,2.8633209135592237,-98.6444320678711,12.35284423828125,-80.3588638305664,24572763.0,50354.0,0.034817877320671924,-0.24454680776323193,0.1375763285626907,-0.0002139832617416477,-0.007760383496714552,0.007191735634060915,24.572763068019412
1617,C,268704325554966.0,2.120569595485402,4.410138231258056,-0.14648696738688738,86,1970-01-04 02:38:24.325554966,0.25733948,2.5571747,1.7429962,15.28658407505851,3.105382715141759,-98.7326889038086,12.401460647583008,-80.51679992675781,24623117.0,50354.0,0.09641961898657193,-0.3276121634867319,0.04319715489210067,0.0033041664445274785,-0.01440524641916034,0.004551333992941283,24.62311707198387
1617,C,268704375908970.0,5.653833745485402,6.525524731258056,-0.4401423673868874,86,1970-01-04 02:38:24.375908970,-0.5534363,0.7175598,0.893692,12.986275282299006,1.2727408202763555,-98.7696762084961,12.440168380737305,-80.5600814819336,24673471.0,50354.0,0.19573615291562194,-0.2181420135927319,-0.014769566761599328,0.007355605869181536,-0.013740452916329662,0.0007157213863616324,24.673471076006535
1617,C,268704426262974.0,7.384104095485402,9.891873731258055,2.6980106726131123,86,1970-01-04 02:38:24.426262974,-0.16134644,0.02078247,0.05340576,9.451097750735006,0.17122137705658164,-98.7780532836914,12.442649841308594,-80.5615463256836,24723825.0,50354.0,0.32825616102212196,-0.08012835890923191,0.056846350320680666,0.01319255448801058,-0.007509553168481943,0.0010593671796669908,24.7238250800292
1617,C,268704476616977.0,4.805094125485402,13.001050031258057,1.4446690326131126,86,1970-01-04 02:38:24.476616977,0.13346863,0.60131836,-0.80892944,6.252057343424111,1.0167420932399132,-98.87934112548828,12.178486824035645,-80.60757446289062,24774179.0,50354.0,0.3068874436093819,0.08290594156886813,0.10430024693848068,0.015991010533807373,6.993119862166114e-05,0.0040571878791939055,24.774179083004128
1617,C,268704526970981.0,3.395029395485402,15.420209031258056,1.5528538326131125,86,1970-01-04 02:38:24.526970981,-0.10134888,-0.097854614,-1.1340942,4.278784853030144,1.1428109097449075,-98.88148498535156,12.12321662902832,-80.59367370605469,24824533.0,50354.0,0.20645450988748193,0.22209283941696809,0.07546863317780067,0.012924410363190543,0.007678954308880399,0.004526041094687615,24.824533087026794
1617,C,268704577324985.0,2.151346595485402,15.659161731258056,1.1975223326131126,86,1970-01-04 02:38:24.577324985,-0.18606567,-0.5775299,-1.4348145,4.865695101575528,1.5578362777765862,-98.8823013305664,12.056795120239258,-80.55316925048828,24874887.0,50354.0,0.13964110832467191,0.28901611768786806,0.06924622071190066,0.008713649379727397,0.012868190213028461,0.003643485876381011,24.87488709099125
1617,C,268704627678989.0,-2.4042411045145977,12.848645331258055,0.9712956326131126,86,1970-01-04 02:38:24.627678989,-0.7967529,-1.2955933,-1.303299,10.006299309191997,2.00298913278737,-98.9063491821289,12.00243091583252,-80.47742462158203,24925241.0,50354.0,-0.006367125053828059,0.2242718584129681,0.05460432991050067,0.003355439076810036,0.012923051374290754,0.0031181853130201986,24.925241095013916
1617,C,268704678032993.0,-2.2634026045145976,12.970822431258057,3.0126926826131126,86,1970-01-04 02:38:24.678032993,-0.24932861,0.019744873,0.038726807,9.64791060541002,0.25308967058087034,-98.9190902709961,12.00418758392334,-80.47872924804688,24975595.0,50354.0,-0.11751726566222806,0.15658753985686813,0.10030487381245068,-0.003119037305058145,0.009588897070239667,0.0039001490221327465,24.975595098978374
1617,C,268704728386997.0,0.13440929548540215,10.100125731258055,1.8421909726131127,86,1970-01-04 02:38:24.728386997,1.3669586,-0.53160095,1.6865082,10.360489899740374,2.2350582302978377,-98.8479232788086,12.0916109085083,-80.4651870727539,25025949.0,50354.0,-0.053601664541428055,0.08738806188766812,0.12223140578763068,-0.004308261305737451,0.00614257372512219,0.0056027959114912495,25.02594910300104
1617,C,268704778741001.0,-3.910223104514597,1.6053897312580574,-1.8366266673868874,86,1970-01-04 02:38:24.778741001,0.93891907,1.1901398,2.5458832,20.254801996224447,2.9630259923929025,-98.81784057617188,12.208252906799316,-80.54533386230469,25076303.0,50354.0,-0.09506366426992804,-0.19875943720023187,0.00014009251268067458,-0.003742946983483513,-0.0028039971162444177,0.003080947212706939,25.076303107023705
1617,C,268704829095005.0,3.503046395485402,-0.30083026874194374,-0.35379286738688753,86,1970-01-04 02:38:24.829095005,-1.505661,4.9376373,2.8240662,19.71863502641364,5.884099510991867,-98.96318054199219,12.128107070922852,-80.81964874267578,25126657.0,50354.0,-0.010251488003228046,-0.46062430641223184,-0.05514819262699933,-0.002651519588781251,-0.016601304512930997,-0.001384938936578201,25.126657110988162
1617,C,268704879449009.0,5.551843995485402,6.987988731258056,1.4108860326131125,86,1970-01-04 02:38:24.879449009,0.40742493,-1.6663666,0.7346344,12.185425107503082,1.8661351561032296,-98.92631530761719,12.177348136901855,-80.7413101196289,25177011.0,50354.0,0.22797497537347197,-0.32510661138923186,0.026614434620900667,0.005481624241520632,-0.019782347317487455,-0.0007183944253195462,25.177011115010828
1617,C,268704929803013.0,3.7821601954854023,9.452542731258056,0.4860661326131126,86,1970-01-04 02:38:24.929803013,0.570343,-1.8241119,-0.5062103,10.014049731147031,1.9770999542756305,-98.99739074707031,12.066274642944336,-80.67032623291016,25227365.0,50354.0,0.23500222351607197,-0.07954593936823187,0.047759564663900675,0.011656376936442048,-0.010187937270420666,0.0018725141799934436,25.227365119033493
1617,C,268704980157017.0,6.5722754954854015,13.675488731258056,2.4254276626131124,86,1970-01-04 02:38:24.980157017,0.35202026,-0.47221375,-1.0738373,5.596587728160672,1.2247573784267725,-98.97303771972656,12.016926765441895,-80.63790893554688,25277719.0,50354.0,0.2606936273915719,0.08882524813176813,0.07330267928241067,0.012480134438301751,0.0002336251567395525,0.003047984115836281,25.27771912299795
1617,C,268705030511020.0,5.491510745485402,15.911847231258056,2.3361942626131125,86,1970-01-04 02:38:25.030511020,0.73950195,-1.6468658,-1.1067963,3.2250348089775644,2.1175523953274764,-98.91694641113281,11.97506332397461,-80.54595947265625,25328073.0,50354.0,0.3037299461889219,0.2514511575282681,0.11988335521142066,0.014210492312036095,0.008567139065302732,0.0048638447904511915,25.328073126031086
1617,C,268705080865024.0,5.032221195485402,16.398831431258056,2.1934635326131127,86,1970-01-04 02:38:25.080865024,0.5171509,-0.4547882,-1.09552,2.7655373737552384,1.294002098387035,-98.99594116210938,11.712194442749023,-80.5372543334961,25378427.0,50354.0,0.26495599907782197,0.3200167566861682,0.11404319431041067,0.014317806043980811,0.014387847676176865,0.005889568737311148,25.378427129995544
1617,C,268705131219028.0,4.585337045485402,15.033597031258056,1.2513859326131125,86,1970-01-04 02:38:25.131219028,-0.058502197,-0.29701233,-1.4484863,4.390696355635763,1.4797808596253519,-98.99349212646484,11.642986297607422,-80.51071166992188,25428781.0,50354.0,0.24214126383292198,0.2979050514007681,0.08673097498600067,0.012767187788303802,0.015557417362204796,0.0050548912603757485,25.42878113401821
1617,C,268705181573032.0,0.6182958954854021,9.439511731258056,1.0615208326131125,86,1970-01-04 02:38:25.181573032,-0.28990173,-1.7619629,-1.9431915,10.822721082658337,2.6390432887138577,-98.98701477050781,11.560786247253418,-80.40638732910156,25479135.0,50354.0,0.13101186655482194,0.12269025931386814,0.05823205362810067,0.00939487636377223,0.010589328137862397,0.0036497341714172298,25.479135137982666
1617,C,268705231927036.0,-1.1676537045145983,9.433712731258057,3.6335270326131126,86,1970-01-04 02:38:25.231927036,-0.5719452,-1.8327789,-0.7759552,11.58947004564315,2.0708226096156306,-98.9958724975586,11.536786079406738,-80.30780792236328,25529489.0,50354.0,-0.013831181557928073,-0.01829802770723186,0.11820722010280069,0.002950258106166797,0.0026282832151602814,0.0044422115947229035,25.529489142005332
1617,C,268705282281040.0,-1.567006704514598,6.326825231258056,2.4151279826131127,86,1970-01-04 02:38:25.282281040,-4.5776367e-05,0.8980408,0.60865784,14.446712424408345,1.0848694146087727,-99.00591278076172,11.559819221496582,-80.3579330444336,25579843.0,50354.0,-0.06885054511812808,-0.09666613571773187,0.1522869873183507,-0.0020816778325230658,-0.002894452742550312,0.006810232660242329,25.579843146027997
1617,C,268705332635044.0,1.3527168954854019,3.312908731258055,1.5289738326131126,86,1970-01-04 02:38:25.332635044,-0.13894653,0.44934082,2.4174652,16.286250925387254,2.4627933944869094,-98.9148178100586,11.728814125061035,-80.37843322753906,25630197.0,50354.0,-0.0053951745219280684,-0.25076961802573194,0.09930065140195067,-0.0018692844833776937,-0.008747389971999189,0.006334221980061028,25.630197149992455
1617,C,268705382989048.0,1.627390295485402,1.3617527312580577,1.8738377026131126,86,1970-01-04 02:38:25.382989048,0.28938293,3.4676514,0.80326843,18.104836952615642,3.571216723013602,-98.79143524169922,11.734325408935547,-80.53009033203125,25680551.0,50354.0,0.07503015874707193,-0.3757752483582319,0.08567258602239067,0.0017531999978364471,-0.01577452010094906,0.004657071198632643,25.68055115401512
1617,C,268705433343052.0,5.896982545485402,6.575360731258057,-1.568590667386887,86,1970-01-04 02:38:25.433343052,0.43971252,0.4908905,0.6868439,13.278727009455553,0.9518797855833532,-98.77560424804688,11.764518737792969,-80.56023406982422,25730905.0,50354.0,0.18944113501712193,-0.29363649435423184,0.007685204605890681,0.006658593763101109,-0.0168537794462717,0.0023504690946482398,25.730905157979578
1617,C,268705483697056.0,5.943552395485402,9.706570731258056,2.5203525926131127,86,1970-01-04 02:38:25.483697056,-0.19973755,-1.2558746,-0.21913147,9.413642937437485,1.2904009845584912,-98.77230834960938,11.763267517089844,-80.49513244628906,25781259.0,50354.0,0.298109148208822,-0.08353901156823187,0.023962509991420685,0.012275053480779593,-0.00949614771260987,0.0007967945104165083,25.781259162002243
1617,C,268705534051060.0,4.079843895485402,14.574719731258057,0.4673740326131126,86,1970-01-04 02:38:25.534051060,-0.23391724,0.68559265,-0.9551544,5.21232810677861,1.1987804155651693,-98.78953552246094,11.71083927154541,-80.52229309082031,25831613.0,50354.0,0.25235904841777196,0.11786084997476814,0.07522199324332068,0.013859137786467758,0.0008641209255613637,0.0024971682379410836,25.83161316602491
1617,C,268705584405063.0,1.644861595485402,14.479703031258056,2.4735081126131124,86,1970-01-04 02:38:25.584405063,-0.72210693,0.35650635,-1.3087006,5.827298693737995,1.5366302276034751,-98.82719421386719,11.643446922302246,-80.53003692626953,25881967.0,50354.0,0.14413091014617194,0.2380340018918682,0.07404258977036067,0.009982427686764415,0.008960364685446304,0.0037580344065354554,25.881967168999836
1617,C,268705634759067.0,1.8882849954854022,15.563412731258056,2.2324345026131125,86,1970-01-04 02:38:25.634759067,-0.18226624,0.5854645,-0.3949585,4.869089724649717,0.7293708794065181,-98.84164428710938,11.619438171386719,-80.55647277832031,25932321.0,50354.0,0.08895403172087195,0.26292632555286816,0.11848151722355067,0.005868379581386564,0.01261267816407613,0.004847179441785706,25.9323211730225
1617,C,268705685113071.0,-0.33632410451459815,15.831296031258056,-3.175081967386887,86,1970-01-04 02:38:25.685113071,-0.115982056,-0.07695007,-0.4177704,8.78897499827618,0.44034674712452687,-98.84599304199219,11.599387168884277,-80.54930877685547,25982675.0,50354.0,0.03907371935197194,0.29695538251386816,-0.023733035220609325,0.003223354688760991,0.014096141763996222,0.0023854825313880546,25.98267517698696
1617,C,268705735467075.0,-4.651433604514598,9.495877731258055,5.4493533326131125,86,1970-01-04 02:38:25.735467075,-0.54566956,-0.8688965,0.14622498,13.99376027337932,1.036396710337718,-98.86470794677734,11.613302230834961,-80.50665283203125,26033029.0,50354.0,-0.12557677584022808,0.1441930538188681,0.057259330162300684,-0.002177887453204825,0.011106794181549301,0.0008440915277469635,26.033029181009624
1617,C,268705785821079.0,0.554727895485402,9.976376731258055,0.15844463261311237,86,1970-01-04 02:38:25.785821079,1.5371704,-0.72558594,1.5262604,10.566676825842215,2.284477752916408,-98.7828598022461,11.69427490234375,-80.48198699951172,26083383.0,50354.0,-0.10314275963622808,-0.0032162493972319284,0.14118752937050066,-0.005758471744690737,0.0035493730049235344,0.004996296582457339,26.08338318503229
1617,C,268705836175083.0,-4.105489104514597,-0.13402026874194561,-3.227541667386887,86,1970-01-04 02:38:25.836175083,0.24099731,1.6438904,2.2685242,22.194562756000828,2.81187791282357,-98.79129791259766,11.793807029724121,-80.5826416015625,26133737.0,50354.0,-0.08939751495972806,-0.24566819134323195,-0.07727065604449933,-0.0048475864935023875,-0.0062661635645226595,0.0016092351197287357,26.133737188996747
1617,C,268705886529087.0,4.218897195485402,2.3664977312580575,0.3006260326131125,86,1970-01-04 02:38:25.886529087,-1.5644684,4.297867,1.956543,16.937252797506364,4.974664072591893,-98.91168975830078,11.646108627319336,-80.81363677978516,26184091.0,50354.0,0.0028552755063719535,-0.4372621149262319,-0.07369095493669933,-0.002178873962717147,-0.017194136320946293,-0.0038007604796736387,26.184091193019412
1617,C,268705936883091.0,5.777490995485402,7.245343731258057,1.3999302326131124,86,1970-01-04 02:38:25.936883091,0.64186096,-1.9444275,0.41986084,11.940112860896877,2.090231307701106,-98.86043548583984,11.681872367858887,-80.7188720703125,26234445.0,50354.0,0.251679065484072,-0.25147186749823186,0.04281490508960067,0.006408411103116407,-0.017340255475500728,-0.0007773663070004031,26.23444519698387
1617,C,268705987237095.0,4.366525995485402,9.014172731258055,-0.6225306673868873,86,1970-01-04 02:38:25.987237095,0.354187,-0.7661896,-0.63716125,10.678411204582488,1.0575771331769246,-98.83389282226562,11.65628719329834,-80.67521667480469,26284799.0,50354.0,0.255395915781672,-0.08410335402323188,0.01957258885370067,0.012766626803327638,-0.008448777352245893,0.001570729935010498,26.284799201006535
1617,C,268706037591099.0,8.951059695485402,14.498211731258056,3.3901646326131125,86,1970-01-04 02:38:26.037591099,0.230896,0.17575073,-1.329071,5.954148286110846,1.360378993131154,-98.82203674316406,11.589269638061523,-80.67366790771484,26335153.0,50354.0,0.33529685494157196,0.09850210361276811,0.06968072034250068,0.014871871888499113,0.00036251731841575364,0.0022471305656327615,26.3351532050292
1617,C,268706087945102.0,5.978372935485402,15.699872131258056,2.050320832613113,86,1970-01-04 02:38:26.087945102,0.5663452,-1.3457642,-1.7309723,3.560611915366022,2.2645293707373217,-98.77743530273438,11.5140380859375,-80.59228515625,26385507.0,50354.0,0.37587832534995197,0.2668279574065681,0.1369751025580007,0.017905257514199698,0.009197914946283829,0.005202973653165924,26.385507208004128
1617,C,268706138299106.0,4.562448855485402,15.755383531258056,2.2555210326131125,86,1970-01-04 02:38:26.138299106,0.37513733,-0.3506775,-1.8811493,3.438075507757032,1.9499808753565426,-98.77676391601562,11.40186882019043,-80.56485748291016,26435861.0,50354.0,0.265386270231272,0.29847977181516816,0.1084081806408007,0.016145118722948475,0.014232752698615656,0.006178014921096223,26.435861212026794
1617,C,268706188653110.0,3.383829495485402,14.017346431258055,2.0676395826131126,86,1970-01-04 02:38:26.188653110,0.3370819,-0.98075867,-2.112793,5.436217801207428,2.35359428044359,-98.74095916748047,11.50632095336914,-80.49777221679688,26486215.0,50354.0,0.20006345004239195,0.25611882226626814,0.10884421480955067,0.011718627607330038,0.013963128803188323,0.005469763560253496,26.48621521599125
1617,C,268706239007114.0,-1.0246636045145978,10.913113731258056,-0.44562026738688765,86,1970-01-04 02:38:26.239007114,0.4745636,-2.3297882,-1.9172058,10.780312067784022,3.054308718328558,-98.69091796875,11.429220199584961,-80.36544799804688,26536569.0,50354.0,0.05939671963697194,0.1342049955116681,0.04083758029945067,0.006532428692017346,0.009827182760195102,0.003768538555459327,26.536569220013916
1617,C,268706289361118.0,-1.7367301045145984,10.120877731258055,2.0661747326131126,86,1970-01-04 02:38:26.289361118,-0.56773376,-4.032547,-1.0721283,11.358820478665406,4.211082523664626,-98.67741394042969,11.406676292419434,-80.15385437011719,26586923.0,50354.0,-0.06952360941222807,0.036103603051768095,0.04080069977100067,-0.0002549647038716236,0.004287859586031634,0.0020554069773337535,26.586923223978374
1617,C,268706339715122.0,-4.061162604514599,5.380139731258057,4.365796332613113,86,1970-01-04 02:38:26.339715122,-0.22137451,-1.9471588,0.8717346,16.610745708706588,2.1448438821817173,-98.67035675048828,11.464447021484375,-80.0623779296875,26637277.0,50354.0,-0.1459735447352281,-0.1032000833462319,0.16193773550920068,-0.005425571849970504,-0.0016892880843737152,0.00510434558504963,26.63727722800104
1617,C,268706390069126.0,-1.0879571045145982,0.10140673125805577,4.410107832613113,86,1970-01-04 02:38:26.390069126,1.1791687,2.2852478,3.363678,20.05993507616561,4.234043695824186,-98.6396255493164,11.613523483276367,-80.20349884033203,26687631.0,50354.0,-0.1296393869142281,-0.3554603047132319,0.2209509391679007,-0.00693910678013836,-0.011547692590173122,0.009639988162345382,26.687631232023705
1617,C,268706440423130.0,8.398126895485401,3.5202307312580565,-0.7632014673868874,86,1970-01-04 02:38:26.440423130,0.06890869,8.187622,2.4141083,16.29178629488347,8.536382214180103,-98.72331237792969,11.671058654785156,-80.63529205322266,26737985.0,50354.0,0.18404814482727191,-0.4022872336062319,0.09181816155730067,0.001369849297976704,-0.019077809772269142,0.007874587648958395,26.737985235988162
1617,C,268706490777134.0,10.894785295485402,8.484372231258057,3.7816593326131125,86,1970-01-04 02:38:26.490777134,-2.262146,-2.1895905,1.3411102,12.073019216921747,3.4220151448452545,-98.81610107421875,11.754016876220703,-80.53522491455078,26788339.0,50354.0,0.48573765023207194,-0.19122931121273187,0.07599571367280067,0.0168631969622091,-0.014942966048907052,0.004225049936668261,26.788339240010828
1617,C,268706541131138.0,9.045465895485401,9.193753731258056,1.8342106326131127,86,1970-01-04 02:38:26.541131138,1.0835724,-1.5370636,-0.27119446,10.660443072896523,1.9000631809551523,-98.74569702148438,11.752351760864258,-80.4555435180664,26838693.0,50354.0,0.502035704235072,-0.04838702264173187,0.1413907581145007,0.024869169745419285,-0.006032820437453834,0.005473139200188886,26.838693244033493
1617,C,268706591485142.0,4.823541995485402,13.716580431258055,0.33462263261311254,86,1970-01-04 02:38:26.591485142,0.753479,1.8432007,-1.6284027,5.931466520775699,2.572317005598023,-98.7243423461914,11.657880783081055,-80.53593444824219,26889047.0,50354.0,0.3491800116709719,0.08334428320966811,0.054604715118600676,0.02143105807936647,0.0008801189493189307,0.0049345780295897935,26.88904724799795
1617,C,268706641839145.0,2.598795295485402,15.884381331258055,0.41544833261311265,86,1970-01-04 02:38:26.641839145,0.44526672,-0.012634277,-1.8181,4.776923390137058,1.8718733095204043,-98.6991195678711,11.568121910095215,-80.52124786376953,26939401.0,50354.0,0.18687218597477193,0.2517942142948681,0.018884536691500673,0.013496186180126895,0.008437781951671707,0.0018502388928229219,26.939401251031086
1617,C,268706692193149.0,1.147608195485402,16.718731931258056,0.14095803261311257,86,1970-01-04 02:38:26.692193149,-0.60110474,-1.1895142,-2.1720428,5.405580274519954,2.5483408063844104,-98.7138442993164,11.469775199890137,-80.44447326660156,26989755.0,50354.0,0.09432320069217194,0.3273793826103681,0.014008643057300672,0.007079656250113646,0.014581853649283131,0.0008281515865355716,26.989755254995544
1617,C,268706742547153.0,-1.1129204045145977,13.685483031258055,2.7340977126131127,86,1970-01-04 02:38:26.742547153,-1.5825195,-1.6498108,-2.0056305,8.305729019765385,3.041183543656506,-98.77339935302734,11.383197784423828,-80.34573364257812,27040109.0,50354.0,0.0008733345132719405,0.2720177201112681,0.07238527849756068,0.002396763166867461,0.015091020855222638,0.0021751397629867445,27.04010925901821
1617,C,268706792901157.0,-3.111288104514599,11.820630131258056,4.689740432613112,86,1970-01-04 02:38:26.792901157,-0.042007446,-0.7948761,-0.48995972,11.19255079431903,0.9346941569803093,-98.76685333251953,11.365042686462402,-80.3018569946289,27090463.0,50354.0,-0.10635289763182809,0.14869821109266812,0.18690997298236067,-0.0026556589606358885,0.010592364999921503,0.006528276546509981,27.090463262982666
1617,C,268706843255161.0,-2.354345104514598,8.148770731258056,0.8834965326131126,86,1970-01-04 02:38:26.843255161,1.2088165,-1.1786194,1.6741486,13.431962784736713,2.37763633796478,-98.69721984863281,11.456727027893066,-80.2553939819336,27140817.0,50354.0,-0.13760824730372812,0.00930040551556812,0.14031738707350067,-0.006142209746042499,0.0039779311703455646,0.008238603244126421,27.140817267005332
1617,C,268706893609165.0,-2.3196771045145983,2.1351287312580567,1.7149937326131126,86,1970-01-04 02:38:26.893609165,1.2994843,2.5411072,3.3708649,18.575686836064143,4.4168558298738185,-98.66304779052734,11.604166030883789,-80.40953826904297,27191171.0,50354.0,-0.11767785715672809,-0.2345514632322319,0.06542218940760067,-0.006427338252000906,-0.005671145880132444,0.005179905317064688,27.191171271027997
1617,C,268706943963169.0,3.955347395485402,0.5472077312580552,3.2099583026131127,86,1970-01-04 02:38:26.943963169,-0.35313416,4.246475,3.5660248,18.583778497238672,5.5564184988892755,-98.72964477539062,11.748313903808594,-80.65138244628906,27241525.0,50354.0,0.04118127091577192,-0.4259360148832319,0.12399551739089067,-0.0019259545517885533,-0.016629093236513032,0.004768969604065617,27.241525274992455
1617,C,268706994317173.0,10.569879895485402,4.1217317312580555,3.5943577326131124,86,1970-01-04 02:38:26.994317173,-1.3824768,1.6665955,1.1772308,15.917582244972317,2.46468152499002,-98.81781768798828,11.793784141540527,-80.74468994140625,27291879.0,50354.0,0.36570164750477197,-0.3759193111522319,0.1713122648188907,0.010244091237074034,-0.020188311543594874,0.007434964032695666,27.29187927901512
1617,C,268707044671177.0,5.292612435485402,8.694226731258055,0.6750003326131124,86,1970-01-04 02:38:27.044671177,0.91311646,-2.2642212,-0.306015,10.612437709359302,2.460513054685419,-98.74830627441406,11.795949935913086,-80.62799835205078,27342233.0,50354.0,0.39936996941685193,-0.17080181378923193,0.10748962800820067,0.019262208099235723,-0.013764797762651236,0.007019395255707679,27.342233282979578
1617,C,268707095025181.0,6.174845095485402,12.255063131258055,1.6250736326131126,86,1970-01-04 02:38:27.095025181,0.6306915,-0.70355225,-1.0519409,7.004171452769106,1.4139792055561222,-98.70787048339844,11.749297142028809,-80.5843276977539,27392587.0,50354.0,0.288716178257252,0.03397107086856808,0.05790896222250067,0.017323944939990916,-0.0034449876145135542,0.004164240306238368,27.392587287002243
1617,C,268707145379185.0,6.733972895485402,16.303998031258057,2.8709995646131126,86,1970-01-04 02:38:27.145379185,0.7700958,-0.5242462,-1.412674,3.178178530290326,1.6921966344571424,-98.6617660522461,11.683431625366211,-80.5469741821289,27442941.0,50354.0,0.32500531055867193,0.22556228288866814,0.11319763488656469,0.015451665923918518,0.006534271247545937,0.004307950795414939,27.44294129102491
1617,C,268707195733188.0,6.267374395485402,18.604260531258056,1.1711094326131126,86,1970-01-04 02:38:27.195733188,0.07510376,1.1443329,-1.6649628,2.030436345153105,2.021692233296747,-98.66708374023438,11.592511177062988,-80.59192657470703,27493295.0,50354.0,0.32733492074477194,0.3854160258284682,0.10176817822316467,0.016423970003526807,0.015382600878571342,0.005412194276663656,27.493295293999836
1617,C,268707246087192.0,4.091883095485402,17.705746731258056,1.1220982326131126,86,1970-01-04 02:38:27.246087192,0.22251892,0.5508728,-2.3190918,2.456727923215562,2.393984604872188,-98.65794372558594,11.473730087280273,-80.60188293457031,27543649.0,50354.0,0.26081502585017197,0.42070785284836815,0.05773608938740067,0.014807851205420903,0.02029578089344671,0.004015838945631204,27.5436492980225
1617,C,268707296441196.0,-0.30605110451459794,11.874463131258057,1.2482578326131126,86,1970-01-04 02:38:27.296441196,1.0192566,-4.052582,-2.5790405,9.207573640440428,4.91057580982188,-98.5625991821289,11.376567840576172,-80.3778076171875,27594003.0,50354.0,0.09531589203667194,0.2512717437085682,0.05967845465420068,0.00896630811963707,0.016918430302513988,0.0029561459753353974,27.59400330198696
1617,C,268707346795200.0,-4.0536091045145985,7.392361731258056,0.9923679326131125,86,1970-01-04 02:38:27.346795200,-0.2713623,-4.7970123,-1.4507904,15.022473111341075,5.0189398570758685,-98.52635192871094,11.34046745300293,-80.12488555908203,27644357.0,50354.0,-0.10976316508272808,-0.00838835043643185,0.05641223489110067,-0.0003637389934805555,0.006115075192412577,0.0029228152906820523,27.644357306009624
1617,C,268707397149204.0,-3.8060811045145977,4.152249731258056,5.9629643326131125,86,1970-01-04 02:38:27.397149204,-0.83036804,-1.3560486,1.461029,17.716851954858882,2.1593945045443643,-98.55655670166016,11.42278003692627,-80.06755065917969,27694711.0,50354.0,-0.19788342039272808,-0.2028105172082319,0.17511440044160068,-0.00774561808251556,-0.0053173538906896994,0.005829146097771422,27.69471131003229
1617,C,268707447503208.0,3.412973795485402,-0.30083026874194374,3.9133579326131125,86,1970-01-04 02:38:27.447503208,1.0170898,4.9674377,3.5122375,19.49850049873431,6.168121368865206,-98.56095123291016,11.559469223022461,-80.34485626220703,27745065.0,50354.0,-0.00989726271942806,-0.3965020121922319,0.24865616567160068,-0.005231294258714755,-0.015088891552715478,0.010669271543032072,27.745065313996747
1617,C,268707497857212.0,9.656015895485403,4.117001731258055,-0.9808528673868873,86,1970-01-04 02:38:27.497857212,-0.59013367,5.6078033,2.5148315,16.0762781477716,6.174147153522567,-98.65122985839844,11.641840934753418,-80.6470718383789,27795419.0,50354.0,0.329037953449572,-0.3973894510882319,0.07383168002720068,0.008035005170512834,-0.01998780537101224,0.008119276491158721,27.795419318019412
1617,C,268707548211216.0,7.271341695485402,8.800183731258056,-0.5264003673868873,86,1970-01-04 02:38:27.548211216,-1.0426636,-1.2252655,0.60336304,11.015591147567884,1.7182752649948876,-98.69180297851562,11.680900573730469,-80.58987426757812,27845773.0,50354.0,0.42618008206787206,-0.16825322161023193,-0.03794811469189933,0.01901412448022269,-0.014241185570529225,0.0009034405244468822,27.84577332198387
1617,C,268707598565220.0,6.121866595485402,10.928601731258055,2.2586948726131126,86,1970-01-04 02:38:27.598565220,1.0684662,-2.1577454,-0.62976074,8.228900418595186,2.488791638809675,-98.61536407470703,11.666006088256836,-80.47613525390625,27896127.0,50354.0,0.337200805141772,0.0032424315897680907,0.04361397875808068,0.01921964059727721,-0.0041544766603452184,0.0001426494595942479,27.896127326006535
1617,C,268707648919224.0,5.053751345485402,13.991437031258055,0.0955936326131126,86,1970-01-04 02:38:27.648919224,0.11715698,0.4624939,-0.97465515,5.782441246068055,1.0851631337828673,-98.61271667480469,11.61435317993164,-80.49202728271484,27946481.0,50354.0,0.28136853289982194,0.13394261592386808,0.05927392169608068,0.015573720223873213,0.003453907941250818,0.0025904086697344205,27.9464813300292
1617,C,268707699273227.0,3.361322795485402,16.501202731258054,3.7813999326131125,86,1970-01-04 02:38:27.699273227,-0.9940033,-1.874176,-1.8067932,3.310211834901019,2.786589296425494,-98.6406478881836,11.539087295532227,-80.38360595703125,27996835.0,50354.0,0.21186632164722194,0.2742439913008681,0.09761106699170068,0.012418173932930925,0.010276914210097183,0.003949893360192271,27.996835333004128
1617,C,268707749627231.0,2.217890095485402,15.778912731258057,2.5729954126131127,86,1970-01-04 02:38:27.749627231,-0.17562866,-1.9679565,-2.2178192,4.458048107587073,2.970255917592672,-98.62628936767578,11.444221496582031,-80.26736450195312,28047189.0,50354.0,0.14046784295597195,0.31924726699976813,0.15998461160676067,0.008870717262214613,0.01494232941023512,0.006485486400073462,28.047189337026794
1617,C,268707799981235.0,0.6089423954854016,11.417370731258057,0.4457981326131124,86,1970-01-04 02:38:27.799981235,0.20101929,-2.6229248,-1.1473999,9.248057828293382,2.869959893783736,-98.58829498291016,11.407123565673828,-80.12630462646484,28097543.0,50354.0,0.07117116162517192,0.19125162873576818,0.07600416508816067,0.00532843521833946,0.012852830697933599,0.0059414894308480355,28.09754334099125
1617,C,268707850335239.0,-0.8940636045145984,7.714474731258056,4.653256632613113,86,1970-01-04 02:38:27.850335239,-0.16519165,-2.867035,-1.1378021,13.02819559103241,3.0889758159006573,-98.5662841796875,11.372248649597168,-79.97303771972656,28147897.0,50354.0,-0.007178496679728088,-0.011786726790231867,0.1283789018241007,0.0016111433253314397,0.0045183878362827674,0.0051457524756500055,28.147897345013916
1617,C,268707900689243.0,-4.072958104514599,7.488842731258057,6.566113732613113,86,1970-01-04 02:38:27.900689243,0.89682007,0.9116211,-1.8520966,15.30977771125191,2.250689024199384,-98.5277328491211,11.273905754089355,-80.00499725341797,28198251.0,50354.0,-0.1250547055682281,-0.11069527624623188,0.2824700876853007,-0.0033292353329967927,-0.003083729390449048,0.0103439450088782,28.198251348978374
1617,C,268707951043247.0,-5.274511104514597,2.7790037312580544,0.5886813326131124,86,1970-01-04 02:38:27.951043247,2.4590302,-0.35354614,2.2013245,19.50823481958555,3.3192851567651114,-98.40449523925781,11.385366439819336,-80.00366973876953,28248605.0,50354.0,-0.2353412322757281,-0.2349556296132319,0.1801362753572007,-0.009073688527097286,-0.00870245285682372,0.011647040402321058,28.24860535300104
1617,C,268708001397251.0,6.740351095485402,-0.30083026874194374,-9.766665667386889,86,1970-01-04 02:38:28.001397251,1.3817291,2.8698273,5.9141235,23.169798712979247,6.717286714951532,-98.37315368652344,11.656975746154785,-80.19258117675781,28298959.0,50354.0,0.03690545345267195,-0.43107622673423196,-0.23107411159659935,-0.004996017603428085,-0.016768684047260098,-0.00128246190299934,28.298959357023705
1617,C,268708051751255.0,11.960260895485401,3.4841437312580563,-8.174608667386888,86,1970-01-04 02:38:28.051751255,-3.88974,1.1614075,3.2762299,20.253459816637303,5.216572342670067,-98.58458709716797,11.810429573059082,-80.2759017944336,28349313.0,50354.0,0.47082530809667195,-0.41332291695423196,-0.4517074639265994,0.012783137383527833,-0.02125943724064446,-0.017190391726947574,28.349313360988162
1617,C,268708102105259.0,8.427652695485403,9.926937731258056,-3.174120667386888,86,1970-01-04 02:38:28.102105259,-2.0528564,-4.9512024,-0.17504883,11.416767707210024,5.362766701775407,-98.63570404052734,11.838839530944824,-80.02448272705078,28399667.0,50354.0,0.5133065004798719,-0.15581840201823188,-0.28572695846159935,0.024777486544531643,-0.014329270987769724,-0.018566386452467682,28.399667365010828
1617,C,268708152459263.0,7.668833095485402,14.170514231258057,0.6977665326131124,86,1970-01-04 02:38:28.152459263,-0.5328827,-5.117218,-1.0444489,5.899586202025421,5.249834048443294,-98.60770416259766,11.825559616088867,-79.75802612304688,28450021.0,50354.0,0.40526122275927196,0.11323234806026813,-0.062347168051199345,0.023126779567991924,-0.0010721890804996535,-0.008763462283212732,28.450021369033493
1617,C,268708202813267.0,7.686563895485402,15.557446531258055,-3.2197749673868876,86,1970-01-04 02:38:28.202813267,-1.227066,-3.5253296,-1.176651,7.431101250326773,3.9138404838206116,-98.63078308105469,11.793807029724121,-79.57097625732422,28500375.0,50354.0,0.38660283004167195,0.2549916681178681,-0.06349660636229934,0.019936761257369366,0.009270776055316938,-0.003168368708408657,28.50037537299795
1617,C,268708253167270.0,4.087198595485402,14.354245231258055,11.521680332613112,86,1970-01-04 02:38:28.253167270,-0.3032837,-8.213577,-1.3110352,9.959708562194686,8.323078843388048,-98.55912780761719,11.790369033813477,-79.1461410522461,28550729.0,50354.0,0.29642801823517195,0.2596174635048681,0.20901707138030065,0.0171966676670661,0.01295631410686563,0.003663768747758219,28.550729376031086
1617,C,268708303521274.0,-2.2482659045145983,9.049954731258056,2.4233372126131125,86,1970-01-04 02:38:28.303521274,0.7192383,-4.2562256,-0.7845154,12.502373084554252,4.387279852382272,-98.47803497314453,11.783098220825195,-78.92521667480469,28601083.0,50354.0,0.04629880836057193,0.09577834245626811,0.3510937067361607,0.008628833313201044,0.008947800206683527,0.014101909060638148,28.601083379995544
1617,C,268708353875278.0,2.463098895485402,4.699490731258056,-4.224932667386888,86,1970-01-04 02:38:28.353875278,0.366333,-1.0728912,1.1806488,16.253528686240074,1.6368344396633032,-98.450439453125,11.849386215209961,-78.8798828125,28651437.0,50354.0,0.005408850213671921,-0.14729941159023188,-0.045358768764839345,0.0013018437199237376,-0.001297145957585806,0.007697488533303958,28.65143738401821
1617,C,268708404229282.0,4.927454355485402,1.086514731258056,-5.417040667386887,86,1970-01-04 02:38:28.404229282,-2.1549377,0.1768341,0.6256714,19.799461714907626,2.2508868231392842,-98.56099700927734,11.87902545928955,-78.89354705810547,28701791.0,50354.0,0.18607195919969194,-0.3477949404702319,-0.24275596264959934,0.0048209123386002625,-0.012464990501826298,-0.007253864592821323,28.701791387982666
1617,C,268708454583286.0,5.250757575485402,9.576031731258055,-3.4845912673868873,86,1970-01-04 02:38:28.454583286,-0.11634827,-5.3995514,-0.6217346,11.414152844316499,5.436473687420102,-98.50965118408203,11.888347625732422,-78.61598205566406,28752145.0,50354.0,0.25625684178605196,-0.2250182677132319,-0.22411638722179936,0.011136512222418075,-0.014421718142435069,-0.011754445152712206,28.752145392005332
1617,C,268708504937290.0,3.313501695485402,11.416943731258055,-1.9264096673868871,86,1970-01-04 02:38:28.504937290,-1.1661224,-4.6796722,-0.17680359,9.217369331653476,4.826016251596288,-98.51891326904297,11.914247512817383,-78.378173828125,28802499.0,50354.0,0.21562235566523197,0.03507094321976807,-0.13623277053479932,0.011880502554230976,-0.00478230378877194,-0.009072510744837886,28.802499396027997
1617,C,268708555291294.0,7.066889195485402,10.306530731258055,1.3268101326131125,86,1970-01-04 02:38:28.555291294,-0.9399109,-2.9644318,-0.90304565,9.100588433359173,3.2383297921573666,-98.53359985351562,11.891569137573242,-78.22151184082031,28852853.0,50354.0,0.261347101461972,0.053462716542768074,-0.015096117486999324,0.012008660022091614,0.0022290119518413726,-0.0038100074137248246,28.852853399992455
1617,C,268708605645298.0,1.9758551954854018,9.182385731258057,0.7649357326131128,86,1970-01-04 02:38:28.605645298,-1.184555,-2.446701,-1.1191406,10.616250858295937,2.939726520272653,-98.64421081542969,11.998990058898926,-78.1056900024414,28903207.0,50354.0,0.22766917553147192,-0.002796750223231879,0.05266388564880068,0.012311962805863937,0.0012756170340269628,0.0009458436990096729,28.90320740401512
1617,C,268708655999302.0,4.422205325485402,9.651928731258057,-0.6452205673868874,86,1970-01-04 02:38:28.655999302,-0.85943604,-2.3072815,-0.78567505,10.08249897682989,2.584465807722291,-98.66171264648438,11.977511405944824,-77.98306274414062,28953561.0,50354.0,0.16108396973648192,-0.019277664777231848,0.003014068714900677,0.009787637938411274,-0.0005557675464666753,0.0014018038570149092,28.953561407979578
1617,C,268708706353306.0,2.528757495485402,7.839260731258056,4.050275032613112,86,1970-01-04 02:38:28.706353306,-0.29588318,-1.764267,-0.5858002,11.622911153070518,1.882377958279355,-98.6570816040039,11.961833000183105,-77.889404296875,29003915.0,50354.0,0.17500439094358197,-0.05309352290223186,0.08572905627100066,0.00846169665684197,-0.001822089392205858,0.002234285657770038,29.003915412002243
1617,C,268708756707310.0,2.870630595485402,10.001660731258056,0.32368203261311246,86,1970-01-04 02:38:28.756707310,0.3867798,-1.2366791,-0.3471985,9.705706934939473,1.341462115926909,-98.79147338867188,12.003679275512695,-77.85896301269531,29054269.0,50354.0,0.13594039396637195,-0.04428832033823188,0.11012311703120067,0.00782865684967791,-0.002451782667265156,0.004930970167229523,29.05426941602491
1617,C,268708807061313.0,2.212168095485402,10.255474731258056,0.37395973261311255,86,1970-01-04 02:38:28.807061313,0.46069336,-2.016037,-0.33348083,9.638565938079429,2.094720272803645,-98.91008758544922,12.155261993408203,-77.78862762451172,29104623.0,50354.0,0.12796962264257195,0.01654469953976813,0.017564526723100667,0.00664446248816338,-0.0006985011408429219,0.0032147918068020447,29.104623418999836
1617,C,268708857415317.0,-1.1760155045145977,9.261761731258057,3.1014530526131123,86,1970-01-04 02:38:28.857415317,0.56100464,-1.5850067,-0.6983185,11.71311823401763,1.8206101099874925,-98.8640365600586,12.133012771606445,-77.7030258178711,29154977.0,50354.0,0.02608721378287194,-0.002083737583231859,0.08750046769364067,0.0038786889706834008,0.0003640836391797137,0.002645221364430297,29.1549774230225
1617,C,268708907769321.0,-4.654134104514598,7.985913731258057,4.617123832613112,86,1970-01-04 02:38:28.907769321,2.0554657,0.32373047,1.429596,14.948181401501763,2.524576278170044,-98.76708221435547,12.20116901397705,-77.73059844970703,29205331.0,50354.0,-0.14678567670652806,-0.05922447488023185,0.19433061023934067,-0.0030388252010288904,-0.001543556865192626,0.0070956610491186714,29.20533142698696
1617,C,268708958123325.0,3.210459095485402,2.6495487312580543,-3.233248667386887,86,1970-01-04 02:38:28.958123325,0.78189087,-0.77674866,2.8522644,17.630295259290012,3.0577939794741753,-98.72434997558594,12.34802532196045,-77.71350860595703,29255685.0,50354.0,-0.03634740570232807,-0.2257001615812319,0.034841825034900666,-0.004610741615807771,-0.007173547572190273,0.005769874402899574,29.255685431009624
1617,C,268709008477329.0,10.993219895485403,-0.06378426874194432,-10.750460667386887,86,1970-01-04 02:38:29.008477329,0.10510254,-0.06335449,2.3289642,24.179902105792262,2.332195227719852,-98.72229766845703,12.46360969543457,-77.72838592529297,29306039.0,50354.0,0.357606025955672,-0.42836740812723195,-0.35206784992159934,0.00808832828211844,-0.016467459202549998,-0.007986799628572412,29.30603943503229
1617,C,268709058831333.0,-11.2826591045146,9.685101731258056,-2.929735867386887,86,1970-01-04 02:38:29.058831333,-1.3256683,2.183075,2.8580627,19.826783597230538,3.8329799496450776,-98.8173828125,12.588196754455566,-77.86121368408203,29356393.0,50354.0,-0.0072872109657281005,-0.2512332902462319,-0.34442630815599934,0.008819976805001817,-0.0171103067829487,-0.017535633417919704,29.356393438996747
1617,C,268709109185337.0,2.415750895485402,5.804562731258056,2.5246860926131127,86,1970-01-04 02:38:29.109185337,-1.5668182,-2.473175,2.7226563,13.572458360096967,3.9980459202472813,-98.68516540527344,12.725052833557129,-77.7162857055664,29406747.0,50354.0,-0.22324214797872813,-0.10348591782723189,-0.01019793817947932,-0.005804037670144575,-0.008930765501665598,-0.008928374649988347,29.406747443019412
1617,C,268709159539341.0,9.127298695485402,9.136731231258056,1.6910526326131126,86,1970-01-04 02:38:29.159539341,-0.78356934,-2.0020447,2.697464,10.75723023823615,3.449416751087367,-98.70649719238281,12.873505592346191,-77.6357192993164,29457101.0,50354.0,0.29061935955187196,-0.11729224190573191,0.1061396538850207,0.0016963560557770423,-0.00555853172759683,0.0024155245763184154,29.45710144698387
1617,C,268709209893345.0,5.065790535485402,12.868634331258056,3.1468632126131126,86,1970-01-04 02:38:29.209893345,-0.4404602,-1.4429626,2.4635773,6.226441053017554,2.8888335649286008,-98.71641540527344,13.006195068359375,-77.58168029785156,29507455.0,50354.0,0.35733940756815197,0.0605598887674681,0.12180420723526068,0.016313657879780844,-0.001428350454962068,0.005738942591425324,29.507455451006535
1617,C,268709260247349.0,4.143717195485402,15.651272831258055,2.4821445826131123,86,1970-01-04 02:38:29.260247349,-0.20829773,-1.3846893,1.6523132,3.608776223402978,2.1658465579887887,-98.64103698730469,13.197744369506836,-77.50777435302734,29557809.0,50354.0,0.23186777614265192,0.22457650263066806,0.14172152926041068,0.014834469264286911,0.007178878926230875,0.006634787467751518,29.5578094550292
1617,C,268709310601352.0,2.500009895485402,16.328580031258056,1.9791080826131124,86,1970-01-04 02:38:29.310601352,-0.36457825,-0.8798981,0.5234375,3.949119416081622,1.0867956492197246,-98.64998626708984,13.230237007141113,-77.46714782714844,29608163.0,50354.0,0.16726911696937194,0.3116875555195681,0.11232095835240066,0.010049069557881424,0.013501520192048496,0.006396027710627751,29.608163458004128
1617,C,268709360955356.0,0.00034559548540169516,14.249981731258057,1.3695499326131126,86,1970-01-04 02:38:29.360955356,-0.4393921,-0.5379791,-0.86190796,7.246762902792987,1.1069653387033316,-98.6641845703125,13.191681861877441,-77.43316650390625,29658517.0,50354.0,0.06295145019617193,0.27640724949486817,0.08430916284935068,0.005796263219526899,0.014806462905848465,0.0049505565614964935,29.658517462026794
1617,C,268709411309360.0,0.4660588954854017,13.758221731258056,2.7135746386131125,86,1970-01-04 02:38:29.411309360,-1.0787506,0.21595764,-2.279129,7.125702248460361,2.5307646192239472,-98.71659088134766,13.077400207519531,-77.42643737792969,29708871.0,50354.0,0.011742665869171918,0.2116933385757681,0.10280082732976267,0.001880573760177162,0.01228890850585441,0.004710868222739537,29.70887146599125
1617,C,268709461663364.0,1.2283271954854018,-0.05688726874194572,1.7384464326131126,86,1970-01-04 02:38:29.461663364,-0.77537537,2.2114563,-1.657196,19.57983596349536,2.8701993856922776,-98.64078521728516,12.945659637451172,-77.49483489990234,29759225.0,50354.0,0.042659558612371924,-0.14851070223723195,0.11208853451026268,0.0013696848057718294,0.001590749235095325,0.005410269463046319,29.759225470013916
1617,C,268709512017368.0,6.753839895485402,15.453091731258056,2.065427032613113,86,1970-01-04 02:38:29.512017368,0.6711273,0.6694336,-1.8415222,4.024888046465577,2.071172907003925,-98.61164855957031,12.84960651397705,-77.5146255493164,29809579.0,50354.0,0.20096702084937196,-0.10583896024723194,0.09577012223400068,0.006133786391108326,-0.006403761452371348,0.005233257400850319,29.809579473978374
1617,C,268709562371372.0,1.4910071954854018,11.602139731258056,-0.8054836673868873,86,1970-01-04 02:38:29.562371372,0.61624146,0.2456665,-2.4085083,9.107058352240095,2.498202913578893,-98.57952117919922,12.728696823120117,-77.50862121582031,29859933.0,50354.0,0.20758051520937196,0.1877003625317681,0.03172159410630068,0.010286001315350997,0.0020610245253177674,0.003209858942299768,29.85993347800104
