Subject-id_accel,Activity_accel,Timestamp_accel,accel_x,accel_y,accel_z,Segment_accel,DateTime,gyro_x,gyro_y,gyro_z,accel_magnitude,gyro_magnitude,Roll,Pitch,Yaw,Time_Difference,Difference_Microseconds,vx,vy,vz,dx,dy,dz,Time_diff
1630,C,1559623249532946.0,0.863327,5.8619537,2.3147888,156,1970-01-19 01:13:43.249532946,-0.046920776,-0.4300232,0.7993469,6.3612956131969005,0.9088877699134763,9.822664260864258,-53.949684143066406,-105.92585754394531,15005502.0,50354.0,0.0199284615888,-0.25313134808470006,0.1046499729608,0.00210942350411598,-0.013422750595892194,0.0062051812806862006,15.005502297077328
1630,C,1559623299886950.0,3.4296875,7.799286,5.0975647,156,1970-01-19 01:13:43.299886950,0.33999634,-0.035858154,0.37425232,9.92858420562259,0.5069005005393719,10.43018913269043,-53.96124267578125,-106.39266967773438,15055856.0,50354.0,0.1080852260665,-0.14952016807310003,0.1866208240695,0.0032230006140974883,-0.010137557222304933,0.007333324856831864,15.055856300983578
1630,C,1559623350240954.0,2.34169,7.277115,5.7766876,156,1970-01-19 01:13:43.350240954,0.7029877,-0.11643982,0.21713257,9.581755288428043,0.7449137473477901,10.77086067199707,-53.87053680419922,-106.63389587402344,15106210.0,50354.0,0.1453059713175,-0.11389065202300003,0.2737810501571,0.006379630176536969,-0.006631894217559511,0.01159153798740311,15.106210305122659
1630,C,1559623400594958.0,1.1914063,7.204651,8.992615,156,1970-01-19 01:13:43.400594958,0.47894287,0.4749756,-0.10928345,11.584194816287651,0.683323470812396,10.689985275268555,-53.46689224243164,-106.54994201660156,15156564.0,50354.0,0.0889527655451,-0.12886177741800003,0.37184673156020004,0.005897932217989681,-0.006111777916036059,0.016254970660296464,15.156564309028909
1630,C,1559623450948962.0,-3.3639069,12.306686,8.271515,156,1970-01-19 01:13:43.450948962,0.3262329,0.53601074,-0.10246277,15.204879161956157,0.6357940214203265,9.93879508972168,-53.55934524536133,-105.93292999267578,15206918.0,50354.0,-0.054697047606200005,-0.0022322683510000545,0.43465900101000005,0.0008624562105476851,-0.003300554790326115,0.02030539482891993,15.206918312935159
1630,C,1559623501302966.0,1.1585846,11.2664795,6.5908356,156,1970-01-19 01:13:43.501302966,-0.5388489,0.19386292,-0.17485046,13.104006734793172,0.598760095651295,9.921919822692871,-53.69133758544922,-105.94512939453125,15257272.0,50354.0,-0.0555233995471,0.10003238779349997,0.3741894010562,-0.0027750201979786344,0.0024623136072038205,0.020364376218820722,15.25727231707424
1630,C,1559623551656970.0,1.8338013,7.359436,6.6280975,156,1970-01-19 01:13:43.551656970,-0.695755,0.4119873,-0.33885193,10.072527086857793,0.8767149969351584,10.063820838928223,-53.50331497192383,-106.09515380859375,15307626.0,50354.0,0.0753392998043,-0.024524525456500003,0.3328130786587,0.0004989049207755245,0.0019010614500586482,0.01780020143178204,15.30762632098049
1630,C,1559623602010974.0,0.6798706,6.9637604,4.093567,156,1970-01-19 01:13:43.602010974,-0.22462463,-0.16963196,-0.35385132,8.106384750605015,0.45215261021232744,10.064541816711426,-53.651039123535156,-106.11599731445312,15357980.0,50354.0,0.0632867174263,-0.13285408423720005,0.2699393471165,0.0034901872358148165,-0.003962321256258286,0.01517549782374221,15.35798032511957
1630,C,1559623652364977.0,0.6248169,5.0447083,3.283371,156,1970-01-19 01:13:43.652364977,-0.10694885,-0.45910645,-0.27093506,6.051446365477885,0.5437118682584817,10.09940242767334,-53.74187469482422,-106.15869140625,15408334.0,50354.0,0.032848117187500005,-0.19113198354010005,0.185729168026,0.002420386731071643,-0.008156997228429086,0.011472366205742723,15.408334328094497
1630,C,1559623702718981.0,0.54867554,4.925537,2.2232513,156,1970-01-19 01:13:43.702718981,0.06639099,-0.14743042,-0.24865723,5.43183264925522,0.29660396208720713,10.188831329345703,-54.02922058105469,-106.23627471923828,15458688.0,50354.0,0.02954501916188,-0.24244833408190006,0.13864022964710002,0.0015708719938683404,-0.010916251656769098,0.00816664832521564,15.458688332000747
1630,C,1559623753072985.0,0.5048218,5.580826,2.833435,156,1970-01-19 01:13:43.753072985,0.12564087,-0.13694763,-0.17628479,6.279237038944799,0.2561573906064744,10.207151412963867,-54.25082778930664,-106.25183868408203,15509042.0,50354.0,0.026523902529179997,-0.22895049874900003,0.12731219097510002,0.0014116472414158175,-0.011868408414183573,0.006695884094005131,15.509042335906997
1630,C,1559623803426989.0,0.35975647,6.0824585,3.9708405,156,1970-01-19 01:13:43.803426989,-0.13360596,-0.22317505,-0.32913208,7.27277803857435,0.4195063546302374,10.10770320892334,-54.32389450073242,-106.1871109008789,15559396.0,50354.0,0.02176748710379,-0.19982268614350004,0.1713112442635,0.0012158323167892858,-0.010795222476038474,0.007518442229002233,15.559396340046078
1630,C,1559623853780993.0,0.015533447,5.7295074,5.237625,156,1970-01-19 01:13:43.853780993,-0.18890381,-0.1313324,-0.30189514,7.762745131411663,0.3795701835996812,9.835542678833008,-54.17069625854492,-105.9832534790039,15609750.0,50354.0,0.009448674240308999,-0.19607933453570003,0.23184153589350004,0.0007859292941603805,-0.009967625174640221,0.010150177546012792,15.609750343952328
1630,C,1559623904134997.0,1.8174286,6.384918,10.883804,156,1970-01-19 01:13:43.904134997,-0.029327393,0.20072937,-0.10195923,12.74862400783857,0.22704197969310927,9.825629234313965,-53.57469940185547,-105.97836303710938,15660104.0,50354.0,0.046148485457319,-0.18846431170420005,0.405889217933,0.0013997696897071802,-0.009681655381381965,0.016056147189089792,15.660104348091409
1630,C,1559623954489001.0,3.6185913,9.632278,9.981674,156,1970-01-19 01:13:43.954489001,-0.31282043,0.41264343,-0.16783142,14.335578059778255,0.5443331767279725,10.127645492553711,-53.28363800048828,-106.23633575439453,15710458.0,50354.0,0.1368626730223,-0.09020425630800005,0.5253301396060001,0.004607671937041368,-0.0070160385368431616,0.023445309764759403,15.710458351997659
1630,C,1559624004843005.0,4.9595795,14.337097,4.6692963,156,1970-01-19 01:13:44.004843005,0.07156372,0.084243774,-0.121017456,15.87299931145412,0.163901202358962,10.756699562072754,-53.65470504760742,-106.7420654296875,15760812.0,50354.0,0.21597260623160003,0.11000775437499996,0.36886747924310004,0.008883333825775441,0.0004985926708328567,0.022513213449763793,15.76081235613674
1630,C,1559624055197009.0,0.9363251,8.593979,6.899597,156,1970-01-19 01:13:44.055197009,0.37120056,0.42330933,0.45596313,11.06063372993338,0.7244881093080544,10.659292221069336,-53.572410583496094,-106.63306427001953,15811166.0,50354.0,0.1484411901142,0.08386650045199995,0.2912700266141,0.00917484615059821,0.004881172113779377,0.016620281984966727,15.81116636004299
1630,C,1559624105551013.0,1.8372345,5.31369,4.628998,156,1970-01-19 01:13:44.105551013,0.06825256,-0.28044128,0.08300781,7.2827436113112105,0.30032652229796175,10.974104881286621,-53.4334602355957,-106.88252258300781,15861520.0,50354.0,0.0698299100492,-0.14331581758700007,0.290255436315,0.005495411488813922,-0.001496755457507898,0.014641066580165951,15.86152036394924
1630,C,1559624155905016.0,0.8369751,4.790344,2.381607,156,1970-01-19 01:13:44.155905016,0.12081909,-0.37445068,0.1960144,5.414792226743794,0.43958185730106114,11.136420249938965,-53.67794418334961,-107.004638671875,15911874.0,50354.0,0.06732857509920001,-0.23907993598200003,0.176506002085,0.0034532391805812673,-0.009627577887606717,0.011751652734596801,15.911874366924167
1630,C,1559624206259020.0,0.4506073,3.894989,1.3433228,156,1970-01-19 01:13:44.206259020,-0.1055603,-0.049224854,0.27720642,4.144695693767412,0.30068166302025756,11.22066593170166,-54.08908462524414,-107.06916809082031,15962228.0,50354.0,0.0324174620848,-0.2747985710590001,0.09378255757460001,0.0025113059781815684,-0.012937919171771261,0.00680505506654975,15.962228371063247
1630,C,1559624256613024.0,-0.22821045,6.4210663,2.4878998,156,1970-01-19 01:13:44.256613024,-0.6141815,-0.34336853,0.41729736,6.8899795248843025,0.8180818718194289,10.91248893737793,-54.489158630371094,-106.83377075195312,16012581.999999998,50353.99999999814,0.005599285492449793,-0.23374187571189142,0.09645869140019643,0.0009571476537523826,-0.012803522828350261,0.004789703925438273,16.012582374969497
1630,C,1559624306967028.0,2.1433868,7.5608826,5.4850006,156,1970-01-19 01:13:44.306967028,-0.49499512,-0.33721924,0.27052307,9.583646709233253,0.6572059921000545,11.147786140441895,-54.45980453491211,-107.03954315185547,16062936.0,50354.00000000186,0.048218394963951784,-0.14144567254470528,0.20073371337080742,0.0013549677408508725,-0.009446096902456685,0.00748241317491984,16.062936379108578
1630,C,1559624357321032.0,4.1213837,7.4634705,4.9234924,156,1970-01-19 01:13:44.357321032,0.079315186,-0.10092163,0.14457703,9.845302073570606,0.1933354383854455,11.916455268859863,-54.428707122802734,-107.65811157226562,16113290.0,50354.0,0.15772812687850002,-0.11520106200130005,0.262054628261,0.005185115580427409,-0.006461594835664777,0.011651622077264017,16.113290383014828
1630,C,1559624407675036.0,2.4668274,6.522629,8.377335,156,1970-01-19 01:13:44.407675036,0.12182617,0.21878052,0.080337524,10.899984779588307,0.2629841238379037,12.066828727722168,-53.98678207397461,-107.77155303955078,16163644.000000002,50354.00000000186,0.16587139086470615,-0.14134117288850526,0.3348749314498124,0.008147265058221003,-0.006458963847820867,0.015028895524839679,16.163644386921078
1630,C,1559624458029040.0,-0.3778839,10.90863,12.939453,156,1970-01-19 01:13:44.458029040,-0.27197266,0.29190063,-0.08721924,16.928391791838592,0.4083898889640267,11.615988731384277,-53.6528434753418,-107.41935729980469,16213998.0,50353.99999999814,0.052593330499498055,-0.054602392156998,0.5366927714759802,0.005500286289786365,-0.004933271137150453,0.021943460056561868,16.21399839106016
1630,C,1559624508383044.0,-3.455841,14.68335,7.9518127,156,1970-01-19 01:13:44.508383044,-0.7522583,-0.5023346,-0.037139893,17.052123898672043,0.905324235800689,10.876355171203613,-53.926048278808594,-106.85694122314453,16264351.999999998,50353.99999999814,-0.09652169180729643,0.1508600804599944,0.5259793965288805,-0.0011059843526463988,0.002423479818404451,0.02675489717385739,16.26435239496641
1630,C,1559624558737048.0,1.366394,7.279236,4.9752655,156,1970-01-19 01:13:44.558737048,-0.5558624,-0.23509216,-0.51594543,8.922307778956197,0.7940094572264933,10.996363639831543,-53.95331573486328,-106.9926528930664,16314706.000000002,50354.000000003725,-0.052606007119003886,0.0594828277220044,0.32546504784142405,-0.0037545880758677406,0.005295803399298575,0.02143681677591274,16.31470639910549
1630,C,1559624609091052.0,0.29664612,6.4905243,4.769577,156,1970-01-19 01:13:44.609091052,-0.22143555,-0.053024292,-0.31800842,8.06001050671341,0.3911197176527926,10.820626258850098,-53.95063781738281,-106.8689956665039,16365060.0,50353.99999999814,0.04187036110123846,-0.14678794492689462,0.24534589962249093,-0.00027029135978927024,-0.00219808093586744,0.014371307224298455,16.36506040301174
1630,C,1559624659445056.0,0.34812927,5.078232,3.2339935,156,1970-01-19 01:13:44.659445056,0.0027008057,-0.15222168,-0.13748169,6.030617563110513,0.20513397889844492,10.724762916564941,-54.04404067993164,-106.79615783691406,16415413.999999998,50353.99999999814,0.016233509994029397,-0.20220262263489255,0.20150589447849254,0.0014628811625655045,-0.00878653551950279,0.011250387620080045,16.41541440691799
1630,C,1559624709799059.0,1.0033264,3.6239471,2.212555,156,1970-01-19 01:13:44.709799059,0.2247467,0.16731262,-0.26828003,4.362918298176161,0.38791592706275324,11.073515892028809,-54.10407638549805,-107.07630157470703,16465768.0,50354.00000000186,0.03402559940359126,-0.2743744367993102,0.13712775158450508,0.001265373597303942,-0.011998780625375365,0.008525779306928407,16.465768410125747
1630,C,1559624760153063.0,0.32136536,5.2154083,2.1404877,156,1970-01-19 01:13:44.760153063,0.5436096,0.14820862,-0.24464417,5.646720023532963,0.6142702680168179,11.073816299438477,-54.42578887939453,-107.06072998046875,16516122.0,50354.0,0.03335176444152,-0.27092074909420005,0.1095965560579,0.001696359889528366,-0.013728896895240908,0.006211777893512833,16.516122414031997
1630,C,1559624810507067.0,-0.24356079,7.5740967,3.751648,156,1970-01-19 01:13:44.810507067,0.36135864,-0.11721802,-0.21209717,8.455833808399992,0.43509233553049276,10.827051162719727,-54.6748161315918,-106.85171508789062,16566476.000000002,50354.00000000186,0.0019588856588900723,-0.17146783261500637,0.1483463005189055,0.0008890162375780573,-0.011138017321693103,0.006494227300034472,16.566476417938247
1630,C,1559624860861071.0,-0.20758057,6.1809998,6.203903,156,1970-01-19 01:13:44.860861071,0.080566406,-0.15678406,-0.12756348,8.759923552979819,0.21758820895340547,10.456759452819824,-54.45743179321289,-106.55120849609375,16616830.0,50353.99999999814,-0.011358386020719579,-0.14715713541949457,0.2506509075269907,-0.0002366512206097727,-0.008022020820204333,0.010045552706971158,16.616830422077328
1630,C,1559624911215075.0,1.5680847,5.0073395,8.728241,156,1970-01-19 01:13:44.911215075,0.25894165,0.23857117,0.18455505,10.184033064003444,0.397526788707873,10.444137573242188,-53.84187316894531,-106.52388763427734,16667183.999999998,50353.99999999814,0.03425341248100873,-0.21178038144389222,0.3759465894879861,0.0005764280811906787,-0.009036969862069156,0.015775845182345486,16.667184425983578
1630,C,1559624961569079.0,1.5585175,9.204361,8.730759,156,1970-01-19 01:13:44.961569079,0.060638428,0.6655121,0.08720398,12.78183832366097,0.673934646923989,10.423690795898438,-53.61610794067383,-106.4988784790039,16717538.000000002,50354.000000003725,0.07871846358940582,-0.13566121651151006,0.4395652430000326,0.0028442929238250373,-0.00874753711172381,0.02053214140655236,16.71753843012266
1630,C,1559625011923083.0,1.1473236,12.636612,8.360596,156,1970-01-19 01:13:45.011923083,-0.404068,0.26010132,0.024383545,15.195390082418974,0.48116338447195817,10.337501525878906,-53.67035675048828,-106.44361877441406,16767892.0,50353.99999999814,0.06812496137469748,0.05642097722099788,0.43030904483498406,0.003697076910321092,-0.0019950315046171514,0.021900824944821404,16.76789243402891
1630,C,1559625062277087.0,3.3816376,9.217255,6.8795776,156,1970-01-19 01:13:45.062277087,0.08818054,-0.051498413,0.39027405,11.988404837474437,0.40341260302525583,10.73791790008545,-53.618324279785156,-106.7514419555664,16818246.0,50354.0,0.1140256561324,0.05674560945899995,0.3837018507272,0.004586006096976194,0.0028491951528423053,0.02049435231756911,16.81824643793516
1630,C,1559625112631091.0,1.0877075,6.0690765,4.004471,156,1970-01-19 01:13:45.112631091,0.14761353,-0.118774414,0.3559723,7.352046324544583,0.40325351086803235,10.829127311706543,-53.67992401123047,-106.80924224853516,16868600.0,50354.0,0.1125247015827,-0.10860523182450003,0.27402769160220003,0.005703858356193073,-0.0013056697122961957,0.016559656687227305,16.86860044207424
1630,C,1559625162985095.0,0.47746277,5.5225525,2.1603851,156,1970-01-19 01:13:45.162985095,0.10548401,-0.087509155,0.22973633,5.949270593299176,0.26751356955557043,10.845890045166016,-54.044883728027344,-106.81233215332031,16918954.0,50354.0,0.039406291887790004,-0.20162675666700003,0.1552125820297,0.0038251666226065267,-0.007810710774250498,0.010806982369230347,16.91895444598049
1630,C,1559625213339099.0,-0.48381042,4.894943,3.770935,156,1970-01-19 01:13:45.213339099,-0.171875,-0.06462097,0.39457703,6.197942422286172,0.43521019977978664,10.345161437988281,-54.039127349853516,-106.40296936035156,16969308.0,50354.0,-0.00015981478405000096,-0.23118791579650005,0.14933284615770004,0.0009881085540408621,-0.010896975008613542,0.007667540245474172,16.96930845011957
1630,C,1559625263693102.0,1.6590881,5.638672,5.965561,156,1970-01-19 01:13:45.263693102,0.34210205,0.19662476,0.6215668,8.374670936333356,0.7362339273094525,10.480237007141113,-53.747623443603516,-106.479248046875,17019662.0,50354.0,0.029589966149360002,-0.22826437514500006,0.24513575979200003,0.0007409629209244099,-0.011567630329034148,0.0099315360919956,17.019662453094497
1630,C,1559625314047106.0,2.7058563,7.033722,4.55809,156,1970-01-19 01:13:45.314047106,0.6773834,0.24147034,0.5012665,8.807445028930564,0.8765981403799151,10.981424331665039,-53.76343536376953,-106.84026336669922,17070016.0,50354.0,0.10989620515880003,-0.17441633626200007,0.26495396122700005,0.003511843335025545,-0.010138292271094043,0.012842528906095366,17.070016457000747
1630,C,1559625364401110.0,0.2611847,6.5185547,4.890915,156,1970-01-19 01:13:45.364401110,0.07199097,0.16539001,0.21305847,8.153577273910585,0.2791602887376389,10.768001556396484,-53.74668884277344,-106.65812683105469,17120370.0,50354.0,0.074701191257,-0.15226352952410005,0.237897598885,0.004647608649560597,-0.008224818980896642,0.012660293728939826,17.120370460906997
1630,C,1559625414755114.0,0.90667725,6.97171,9.801651,156,1970-01-19 01:13:45.414755114,0.016189575,0.53767395,-0.2135315,12.062303523190277,0.5787495834465309,10.589399337768555,-53.26942443847656,-106.51712036132812,17170724.0,50354.0,0.029403260315150004,-0.15382480564810005,0.369914734182,0.002621037777232021,-0.007706386014630483,0.01530289110962786,17.170724465046078
1630,C,1559625465109118.0,-0.7275238,12.7673645,10.797531,156,1970-01-19 01:13:45.465109118,-0.24012756,0.5136261,-0.1678772,16.7368325214596,0.5913169792527554,10.196672439575195,-53.176666259765625,-106.21429443359375,17221078.0,50354.0,0.004510546410649999,0.003501478686499944,0.518625605214,0.0008538479119354667,-0.003784690402912206,0.022370780124973094,17.221078468952328
1630,C,1559625515463122.0,-1.1397095,11.4188385,6.995453,156,1970-01-19 01:13:45.515463122,-0.6810303,-0.06645203,-0.19482422,13.439686495922496,0.7114594988527592,9.754951477050781,-53.33670425415039,-105.8936767578125,17271432.0,50354.0,-0.047011332794100004,0.11546683293099995,0.44797395816800006,-0.0010700422987761208,0.002995265181593795,0.02433607720726862,17.27143247309141
1630,C,1559625565817126.0,1.9230347,5.192459,5.0490875,156,1970-01-19 01:13:45.565817126,-0.26167297,-0.23384094,-0.43222046,7.493529042229792,0.5567484660879777,10.104177474975586,-53.12371063232422,-106.19782257080078,17321786.0,50354.0,0.019721778560400006,-0.07524656284250004,0.30324539616850005,-0.0006870691069418649,0.001012625740018162,0.018913449684130064,17.32178647699766
1630,C,1559625616171130.0,0.41471863,4.513336,3.2651825,156,1970-01-19 01:13:45.616171130,0.23542786,-0.2341156,-0.33164978,5.586019168358745,0.46928452776709784,10.070110321044922,-53.152523040771484,-106.17218017578125,17372140.0,50354.0,0.05885761558941,-0.24910639928500006,0.20932837579000002,0.0019783934065097666,-0.00816623452748407,0.012905069856599156,17.37214048113674
1630,C,1559625666525134.0,-0.5229187,5.306946,1.9421082,156,1970-01-19 01:13:45.666525134,0.22167969,-0.33900452,-0.30496216,5.675288897865283,0.5070186077165137,9.742147445678711,-53.601600646972656,-105.910888671875,17422494.0,50354.0,-0.00272415316239,-0.2462239600860001,0.1311039579539,0.0014132721835250826,-0.01247093245788367,0.008571064866670171,17.42249448504299
1630,C,1559625716879138.0,0.6923523,4.821823,3.1147919,156,1970-01-19 01:13:45.716879138,0.19238281,-0.25613403,-0.40751648,5.78197693967642,0.5183487902745867,9.846992492675781,-53.684043884277344,-106.00076293945312,17472848.0,50354.0,0.004265829747200002,-0.23845718288700005,0.1273175738177,3.881479137576143e-05,-0.012202817136631225,0.006506278905413573,17.47284848894924
1630,C,1559625767233141.0,0.35147095,5.227646,3.9684448,156,1970-01-19 01:13:45.767233141,0.09732056,-0.18719482,-0.45863342,6.572698734968532,0.5048344342202128,9.762504577636719,-53.66690444946289,-105.94312286376953,17523202.0,50354.0,0.026280337965250002,-0.24045371898700005,0.17833465039590002,0.0007690608644963539,-0.012057539776481701,0.007695406049025809,17.523202491924167
1630,C,1559625817587145.0,-0.7258606,4.683502,5.550003,156,1970-01-19 01:13:45.817587145,-0.14146423,-0.30052185,-0.25076294,7.298259922381866,0.4161821269280542,9.230566024780273,-53.377708435058594,-105.52992248535156,17573556.0,50354.0,-0.00942600821805,-0.24393622680400004,0.23964596026060003,0.00042434146004525456,-0.01219548566518001,0.010523497834498702,17.573556496063247
1630,C,1559625867941149.0,1.4398651,4.7148895,8.386215,156,1970-01-19 01:13:45.867941149,0.1292572,0.21383667,0.074920654,9.727897847409443,0.26085752736755863,9.248332023620605,-52.7763786315918,-105.53570556640625,17623910.0,50354.0,0.017976491296500002,-0.2568458972045001,0.350872160586,0.00021527551246613573,-0.012608191536162007,0.01486747472855485,17.623910499969497
1630,C,1559625918295153.0,3.1292877,10.098358,10.688202,156,1970-01-19 01:13:45.918295153,-0.37045288,0.75123596,-0.13980103,15.03352712434242,0.8491967568746815,9.44545841217041,-52.48153305053711,-105.70764923095703,17674264.0,50354.0,0.11503756004559999,-0.12051606769250006,0.48023659680900005,0.0033488947706400516,-0.009500842190211772,0.020924825184933916,17.674264504108578
1630,C,1559625968649157.0,5.144272,13.566483,10.578644,156,1970-01-19 01:13:45.968649157,0.093185425,0.52931213,-0.13015747,17.956077084876,0.5529880843149954,9.889288902282715,-52.398948669433594,-106.05703735351562,17724618.0,50354.0,0.20830341256690002,0.10234050185699994,0.535435381742,0.008140755667464913,-0.0004576062210403865,0.025571573403978528,17.724618508014828
1630,C,1559626019003161.0,3.5159302,9.058136,8.456955,156,1970-01-19 01:13:46.019003161,0.6729431,-0.080459595,0.7110138,12.881447156193012,0.982276328766816,10.24370002746582,-52.23597717285156,-106.28993225097656,17774972.0,50354.0,0.21803791078940002,0.07615083256299995,0.47925927602300006,0.010733995498141568,0.004493876326692338,0.025546967398549406,17.774972511921078
1630,C,1559626069357165.0,1.7431488,7.549057,4.872452,156,1970-01-19 01:13:46.069357165,0.67622375,-0.8305969,0.83551025,9.152465122604644,1.3583987441869692,10.451462745666504,-52.37609100341797,-106.40692901611328,17825326.0,50354.0,0.132407831983,-0.07534990183900005,0.335594480039,0.008823172465780717,2.016503283814566e-05,0.020515573016372978,17.82532651606016
1630,C,1559626119711169.0,0.79190063,7.2279816,3.0987701,156,1970-01-19 01:13:46.119711169,0.40582275,-0.6748047,0.5599518,7.903999035323003,0.9662295306410856,10.508624076843262,-52.7559928894043,-106.4231948852539,17875680.0,50354.0,0.06382493949911,-0.12142769916780004,0.20069145881170003,0.004940552487605084,-0.004954269660548206,0.013502071082444073,17.87568051996641
1630,C,1559626170065173.0,1.2328339,5.036377,2.1006775,156,1970-01-19 01:13:46.170065173,0.1742096,-0.37042236,0.5226898,5.594445340703979,0.6639023546758737,10.841168403625488,-53.09212875366211,-106.66805267333984,17926034.0,50354.0,0.05097674126181,-0.18468944352780006,0.1309064922252,0.002890361916517683,-0.007707111301647124,0.008348641613256033,17.92603452410549
1630,C,1559626220419177.0,-0.14199829,4.880768,3.3023376,156,1970-01-19 01:13:46.220419177,-0.10374451,-0.15242004,0.6559143,5.894700451130718,0.6813357181986217,10.486391067504883,-53.19247817993164,-106.369873046875,17976388.0,50354.0,0.027463968152969996,-0.24378524033500007,0.13603171117270002,0.001974901740935916,-0.010787707115613719,0.006720703146948929,17.97638852801174
1630,C,1559626270773181.0,1.2324524,5.058609,4.1273804,156,1970-01-19 01:13:46.270773181,0.3045807,0.22735596,0.7908325,6.644075022111875,0.8774258820072848,10.612447738647461,-53.10258865356445,-106.43401336669922,18026742.0,50354.0,0.027454363127469995,-0.24322550527100004,0.18705801008599998,0.0013826788266476377,-0.012261469542122266,0.00813442991213029,18.02674253191799
1630,C,1559626321127184.0,4.267853,5.1934357,5.5389557,156,1970-01-19 01:13:46.321127184,0.9346924,0.40075684,0.5499115,8.710130529802983,1.1561395180759093,11.48161506652832,-52.778446197509766,-107.07181549072266,18077096.0,50354.0,0.13848118905579998,-0.23535347058810008,0.24336934398969998,0.004177759397318188,-0.012049182875204565,0.010836869493563899,18.077096535125747
1630,C,1559626371481188.0,2.3051605,8.859863,9.117508,156,1970-01-19 01:13:46.371481188,0.8033905,0.5155945,0.17030334,12.920522026589842,0.9696789218786059,11.584980964660645,-52.519691467285156,-107.11383056640625,18127450.0,50354.0,0.16548876088950001,-0.13964929863010003,0.3690057865749,0.007653051429772819,-0.009441444720606623,0.015417768662224936,18.127450539031997
1630,C,1559626421835192.0,-5.490158,12.460861,10.205215,156,1970-01-19 01:13:46.421835192,-0.72424316,0.5424042,-0.3257599,17.01650096002436,0.9616912100214058,10.534687042236328,-52.52949142456055,-106.3154296875,18177804.0,50354.0,-0.0801886820575,0.043322668147999975,0.4864881969710001,0.0021476000847532642,-0.0024252155756478333,0.02153877202373513,18.177804542938247
1630,C,1559626472189196.0,0.37670898,12.308517,5.6098785,156,1970-01-19 01:13:46.472189196,-0.57974243,-0.6074524,-0.368042,13.531897028120776,0.9168176575372362,10.421813011169434,-52.87942886352539,-106.26300811767578,18228158.0,50354.0,-0.12874130597654002,0.13014942990599995,0.39817660904950003,-0.0052602303087330255,0.004367507012705557,0.022273205821178133,18.228158547077328
1630,C,1559626522543200.0,5.1601257,7.6640778,6.4293823,156,1970-01-19 01:13:46.522543200,0.15444946,-0.2828064,-0.2534027,11.256195739405326,0.40993538996107864,11.271550178527832,-52.74025344848633,-106.94287109375,18278512.0,50354.0,0.13940088673836,0.009380819279599953,0.30311246916160006,0.0002683762648403421,0.0035129530837458493,0.017656355122120868,18.278512550983578
1630,C,1559626572897204.0,0.8011627,5.334381,4.0383606,156,1970-01-19 01:13:46.572897204,0.65878296,-0.26438904,-0.030563354,6.738385463941985,0.710514371048336,11.308587074279785,-52.74289321899414,-106.94860076904297,18328866.0,50354.0,0.1500873580468,-0.16620700279240005,0.26354636299330003,0.007288445538955974,-0.0039484128223017684,0.01426676941716392,18.32886655512266
1630,C,1559626623251208.0,-0.895874,4.181259,1.9304199,156,1970-01-19 01:13:46.623251208,0.4352417,-0.16203308,0.21659851,4.69169884362509,0.5124499692334819,10.679153442382812,-53.10674285888672,-106.4236068725586,18379220.0,50354.0,-0.0023845464000999987,-0.2538939317200001,0.1502759866485,0.0037187136888289663,-0.010576881228218699,0.0104188052969316,18.37922055902891
1630,C,1559626673605212.0,-0.21946716,5.112976,3.226242,156,1970-01-19 01:13:46.673605212,0.41700745,0.1687622,-0.006652832,6.049737750800316,0.44991127311722556,10.37658977508545,-53.232112884521484,-106.16401672363281,18429574.0,50354.0,-0.028080944385319998,-0.259468245405,0.1298292766563,-0.0007670296615045194,-0.012924919533476128,0.00705221021422495,18.42957456293516
1630,C,1559626723959216.0,0.86065674,5.2824707,4.77211,156,1970-01-19 01:13:46.723959216,0.45181274,0.27722168,-0.15693665,7.1706527298821205,0.5528252201207471,10.401782989501953,-53.07273483276367,-106.16920471191406,18479928.0,50354.0,0.016143230055660002,-0.23174303843410002,0.201374508304,-0.0003005558336778497,-0.012367226493217023,0.008338717693945473,18.47992856707424
1630,C,1559626774313220.0,-0.51013184,4.846512,1.8322754,156,1970-01-19 01:13:46.774313220,0.26150513,0.114715576,-0.38168335,5.206356326815419,0.4766830981486035,10.053837776184082,-53.4881477355957,-105.89051055908203,18530282.0,50354.0,0.0088251654073,-0.23845180256210005,0.1662786112158,0.0006286292925709439,-0.01183809551176133,0.009256402590150006,18.53028257098049
1630,C,1559626824667224.0,-1.2049713,4.7533875,5.0193024,156,1970-01-19 01:13:46.824667224,-0.3721161,-0.021942139,-0.35601807,7.017125133673027,0.5154616528022529,9.354759216308594,-53.28514862060547,-105.3548583984375,18580636.0,50354.0,-0.04318115175578,-0.25177253028850005,0.17250217427060002,-0.0008649806682956811,-0.012342378028179559,0.008529483836191093,18.58063657511957
1630,C,1559626875021227.0,2.3364563,6.666336,8.619736,156,1970-01-19 01:13:46.875021227,0.26460266,0.16897583,-0.06149292,11.144456577886679,0.3199199556348289,9.562688827514648,-52.872955322265625,-105.51148223876953,18630990.0,50354.0,0.028487397845000005,-0.20595482144050006,0.34339006979680003,-0.000369944642211708,-0.011524201534481037,0.012988619028884932,18.630990578094497
1630,C,1559626925375231.0,1.607132,10.382675,8.510056,156,1970-01-19 01:13:46.925375231,-0.7596283,0.5102844,-0.29483032,13.520498013911507,0.9614313499338122,9.56827163696289,-52.77788543701172,-105.55243682861328,18681344.0,50354.0,0.0992877226291,-0.06422625005300002,0.4312767731840001,0.0032169942081764157,-0.006802348836991851,0.019503787105727605,18.681344582000747
1630,C,1559626975729235.0,5.321045,15.933304,10.430481,156,1970-01-19 01:13:46.975729235,-0.7173462,0.0892334,-0.6713257,19.773179565760334,0.9865223595086379,9.996188163757324,-52.820899963378906,-105.94141387939453,18731698.0,50354.0,0.174430712329,0.16908820328300003,0.476865900049,0.006891409036940084,0.0026401093964717104,0.022864308083987244,18.731698585906997
1630,C,1559627026083239.0,1.3690186,8.447723,5.4645996,156,1970-01-19 01:13:47.026083239,-0.14833069,-0.27166748,0.19140625,10.153821182205009,0.36392522009952677,10.072937965393066,-52.92448806762695,-106.00424194335938,18782052.0,50354.0,0.16843573125720002,0.12037191677899996,0.40019044426620004,0.008632348450169757,0.007287737442800975,0.02208164758082379,18.782052590046078
1630,C,1559627076437243.0,1.2685547,6.447342,5.322525,156,1970-01-19 01:13:47.076437243,-0.5309906,-0.2702942,0.058013916,8.456164749310474,0.5986447914177948,10.134994506835938,-52.858455657958984,-106.07461547851562,18832406.0,50354.0,0.06640618297409999,-0.11845614849500005,0.2715874360542,0.005912614874601441,4.8233298086265615e-05,0.016913351692826713,18.832406593952328
1630,C,1559627126791247.0,2.586441,4.788208,2.5350037,156,1970-01-19 01:13:47.126791247,-0.282547,-0.27671814,0.19021606,6.003570325794368,0.4388483629865596,10.944212913513184,-52.99959182739258,-106.72737121582031,18882760.0,50354.0,0.09705722673890001,-0.21059175765000004,0.1978290000799,0.004115518266344201,-0.008284439133012668,0.011818497612548237,18.88276059809141
1630,C,1559627177145251.0,1.1335449,3.9889374,2.4516602,156,1970-01-19 01:13:47.177145251,-0.1490326,-0.19940186,0.41145325,4.817383455538786,0.48090081573000276,11.233054161071777,-53.104026794433594,-106.95311737060547,18933114.0,50354.0,0.0936580850043,-0.2724870102642,0.12554923701030002,0.0048016394037585465,-0.012162474139775815,0.008141693875219966,18.93311460199766
1630,C,1559627227499255.0,0.63113403,6.1125793,2.504242,156,1970-01-19 01:13:47.227499255,-0.15293884,-0.12121582,0.5000763,6.635750436625576,0.536805243659661,11.241520881652832,-53.461753845214844,-106.95201110839844,18983468.0,50354.0,0.044429321420610006,-0.23914331404410002,0.12477474968940003,0.0034766266315599597,-0.01288131667511007,0.0063024070131383475,18.98346860613674
1630,C,1559627277853259.0,2.829483,6.8142853,5.0242157,156,1970-01-19 01:13:47.277853259,0.13024902,-0.17308044,0.53556824,8.926544773719089,0.5777153153744945,11.698421478271484,-53.4192008972168,-107.29915618896484,19033822.0,50354.0,0.08712795496431001,-0.16800952996580004,0.18954397951290003,0.003312217547543131,-0.010250887153637254,0.00791360264512631,19.03382261004299
1630,C,1559627328207263.0,3.3157349,7.5708466,4.007599,156,1970-01-19 01:13:47.328207263,0.62353516,-0.15203857,0.66067505,9.185459482933371,0.9210881305371235,12.327043533325195,-53.559814453125,-107.76100158691406,19084176.0,50354.0,0.15471815106830003,-0.13129473415370005,0.22739399870190002,0.006088959411583023,-0.0075355834577366535,0.01049724747751402,19.08417661394924
1630,C,1559627378561266.0,3.5393524,8.625229,8.3059845,156,1970-01-19 01:13:47.378561266,1.1180115,0.119155884,0.60388184,12.486431404851707,1.2762527631726628,12.6649751663208,-53.329200744628906,-107.96920776367188,19134530.0,50354.0,0.1725905329521,-0.08570060461880005,0.31001909177950004,0.008240650737581613,-0.005463291644275235,0.01353044937905021,19.134530616924167
1630,C,1559627428915270.0,3.150299,9.890564,17.748184,156,1970-01-19 01:13:47.428915270,1.5805054,0.5128021,0.5573578,20.560780027162224,1.7526012183079214,12.606147766113281,-52.71556091308594,-107.8392333984375,19184884.0,50354.0,0.1684253532978,-0.027297079639000073,0.6559658003244999,0.008585756968113731,-0.002844942696558634,0.024320601628502407,19.184884621063247
1630,C,1559627479269274.0,-3.0512543,8.900726,8.573242,156,1970-01-19 01:13:47.479269274,0.9088898,-0.016082764,1.0867767,12.729240139179892,1.4168355301533093,11.683084487915039,-52.641571044921875,-107.03699493408203,19235238.0,50354.0,0.002493648411899997,-0.020360891670000037,0.662694542402,0.004303227706045117,-0.0011998847436466959,0.033199911448825094,19.235238624969497
1630,C,1559627529623278.0,1.8182831,7.07222,7.382553,156,1970-01-19 01:13:47.529623278,1.7287292,0.101135254,1.1593323,10.38385949240236,2.0839348282414147,11.758710861206055,-52.40729522705078,-106.99324798583984,19285592.0,50354.0,-0.031042515902400005,-0.09131833855800003,0.401719050715,-0.0007187748368083188,-0.002811747979450358,0.02679874103390671,19.285592629108578
1630,C,1559627579977282.0,1.0991211,5.942917,6.951523,156,1970-01-19 01:13:47.579977282,2.2715607,0.30403137,1.7846527,9.21140606427071,2.9047217332036914,11.66919994354248,-52.108089447021484,-106.77727508544922,19335946.0,50354.0,0.0734514855434,-0.16578709575100006,0.360889031452,0.0010677306286514569,-0.006473143519597696,0.019200183684718562,19.335946633014828
1630,C,1559627630331286.0,1.7725677,4.271942,6.677109,156,1970-01-19 01:13:47.630331286,2.5238342,0.32128906,1.7844696,8.122516192678738,3.1076192627941865,11.789361000061035,-51.61319351196289,-106.71653747558594,19386300.0,50354.0,0.07230050891760001,-0.23628969495700003,0.343128067864,0.0036695979645445975,-0.010123087359655319,0.017725038509478933,19.386300636921078
1630,C,1559627680685290.0,-0.2709961,6.056198,5.7592926,156,1970-01-19 01:13:47.680685290,2.4887238,0.55841064,1.7672424,8.361843358604247,3.1030169667453333,11.40086555480957,-51.49760437011719,-106.25747680664062,19436654.0,50354.0,0.0378050681732,-0.23343761922000003,0.3131112830832,0.002772128114415072,-0.011826324589034333,0.016522138138797656,19.43665464106016
1630,C,1559627731039294.0,0.8574219,6.9392242,6.229004,156,1970-01-19 01:13:47.731039294,2.8934631,0.46923828,1.9244385,9.364213562519879,3.506533446975976,11.325496673583984,-51.40309143066406,-106.0237045288086,19487008.0,50354.0,0.014764442366600001,-0.16628345527060004,0.3018293434982,0.0013235425668605446,-0.010063777492449839,0.01548236015543991,19.48700864496641
1630,C,1559627781393298.0,-0.55670166,6.721695,7.158081,156,1970-01-19 01:13:47.781393298,2.727707,0.4467163,1.6909027,9.835101627021084,3.2402303731991005,10.899016380310059,-51.22087860107422,-105.52975463867188,19537362.0,50354.0,0.00757123348248,-0.14952823730160003,0.337046639045,0.0005623453108522872,-0.007951190983890282,0.016084980612490148,19.53736264910549
1630,C,1559627831747302.0,-1.9876556,5.259445,9.587418,156,1970-01-19 01:13:47.831747302,2.3870087,0.76789856,1.6817627,11.114455470195576,3.019239061657267,10.141317367553711,-50.71242904663086,-104.79188537597656,19587716.0,50354.0,-0.06405928273502,-0.19182003822000002,0.421601428323,-0.0014221996160311997,-0.008594125532807325,0.019100482392124137,19.58771665301174
1630,C,1559627882101306.0,1.0651398,4.2804413,7.389267,156,1970-01-19 01:13:47.882101306,2.4009552,0.99972534,2.0008392,8.605693889139836,3.2813707702882033,10.065916061401367,-50.17066955566406,-104.5728988647461,19638070.0,50354.0,-0.0232261802966,-0.2532834826249001,0.42742199824500005,-0.0021975861027470965,-0.01120637134431205,0.02137586281070254,19.63807065691799
1630,C,1559627932455309.0,1.6658783,7.4002075,5.6735077,156,1970-01-19 01:13:47.932455309,1.3880463,0.75671387,1.723114,9.472429000812117,2.338463228060272,10.178829193115234,-50.18272399902344,-104.54776763916016,19688424.0,50354.0,0.0687588427037,-0.19938550516240006,0.32888147862190004,0.0011463758414235567,-0.011396847105520856,0.019041452637077946,19.688424660125747
1630,C,1559627982809313.0,4.181427,9.643433,5.1718597,156,1970-01-19 01:13:47.982809313,2.174118,0.34057617,1.809555,11.714446830230699,2.8490823967588,10.790705680847168,-50.38840103149414,-104.87599182128906,19738778.0,50354.0,0.1472176055381,-0.06436146313150005,0.27305381502980003,0.005437639037383799,-0.006640357420735523,0.015154924888268853,19.738778664031997
1630,C,1559628033163317.0,1.6664124,5.7419586,5.9474487,156,1970-01-19 01:13:48.033163317,1.9038391,0.39057922,1.6638336,8.433217943947577,2.558417028999295,10.921998023986816,-50.20133590698242,-104.84922790527344,19789132.0,50354.0,0.1472310525738,-0.10611119568680004,0.2799508275868,0.007413333865283307,-0.004291990131068342,0.013922997887158138,19.789132667938247
1630,C,1559628083517321.0,1.6534271,6.4111633,4.4943695,156,1970-01-19 01:13:48.083517321,1.8736725,0.23747253,1.7359619,8.002261757579014,2.5652691005063115,11.126771926879883,-50.290687561035156,-104.87869262695312,19839486.0,50354.0,0.08358359909150001,-0.18749004992370003,0.26289365682140003,0.005811220484977259,-0.00739199856073556,0.013667195583945255,19.839486672077328
1630,C,1559628133871325.0,0.27368164,6.719391,4.6451416,156,1970-01-19 01:13:48.133871325,1.6023865,0.35102844,1.8677979,8.173277037700645,2.485866540326631,10.919449806213379,-50.42190933227539,-104.59671020507812,19889840.0,50354.0,0.048518816746980005,-0.16288123438890004,0.23010547096470002,0.003325942523565411,-0.008821297825138331,0.012412239040270641,19.889840675983578
1630,C,1559628184225329.0,0.5428467,7.6900787,5.05455,156,1970-01-19 01:13:48.184225329,1.2915955,0.27011108,1.6871338,9.218485160501945,2.1418682009548244,10.776521682739258,-50.57906723022461,-104.38224792480469,19940194.0,50354.0,0.020557734016180003,-0.13068198136310005,0.2442091354132,0.0017391403185640795,-0.007391041082988106,0.01194181884477639,19.94019468012266
1630,C,1559628234579333.0,1.6783142,8.181564,5.1640015,156,1970-01-19 01:13:48.234579333,1.1859741,0.26296997,1.5545502,9.819452099380081,1.9728948515601765,10.897063255310059,-50.731529235839844,-104.37959289550781,19990548.0,50354.0,0.055922167979300004,-0.09386885174210005,0.2572724711155,0.0019255344925402003,-0.0056535163250896235,0.012625802407573081,19.99054868402891
1630,C,1559628284933337.0,2.8585205,8.888809,4.2061005,156,1970-01-19 01:13:48.284933337,1.3952332,0.29005432,1.4950714,10.240768833613105,2.065440796060459,11.320403099060059,-51.01206970214844,-104.60578918457031,20040902.0,50354.0,0.11422388724190001,-0.06368841897900004,0.235911058054,0.004283767232304153,-0.003966819404945137,0.012416881713900502,20.04090268793516
1630,C,1559628335287341.0,1.2984619,7.917755,4.639969,156,1970-01-19 01:13:48.335287341,1.2620392,0.09907532,1.3684387,9.268557593646252,1.86418436240288,11.388477325439453,-51.21337127685547,-104.5669174194336,20091256.0,50354.0,0.10466034588480001,-0.07033033817200005,0.22271749180149997,0.0055108483374309266,-0.0033741902487907293,0.011546890999711923,20.09125669207424
1630,C,1559628385641345.0,1.4511108,8.264984,5.976303,156,1970-01-19 01:13:48.385641345,1.2716827,0.0995636,1.203659,10.302032839296409,1.7538200558225037,11.431222915649414,-51.27423858642578,-104.51311492919922,20141610.0,50354.0,0.0692259918679,-0.08603638019700005,0.26728588014399995,0.004377936325599728,-0.003936844868376315,0.012336814895471853,20.14161069598049
1630,C,1559628435995349.0,3.628662,6.372452,8.15567,156,1970-01-19 01:13:48.435995349,1.3847504,0.3222351,1.0250244,10.967692808947925,1.75272477889928,11.836065292358398,-50.9010009765625,-104.74069213867188,20191964.0,50354.0,0.1278934397856,-0.12494247382800004,0.35580068422100003,0.004962875930740169,-0.005311814607787428,0.015687450431017606,20.19196470011957
1630,C,1559628486349352.0,-2.390335,6.7938538,7.6140594,156,1970-01-19 01:13:48.486349352,0.27807617,0.017578125,0.94844055,10.480651287717182,0.9885215342544071,10.950061798095703,-50.75347900390625,-104.01363372802734,20242318.0,50354.0,0.031177358879,-0.16198111887340005,0.3970344771038,0.004004925497978634,-0.007223875293443151,0.018954130856674495,20.242318703094497
1630,C,1559628536703356.0,-2.929367,6.5385437,7.788803,156,1970-01-19 01:13:48.536703356,0.5545502,0.26724243,1.2300568,10.582967301768804,1.3754941555450482,9.973045349121094,-50.56428909301758,-103.19673919677734,20292672.0,50354.0,-0.133934137254,-0.15779942814250006,0.38779786664480004,-0.002587107409147375,-0.008051114832219318,0.019759723918558503,20.292672707000747
1630,C,1559628587057360.0,1.7194519,7.464096,4.767807,156,1970-01-19 01:13:48.587057360,0.88645935,0.6464081,1.2981873,9.022262882607588,1.6996893471541563,10.15003776550293,-50.6840934753418,-103.25516510009766,20343026.0,50354.0,-0.030462032472700004,-0.14092474027310006,0.31613776997,-0.004139002365209126,-0.007520978388199565,0.01772298752305082,20.343026710906997
1630,C,1559628637411364.0,-0.99412537,6.8176117,5.235016,156,1970-01-19 01:13:48.637411364,0.14448547,0.19697571,1.5167542,8.652947882861108,1.5363003562418271,9.566229820251465,-50.76366424560547,-102.7492446899414,20393380.0,50354.0,0.018261546045809998,-0.13389864523710007,0.251841074671,-0.0003071716467698097,-0.006919228376990309,0.014300003371526456,20.393380715046078
1630,C,1559628687765368.0,-0.6143036,6.310608,4.3487244,156,1970-01-19 01:13:48.687765368,0.3419342,0.2620697,1.2738495,7.688468387773492,1.3447275089913124,9.111031532287598,-50.89988708496094,-102.34199523925781,20443734.0,50354.0,-0.04049541617769,-0.16294001261310004,0.2412898320508,-0.0005597821483103428,-0.007473506888694489,0.012415556838534758,20.443734718952328
1630,C,1559628738119372.0,-1.6816864,7.2602234,4.984787,156,1970-01-19 01:13:48.738119372,0.23937988,0.33125305,0.95822144,8.965880570318875,1.0417387571549743,8.438828468322754,-51.0433464050293,-101.77900695800781,20494088.0,50354.0,-0.05780614023,-0.15179637784220004,0.2349898165178,-0.0024749382856764112,-0.007924118102493091,0.011991292712011643,20.49408872309141
1630,C,1559628788473376.0,-1.888031,7.7626038,6.4080505,156,1970-01-19 01:13:48.788473376,0.220932,0.3026123,0.40248108,10.241376373480554,0.5498874180168668,7.79772424697876,-51.05286407470703,-101.2579345703125,20544442.0,50354.0,-0.08987477497980001,-0.11523947958560005,0.28683746973749996,-0.0037181624022371348,-0.006723161782459724,0.013138045586049687,20.54444272699766
1630,C,1559628838827380.0,-0.85598755,8.650452,6.798004,156,1970-01-19 01:13:48.838827380,0.470047,0.07835388,0.12631226,11.035211501102959,0.4929891476963382,7.4469828605651855,-51.08689498901367,-100.9625473022461,20594796.0,50354.0,-0.06908615503335,-0.08023769412340005,0.33248883414650005,-0.004002159334941078,-0.004921528802471495,0.015592778352887469,20.59479673113674
1630,C,1559628889181384.0,-1.1883392,8.477524,8.3520355,156,1970-01-19 01:13:48.889181384,0.35845947,0.123794556,-0.14726257,11.959810208280603,0.406822502144268,7.04301643371582,-50.959449768066406,-100.6386489868164,20645150.0,50354.0,-0.05147001458475,-0.06223814824800003,0.3814325444915,-0.003035242682474904,-0.0035871142833847403,0.01797439854996893,20.64515073504299
1630,C,1559628939535388.0,-0.52742004,6.843384,11.903397,156,1970-01-19 01:13:48.939535388,0.19407654,0.575531,-0.55929565,13.740485312013496,0.8256592877502766,6.757620334625244,-50.42518997192383,-100.42554473876953,20695504.0,50354.0,-0.04319767038548,-0.10773469928400002,0.5099710240524999,-0.002383448304495481,-0.004279406382313165,0.022442867645232286,20.69550473894924
1630,C,1559628989889391.0,3.303955,4.275299,12.76004,156,1970-01-19 01:13:48.989889391,1.2107697,-0.026824951,-0.5553894,13.856872698521336,1.3323438858142451,7.13470458984375,-49.663665771484375,-100.68560028076172,20745858.0,50354.0,0.06990482068792,-0.21353411810900003,0.6209513533490001,0.000672405923164532,-0.008088585015503563,0.02847323269583757,20.745858741924167
1630,C,1559629040243395.0,1.1990051,4.1436005,5.110428,156,1970-01-19 01:13:49.040243395,2.1478577,-0.36843872,-0.31092834,6.687564031589549,2.2012987581106938,7.445189476013184,-49.40196228027344,-100.8514175415039,20796212.0,50354.0,0.11337102643770001,-0.28150656728850004,0.449924772836,0.0046143360030817355,-0.01246363933625286,0.02696144822895975,20.796212746063247
1630,C,1559629090597399.0,0.7211914,5.466217,6.2394104,156,1970-01-19 01:13:49.090597399,0.26490784,-0.3271637,-0.05809021,8.32645707766221,0.4249549656010619,7.4396233558654785,-49.20939636230469,-100.84039306640625,20846566.0,50354.0,0.0483447872805,-0.25152282480250004,0.2857548813968,0.004071519041983122,-0.01342008100467511,0.018522206654619205,20.846566749969497
1630,C,1559629140951403.0,1.5514526,6.059662,7.7106323,156,1970-01-19 01:13:49.140951403,0.2778015,-0.24552917,-0.23660278,9.928764232778118,0.4398171463538766,7.587384223937988,-48.93402099609375,-100.9502182006836,20896920.0,50354.0,0.057218357988000006,-0.20328214441700004,0.35122022505790007,0.0026577633084250247,-0.011450624710039355,0.016037122255209982,20.896920754108578
1630,C,1559629191305407.0,2.5188293,4.34494,5.1538544,156,1970-01-19 01:13:49.191305407,0.336792,-0.064071655,-0.25543213,7.196194815493661,0.4275273105601277,8.166703224182129,-48.685611724853516,-101.3820571899414,20947274.0,50354.0,0.10247748739630001,-0.23151253544600003,0.3238891816459,0.004020662299240522,-0.010946825654910754,0.01699722953258158,20.947274758014828
1630,C,1559629241659411.0,1.6558838,3.4461975,2.3285522,156,1970-01-19 01:13:49.241659411,0.2696991,0.03895569,-0.19520569,4.476648714857301,0.33520204613421173,8.826433181762695,-48.797943115234375,-101.87408447265625,20997628.0,50354.0,0.1051067517187,-0.29731173116250004,0.1883845509682,0.005226348388198356,-0.013314208560402208,0.012897515766025196,20.997628761921078
1630,C,1559629292013415.0,1.120224,4.759918,4.2251587,156,1970-01-19 01:13:49.292013415,0.10256958,-0.15466309,-0.6051941,6.462483053524062,0.6330095487625241,9.021283149719238,-48.77077865600586,-102.03727722167969,21047982.0,50354.0,0.0698940660806,-0.28686383005650007,0.1650027793293,0.004405995589732976,-0.014707788104810765,0.00889723281490016,21.04798276606016
1630,C,1559629342367419.0,2.0376892,6.5034485,5.475189,156,1970-01-19 01:13:49.342367419,0.068618774,-0.24559021,-0.88279724,8.742122983215799,0.9188874002535483,9.36355209350586,-48.772010803222656,-102.32211303710938,21098336.0,50354.0,0.07950678063640002,-0.20989142162950006,0.2442256540429,0.00376146511779391,-0.012506806971698425,0.01030314426701188,21.09833676996641
1630,C,1559629392721423.0,2.552826,8.923782,6.009857,156,1970-01-19 01:13:49.392721423,-0.5027466,-0.92259216,-0.5449829,11.057539822684292,1.183611760163541,9.6818265914917,-48.95625305175781,-102.60338592529297,21148690.0,50354.0,0.11557540119040002,-0.10505781770150005,0.28915900314200005,0.0049115840918533445,-0.00792947699863659,0.013429025513944228,21.14869077410549
1630,C,1559629443075427.0,3.4255676,11.075912,11.577484,156,1970-01-19 01:13:49.443075427,-0.3012085,-1.028183,0.5332031,16.38439732746279,1.196742406623439,9.836555480957031,-48.85664367675781,-102.71977996826172,21199044.0,50354.0,0.15051801566720002,0.010063095837999962,0.4427964843570001,0.006699433956223796,-0.0023916821123573418,0.018428443308762327,21.19904477801174
1630,C,1559629493429431.0,5.309189,9.436768,10.339355,156,1970-01-19 01:13:49.493429431,0.4668579,-0.36993408,1.3013763,14.971384035538263,1.4312189897215402,10.29249382019043,-48.67992401123047,-103.00498962402344,21249398.0,50354.0,0.21991496691820003,0.02297854436,0.551800255503,0.009326391202552617,0.0008318893752650451,0.025040962119455227,21.24939878191799
1630,C,1559629543783434.0,3.9094849,5.6501007,8.756439,156,1970-01-19 01:13:49.543783434,0.03404236,0.31817627,0.5027313,11.130271068765104,0.5959310203917668,10.704216003417969,-48.247947692871094,-103.29370880126953,21299752.0,50354.0,0.23209855278029998,-0.11362710674010001,0.48077480553799995,0.011380344385449135,-0.0022822588550437785,0.02599714231182926,21.299752785125747
1630,C,1559629594137438.0,-0.8768463,3.2227478,6.9812317,156,1970-01-19 01:13:49.594137438,-0.62857056,0.6856842,0.0047454834,7.739028289476233,0.9302076599561268,10.072296142578125,-47.685123443603516,-102.84339141845703,21350106.0,50354.0,0.0763527420322,-0.2700774933155001,0.3962273352139,0.007765878249494313,-0.009660530715599844,0.022080282897710586,21.350106789031997
1630,C,1559629644491442.0,-1.7897644,3.0883179,3.6466522,156,1970-01-19 01:13:49.644491442,-0.33953857,0.12113953,0.013458252,5.102845904662673,0.3607524785682855,9.054780006408691,-47.578147888183594,-102.10301208496094,21400460.0,50354.0,-0.06713725759389999,-0.33457549887110005,0.26757823295030003,0.0002320182517030792,-0.015223348384282034,0.016712632789670067,21.400460792938247
1630,C,1559629694845446.0,2.502716,5.1924896,5.652008,156,1970-01-19 01:13:49.694845446,0.057266235,-0.02015686,0.083618164,8.072839033130053,0.10333304421561247,9.468155860900879,-47.417911529541016,-102.4029769897461,21450814.0,50354.0,0.0179499824332,-0.28498330957250007,0.23411236785540002,-0.0012383880267209438,-0.015598632120184521,0.01263106425648511,21.450814797077328
1630,C,1559629745199450.0,-0.16748047,4.9009857,4.8594666,156,1970-01-19 01:13:49.745199450,-0.6737671,0.08729553,0.28648376,6.9037762258021855,0.7373300206448455,9.122815132141113,-47.37547302246094,-102.16354370117188,21501168.0,50354.0,0.05879422493881,-0.23934577237190005,0.2646473960042,0.0019321889090050959,-0.013201033296114162,0.012557274574693151,21.501168800983578
1630,C,1559629795553454.0,0.3457489,4.152237,3.7095032,156,1970-01-19 01:13:49.795553454,-0.52482605,0.058380127,0.19822693,5.578622446162713,0.5640430282916044,8.991827011108398,-47.39374923706055,-102.07951354980469,21551522.0,50354.0,0.004488264262110001,-0.2655362120821001,0.2157409526546,0.001593263230611563,-0.012711413722598363,0.012094737454182608,21.55152280512266
1630,C,1559629845907458.0,1.2829742,4.4364777,3.3988342,156,1970-01-19 01:13:49.845907458,-0.35308838,0.31126404,0.10319519,5.734146065418335,0.4818775300086964,9.237958908081055,-47.47504806518555,-102.26868438720703,21601876.0,50354.0,0.0410063614887,-0.2772311299981,0.1789666107198,0.0011454181925281434,-0.0136652533715532,0.009937552323077269,21.60187680902891
1630,C,1559629896261462.0,-0.8295288,6.8210907,6.4332275,156,1970-01-19 01:13:49.896261462,-0.45135498,0.6256256,0.073013306,9.412853575532353,0.7748933166566931,8.789360046386719,-47.44830322265625,-101.9489517211914,21652230.0,50354.0,0.0114163948358,-0.21003740039320004,0.24754181742090003,0.0013198477359819367,-0.012267959789661761,0.010738202695298404,21.65223081293516
1630,C,1559629946615466.0,-0.84594727,10.957077,7.612198,156,1970-01-19 01:13:49.946615466,-0.42384338,0.29325867,-0.04512024,13.368572158564783,0.5173777095678271,8.450179100036621,-47.643348693847656,-101.71430206298828,21702584.0,50354.0,-0.04218346101439,-0.045868271817100036,0.3536216778135,-0.0007746224251783605,-0.006442937109238726,0.015135493319516491,21.70258481707424
1630,C,1559629996969470.0,1.249588,11.800415,8.226593,156,1970-01-19 01:13:49.996969470,-0.06362915,-0.42799377,-0.23054504,14.43911689576679,0.49028394972417466,8.467041015625,-47.841548919677734,-101.73893737792969,21752938.0,50354.0,0.010162462659209998,0.07949617608399995,0.398773241007,-0.000806192675588367,0.0008466497457277391,0.01894304687114373,21.75293882098049
1630,C,1559630047323474.0,1.3947144,9.359604,9.216492,156,1970-01-19 01:13:50.047323474,0.13909912,-0.49510193,-0.22666931,13.209509456465344,0.5620084184159303,8.494009017944336,-47.79627227783203,-101.76374053955078,21803292.0,50354.0,0.06657560152480001,0.039276598362999925,0.439164551045,0.00193203424196082,0.0029903421422521163,0.021096759790493205,21.80329282511957
1630,C,1559630097677477.0,2.6951752,6.078903,8.459473,156,1970-01-19 01:13:50.097677477,0.18972778,-0.40318298,-0.20040894,10.760098256049199,0.48858662394434466,8.79655647277832,-47.49365234375,-101.98894500732422,21853646.0,50354.0,0.10297115045920001,-0.10477390926100005,0.445027770805,0.004268678574701168,-0.0016490257964789491,0.02226131008721745,21.853646828094497
1630,C,1559630148031481.0,2.8278503,4.063324,6.3923492,156,1970-01-19 01:13:50.148031481,0.33766174,-0.50720215,-0.18141174,8.085138684211095,0.6357512807964115,9.300336837768555,-47.12108612060547,-102.35545349121094,21904000.0,50354.0,0.13905321301350002,-0.23811835082100005,0.3739243275294,0.006093447399152169,-0.008632998432084519,0.02061875697976519,21.904000832000747
1630,C,1559630198385485.0,0.79193115,5.195236,5.811798,156,1970-01-19 01:13:50.198385485,0.34887695,-0.47042847,-0.101745605,7.835472419378446,0.594449526675444,9.284948348999023,-47.0042610168457,-102.33740997314453,21954354.0,50354.0,0.09113523756665001,-0.26036643488000005,0.3072638140544,0.005795454620256438,-0.01255035144959408,0.017150273840655334,21.954354835906997
1630,C,1559630248739489.0,1.2986145,6.9681396,6.82106,156,1970-01-19 01:13:50.248739489,0.30291748,-0.354599,-0.2097168,9.837084356062949,0.5113517250315974,9.352885246276855,-46.97273635864258,-102.38502502441406,22004708.0,50354.0,0.05263366783005001,-0.18723189251880004,0.318057465866,0.0036196697311727164,-0.01126918308891959,0.015743713864555912,22.004708840046078
1630,C,1559630299093493.0,2.3037567,6.226837,5.495346,156,1970-01-19 01:13:50.299093493,0.38397217,-0.08174133,-0.33787537,8.618562618968426,0.5179537025809495,9.726814270019531,-46.97529220581055,-102.65615844726562,22055062.0,50354.0,0.09069689970240001,-0.16125927414180005,0.310090153862,0.003608633698764494,-0.008773962103013929,0.015814872621891858,22.055062843952328
1630,C,1559630349447497.0,1.3795319,3.3483734,3.0409546,156,1970-01-19 01:13:50.349447497,0.5588684,0.21302795,-0.44839478,4.72886007069424,0.7475109863614119,10.15173625946045,-46.93693161010742,-102.96011352539062,22105416.0,50354.0,0.09273415708220001,-0.25239412775920006,0.21491844020620002,0.004618243716665875,-0.010414551699661479,0.013218141372855072,22.10541684809141
1630,C,1559630399801501.0,-0.39634705,2.7482758,2.8847046,156,1970-01-19 01:13:50.399801501,0.33374023,0.3957672,-0.47268677,4.003951983499615,0.7010328096810632,9.719406127929688,-46.85989761352539,-102.6457748413086,22155770.0,50354.0,0.024753644968450002,-0.33997386309160005,0.14919032167840002,0.0029579903922292154,-0.014914048905650597,0.009167166297968576,22.15577085199766
1630,C,1559630450155505.0,1.0344849,7.464752,4.312256,156,1970-01-19 01:13:50.450155505,-0.060638428,0.4233551,-0.6803131,8.682639762155747,0.8035748090115389,9.819311141967773,-47.14262390136719,-102.7415542602539,22206124.0,50354.0,0.016066396649450004,-0.23633579907940008,0.1811978770262,0.0010277261878138687,-0.01450974836447927,0.008318183678785715,22.20612485613674
1630,C,1559630500509509.0,4.025757,7.86084,6.4092407,156,1970-01-19 01:13:50.500509509,0.11755371,0.61712646,-1.0317535,10.912281671547223,1.2079649113815953,10.428741455078125,-47.12979507446289,-103.21492004394531,22256478.0,50354.0,0.1274017103163,-0.10761677021600005,0.2699351224159,0.003612096529076688,-0.00865969383715029,0.011358175526953753,22.25647886004299
1630,C,1559630550863513.0,3.7536316,9.285767,7.2309723,156,1970-01-19 01:13:50.550863513,0.14697266,0.18063354,-0.46749878,12.35322546423301,0.5222878017548329,10.865659713745117,-47.18627166748047,-103.54442596435547,22306832.0,50354.0,0.1958616667822,-0.06176907556100005,0.343419642701,0.008138802045208934,-0.004264627439127532,0.015442432921348193,22.30683286394924
1630,C,1559630601217516.0,4.0432434,8.884964,8.710602,156,1970-01-19 01:13:50.601217516,0.041671753,0.43852234,0.23158264,13.083003847562821,0.4976634373012932,11.225457191467285,-47.079227447509766,-103.79607391357422,22357186.0,50354.0,0.196301921875,-0.03598470561300004,0.4013610161511,0.009873502671622325,-0.0024611469486178006,0.018751342647919323,22.357186866924167
1630,C,1559630651551014.0,3.7041473,6.209152,8.304077,156,1970-01-19 01:13:50.651551014,-0.26332092,0.2710266,0.7584381,11.010539069506555,0.8473615971642899,11.55294132232666,-46.77830505371094,-104.01781463623047,22407520.0,50334.0,0.19497858174689997,-0.11339958262800004,0.428208426393,0.009847356434652356,-0.003759554382161249,0.020877774160507363,22.40752036496997
1630,C,1559630701905018.0,2.001114,4.695801,6.6333313,156,1970-01-19 01:13:50.701905018,-0.5307617,-0.23988342,1.0570068,8.36995151767062,1.2068618034489393,11.631454467773438,-46.490509033203125,-104.06040954589844,22457874.0,50354.0,0.1436413637501,-0.21891519831900008,0.3760791287691,0.00852543436777797,-0.008366689239902622,0.020249547776316195,22.45787436910905
1630,C,1559630752259022.0,0.98902893,5.819458,6.2132263,156,1970-01-19 01:13:50.752259022,-0.59658813,-0.117492676,0.7063904,8.570207155789914,0.9320457730083314,11.49769115447998,-46.41109848022461,-103.96210479736328,22508228.0,50354.0,0.07528282854861,-0.22872652415700004,0.3234377806952,0.005511854389504622,-0.011270275646778256,0.01761173722958268,22.5082283730153
1630,C,1559630802613026.0,1.7525787,6.7708893,8.394745,156,1970-01-19 01:13:50.802613026,-0.18363953,0.4325714,0.13304138,10.92649155161771,0.48840710669367343,11.48557186126709,-46.18894958496094,-103.95252227783203,22558582.0,50354.0,0.06902545530051,-0.17648202602790003,0.3677848934201,0.0036332496624692946,-0.01020193566800523,0.01740291326620091,22.55858237692155
1630,C,1559630852967030.0,2.7469635,13.049088,5.873169,156,1970-01-19 01:13:50.852967030,0.36480713,0.2507019,-0.13119507,14.571157133345217,0.461679359680235,11.72591781616211,-46.61606979370117,-104.11614227294922,22608936.0,50354.0,0.11328497396940002,0.005538368482099956,0.35922327077800004,0.004590029677728525,-0.004303848466030609,0.018303884550015567,22.60893638106063
1630,C,1559630903321034.0,1.9191742,3.9778442,4.286087,156,1970-01-19 01:13:50.903321034,0.513916,-0.5472412,-0.11424255,6.15443058787637,0.7593641723599702,12.104198455810547,-46.50119400024414,-104.37979125976562,22659290.0,50354.0,0.11747934887290001,-0.06478212800060006,0.255779588312,0.005809953356200588,-0.0014915801333972771,0.015483926983308933,22.65929038496688
1630,C,1559630953675038.0,-1.4092712,-3.3109436,3.1744843,156,1970-01-19 01:13:50.953675038,-0.34362793,-2.1469421,0.46551514,4.798514708581906,2.2235433165552934,10.383389472961426,-44.00910568237305,-103.16954040527344,22709644.0,50354.0,0.012837827831000001,-0.47667864359380013,0.1878348036201,0.003280995557874091,-0.013632357846432215,0.011168879545674481,22.70964438910596
1630,C,1559631004029042.0,-2.8341675,-1.339035,0.7515106,156,1970-01-19 01:13:51.004029042,-0.35443115,-0.33235168,0.9265137,3.223397017308543,1.0461867498572304,6.671658515930176,-42.94647216796875,-100.59671783447266,22759998.0,50354.0,-0.10683705614990002,-0.6105417112122001,0.09884477359730001,-0.002366618571384946,-0.02737294687295067,0.007217731715602481,22.75999839301221
1630,C,1559631054383046.0,-2.6175385,2.150177,6.22052,156,1970-01-19 01:13:51.054383046,-0.4844513,-1.358017,1.1072693,7.083052872929246,1.8179517422316744,5.692452430725098,-42.524967193603516,-99.91422271728516,22810352.0,50354.0,-0.13725760196200001,-0.47304707786600003,0.1755348144162,-0.0061455712072833076,-0.027281514942621845,0.006908054887415891,22.81035239691846
1630,C,1559631104737050.0,0.2503357,14.354538,7.0815735,156,1970-01-19 01:13:51.104737050,0.37261963,-0.6040344,0.66218567,16.00825138458416,0.9706661664022527,5.627777576446533,-43.077178955078125,-99.83560943603516,22860706.0,50354.0,-0.05959906489560001,-0.07792999044500006,0.3349068080495,-0.004956260301473796,-0.013871949648866051,0.01285138872881893,22.86070640105754
1630,C,1559631155091053.0,2.2281494,14.459656,4.319412,156,1970-01-19 01:13:51.155091053,-0.090026855,-2.1229095,-0.090408325,15.254626229862218,2.1267400511206693,5.87116813659668,-43.88414001464844,-100.01705169677734,22911060.0,50354.0,0.0624008193627,0.231985762338,0.28704261193350006,7.053977221817638e-05,0.0038786621689500603,0.015658820546911992,22.91106040403247
1630,C,1559631205445057.0,-0.4118042,11.637924,6.752365,156,1970-01-19 01:13:51.205445057,-0.09184265,1.2335052,-0.35261536,13.461251458246318,1.2861989515211059,5.714085102081299,-44.22108840942383,-99.91910552978516,22961414.0,50354.0,0.045730123100400005,0.16358957166,0.278754129529,0.002722412738393469,0.009959400184067647,0.014245064559801363,22.96141440793872
1630,C,1559631255799061.0,1.7516174,8.732697,7.3928375,156,1970-01-19 01:13:51.255799061,0.30543518,0.46566772,-0.7374115,11.575068324256147,0.9240740202840251,5.937046527862549,-44.31855392456055,-100.08872985839844,23011768.0,50354.0,0.033732476936400003,0.019401924916999963,0.3561337633425,0.0020006298811265136,0.004607176909319128,0.01598457247882576,23.0117684120778
1630,C,1559631306153065.0,2.3180695,5.5390015,5.577301,156,1970-01-19 01:13:51.306153065,0.7206116,-0.39341736,-0.48503113,8.195136988997408,0.9535793067558705,6.420963764190674,-44.32057571411133,-100.42035675048828,23062122.0,50354.0,0.1024625070813,-0.13415064686550005,0.32654917701450004,0.003428981112613633,-0.002889028572497387,0.017187908389368192,23.06212241598405
1630,C,1559631356507069.0,0.8458252,5.92482,5.0224457,156,1970-01-19 01:13:51.356507069,0.15132141,-0.001953125,-0.14297485,7.8130578591741875,0.20819171826510346,6.507117748260498,-44.44557189941406,-100.48043823242188,23112476.0,50354.0,0.07965737686190001,-0.2048445660945,0.26686982266590004,0.0045852323180379465,-0.008534882476693921,0.014940510154953433,23.11247642012313
1630,C,1559631406861073.0,2.7614899,9.256638,6.0395813,156,1970-01-19 01:13:51.406861073,0.6295471,0.3323822,-0.49624634,11.392441169922964,0.8677948536138282,6.925403118133545,-44.700523376464844,-100.76819610595703,23162830.0,50354.0,0.09082137227270001,-0.11124563193400001,0.278508653779,0.004292143466961825,-0.007958202915763546,0.013730993901453251,23.16283042402938
1630,C,1559631457215077.0,2.0537262,10.251633,2.7677612,156,1970-01-19 01:13:51.457215077,0.5069885,-0.637146,-0.42425537,10.815464508354733,0.9181421368296343,7.297688007354736,-45.415016174316406,-101.03158569335938,23213184.0,50354.0,0.1212326957497,-0.002309461033000021,0.22174246212250004,0.005338885270599965,-0.00285897657563016,0.012594822345052067,23.21318442793563
1630,C,1559631507569081.0,1.571518,6.651596,1.9693604,156,1970-01-19 01:13:51.507569081,0.68673706,-0.36790466,-0.72514343,7.112789787181128,1.064328249413368,7.751522541046143,-46.05924987792969,-101.35904693603516,23263538.0,50354.0,0.09127277322340001,-0.06789660346700005,0.1192665105232,0.005350250192335739,-0.001767578085916502,0.008585582904300792,23.26353843207471
1630,C,1559631557923085.0,1.4934692,5.750351,2.549942,156,1970-01-19 01:13:51.557923085,0.21603394,0.29626465,-1.3534393,6.4652293909739695,1.402227280028468,8.196128845214844,-46.48332977294922,-101.71768188476562,23313892.0,50354.0,0.0771671827344,-0.18122538038100006,0.1137824765248,0.0042408127711495314,-0.006272144187341099,0.005867474346907497,23.31389243598096
1630,C,1559631608277089.0,3.631195,7.8237762,3.9876251,156,1970-01-19 01:13:51.608277089,0.34057617,1.190979,-1.4466248,9.502536771507987,1.9045068700290657,8.945551872253418,-46.73552703857422,-102.29340362548828,23364246.0,50354.0,0.1290236705634,-0.15171339948560003,0.16459632687670003,0.005191267113478711,-0.008382399660701392,0.0070087431332395665,23.36424644012004
1630,C,1559631658631093.0,4.469284,7.2354126,3.4588165,156,1970-01-19 01:13:51.658631093,0.28793335,0.5140381,-0.73547363,9.180909897475685,0.9423705442760875,9.88166332244873,-47.007076263427734,-102.98827362060547,23414600.0,50354.0,0.203945759783,-0.11432400358240004,0.1874790601632,0.008383171347831314,-0.006698023697043038,0.008864202019503564,23.41460044402629
1630,C,1559631708985096.0,1.9528961,8.032761,2.124176,156,1970-01-19 01:13:51.708985096,-0.50445557,-1.1595001,0.5547333,8.535290044251116,1.3808131438152393,10.226044654846191,-47.68966293334961,-103.24816131591797,23464954.0,50354.0,0.16169122837770003,-0.10906239327280003,0.1405630021725,0.009205642450921944,-0.005624199313623372,0.008259115003425918,23.46495444700122
1630,C,1559631759339100.0,5.844864,8.378479,6.3279114,156,1970-01-19 01:13:51.759339100,0.08293152,1.365097,1.0301666,12.016813563427993,1.7121946969238255,10.980429649353027,-47.6612434387207,-103.76056671142578,23515308.0,50354.0,0.1963242060377,-0.08028341052000001,0.21279820446980002,0.009013754592276529,-0.004767159302091327,0.00889657509963319,23.51530845090747
1630,C,1559631809693104.0,2.9763947,8.758209,7.467621,156,1970-01-19 01:13:51.809693104,-0.5448456,-1.0812225,1.3535461,11.888251078165792,1.816035756027623,11.160056114196777,-47.734413146972656,-103.875732421875,23565662.0,50354.0,0.22209283028990004,-0.06201880622400001,0.3473301192348,0.010534485723619988,-0.0035827429109636885,0.014102350805910715,23.56566245504655
1630,C,1559631860047108.0,0.7611542,7.586624,5.078354,156,1970-01-19 01:13:51.860047108,-0.776062,-1.1478424,0.6979675,9.16110794515978,1.551442243249168,11.04033088684082,-48.001678466796875,-103.80010223388672,23616016.0,50354.0,0.09410026865530001,-0.08195533955900003,0.315870012575,0.007960793652143302,-0.0036248370683785924,0.016697389718575335,23.6160164589528
1630,C,1559631910401112.0,0.9120331,7.7888794,4.4202576,156,1970-01-19 01:13:51.910401112,-0.64712524,-0.8230896,0.43122864,9.002062204495019,1.132345223785338,11.004632949829102,-48.341800689697266,-103.7886734008789,23666370.0,50354.0,0.0421258366521,-0.10636015089820006,0.23914654425320003,0.0034297646533244103,-0.004741219103240927,0.013973651851263594,23.66637046309188
1630,C,1559631960755116.0,1.5890045,8.444412,3.9649963,156,1970-01-19 01:13:51.960755116,-0.31604004,-0.27760315,0.54296875,9.463309409808915,0.6868477846289428,11.145771026611328,-48.73564910888672,-103.89028930664062,23716724.0,50354.0,0.0629686236552,-0.08476362242220005,0.2111155374403,0.0026459632271568926,-0.0048119232408877135,0.01133624843079725,23.71672446699813
1630,C,1559632011109120.0,1.4013214,6.0809937,2.1596527,156,1970-01-19 01:13:52.011109120,-0.35845947,0.24183655,0.22280884,6.603505571297335,0.4864379587683603,11.430304527282715,-49.20588684082031,-104.10965728759766,23767078.0,50354.0,0.0752874351843,-0.12776306069110005,0.154200287873,0.003480872793402092,-0.005350784300743557,0.009197556533912955,23.76707847113721
1630,C,1559632061463124.0,1.0180817,4.342575,2.231308,156,1970-01-19 01:13:52.061463124,-0.52923584,0.57699585,0.14031982,4.987302213558337,0.7954272041755679,11.63469123840332,-49.474266052246094,-104.27651977539062,23817432.0,50354.0,0.06091331184870001,-0.23103501084010003,0.1105512175439,0.0034291262080498415,-0.009033459046941025,0.006665648651881292,23.81743247504346
1630,C,1559632111817128.0,-0.012481689,5.2250824,3.9516602,156,1970-01-19 01:13:52.111817128,-0.32389832,1.1532745,0.34640503,6.5511266371223575,1.2469757972223732,11.312457084655762,-49.52032470703125,-104.02521514892578,23867786.0,50354.0,0.025317991476947004,-0.2525842896402001,0.1556685903714,0.002171045523829815,-0.012176083128192516,0.006702616103883508,23.86778647894971
1630,C,1559632162171132.0,0.057998657,8.788574,8.439056,156,1970-01-19 01:13:52.162171132,-0.26585388,0.9097748,0.49919128,12.184418860529453,1.0712424591352476,10.971343994140625,-49.40984344482422,-103.75440979003906,23918140.0,50354.0,0.0011459807033360001,-0.14064737281720002,0.3119610617674,0.0006662834275829852,-0.009900393565689962,0.01177351175189857,23.91814048308879
1630,C,1559632212525135.0,2.086029,12.843018,4.9120636,156,1970-01-19 01:13:52.212525135,0.15351868,0.05870056,0.45869446,13.90765965745531,0.48725183271892125,11.129612922668457,-49.86365509033203,-103.8541488647461,23968494.0,50354.0,0.053980184320289004,0.051149391784,0.33614113816920005,0.0013879114567998067,-0.002253290668472877,0.016317269087803784,23.96849448606372
1630,C,1559632262879139.0,2.2228851,13.002121,2.811203,156,1970-01-19 01:13:52.262879139,-0.1182251,-0.7110901,-0.13780212,13.487002297532689,0.7339044412350387,11.41384506225586,-50.52817916870117,-104.08583068847656,24018848.0,50354.0,0.1084855302957,0.15723386460299996,0.1944486831882,0.004090399296886755,0.005246465246055498,0.013358659932315262,24.01884848996997
1630,C,1559632313233143.0,-0.88697815,9.85173,11.563721,156,1970-01-19 01:13:52.313233143,-0.32998657,-0.4406891,-0.55259705,15.217192829077195,0.7800394342005265,10.96977710723877,-50.322166442871094,-103.77625274658203,24069202.0,50354.0,0.033634129280150006,0.08192220662699998,0.36191746154800003,0.003578146669141176,0.006021232405357709,0.014007630426023309,24.06920249410905
1630,C,1559632363587147.0,4.4415283,7.7368927,2.872406,156,1970-01-19 01:13:52.363587147,1.1444092,-1.0052643,-0.6954651,9.372160824476401,1.674485125409342,12.000418663024902,-50.684295654296875,-104.55543518066406,24119556.0,50354.0,0.08949290912655,-0.050640446282100036,0.363458369479,0.003099969445965486,0.0007875808802035459,0.01826278729776678,24.1195564980153
1630,C,1559632413941151.0,2.4169006,6.5600433,4.0206146,156,1970-01-19 01:13:52.413941151,0.65338135,-1.431839,-0.49900818,8.064794998627578,1.651084272275566,12.511531829833984,-50.876792907714844,-104.9510269165039,24169910.0,50354.0,0.1726746644153,-0.13351524232800002,0.17354557964620002,0.0066005929990631575,-0.004636487772136489,0.01352014842712516,24.16991050192155
1630,C,1559632464295155.0,2.7188263,6.4208527,2.381012,156,1970-01-19 01:13:52.464295155,0.6573639,-0.17095947,-0.16271973,7.36807871760427,0.6984498177658606,13.220579147338867,-51.22954559326172,-105.483154296875,24220264.0,50354.0,0.1293021961613,-0.16664918140800003,0.16117375290820002,0.007602871418737059,-0.007557239696401274,0.00842722863572213,24.22026450606063
1630,C,1559632514649159.0,2.0128937,9.163467,3.3387604,156,1970-01-19 01:13:52.514649159,0.32489014,0.3216095,0.07551575,9.958322625633137,0.4633453377962619,13.504733085632324,-51.623687744140625,-105.68806457519531,24270618.0,50354.0,0.11913051443999999,-0.10110278291310001,0.1440067097148,0.006254790354808931,-0.006741191205712337,0.007683528507459272,24.27061850996688
1630,C,1559632565003163.0,2.485962,7.85791,4.6412506,156,1970-01-19 01:13:52.565003163,0.17414856,-0.3690796,-0.129776,9.458750645066418,0.4282397485780992,13.853249549865723,-51.7736701965332,-105.96133422851562,24320972.0,50354.0,0.1132676899589,-0.06492199127100001,0.20091273694700001,0.005851089592151105,-0.004180005739633086,0.008684036908604139,24.32097251410596
1630,C,1559632615357167.0,1.410553,5.324005,1.4189606,156,1970-01-19 01:13:52.615357167,0.5227814,-0.30784607,-0.21951294,5.687542368210223,0.6451786774435812,14.321866035461426,-52.27537536621094,-106.31907653808594,24371326.0,50354.0,0.098102558155,-0.16158812604500003,0.15257793738240003,0.005321668736763661,-0.005702845223664934,0.008899834707591306,24.37132651801221
1630,C,1559632665711171.0,0.6693878,4.9422455,0.56240845,156,1970-01-19 01:13:52.665711171,-0.26412964,0.21107483,-0.43727112,5.01898135817324,0.5527414250552539,14.57443618774414,-52.96208572387695,-106.54159545898438,24421680.0,50354.0,0.052366669521600004,-0.23499581116150006,0.04988492857185,0.0037883637452137586,-0.009984793787048054,0.005097407576130153,24.42168052191846
1630,C,1559632716065175.0,1.4855652,7.90448,2.2060394,156,1970-01-19 01:13:52.716065175,-0.7306824,1.0066986,-1.4670868,8.339923133231109,1.9234558793083765,14.870031356811523,-53.368228912353516,-106.84248352050781,24472034.0,50354.0,0.054255251681000004,-0.17002719208650002,0.06970121151945,0.0026844201101178604,-0.0101972641527749,0.0030108202490786605,24.47203452605754
1630,C,1559632766419178.0,4.3365326,6.5831604,2.5400696,156,1970-01-19 01:13:52.766419178,-0.2150116,1.1196442,-2.0025482,8.28223818878901,2.3043507580339067,15.998781204223633,-53.466922760009766,-107.8066635131836,24522388.0,50354.0,0.1465829563106,-0.12871387764920003,0.119492786293,0.005056503562604514,-0.00752140391273572,0.004763337282924054,24.52238852903247
1630,C,1559632816773182.0,4.1614532,9.427948,2.986206,156,1970-01-19 01:13:52.816773182,-0.17871094,-0.008270264,-0.20581055,10.729460494401861,0.2726975977774938,16.721302032470703,-53.78056335449219,-108.40153503417969,24572742.0,50354.0,0.21395378848660002,-0.09035752381320003,0.1391350407812,0.009077233623759104,-0.005515560674618847,0.006511472802247134,24.57274253293872
1630,C,1559632867127186.0,3.518402,11.099213,4.785507,156,1970-01-19 01:13:52.867127186,0.24995422,-0.9139557,0.26470947,12.588596391179678,0.9838004051462773,17.120811462402344,-54.06007766723633,-108.71461486816406,24623096.0,50354.0,0.19335571437040003,0.023343132497,0.195668418201,0.010254831353430692,-0.0016872213301679683,0.00842934668679485,24.6230965370778
1630,C,1559632917481190.0,8.200058,12.023285,9.968872,156,1970-01-19 01:13:52.917481190,0.5811615,2.0008545,0.1324768,17.640259134915592,2.087754181361096,17.774057388305664,-53.75276565551758,-109.19795227050781,24673450.0,50354.0,0.29503566742000004,0.08868593214599997,0.37147100008300005,0.012296229819336904,0.0028205557605168103,0.01427886913413627,24.67345054098405
1630,C,1559632967835194.0,1.9985199,7.4585876,5.551132,156,1970-01-19 01:13:52.967835194,-1.4676208,-1.6238098,1.1814728,9.50997777384331,2.487277036501668,17.710845947265625,-53.796146392822266,-109.18754577636719,24723804.0,50354.0,0.2567695957883,-0.002974093549800059,0.39074714070800004,0.013892801111795371,0.002157966960336525,0.019190366130695007,24.72380454512313
1630,C,1559633018189198.0,2.1269073,7.672333,7.853943,156,1970-01-19 01:13:53.018189198,-1.4250488,-0.64974976,0.76426697,11.18359731807844,1.7427113457008532,17.525436401367188,-53.578922271728516,-109.0799560546875,24774158.0,50354.0,0.1038658806144,-0.11251801205380003,0.337499573275,0.009079719389390778,-0.00290774474278184,0.018335067517949992,24.77415854902938
1630,C,1559633068543202.0,1.9732208,6.1296997,3.9795685,156,1970-01-19 01:13:53.068543202,-0.33085632,-0.27786255,0.38545227,7.569926299768379,0.5790051412764811,17.707597732543945,-53.61817932128906,-109.23147583007812,24824512.0,50354.0,0.10322892517370001,-0.14597542271210004,0.29793231903550005,0.0052140259253269945,-0.006508089207101067,0.01599826875270146,24.82451255293563
1630,C,1559633118897206.0,1.6935577,7.3211975,4.4759064,156,1970-01-19 01:13:53.118897206,-0.3958435,-0.36218262,0.46513367,8.746531233511746,0.7100828526939538,17.73484992980957,-53.72361373901367,-109.2594985961914,24874866.0,50354.0,0.0923184822945,-0.15481596119560004,0.21288349155730002,0.004923297077826872,-0.007573024672644166,0.012860809663294927,24.87486655707471
1630,C,1559633169251210.0,1.327301,6.270355,3.1230469,156,1970-01-19 01:13:53.169251210,0.15687561,0.010696411,0.68748474,7.129691557860383,0.7052372919479093,17.804370880126953,-53.931663513183594,-109.28982543945312,24925220.0,50354.0,0.0760561594899,-0.15127468270750002,0.1913188472341,0.004239168356205839,-0.00770644414154835,0.010176602283751078,24.92522056098096
1630,C,1559633219605214.0,0.2429657,5.5519257,2.9905396,156,1970-01-19 01:13:53.219605214,-0.07070923,0.7862854,0.74272156,6.3108033093153155,1.083918742871986,17.470947265625,-54.11097717285156,-108.9949722290039,24975574.0,50354.0,0.039534604705900006,-0.19581963881610004,0.1539217673105,0.0029102286701576567,-0.00873879373299968,0.008692122952389395,24.97557456512004
1630,C,1559633269959218.0,0.171875,5.3880157,4.057968,156,1970-01-19 01:13:53.269959218,-0.054595947,1.279419,0.5293884,6.747396422924585,1.385693246373232,17.02560806274414,-54.052955627441406,-108.61045837402344,25025928.0,50354.0,0.010444444303900001,-0.21803429537220004,0.1774602758452,0.0012583225169197348,-0.010419600501058831,0.008343205700531058,25.02592856902629
1630,C,1559633320313221.0,1.7591705,7.379074,3.9505463,156,1970-01-19 01:13:53.320313221,0.03793335,1.0474701,0.657135,8.5529076935268,1.2371171964131904,17.11307716369629,-54.155948638916016,-108.65231323242188,25076282.0,50354.0,0.048617932553500005,-0.17203218262310002,0.2016303645311,0.00148701346213876,-0.00982070371648767,0.009544365052754106,25.07628257200122
1630,C,1559633370667225.0,0.7361908,8.2929535,4.077835,156,1970-01-19 01:13:53.370667225,0.41279602,0.69026184,1.0637512,9.27058751829634,1.3335773608566794,16.91712760925293,-54.37348175048828,-108.44082641601562,25126636.0,50354.0,0.0628257114501,-0.09889456363250006,0.2021305559901,0.0028058166250786378,-0.006821122690477244,0.010165488695962253,25.12663657590747
1630,C,1559633421021229.0,-0.6104431,10.242279,4.1792297,156,1970-01-19 01:13:53.421021229,0.43797302,0.38609314,0.69088745,11.078938612409615,0.904551683194765,16.481468200683594,-54.73402404785156,-108.04558563232422,25176990.0,50354.0,0.0031659498429000006,-0.026807651347500055,0.20788811795190004,0.0016614720563738613,-0.003164804666551463,0.010323040153837736,25.17699058004655
1630,C,1559633471375233.0,0.20773315,12.639328,6.2722626,156,1970-01-19 01:13:53.471375233,0.27264404,-0.13612366,0.15875244,14.111592520922354,0.3436084407654602,16.207530975341797,-54.9798698425293,-107.80718231201172,25227344.0,50354.0,-0.01013902841115,0.08262101943899999,0.2631372216371,-0.00017556119911283025,0.001405213168439694,0.011859004974832256,25.2273445839528
1630,C,1559633521729237.0,0.94921875,11.173676,7.242401,156,1970-01-19 01:13:53.521729237,0.11991882,-0.15002441,-0.5920868,13.349322972837557,0.6224585333339728,16.049345016479492,-55.03233337402344,-107.69019317626953,25277698.0,50354.0,0.0291285779863,0.106070801708,0.3402586854572,0.0004780998896535515,0.00475069398101802,0.015191698752913192,25.27769858809188
1630,C,1559633572083241.0,2.264862,8.109665,8.7986145,156,1970-01-19 01:13:53.572083241,-0.19528198,-0.2660675,-0.9177551,12.178336643847517,0.9752955397442257,16.05515480041504,-54.70375442504883,-107.73033905029297,25328052.0,50354.0,0.08092091104275,-0.007972523643000034,0.4038646472435,0.002770715985284392,0.002469820346842504,0.018734793147405525,25.32805259199813
1630,C,1559633622437245.0,2.0530853,5.2757416,5.765045,156,1970-01-19 01:13:53.622437245,1.2505035,-0.6703491,-0.565094,8.079873299196693,1.5272387332107118,16.283639907836914,-54.384613037109375,-107.88648223876953,25378406.0,50354.0,0.10871295917210001,-0.15646481803180007,0.3666692552315,0.004774411950399279,-0.004140038951346442,0.019399732062613074,25.37840659613721
1630,C,1559633672791249.0,1.0671234,5.483963,5.256729,156,1970-01-19 01:13:53.672791249,-0.18005371,-0.5463867,-0.38793945,7.671101766737133,0.6938694266848457,16.16762351989746,-54.190284729003906,-107.81488800048828,25428760.0,50354.0,0.07855749443990001,-0.22257211728580006,0.27749520399800004,0.004714908210589325,-0.00954301292049122,0.016218128590021124,25.42876060004346
1630,C,1559633723145253.0,2.654892,8.345184,5.182358,156,1970-01-19 01:13:53.723145253,0.3083496,-0.69207764,-0.4348297,10.175823404800418,0.8735718651663523,16.49212646484375,-54.25176239013672,-108.08351135253906,25479114.0,50354.0,0.0937091817258,-0.14529276598100005,0.26282489339900006,0.0043371581058238295,-0.009261734166008227,0.013603639092164273,25.47911460394971
1630,C,1559633773499257.0,1.7440033,8.981995,3.7144775,156,1970-01-19 01:13:53.773499257,-0.11802673,-0.80148315,-0.6078186,9.874974672800034,1.0127926733711967,16.697587966918945,-54.564945220947266,-108.27904510498047,25529468.0,50354.0,0.1107509869681,-0.05722281431700006,0.2239956273835,0.005147693667206321,-0.005098734765162749,0.012256680251741004,25.52946860808879
1630,C,1559633823853260.0,1.5389404,6.6174316,2.1703796,156,1970-01-19 01:13:53.823853260,-0.17086792,-0.5265045,-0.7144928,7.132270756465074,0.9038267510188092,17.04570960998535,-54.93733215332031,-108.59452056884766,25579822.0,50354.0,0.0826546735349,-0.10072243649180006,0.1481630472067,0.004869374314484032,-0.003976587579613161,0.009369838950157467,25.57982261106372
1630,C,1559633874207264.0,1.2020569,5.802719,0.9438629,156,1970-01-19 01:13:53.874207264,-0.5019531,0.18927002,-1.3238068,6.000613781755582,1.4283712748430117,17.475421905517578,-55.458580017089844,-109.00267791748047,25630176.0,50354.0,0.06901008902210001,-0.18076706834380005,0.0784072834225,0.0038184637268975897,-0.007087061263245904,0.005704361214251369,25.63017661496997
1630,C,1559633924561268.0,2.1882782,5.40979,3.7006836,156,1970-01-19 01:13:53.924561268,-0.03314209,1.004776,-1.5755157,6.910097570367888,1.8689363095761335,17.916051864624023,-55.30705642700195,-109.40071868896484,25680530.0,50354.0,0.08535846681270001,-0.21117186090700002,0.1169357472305,0.0038865371302527606,-0.009867846421747395,0.004918151482750582,25.68053061910905
1630,C,1559633974915272.0,4.3617706,6.2637787,4.109833,156,1970-01-19 01:13:53.974915272,0.46037292,0.8557739,-1.201294,8.668949974332937,1.5451211822464077,18.836071014404297,-55.1198844909668,-110.16242218017578,25730884.0,50354.0,0.1649105786376,-0.19956376084010005,0.19664537643820001,0.006301023757302205,-0.01034109074872674,0.00789503195060686,25.7308846230153
1630,C,1559634025269276.0,3.9809113,7.676544,3.8587646,156,1970-01-19 01:13:54.025269276,0.29933167,-0.35942078,-0.04559326,9.46926854622979,0.46995903131892774,19.530670166015625,-55.185569763183594,-110.72474670410156,25781238.0,50354.0,0.21004370219629998,-0.14249369538210005,0.20062538177520003,0.0094402239285551,-0.008611980575306332,0.010002085879538774,25.78123862692155
1630,C,1559634075623280.0,3.5134583,9.9543,6.183182,156,1970-01-19 01:13:54.075623280,0.10064697,-0.53338623,0.76730347,12.233732764817242,0.9398857898690854,19.751850128173828,-55.21567153930664,-110.88668823242188,25831592.0,50354.0,0.1886857434192,-0.04957744061200005,0.2528260895482,0.010038811252261443,-0.004835774990923458,0.011416547693509242,25.83159263106063
1630,C,1559634125977284.0,6.7452393,9.290054,10.668015,156,1970-01-19 01:13:54.125977284,0.46237183,0.49046326,1.3919373,15.671946291938518,1.5465546759551265,20.1047306060791,-54.77530288696289,-111.1146469116211,25881946.0,50354.0,0.2582832294752,-0.008954099342000048,0.424262586869,0.011253337830562309,-0.0014736485814218605,0.017047061606155843,25.88194663496688
1630,C,1559634176331288.0,2.4631653,7.745682,4.651886,156,1970-01-19 01:13:54.176331288,-0.76716614,-1.2893829,1.5996857,9.364978179218792,2.1931818182630005,20.18096160888672,-54.89503479003906,-111.17776489257812,25932300.0,50354.0,0.2318400026142,-0.06456047472800004,0.3857091474770001,0.012339832614314825,-0.0018508764313603923,0.020392658355629242,25.93230063910596
1630,C,1559634226685292.0,0.5673981,7.4108734,5.213135,156,1970-01-19 01:13:54.226685292,-0.7450714,-0.77186584,1.0731354,9.078533013815402,1.5174082683279493,19.742958068847656,-54.96458053588867,-110.82846069335938,25982654.0,50354.0,0.0763004947218,-0.11187260469420003,0.24837163371700002,0.007758053301428473,-0.004442055640612732,0.01596425182812134,25.98265464301221
1630,C,1559634277039296.0,-0.38302612,6.5311584,4.636307,156,1970-01-19 01:13:54.277039296,-0.24873352,-0.002105713,0.39897156,8.018608461119786,0.4701607211238114,19.1033878326416,-55.02016830444336,-110.30402374267578,26033008.0,50354.0,0.0046419333404600005,-0.14245066537140005,0.247979401234,0.00203788751132352,-0.006403096970441613,0.012496630006961329,26.03300864691846
1630,C,1559634327393300.0,0.8387146,7.801834,4.4880524,156,1970-01-19 01:13:54.327393300,0.03488159,0.36616516,0.46040344,9.039616711396281,0.5892919287437995,18.877885818481445,-55.132652282714844,-110.10179901123047,26083362.0,50354.0,0.01147286886096,-0.13260745034520005,0.2297239966138,0.00040572237502515136,-0.006925138179396841,0.012027138447614062,26.08336265105754
1630,C,1559634377747303.0,0.81474304,6.804352,3.3479004,156,1970-01-19 01:13:54.377747303,0.091918945,0.27198792,0.52534485,7.627021007539746,0.5986766510374043,18.737136840820312,-55.329978942871094,-109.96566772460938,26133716.0,50354.0,0.04162910300228,-0.12572925507800004,0.19728578364559998,0.0013369483456007938,-0.006504143232439909,0.010750825237590913,26.13371665403247
1630,C,1559634428101307.0,0.67022705,4.7429657,2.8446045,156,1970-01-19 01:13:54.428101307,0.0368042,0.26461792,0.41940308,5.571059386808621,0.4972686761060391,18.57769012451172,-55.40260696411133,-109.81925201416016,26184070.0,50354.0,0.037387091955930006,-0.20274238226710004,0.1559086958673,0.0019893907404628535,-0.008269930413437586,0.008892377410696282,26.18407065793872
1630,C,1559634478455311.0,0.7931366,5.7883606,3.387436,156,1970-01-19 01:13:54.478455311,-0.23651123,0.77856445,0.35632324,6.753436662617627,0.8882941044969357,18.400829315185547,-55.46363830566406,-109.6667251586914,26234424.0,50354.0,0.03684310661605,-0.22832199774490006,0.1569040836685,0.0018688937094467409,-0.010852907895562126,0.007875687350372838,26.2344246620778
1630,C,1559634528809315.0,0.2778778,7.780319,4.35376,156,1970-01-19 01:13:54.528809315,-0.11273193,1.1641388,0.54499817,8.919966701232346,1.2903296629196408,18.015291213989258,-55.56658935546875,-109.32850646972656,26284778.0,50354.0,0.0269649295488,-0.15185055371080003,0.194900091692,0.0016064949265224286,-0.009571604328000161,0.00885737372305131,26.28477866598405
1630,C,1559634579163319.0,-0.62049866,10.736603,3.93927,156,1970-01-19 01:13:54.579163319,0.028076172,0.6236572,0.73265076,11.453275108001677,0.962555822108303,17.547231674194336,-55.93995666503906,-108.91527557373047,26335132.0,50354.0,-0.00862616539222,-0.027268654806000013,0.20879361631,0.0004617150651702147,-0.004509684312827475,0.010163796486366354,26.33513267012313
1630,C,1559634629517323.0,-0.106414795,11.578049,3.702011,156,1970-01-19 01:13:54.629517323,-0.1665802,-0.51612854,0.09025574,12.155962660320938,0.5498033570627949,17.284894943237305,-56.388301849365234,-108.70621490478516,26385486.0,50354.0,-0.018301500056535,0.06834679340399999,0.19238453173700001,-0.0006779578330033048,0.0010342242954818454,0.01010046223337932,26.38548667402938
1630,C,1559634679871327.0,0.76446533,9.915741,5.5893097,156,1970-01-19 01:13:54.679871327,-0.17930603,-0.60217285,-0.56359863,11.408186084666006,0.8440415922271605,17.11824607849121,-56.51597213745117,-108.59465026855469,26435840.0,50354.0,0.016567738319695005,0.047679950829999984,0.2339275812639,-4.365091924842057e-05,0.0029212053395794176,0.01073326006902366,26.43584067793563
1630,C,1559634730225331.0,1.608902,8.694214,8.597702,156,1970-01-19 01:13:54.730225331,-0.009307861,0.03779602,-0.6242981,12.332818104723836,0.6255104260264938,16.954179763793945,-56.220149993896484,-108.47457885742188,26486194.0,50354.0,0.05975426926741001,-0.024926362965000008,0.3571863935709,0.0019215591850205431,0.0005728670816771044,0.014882476544415761,26.48619468207471
1630,C,1559634780579335.0,3.9057312,6.8999023,8.149033,156,1970-01-19 01:13:54.780579335,0.96713257,0.091156006,-0.4975891,11.369702141713638,1.0914438775418032,17.339746475219727,-55.75580596923828,-108.76648712158203,26536548.0,50354.0,0.13884192007640003,-0.10085613391490003,0.42163254709500003,0.005000056259109106,-0.0031668259239452435,0.01960832446914537,26.53654868598096
1630,C,1559634830933339.0,2.5547638,6.780304,5.97612,156,1970-01-19 01:13:54.830933339,1.217453,-0.7203827,-0.3801117,9.392196263952668,1.4647962131795602,17.619890213012695,-55.550960540771484,-108.96371459960938,26586902.0,50354.0,0.162655882615,-0.14904264598490005,0.355628977081,0.007590810178361379,-0.006291701581537267,0.019569113394179154,26.58690269012004
1630,C,1559634881287343.0,0.86447144,7.5774994,5.0610657,156,1970-01-19 01:13:54.881287343,0.5942993,-0.6562958,-0.28526306,9.153152137230787,0.9302101098562053,17.487865447998047,-55.592384338378906,-108.84362030029297,26637256.0,50354.0,0.08608608563748,-0.13198278379820005,0.2778832243689,0.00626257653469269,-0.007075377245649111,0.01594993669590413,26.63725669402629
1630,C,1559634931641346.0,1.5856934,7.5756073,4.6229553,156,1970-01-19 01:13:54.931641346,0.63175964,-0.43367004,-0.13209534,9.015318365338793,0.7775854455789709,17.57291030883789,-55.65074920654297,-108.89498901367188,26687610.0,50354.0,0.06168780017668001,-0.11195943261410006,0.24381459671700004,0.003720503123143107,-0.006141733182612481,0.013134786041479706,26.68761069700122
1630,C,1559634981995350.0,2.663971,6.229355,4.281967,156,1970-01-19 01:13:54.981995350,0.6940918,0.11022949,-0.44203186,8.014789242017223,0.8302446221132418,18.029741287231445,-55.545169830322266,-109.25421905517578,26737964.0,50354.0,0.10699380059880001,-0.14590166417290004,0.2241992287471,0.004246896662724261,-0.006492168833806301,0.011783184083709647,26.73796470090747
1630,C,1559635032349354.0,2.5648346,4.4887543,3.4841614,156,1970-01-19 01:13:55.032349354,0.8377533,0.51464844,-0.710907,6.2343141044043975,1.2132940167594677,18.65817642211914,-55.313568115234375,-109.75176239013672,26788318.0,50354.0,0.13164563859120001,-0.22361936215390005,0.1955278147268,0.006008225160486631,-0.009303430879829846,0.01056746777354238,26.78831870504655
1630,C,1559635082703358.0,1.2719116,5.816925,1.7329102,156,1970-01-19 01:13:55.082703358,0.47816467,0.7132721,-0.67611694,6.201399304600826,1.0929467767597754,18.97859764099121,-55.644046783447266,-110.00782775878906,26838672.0,50354.0,0.09659775907740001,-0.23400311226390003,0.13135021167320002,0.0057464840231023434,-0.011521561038416953,0.0082298080706728,26.8386727089528
1630,C,1559635133057362.0,1.1415405,7.6408844,2.9655151,156,1970-01-19 01:13:55.133057362,-0.22561646,0.9593506,-1.2915192,8.275295096589101,1.624585548597528,19.069774627685547,-55.870243072509766,-110.11817932128906,26889026.0,50354.0,0.060763483521699996,-0.15464193273620003,0.11829225377810001,0.003961884004917541,-0.00978491629796752,0.006285248352667382,26.88902671309188
1630,C,1559635183411366.0,3.2225342,6.0437317,4.812454,156,1970-01-19 01:13:55.183411366,-0.18605042,1.0835571,-1.3750153,8.370850197791771,1.7605049908979744,19.575681686401367,-55.582305908203125,-110.57047271728516,26939380.0,50354.0,0.1098743087219,-0.14893162045030003,0.1958259280307,0.004296147695317117,-0.007643071348576512,0.007908553463400159,26.93938071699813
1630,C,1559635233765370.0,4.582779,6.3289795,4.4895935,156,1970-01-19 01:13:55.233765370,0.16471863,0.48399353,-0.63957214,9.011897395637808,0.8188006389928608,20.40256118774414,-55.35859298706055,-111.25733947753906,26989734.0,50354.0,0.19651437043640002,-0.18196145011760004,0.23419764990750003,0.00771394777516852,-0.00833089483768802,0.010826703621750063,26.98973472113721
1630,C,1559635284119374.0,3.8495483,8.81044,4.032379,156,1970-01-19 01:13:55.284119374,0.20727539,-0.4553833,-0.21887207,10.426070952534031,0.5461153909611293,20.973350524902344,-55.48394775390625,-111.72911071777344,27040088.0,50354.0,0.21230070443210003,-0.11230403524850005,0.21455770163250001,0.010292737139964226,-0.007408722125062302,0.011298313485722581,27.04008872504346
1630,C,1559635334473378.0,5.3141174,9.458206,5.6307526,156,1970-01-19 01:13:55.334473378,0.010559082,-0.6729431,0.26893616,12.22304705553511,0.7247693206847531,21.58209228515625,-55.455387115478516,-112.22988891601562,27090442.0,50354.0,0.2307136113289,-0.03351949965800003,0.2432886642932,0.011153771427914698,-0.0036713991383409525,0.01152719795491135,27.09044272894971
1630,C,1559635384827382.0,5.5464783,8.369034,4.175232,156,1970-01-19 01:13:55.384827382,0.20939636,0.7994385,0.53125,10.87367067182701,0.9824333633196196,22.37579345703125,-55.408042907714844,-112.85250091552734,27140796.0,50354.0,0.2734372179389,-0.04463277852000005,0.2468852742742,0.012693005428475403,-0.0019676399076875082,0.012341109251311431,27.14079673308879
1630,C,1559635435181385.0,2.7486725,5.6831512,4.470688,156,1970-01-19 01:13:55.435181385,-1.0438843,0.106399536,1.0649261,7.735661527475313,1.4950193615832257,22.522489547729492,-55.2310676574707,-112.98699951171875,27191150.0,50354.0,0.20884701169160003,-0.13967733321960005,0.21767832784000002,0.0121424700494071,-0.004640375683267912,0.011696317810429215,27.19115073606372
1630,C,1559635485535389.0,2.4692078,7.3748474,8.041885,156,1970-01-19 01:13:55.485535389,-1.7534485,-0.9394226,1.0940094,11.187371258972888,2.2702319332683545,22.210384368896484,-54.952781677246094,-112.78450012207031,27241504.0,50354.0,0.1313705723131,-0.16470796924780004,0.315029050421,0.008565658112486333,-0.007663508760221732,0.013411973662477199,27.24150473996997
1630,C,1559635535889393.0,1.970459,7.576782,6.796768,156,1970-01-19 01:13:55.535889393,-1.1422272,-0.7318573,0.39411926,10.367564294087064,1.4126670078564436,21.968568801879883,-54.799068450927734,-112.63095092773438,27291858.0,50354.0,0.11177749102359999,-0.11703202659620004,0.37359276658100005,0.006121738790628096,-0.007093367875364391,0.017337431486659356,27.29185874410905
1630,C,1559635586243397.0,1.4470215,6.3558197,5.0526123,156,1970-01-19 01:13:55.586243397,-0.531723,-0.46871948,0.32414246,8.247375724100463,0.7794200626333159,21.768299102783203,-54.72122573852539,-112.4854965209961,27342212.0,50354.0,0.0860419065485,-0.14268808699910007,0.2983318478131,0.004980498972672762,-0.006538973299988871,0.016917046016600257,27.3422127480153
1630,C,1559635636597401.0,1.5108032,5.9855194,4.4380493,156,1970-01-19 01:13:55.636597401,-0.3073578,-0.15135193,0.60440063,7.602976416255484,0.6947491241304028,21.638185501098633,-54.670597076416016,-112.37725830078125,27392566.0,50354.0,0.0744691524719,-0.18275130547930005,0.2389463871032,0.004041186932956611,-0.008193587584428681,0.013527054120487686,27.39256675192155
1630,C,1559635686951405.0,1.1652527,4.6805725,3.8217316,156,1970-01-19 01:13:55.686951405,-0.30220032,0.16749573,0.54956055,6.153958498808072,0.6491507152369455,21.45201873779297,-54.546634674072266,-112.22128295898438,27442920.0,50354.0,0.0673750593943,-0.22492900423370002,0.20795650371930002,0.0035712117221553177,-0.010264167157644203,0.011251674082238084,27.44292075606063
1630,C,1559635737305409.0,0.7044983,5.210846,3.884613,156,1970-01-19 01:13:55.737305409,-0.37249756,0.6437378,0.63682556,6.537541743666949,0.9791320550488107,21.08669662475586,-54.49869918823242,-111.91492462158203,27493274.0,50354.0,0.047074720927,-0.24443295642550003,0.1940226379942,0.00288150211914937,-0.01181712608351668,0.01012062885092079,27.49327475996688
1630,C,1559635787659413.0,0.23699951,6.8516083,4.3011627,156,1970-01-19 01:13:55.787659413,-0.27742004,0.6847534,0.7326813,8.093250622354432,1.0405147691286518,20.602275848388672,-54.59263229370117,-111.50462341308594,27543628.0,50354.0,0.023704090362370003,-0.18977278808890005,0.20609327479890002,0.0017819981318324685,-0.010931998029639052,0.010073718336391878,27.54362876410596
1630,C,1559635838013417.0,0.003967285,8.113358,4.1151733,156,1970-01-19 01:13:55.838013417,-0.08065796,0.55659485,0.6538696,9.097320762980008,0.8624668036290116,20.146244049072266,-54.822811126708984,-111.11227416992188,27593982.0,50354.0,0.006066820997715,-0.11669624346490005,0.21189809147200003,0.0007495422353128601,-0.007715970807430026,0.01052376862860245,27.59398276801221
1630,C,1559635888367421.0,0.4968109,9.110825,5.899933,156,1970-01-19 01:13:55.888367421,-0.1742096,0.55326843,0.24201965,10.865687399123573,0.6285128887723365,19.74911117553711,-54.87702178955078,-110.78265380859375,27644336.0,50354.0,0.012608092363745002,-0.05981594460900004,0.2521503313151,0.0004701782937014785,-0.004444047359136583,0.011683347140510818,27.64433677191846
1630,C,1559635938721425.0,0.21650696,8.370819,6.4119873,156,1970-01-19 01:13:55.938721425,-0.083999634,0.31930542,-0.1680603,10.546614012556386,0.370480976825532,19.28561782836914,-54.83384704589844,-110.40851593017578,27694690.0,50354.0,0.01795920376122,-0.053333849012000056,0.3099772173931,0.000769592814538244,-0.0028487723539959197,0.014152685293826354,27.69469077605754
1630,C,1559635989075428.0,0.65760803,8.749832,6.5245056,156,1970-01-19 01:13:55.989075428,0.42630005,0.07536316,-0.23954773,10.934403581072717,0.494767069905972,18.972511291503906,-54.8033332824707,-110.1409912109375,27745044.0,50354.0,0.022007593103230003,-0.06242256977300007,0.32570208174330006,0.0010062440446562577,-0.0029143993557499484,0.016004497714357146,27.74504477903247
1630,C,1559636039429432.0,0.01461792,10.921616,9.674057,156,1970-01-19 01:13:56.039429432,-0.29367065,1.0289917,-0.035964966,14.59004073244109,1.0706819546997575,18.40548324584961,-54.636451721191406,-109.68143463134766,27795398.0,50354.0,0.01692463274315,0.0017988462959999598,0.4078312105802,0.0009801966501343093,-0.001526323485980432,0.018468167700828764,27.79539878293872
1630,C,1559636089783436.0,1.7998047,6.929825,9.18808,156,1970-01-19 01:13:56.089783436,0.6630249,-0.053619385,-0.57325745,11.648286808589797,0.8781236589730917,18.226627349853516,-54.1917610168457,-109.52518463134766,27845752.0,50354.0,0.04568171830374,-0.04402346994300001,0.47489202324899993,0.0015762401003075496,-0.0010630893495605202,0.02222432285811777,27.8457527870778
1630,C,1559636140137440.0,1.1234741,4.4069366,6.867035,156,1970-01-19 01:13:56.140137440,0.92341614,-0.5504303,-0.51856995,8.236470964012158,1.1935600847102723,18.00050926208496,-53.688480377197266,-109.32437896728516,27896106.0,50354.0,0.0735993903476,-0.20804355319680007,0.404219630355,0.0030031404725147873,-0.006346291441590746,0.02213339410278791,27.89610679098405
1630,C,1559636190491444.0,0.9364624,5.5594635,5.9781647,156,1970-01-19 01:13:56.190491444,0.62683105,-0.14648438,-0.17227173,8.217240985560304,0.6663725592979348,17.76596450805664,-53.42714309692383,-109.11663818359375,27946460.0,50354.0,0.051863021260500006,-0.24254514468230007,0.32340359284689996,0.003158767137057134,-0.011344471646502105,0.018319369890554237,27.94646079512313
1630,C,1559636240845448.0,1.8736725,7.5348663,6.426651,156,1970-01-19 01:13:56.240845448,0.2762909,-0.24290466,-0.42967224,10.079022862953181,0.5656479197337715,17.77020835876465,-53.30644607543945,-109.12335968017578,27996814.0,50354.0,0.0707507663773,-0.16379325862540006,0.3123160448789,0.003087047331356891,-0.010230381980077967,0.016005513319022467,27.99681479902938
1630,C,1559636291199452.0,3.4442139,7.381241,5.82547,156,1970-01-19 01:13:56.291199452,0.4150238,-0.29914856,-0.64212036,10.01406155413148,0.8210074130256335,18.196426391601562,-53.18415451049805,-109.4692153930664,28047168.0,50354.0,0.1338884258928,-0.11792636650790003,0.308471650417,0.0051522009437843085,-0.007092855001981096,0.015629571804464875,28.04716880293563
1630,C,1559636341553456.0,1.4299774,6.6129456,3.302002,156,1970-01-19 01:13:56.341553456,0.43701172,0.25971985,-0.90460205,7.5285524558891215,1.0376601142790367,18.374963760375977,-53.36570739746094,-109.61813354492188,28097522.0,50354.0,0.1227175143601,-0.14113756397180005,0.22980236254400005,0.006460567757747264,-0.00652245257768741,0.013552124824319098,28.09752280707471
1630,C,1559636391907460.0,1.0245361,5.912491,5.26503,156,1970-01-19 01:13:56.391907460,0.28599548,0.9156647,-1.3614655,7.982967176819921,1.6654799803950724,18.250545501708984,-53.167823791503906,-109.5368881225586,28147876.0,50354.0,0.0617972863895,-0.17811628272180005,0.21569216466400004,0.004645529138472679,-0.008037854098204771,0.011216215711515818,28.14787681098096
1630,C,1559636442261464.0,2.713974,4.468155,5.7986755,156,1970-01-19 01:13:56.442261464,0.66986084,0.79286194,-1.5029755,7.80734920001669,1.8265483717838735,18.591747283935547,-52.66408920288086,-109.81761932373047,28198230.0,50354.0,0.0941244687877,-0.23211567565800004,0.2785509133735,0.003925642030096365,-0.010328410016128227,0.01244355797575014,28.19823081512004
1630,C,1559636492615468.0,4.9704742,3.3236084,4.818466,156,1970-01-19 01:13:56.492615468,0.72262573,0.016677856,-1.0979614,7.679166697147041,1.3145285590008113,19.658565521240234,-52.104576110839844,-110.66535186767578,28248584.0,50354.0,0.19347135233140003,-0.29729597287820003,0.2673077715455,0.007240799988315582,-0.013328997075195909,0.013743084110205665,28.24858481902629
1630,C,1559636542969471.0,5.169052,7.316742,5.7321625,156,1970-01-19 01:13:56.542969471,0.51322937,-0.19833374,-0.3257904,10.635388991460268,0.6394372865145921,20.350435256958008,-51.953189849853516,-111.20199584960938,28298938.0,50354.0,0.25528285113739996,-0.22557709797920006,0.2656331737445,0.011298284580733979,-0.013164375304976763,0.013417854179566332,28.29893882200122
1630,C,1559636593323475.0,3.4471283,6.459015,6.3178864,156,1970-01-19 01:13:56.593323475,0.5475311,-0.74046326,-0.03201294,9.670432092217537,0.9214667510032476,20.64356803894043,-51.745826721191406,-111.41980743408203,28349292.0,50354.0,0.21692957141310001,-0.14663696601100004,0.3033840811553,0.011888892162553939,-0.009371233489081268,0.014326147426612267,28.34929282590747
1630,C,1559636643677479.0,9.0216675,8.445297,9.051666,156,1970-01-19 01:13:56.643677479,0.65112305,1.6726379,0.33685303,15.318165140587865,1.826238958783295,21.40473747253418,-51.304664611816406,-111.96215057373047,28399646.0,50354.0,0.3139268718566,-0.11822333677600004,0.3869592207748,0.01336537267220124,-0.006668387843268301,0.017380773312694126,28.39964683004655
1630,C,1559636694031483.0,2.6176453,2.3520355,6.109085,156,1970-01-19 01:13:56.694031483,-1.8197327,-0.9213562,0.5176544,7.050181376893601,2.1043503568957074,21.371963500976562,-50.60237503051758,-112.0031509399414,28450000.0,50354.0,0.2930429783656,-0.22162475964750006,0.38170222792700004,0.015281679919044331,-0.008556355523654463,0.01935258929396522,28.4500008339528
1630,C,1559636744385487.0,3.7198029,6.1456757,8.109055,156,1970-01-19 01:13:56.744385487,-1.6715393,0.0065460205,1.4656677,10.83342219326118,2.223121294183511,21.31153106689453,-50.23445129394531,-111.97776794433594,28500354.0,50354.0,0.1595579333314,-0.27952232511760006,0.35797011078,0.01139513315379537,-0.012617380153130926,0.01862273047162614,28.50035483809188
1630,C,1559636794739491.0,2.0891266,6.8967285,6.9809875,156,1970-01-19 01:13:56.794739491,-1.0931702,-0.9235382,0.4572754,10.033120174138057,1.5023463929708223,21.119956970214844,-50.11843490600586,-111.8697509765625,28550708.0,50354.0,0.1462514180215,-0.16510058945660006,0.3799220000225,0.007699362039011963,-0.011194271120234637,0.018577909673674543,28.55070884199813
1630,C,1559636845093495.0,0.7890625,5.532959,6.8052673,156,1970-01-19 01:13:56.845093495,-0.8366089,0.2715912,0.48731995,8.80612956690035,1.0055630090375502,20.61241340637207,-49.862693786621094,-111.49539184570312,28601062.0,50354.0,0.0724641669707,-0.18052695781250006,0.34709653709960003,0.00550660228334862,-0.008701864757594133,0.018304145709123115,28.60106284613721
1630,C,1559636895447499.0,1.5895233,6.1543274,6.6149445,156,1970-01-19 01:13:56.895447499,-0.5144806,0.010620117,0.7178345,9.173866186385863,0.8832267229039799,20.343900680541992,-49.6880989074707,-111.28828430175781,28651416.0,50354.0,0.059885654686599996,-0.19921839030720007,0.33788067248860004,0.003332171459865842,-0.009560848629609691,0.017245671205802116,28.65141685004346
1630,C,1559636945801503.0,1.0494843,4.239441,5.110092,156,1970-01-19 01:13:56.945801503,-0.6573181,0.36514282,0.514328,6.722151258108634,0.9110047503548828,20.01584243774414,-49.42608642578125,-111.04395294189453,28701770.0,50354.0,0.0664422943452,-0.23178529299320008,0.2952012439605,0.003180558772773629,-0.010851379734454176,0.01593910341043899,28.70177085394971
1630,C,1559636996155507.0,0.22683716,4.5779877,4.938492,156,1970-01-19 01:13:56.996155507,-0.79063416,0.51524353,0.9191284,6.737813422214373,1.317336436090768,19.43441390991211,-49.28733825683594,-110.59899139404297,28752124.0,50354.0,0.03213394539842,-0.2714727976201,0.252993199368,0.002481853988025121,-0.012670528947371057,0.013801891499681645,28.75212485808879
1630,C,1559637046509510.0,0.23983765,6.981125,5.748932,156,1970-01-19 01:13:57.046509510,-0.53260803,0.37117004,0.9829407,9.046758950287474,1.177968985979925,18.93671989440918,-49.3458366394043,-110.2074966430664,28802478.0,50354.0,0.01174947169137,-0.20244541955210005,0.269077274048,0.0011048527920696429,-0.011931838953744481,0.013144168309194633,28.80247886106372
1630,C,1559637096863514.0,0.20414734,8.325058,6.1709137,156,1970-01-19 01:13:57.096863514,-0.6173248,0.29441833,0.5415802,10.36476930436181,0.8723996645844546,18.485483169555664,-49.47045135498047,-109.86845397949219,28852832.0,50354.0,0.011178210093230001,-0.10810543060900005,0.3001059551889,0.0005772502442908743,-0.007818738754506017,0.014330326162497433,28.85283286496997
1630,C,1559637147217518.0,-0.9653473,7.3898315,7.7579956,156,1970-01-19 01:13:57.147217518,-1.096695,-0.049850464,0.005630493,10.75769495466519,1.097841834800186,17.740741729736328,-49.39645767211914,-109.34473419189453,28903186.0,50354.0,-0.019164731392920003,-0.09781542705850005,0.35068814944610005,-0.00020107664676229518,-0.0051844694334946505,0.0163850431723954,28.90318686910905
1630,C,1559637197571522.0,3.9269714,10.167053,9.370743,156,1970-01-19 01:13:57.197571522,0.14065552,-0.9853821,-0.3595276,14.373618036293992,1.058310896414017,17.920501708984375,-49.33134078979492,-109.49671936035156,28953540.0,50354.0,0.0745648099657,-0.051439518943500066,0.4312502517322,0.001394807778226882,-0.0037577917754923573,0.019686863126466062,28.9535408730153
1630,C,1559637247925526.0,1.6148682,4.986435,11.818237,156,1970-01-19 01:13:57.247925526,1.0079956,0.866745,-0.2761078,12.9283819212137,1.3577693257196526,17.61812400817871,-48.658695220947266,-109.23016357421875,29003894.0,50354.0,0.13952689560919998,-0.11194983262400006,0.5334749494600001,0.005390186871259257,-0.004113653704414951,0.02428888639041602,29.00389487692155
1630,C,1559637298279530.0,-0.9720459,5.1543274,6.7065887,156,1970-01-19 01:13:57.298279530,2.2582092,-0.09777832,0.055236816,8.51412333532145,2.2609998886927176,16.97943115234375,-48.464683532714844,-108.66583251953125,29054248.0,50354.0,0.0161843370471,-0.23815522505520006,0.46639953664890005,0.003920341704587665,-0.008814595037189222,0.02517383993676378,29.05424888106063
1630,C,1559637348633534.0,-1.9855804,5.6891937,7.511429,156,1970-01-19 01:13:57.348633534,0.38243103,-0.5500641,-0.89759827,9.629694704559684,1.1200476155604564,16.14064598083496,-48.300716400146484,-108.05821990966797,29104602.0,50354.0,-0.0744641573551,-0.22046186926530004,0.35796703163290006,-0.001467311035894516,-0.011546602583707233,0.020755077089630883,29.10460288496688
1630,C,1559637398987538.0,1.2436981,5.492111,7.1275635,156,1970-01-19 01:13:57.398987538,0.86621094,-0.2225647,-0.540329,9.08362425724429,1.0448980172738263,16.030677795410156,-48.03313064575195,-107.9632568359375,29154956.0,50354.0,-0.018678370667099996,-0.21195749156810004,0.3685659141725,-0.0023450494280149296,-0.010887022247702514,0.01829191997654256,29.15495688910596
1630,C,1559637449341542.0,5.0130615,6.7063904,7.008774,156,1970-01-19 01:13:57.449341542,1.1031189,0.006088257,-0.6236725,10.919220246110545,1.2672315343561957,16.68191909790039,-47.818702697753906,-108.42565155029297,29205310.0,50354.0,0.15752643644920003,-0.18634753025220002,0.35591056923750003,0.003495777752195933,-0.010028125534369695,0.018240144422813572,29.20531089301221
1630,C,1559637499695546.0,2.7589874,5.1894684,4.335327,156,1970-01-19 01:13:57.499695546,0.5327606,-0.13832092,-0.6447449,7.303263239462639,0.8477396533712555,17.152923583984375,-47.77986526489258,-108.77689361572266,29255664.0,50354.0,0.1956768751553,-0.19396716299240005,0.285610430877,0.008892599776266498,-0.009575183031819296,0.016151574219882767,29.25566489691846
1630,C,1559637550049550.0,-0.2130127,7.6591644,4.5997925,156,1970-01-19 01:13:57.550049550,0.55659485,0.6820526,-0.6225281,8.936792755773455,1.0782090759694487,16.828624725341797,-48.048316955566406,-108.5288314819336,29306018.0,50354.0,0.0641000050219,-0.16997917199440005,0.22495950365150003,0.006540402512221365,-0.009163076875962666,0.012854619241624045,29.30601890105754
1630,C,1559637600403553.0,1.5535431,3.7677002,5.6232758,156,1970-01-19 01:13:57.600403553,1.0626221,1.7213287,-1.2076111,6.944803214166928,2.3559420174731187,16.87452507019043,-47.573341369628906,-108.54531860351562,29356372.0,50354.0,0.0337505338808,-0.20577502996580005,0.25738619058910006,0.002463583017953278,-0.009460363542751959,0.012144017543895588,29.35637290403247
1630,C,1559637650757557.0,4.1067047,2.3903198,5.072525,156,1970-01-19 01:13:57.650757557,0.90444946,-0.1857605,-1.0619202,6.950479272316343,1.4071994528930793,17.71934700012207,-46.976261138916016,-109.16866302490234,29406726.0,50354.0,0.1425080588606,-0.33842873046000005,0.26928817674160005,0.0044376625894502275,-0.01370141807624037,0.013260080546285039,29.40672690793872
1630,C,1559637701111561.0,4.183563,4.3013,4.7573395,156,1970-01-19 01:13:57.701111561,0.18190002,-0.31404114,-0.744339,7.657392518555468,0.8281002365713344,18.463687896728516,-46.73250961303711,-109.7325439453125,29457080.0,50354.0,0.20872406988290004,-0.3249942882954,0.2474864985165,0.008842971305375102,-0.016703001343204706,0.013010835998973186,29.4570809120778
1630,C,1559637751465565.0,4.334366,7.1485596,5.851166,156,1970-01-19 01:13:57.751465565,0.05192566,-0.50497437,0.072784424,10.204154866340678,0.5128283932275438,18.933629989624023,-46.73683547973633,-110.07596588134766,29507434.0,50354.0,0.21445589843300003,-0.20519608485080004,0.2670903429735,0.010654402062289417,-0.01334860302470188,0.012955501138193732,29.50743491598405
1630,C,1559637801819569.0,3.1735687,6.001816,4.6700745,156,1970-01-19 01:13:57.801819569,-0.6769409,-1.5571136,0.5998993,8.240323381216658,1.8007584278681747,19.27423667907715,-46.84516143798828,-110.34674072265625,29557788.0,50354.0,0.1890272719419,-0.16238219351880007,0.26489327206850005,0.010158495780528859,-0.009254518314511422,0.013393751475912437,29.55778892012313
1630,C,1559637852173573.0,10.291733,10.43103,14.047623,156,1970-01-19 01:13:57.852173573,0.5000305,1.9119415,-0.21855164,20.299307056013465,1.988294651126736,19.79629898071289,-46.396202087402344,-110.69344329833984,29608142.0,50354.0,0.33901590090090006,-0.07973943625800005,0.4712554699575,0.01329454296266318,-0.0060958962728904975,0.018534016877988602,29.60814292402938
1630,C,1559637902527577.0,1.7239838,2.6491394,3.7787476,156,1970-01-19 01:13:57.902527577,-1.6100006,-2.507782,1.0939178,4.926356983390522,3.1745438482845376,19.8503360748291,-46.192378997802734,-110.78458404541016,29658496.0,50354.0,0.3025197018736,-0.16414977501620004,0.4488145325962,0.01615194187105359,-0.0061403986722505365,0.023164602454294508,29.65849692793563
1630,C,1559637952881581.0,2.9758453,7.9907074,8.163055,156,1970-01-19 01:13:57.952881581,-1.0758514,-1.0512543,1.6533508,11.804343562221995,2.2352093204018026,19.738868713378906,-46.18018341064453,-110.70149993896484,29708850.0,50354.0,0.11832759725070002,-0.22558977711640002,0.3006587640602,0.010595672450052503,-0.009812472704042471,0.01886948918991818,29.70885093207471
1630,C,1559638003235585.0,1.3789368,7.1450195,5.2997894,156,1970-01-19 01:13:58.003235585,-1.1084137,-1.5466003,0.3855896,9.002251831521201,1.9414511989581247,19.5781192779541,-46.42042541503906,-110.63078308105469,29759204.0,50354.0,0.1096403489317,-0.11239700383870005,0.33895403345880004,0.005739548981034286,-0.008509493184106555,0.016103531403135866,29.75920493598096
1630,C,1559638053589589.0,0.7934265,6.289505,5.8504333,156,1970-01-19 01:13:58.053589589,-0.86257935,-0.23728943,0.38871765,8.626411105070064,0.9754234055309878,19.227521896362305,-46.46253967285156,-110.39807891845703,29809558.0,50354.0,0.054693590804099995,-0.15522817666350003,0.2807291569179,0.004137435600728236,-0.0067379991695038916,0.015601763684114178,29.80955894012004
1630,C,1559638103943593.0,1.4258728,5.4183197,4.9798737,156,1970-01-19 01:13:58.103943593,-0.45802307,0.16564941,0.5178375,7.496028527236247,0.7109012140176881,19.094566345214844,-46.4599609375,-110.29956817626953,29859912.0,50354.0,0.05587529847610001,-0.19870129752810006,0.272674639339,0.002783792925407596,-0.008910882371721916,0.013933047378359974,29.85991294402629
1630,C,1559638154297596.0,1.6472015,4.2314606,4.358551,156,1970-01-19 01:13:58.154297596,-0.25561523,0.42196655,0.46246338,6.294084398111898,0.6762154190551113,19.09474754333496,-46.342594146728516,-110.2891616821289,29910266.0,50354.0,0.0773707916511,-0.25051668138690003,0.23511351867190003,0.003354736811132515,-0.011309961055142958,0.012784582454240431,29.91026694700122
1630,C,1559638204651600.0,0.45991516,4.6524353,4.2684326,156,1970-01-19 01:13:58.204651600,-0.5583954,0.83239746,0.7377167,6.330576042970076,1.2445548937730715,18.70071029663086,-46.356414794921875,-109.99077606201172,29960620.0,50354.0,0.05305087614882,-0.26979935292570006,0.21720156609719998,0.0032836263301985863,-0.013099996795888334,0.01138793688923163,29.96062095090747
1630,C,1559638255005604.0,0.38198853,7.231247,5.6889496,156,1970-01-19 01:13:58.255005604,-0.30490112,0.6467438,1.001358,9.208745623775298,1.2304308513604876,18.29422950744629,-46.49702072143555,-109.66743469238281,30010974.0,50354.0,0.02119660920313,-0.19427373073290005,0.2506970116494,0.0018693289387060451,-0.011683968027272576,0.011780282491926149,30.01097495504655
1630,C,1559638305359608.0,-0.23928833,9.1740265,5.0360107,156,1970-01-19 01:13:58.305359608,0.17391968,0.35873413,1.0298004,10.468114677347156,1.1042767293384026,17.882883071899414,-46.89235305786133,-109.32426452636719,30061328.0,50354.0,0.0035927629354000003,-0.08043362909050004,0.2700223254731,0.0006241220223317699,-0.006916307198273745,0.013110150750733185,30.0613289589528
1630,C,1559638355713612.0,-1.4334564,10.054993,4.1597443,156,1970-01-19 01:13:58.355713612,0.010101318,-0.20715332,0.3973236,10.97547967617509,0.4481970300317925,17.356359481811523,-47.46858215332031,-108.92692565917969,30111682.0,50354.0,-0.04211469406721,-0.009340176048500043,0.231521523635,-0.0009698666601055805,-0.0022602350919846055,0.012627369488994634,30.11168296309188
1630,C,1559638406067616.0,-1.4572144,10.520813,5.0261536,156,1970-01-19 01:13:58.406067616,-0.09436035,-0.52638245,-0.25569153,11.750455310298804,0.59275671049248,16.847618103027344,-47.96388626098633,-108.56758880615234,30162036.0,50354.0,-0.0727784187316,0.024567867661999965,0.23127335142830002,-0.0028926639009356396,0.00038338759175308756,0.011651786569468706,30.16203696699813
1630,C,1559638456421620.0,0.6803894,9.546478,9.586746,156,1970-01-19 01:13:58.456421620,-0.2839508,-0.5296173,-0.934906,13.546360057544328,1.111382818886422,16.555871963500977,-47.91524887084961,-108.3966293334961,30212390.0,50354.0,-0.019558123025000002,0.011764985506999988,0.36790897322919996,-0.0023247571118059185,0.0009147522442359118,0.015085613387901878,30.21239097113721
1630,C,1559638506775624.0,2.448532,7.8265533,9.833252,156,1970-01-19 01:13:58.506775624,0.10343933,-0.5208435,-0.71284485,12.804026335815967,0.8888899969369783,16.531187057495117,-47.67638397216797,-108.4023666381836,30262744.0,50354.0,0.07877685408780001,-0.05606839095990004,0.48893728964600003,0.001490949991968116,-0.0011154268390876647,0.02157281836040891,30.26274497504346
1630,C,1559638557129628.0,3.287445,6.3810425,5.4993286,156,1970-01-19 01:13:58.557129628,1.7417755,-1.2276611,-0.5190735,9.042544612309591,2.1932557915700825,17.038129806518555,-47.68041229248047,-108.74131774902344,30313098.0,50354.0,0.144414692929,-0.13576456054340005,0.3860283817662,0.005619293579241974,-0.004829778219998587,0.022029010709144963,30.31309897894971
1630,C,1559638607483632.0,0.808609,5.2741547,5.7768707,156,1970-01-19 01:13:58.607483632,0.27511597,-0.65249634,-0.39637756,7.864018781700078,0.8115142886813455,16.834808349609375,-47.57664108276367,-108.60012817382812,30363452.0,50354.0,0.103126351558,-0.20002630009560002,0.2839008697761,0.006232340877049199,-0.008454206498308105,0.01686680876608049,30.36345298308879
1630,C,1559638657837635.0,2.1345825,7.7382965,5.2545776,156,1970-01-19 01:13:58.657837635,0.69410706,-0.4922638,-0.15710449,9.594178491441582,0.8653265743697253,17.001447677612305,-47.754783630371094,-108.70758056640625,30413806.0,50354.0,0.07410073239550001,-0.16585471613760006,0.27773877384910006,0.00446204629269727,-0.009211786345703278,0.014140401307551662,30.41380698606372
1630,C,1559638708191639.0,2.2616272,8.81633,5.7180634,156,1970-01-19 01:13:58.708191639,0.40104675,-0.52015686,-0.23007202,10.748901400008254,0.695941656374658,17.139820098876953,-47.961402893066406,-108.80782318115234,30464160.0,50354.0,0.1106833716169,-0.07667336860950003,0.276258182457,0.004652309386720196,-0.006106129589677739,0.01394798136891868,30.46416098996997
1630,C,1559638758545643.0,2.4674072,5.9943085,4.0816956,156,1970-01-19 01:13:58.758545643,0.69026184,0.050354004,-0.3806305,7.660291877914538,0.7898585386062923,17.516895294189453,-48.06071853637695,-109.07415008544922,30514514.0,50354.0,0.1190628990888,-0.12058175448550003,0.24672853234300002,0.005784321857557409,-0.0049662922341628165,0.013167236518519601,30.51451499410905
1630,C,1559638808899647.0,1.6257782,4.222763,3.263977,156,1970-01-19 01:13:58.808899647,0.6119232,0.7950134,-0.61535645,5.579285614332111,1.1769281496482282,17.784963607788086,-48.04996109008789,-109.26239776611328,30564868.0,50354.0,0.10305412881579999,-0.23623399084450006,0.1849419990502,0.005592240411554114,-0.008983550020173413,0.010868168968886597,30.5648689980153
1630,C,1559638859253651.0,0.85250854,5.941986,3.0109253,156,1970-01-19 01:13:58.859253651,0.3127594,1.3638611,-0.92276,6.7156265230541985,1.6761329183515161,17.791919708251953,-48.32203674316406,-109.27139282226562,30615223.0,50355.0,0.062397064396350004,-0.2375560320525,0.15798635265824998,0.004165647417098906,-0.011928848301489218,0.008634078575139498,30.61522300192155
1630,C,1559638909607655.0,1.1722565,7.8504944,2.508667,156,1970-01-19 01:13:58.909607655,0.051498413,0.90800476,-1.5319672,8.324533485013596,1.7815858757298275,17.953062057495117,-48.80045700073242,-109.42955017089844,30665577.0,50354.0,0.050977509412080006,-0.14621592096920005,0.1389667753371,0.0028544316447748426,-0.009662226461227344,0.007476388903538927,30.66557700606063
1630,C,1559638959961659.0,3.202011,6.0256042,1.6056824,156,1970-01-19 01:13:58.959961659,0.016815186,-0.37724304,-0.670578,7.009921282642795,0.7695907456516458,18.7957820892334,-49.229312896728516,-110.08992767333984,30715931.0,50354.0,0.11013093284750002,-0.14411066554780005,0.1035869748438,0.004056227250769446,-0.007309552468738512,0.00610677576830452,30.71593100996688
1630,C,1559639010315663.0,4.6039124,10.495544,2.9643707,156,1970-01-19 01:13:59.010315663,-0.10562134,-0.31962585,0.4257202,11.838071924508156,0.5427285142128226,19.409332275390625,-49.6859245300293,-110.55038452148438,30766285.0,50354.0,0.1965297334418,-0.07751625176860003,0.1150602268987,0.0077207955951657066,-0.005579900897275005,0.0055048805982709234,30.76628501410596
1630,C,1559639060669667.0,6.11763,12.701523,3.9602203,156,1970-01-19 01:13:59.060669667,0.67655945,1.9981232,0.3311615,14.643682192705532,2.1353915216757775,20.06261444091797,-49.96918487548828,-110.99219512939453,30816639.0,50354.0,0.26993627300480005,0.09056335585899998,0.174340427607,0.01174421464430605,0.0003284869396839997,0.00728624027849001,30.81663901801221
1630,C,1559639111023671.0,0.9854584,6.2966156,8.551147,156,1970-01-19 01:13:59.111023671,-1.1367493,-0.9125824,1.0742798,10.664924345156084,1.810823761863172,19.547754287719727,-49.712520599365234,-110.61984252929688,30866993.0,50354.0,0.1788344566468,-0.015153064467800018,0.3149986945121,0.011298700660438334,0.0018986049063562417,0.012320091077592582,30.86699302191846
1630,C,1559639161377675.0,1.4248505,7.6200867,6.618866,156,1970-01-19 01:13:59.161377675,-0.5914917,-0.59851074,0.8366699,10.193395282673146,1.1866313912206468,19.293933868408203,-49.727149963378906,-110.42973327636719,30917347.0,50354.0,0.0606843471753,-0.14308838619290004,0.38193541730100006,0.006030364923829012,-0.003984045003284446,0.017546710133118423,30.91734702605754
1630,C,1559639211731678.0,1.0967712,6.289398,4.5148315,156,1970-01-19 01:13:59.211731678,-0.59757996,0.17880249,0.39587402,7.819407761521693,0.7387749175051642,19.108768463134766,-49.82364273071289,-110.29716491699219,30967701.0,50354.0,0.0634868695409,-0.14327010370810003,0.28031310195750003,0.003126258723263768,-0.0072096477002374796,0.01667343096937126,30.96770102903247
