Subject-id_accel,Activity_accel,Timestamp_accel,accel_x,accel_y,accel_z,Segment_accel,DateTime,gyro_x,gyro_y,gyro_z,accel_magnitude,gyro_magnitude,Roll,Pitch,Yaw,Time_Difference,Difference_Microseconds,vx,vy,vz,dx,dy,dz,Time_diff
1623,C,1987300997420.0,0.54441833,11.638480830927431,3.3902663213129722,116,1970-01-01 00:33:07.300997420,-0.14068604,0.56373596,0.008804321,7.401084796008247,0.5810923425035597,-95.30149841308594,-8.115445137023926,-90.76188659667969,15005501.0,50354.0,0.002227036570399999,0.08657220370371983,0.1537661694882934,0.0005045051799126666,0.0024082356847407926,0.007883318321403453,15.005501605000063
1623,C,1987351351423.0,2.083435,12.042869430927432,2.4984816213129717,116,1970-01-01 00:33:07.351351423,-0.58491516,0.41368103,-0.035324097,7.848113430420675,0.7172904089757174,-95.32783508300781,-8.119123458862305,-90.78253173828125,15055855.0,50354.0,0.06616146328941001,0.10275615554271986,0.1482610069514934,0.0017218172609704367,0.004766720100747613,0.007604138221224513,15.055855608000002
1623,C,1987401705427.0,2.4481506,12.24184393092743,4.037269421312972,116,1970-01-01 00:33:07.401705427,-0.6873627,0.17932129,0.015365601,6.976020015387798,0.710534804279597,-95.36091613769531,-8.119193077087402,-90.79161834716797,15106209.0,50354.0,0.1140917306512,0.11794702831141984,0.1645506040001934,0.004538234663842739,0.0055566440598956756,0.00787565792893062,15.10620961199993
1623,C,1987452059431.0,3.0704193,9.887687430927432,2.0500716213129717,116,1970-01-01 00:33:07.452059431,-1.1595001,0.20866394,-0.060043335,10.057250866315151,1.1796551715794985,-95.41744995117188,-8.123164176940918,-90.80182647705078,15156563.0,50354.0,0.13894103437230002,0.06368601109741984,0.1532609854301934,0.0063706059249966605,0.004572975033196357,0.00800154238708885,15.156563616000085
1623,C,1987502413435.0,3.6328735,3.679801430927432,0.3637770213129725,116,1970-01-01 00:33:07.502413435,-2.2575073,-1.0714722,-0.47483826,16.23743074512462,2.5435925888565483,-95.53826904296875,-8.141682624816895,-90.74567413330078,15206917.0,50354.0,0.1687688028256,-0.15188053292508014,0.0607734672753934,0.007747210571131529,-0.0022204734760550033,0.005388745415768559,15.206917620000013
1623,C,1987552767439.0,-0.3633728,0.38251443092743287,1.494194021312972,116,1970-01-01 00:33:07.552767439,-2.2345886,-1.4152985,-0.61961365,18.468714999262883,2.7166849524040386,-95.66051483154297,-8.165609359741211,-90.67147064208984,15257271.0,50354.0,0.08231621912390001,-0.3911922735460801,0.04677813694019341,0.006321567597622562,-0.013672944048524404,0.002707826739335829,15.25727162399994
1623,C,1987603121443.0,-1.3562012,6.551521430927432,2.1184767213129723,116,1970-01-01 00:33:07.603121443,-1.159378,-0.9570923,-0.38789368,12.554297983409503,1.5526250431405622,-95.72561645507812,-8.18016242980957,-90.62142944335938,15307625.0,50354.0,-0.04329371459800001,-0.3188909791060801,0.0909562112870934,0.0009824695964485845,-0.017877766052023437,0.0034677376853184,15.307625628000096
1623,C,1987653475447.0,-1.1134644,11.307410930927432,3.2132340213129718,116,1970-01-01 00:33:07.653475447,0.12055969,-0.5007477,0.014556885,7.835330421745889,0.5152618759515295,-95.72315216064453,-8.176942825317383,-90.59632873535156,15357979.0,50354.0,-0.062178770811200004,-0.04383485992558014,0.1342364813670934,-0.002655480765147429,-0.00913234844930011,0.005669676422954461,15.357979632000024
1623,C,1987703829451.0,-1.5419464,14.646796930927431,4.107139421312972,116,1970-01-01 00:33:07.703829451,1.1832275,-0.07525635,0.49761963,4.801234739917824,1.2858134122542468,-95.66417694091797,-8.151809692382812,-90.59504699707031,15408333.0,50354.0,-0.0668552777116,0.1599798913379199,0.1843050421649934,-0.003248690239658536,0.0029241834558684783,0.00801991993796735,15.408333635999952
1623,C,1987754183455.0,0.22610474,17.12535830092743,4.421913021312973,116,1970-01-01 00:33:07.754183455,2.1325226,0.81459045,0.99716187,2.9552290843129003,2.49109253857095,-95.55106353759766,-8.10617446899414,-90.64091491699219,15458687.0,50354.0,-0.033128945473820004,0.3064583522724099,0.21473595334799342,-0.0025173027871393198,0.011743515659377275,0.01004665514403047,15.458687640000107
1623,C,1987804537459.0,2.5935364,12.978416130927432,4.770347421312972,116,1970-01-01 00:33:07.804537459,2.6446686,0.77230835,0.8948059,6.114217294656121,2.8967930181461865,-95.41275024414062,-8.065324783325195,-90.68405151367188,15509041.0,50354.0,0.07099010498178,0.26445352887080986,0.2314335411639934,0.0009532304129319089,0.014373848431542845,0.011233209363328294,15.509041644000035
1623,C,1987854891463.0,1.1023254,9.714362430927432,3.7013167213129723,116,1970-01-01 00:33:07.854891463,2.0579834,-0.5883179,0.26794434,9.015542867193336,2.1571295268189172,-95.31382751464844,-8.049238204956055,-90.65574645996094,15559395.0,50354.0,0.09305071253860002,0.07786688585181988,0.21329108811889338,0.004130055662710608,0.008618601081471649,0.011196831991455242,15.559395647999963
1623,C,1987905245466.0,-1.9371033,9.74605543092743,1.3408430213129723,116,1970-01-01 00:33:07.905245466,1.2856598,0.1000824,-0.27287292,10.279105535822215,1.318103652447381,-95.2490234375,-8.063286781311035,-90.65950775146484,15609749.0,50354.0,-0.0210172031883,-0.003514259492080159,0.12694645584009343,0.0018135876649125037,0.0018719760738591669,0.008566160644255411,15.60974965100013
1623,C,1987955599470.0,-1.4649506,5.729072430927431,4.397849921312972,116,1970-01-01 00:33:07.955599470,-0.18421936,0.506897,-0.385849,12.612226201642935,0.6631446237502115,-95.25489044189453,-8.084813117980957,-90.6832046508789,15660103.0,50354.0,-0.08565351104030001,-0.10385190582208019,0.1444830722164934,-0.0026856485721334627,-0.0027031579441146153,0.006833781227880687,15.660103655000057
1623,C,1988005953474.0,2.2753906,-0.09380356907256981,2.5255965213129725,116,1970-01-01 00:33:08.005953474,-1.3158722,0.8527832,-0.4120636,18.768371672500884,1.621281975283769,-95.55097198486328,-8.083942413330078,-90.69099426269531,15710457.0,50354.0,0.020404447880000003,-0.3515900358650802,0.1743116110859934,-0.0016427756631868737,-0.011466661765857637,0.008026293741506712,15.710457658999985
1623,C,1988056307478.0,-1.7238617,9.936820730927431,6.889793251312972,116,1970-01-01 00:33:08.056307478,-1.4379883,-0.004135132,-0.3304901,8.180424011822428,1.475483363664788,-95.62312316894531,-8.100363731384277,-90.68915557861328,15760811.0,50354.0,0.013885843115300004,-0.2456515569159802,0.23705126830540343,0.0008633266563886684,-0.015036751581448758,0.010356883214437198,15.76081166300014
1623,C,1988106661482.0,5.960663,2.468894430927431,2.5813826213129722,116,1970-01-01 00:33:08.106661482,0.49188232,0.6336212,0.10310364,17.213150442034152,0.8087362996671238,-95.59398651123047,-8.098333358764648,-90.72152709960938,15811165.0,50354.0,0.1066699463301,-0.18113050936998018,0.23845579494510344,0.003035233110866836,-0.010745092082881625,0.01197184133145801,15.811165667000068
1623,C,1988157015486.0,1.5778198,7.252006430927432,3.778526121312972,116,1970-01-01 00:33:08.157015486,0.93940735,-1.2498627,-0.3315277,11.336213756614288,1.5982970793793632,-95.55609893798828,-8.108759880065918,-90.65707397460938,15861519.0,50354.0,0.18979638145560002,-0.24872607900108015,0.1601234224130934,0.00746413273466057,-0.010822499325418187,0.010035028955427322,15.861519670999996
1623,C,1988207369490.0,-1.6362762,11.609443430927431,3.078361321312972,116,1970-01-01 00:33:08.207369490,0.33651733,-0.08287048,0.036087036,7.748092782082474,0.3484446929040886,-95.5398178100586,-8.10656452178955,-90.653076171875,15911873.0,50354.0,-0.0014717567827999963,-0.01859447682808014,0.1726358551429934,0.004741449075387086,-0.006730329634110769,0.008377880331029599,15.911873674999924
1623,C,1988257723494.0,1.1992493,11.447791730927431,4.268684221312972,116,1970-01-01 00:33:08.257723494,-0.18109131,0.63682556,0.1282959,7.233854346384978,0.6743891268278572,-95.54428100585938,-8.103255271911621,-90.68572998046875,15962227.0,50354.0,-0.0110030262613,0.08704280967001984,0.1849765656266934,-0.0003140776127013056,0.0017233236759615158,0.009003607917718405,15.96222767900008
1623,C,1988308077498.0,1.526413,11.661796430927431,4.029258621312972,116,1970-01-01 00:33:08.308077498,-0.54652405,0.8061676,-0.04296875,7.20989271584368,0.9749056621000439,-95.56591033935547,-8.109295845031738,-90.72603607177734,16012581.0,50354.0,0.0686239997271,0.08836090115101984,0.20891730694879337,0.0014507232489484466,0.004416139227341316,0.009917066029833032,16.012581683000008
1623,C,1988358431502.0,3.1448517,11.521995430927431,3.997505021312972,116,1970-01-01 00:33:08.358431502,-0.5295563,0.3262024,0.0036621094,7.843438412975836,0.6219737065830898,-95.59008026123047,-8.110700607299805,-90.7424545288086,16062935.0,50354.0,0.11760843135190001,0.09022912770591984,0.20208982823039343,0.004688773917275984,0.004496361156531171,0.010347926642406387,16.062935686999936
1623,C,1988408785505.0,2.5217438,10.724097930927432,4.046852021312972,116,1970-01-01 00:33:08.408785505,-0.8843231,-0.50177,-0.16590881,8.27791751465196,1.0302068779275482,-95.63796997070312,-8.116500854492188,-90.71641540527344,16113289.000000002,50354.00000000186,0.14266787490350527,0.06662069257142231,0.20253277726220087,0.0065529765625925804,0.003949007925122789,0.010187183338487425,16.1132896900001
1623,C,1988459139509.0,2.5694427,9.098335430927431,2.7249373213129724,116,1970-01-01 00:33:08.459139509,-1.3752747,-0.16612244,-0.2624359,10.249921111386612,1.4099112621510808,-95.70809936523438,-8.128739356994629,-90.70675659179688,16163643.0,50353.99999999814,0.12818080251049527,0.005600204751419636,0.1704933402792871,0.006819157151252039,0.0018183055318971243,0.009391678561341694,16.16364369400003
1623,C,1988509493513.0,2.1995087,-0.23145356907256698,0.8740460213129717,116,1970-01-01 00:33:08.509493513,-2.0969696,-0.95224,-0.8586273,19.371385802369062,2.4579022277603824,-95.82035064697266,-8.166672706604004,-90.65455627441406,16213997.0,50354.0,0.12006788939780003,-0.27022771536408013,0.0906116036172934,0.006250157316175151,-0.006662526834694953,0.006573839172484206,16.213997697999957
1623,C,1988559847517.0,-1.0591888,4.552894430927431,0.8804243213129723,116,1970-01-01 00:33:08.559847517,-1.893158,-1.2545776,-0.3832245,14.852910576508206,2.3032310315697835,-95.92424011230469,-8.179313659667969,-90.58952331542969,16264351.000000002,50354.00000000186,0.02870983412230106,-0.3846682834210944,0.04417229981629503,0.003745776745065724,-0.01648831656141495,0.0033934543367475814,16.264351702000113
1623,C,1988610201521.0,-0.6656952,7.287009430927432,1.071647521312972,116,1970-01-01 00:33:08.610201521,-0.69558716,0.22483826,0.15583801,12.324000897909302,0.7474484769383462,-95.9572982788086,-8.172730445861816,-90.60163879394531,16314705.0,50353.99999999814,-0.04342740446799839,-0.19537594047007292,0.04914731278179158,-0.000370544268593608,-0.014603773424907379,0.0023495078863819394,16.31470570600004
1623,C,1988660555525.0,0.88609314,10.566566230927432,3.355155821312972,116,1970-01-01 00:33:08.660555525,0.25927734,-0.4560089,0.55810547,8.376396827866808,0.7659311793892494,-95.94717407226562,-8.142613410949707,-90.58164978027344,16365058.999999998,50353.99999999814,0.005548958935379792,-0.04396972556147851,0.11145362775728927,-0.0009536656231747032,-0.006026005833676147,0.004043449879952289,16.36505970999997
1623,C,1988710909529.0,-1.3429413,16.513572430927432,4.834266521312973,116,1970-01-01 00:33:08.710909529,1.0574036,-0.32667542,0.9621887,3.1096186272366166,1.4665013800650943,-95.89591217041016,-8.0930757522583,-90.57025146484375,16415413.0,50354.00000000186,-0.011502066124320424,0.18832745108952684,0.20618508632030105,-0.0001498813796959638,0.003634494455619807,0.007997189904331787,16.415413714000124
1623,C,1988761263533.0,0.013000488,14.527473130927431,4.157508721312972,116,1970-01-01 00:33:08.761263533,2.1490936,0.6405945,1.1798096,4.599581678746277,2.5339525069036655,-95.7830810546875,-8.037646293640137,-90.60848999023438,16465767.0,50354.0,-0.033483919823724,0.28805120411081986,0.22638592528359341,-0.0011326121682139147,0.01199378540197913,0.010890840359151251,16.465767718000052
1623,C,1988811617537.0,2.7224884,11.206046730927431,4.028144721312972,116,1970-01-01 00:33:08.811617537,2.188568,0.44204712,0.5520935,7.936525220452736,2.300009299908708,-95.67017364501953,-8.012385368347168,-90.63348388671875,16516120.999999998,50353.99999999814,0.06887140373317345,0.15442362956191413,0.2060901967249858,0.0008909506823881759,0.011140188887378012,0.010888451323809596,16.51612172199998
1623,C,1988861971541.0,-0.5273895,7.426994430927431,1.7272566213129723,116,1970-01-01 00:33:08.861971541,1.7494202,0.043304443,0.12245178,11.877523590231872,1.754235089540951,-95.58232116699219,-8.00650691986084,-90.63627624511719,16566475.0,50354.00000000186,0.055266005005302044,-0.024345122667981067,0.14490373960329878,0.003125407539808713,0.0032749865680686743,0.008836974334937547,16.566475726000135
1623,C,1988912325545.0,-0.44552612,10.621543430927431,2.3944014213129723,116,1970-01-01 00:33:08.912325545,0.8637848,0.6655731,-0.2883911,8.785980229320028,1.1279544134023591,-95.53466033935547,-8.024083137512207,-90.66831970214844,16616829.0,50354.0,-0.024495096564740002,-0.03906116225208016,0.10377098453919341,0.0007747191618080305,-0.0015963800354323817,0.006260883529735526,16.616829730000063
1623,C,1988962679548.0,-0.904068,11.403800630927432,2.3046950213129724,116,1970-01-01 00:33:08.962679548,0.68240356,-0.94836426,-0.22859192,8.238832644625854,1.1905140294155745,-95.5073471069336,-8.03089714050293,-90.6195297241211,16667183.000000002,50354.00000000186,-0.03397873115924126,0.06106288744532211,0.11830915113599778,-0.0014721955606067305,0.000553937435190273,0.005591311575894495,16.667183733
1623,C,1989013033552.0,-1.6703796,6.974128430927431,-1.980338978687028,116,1970-01-01 00:33:09.013033552,-0.37095642,0.83535767,-0.2679901,14.424216767843763,0.9524966121016154,-95.52021026611328,-8.048250198364258,-90.66022491455078,16717537.0,50353.99999999814,-0.0648168672251976,-0.030768080009679025,0.008166312085193101,-0.002487376780524925,0.0007627323668071577,0.003184272737519805,16.71753773699993
1623,C,1989063387556.0,2.376358,0.6475294309274311,4.896614021312972,116,1970-01-01 00:33:09.063387556,-0.63237,1.1339111,-0.25930786,17.59932148553509,1.3239663008781566,-95.60059356689453,-8.05959415435791,-90.70802307128906,16767890.999999998,50353.99999999814,0.01777441817679935,-0.30157872001206903,0.07342305674819068,-0.0011843877396914787,-0.008367495384147241,0.0020541755391180272,16.767891741000085
1623,C,1989113741560.0,2.6491852,3.173148430927432,3.1511153213129717,116,1970-01-01 00:33:09.113741560,-0.81770325,-0.89601135,-0.47053528,15.540364826365066,1.3011066036701464,-95.89464569091797,-8.125290870666504,-90.62593841552734,16818245.0,50354.00000000186,0.12652810114640467,-0.39727599347209486,0.20261768165930089,0.003633104529000442,-0.017595065121391442,0.006949877670885672,16.818245745000013
1623,C,1989164095564.0,2.0798187,6.8447794309274315,4.498176421312972,116,1970-01-01 00:33:09.164095564,0.52098083,0.6059418,-0.23280334,11.606656973883345,0.8323364015407979,-96.06483459472656,-8.196890830993652,-90.62673950195312,16868599.0,50354.0,0.11906213119030001,-0.24124783022208016,0.19258621820409338,0.0061832252795412145,-0.016076114309148248,0.009950048586860678,16.86859974899994
1623,C,1989214449568.0,0.40847778,10.270087930927431,4.517417721312972,116,1970-01-01 00:33:09.214449568,1.0090637,-0.5883026,-0.28248596,8.140992911228512,1.2017103716876092,-96.01881408691406,-8.207839965820312,-90.59569549560547,16918953.0,50354.0,0.06264784047696001,-0.06256818443058015,0.2269856137288934,0.004574911956666606,-0.007649175800910029,0.010563560012576807,16.918953753000096
1623,C,1989264803572.0,-0.5953522,10.608726430927431,1.4256056213129717,116,1970-01-01 00:33:09.264803572,0.4903412,-0.060409546,0.08213806,9.375435176167292,0.5008297780343434,-95.99467468261719,-8.203439712524414,-90.59309387207031,16969307.0,50354.0,-0.00470493727234,0.032196709188419846,0.1496274986972934,0.0014588284739827182,-0.0007646626321718701,0.009481988331554106,16.969307757000024
1623,C,1989315157576.0,1.6042175,13.167747430927431,4.402030821312972,116,1970-01-01 00:33:09.315157576,-0.15229797,0.6989136,0.29733276,5.775943714504348,0.7746493801070898,-95.99706268310547,-8.192303657531738,-90.6297836303711,17019661.0,50354.0,0.025400201658100002,0.10515108241991984,0.1467224027159934,0.0005210446714402796,0.003458005349323168,0.007461201467882321,17.019661760999952
1623,C,1989365511580.0,5.1217957,10.858436430927432,1.6962965213129717,116,1970-01-01 00:33:09.365511580,-0.32403564,-0.044387817,0.19473267,10.348977899599735,0.38064443651991553,-96.013427734375,-8.182387351989746,-90.6285629272461,17070015.0,50354.0,0.16934083433640001,0.11143803108991984,0.1535375875052934,0.004902995063233527,0.005453064110837234,0.007559645773801338,17.070015765000107
1623,C,1989415865584.0,3.8377686,13.297248430927432,5.180686821312972,116,1970-01-01 00:33:09.415865584,-0.18844604,-0.6465759,0.31356812,6.360813571469345,0.7428978868813843,-96.02723693847656,-8.163406372070312,-90.5977554321289,17120369.0,50354.0,0.2255749503811,0.11469847776691988,0.1731418096172934,0.009942794711832499,0.005693438883488654,0.008224807181355367,17.120369769000035
1623,C,1989466219588.0,3.028946,3.148216430927432,1.3861464213129722,116,1970-01-01 00:33:09.466219588,-0.7113342,-1.48172,-0.19049072,16.186637228738345,1.654622983309418,-96.07351684570312,-8.165067672729492,-90.52230834960938,17170723.0,50354.0,0.17288327348420002,-0.07942173117308013,0.1653331605495934,0.01003198270225666,0.0008881626489931035,0.008521784323891708,17.170723772999963
1623,C,1989516573591.0,1.5235596,-0.8791425690725703,3.8631514213129723,116,1970-01-01 00:33:09.516573591,-1.3076324,-1.8339386,-1.0997162,19.16882591787156,2.506513315871703,-96.25738525390625,-8.120295524597168,-90.40953826904297,17221077.0,50354.0,0.1146184334912,-0.4363407273800802,0.13216157178379342,0.007238430476519646,-0.012985351418992918,0.007490024875957681,17.22107777600013
1623,C,1989566927595.0,1.703659,3.783012430927432,5.550758221312972,116,1970-01-01 00:33:09.566927595,-1.0216827,-1.5601654,-1.7561493,14.346238357215519,2.5616424377197804,-96.33663940429688,-8.166526794433594,-90.31929016113281,17271431.0,50354.0,0.08125168269220001,-0.42035846848808023,0.2370140030723934,0.004931421915149462,-0.021569115654372677,0.009294733448154216,17.271431780000057
1623,C,1989617281599.0,1.4259644,4.937568430927431,2.203437621312972,116,1970-01-01 00:33:09.617281599,-0.63349915,-2.5747833,-1.5948792,14.00914011382854,3.0942640284245706,-96.38802337646484,-8.231511116027832,-90.18108367919922,17321785.0,50354.0,0.0787945283418,-0.27391113564108016,0.1952273887297934,0.004029483455203019,-0.017479625823159872,0.010882541521403657,17.321785783999985
1623,C,1989667635603.0,0.057144165,12.852653430927433,6.217857221312972,116,1970-01-01 00:33:09.667635603,-0.09199524,-3.3192139,-0.8125458,5.1782563983337075,3.4184608693436154,-96.54796600341797,-8.06458568572998,-89.99137878417969,17372139.0,50354.0,0.037340224341005,-0.04556478418408013,0.2120229402527934,0.0029239246682949815,-0.00804344523343806,0.010253341532794589,17.37213978800014
1623,C,1989717989607.0,0.7498932,14.618095130927431,6.959617471312972,116,1970-01-01 00:33:09.717989607,0.9733887,-3.2756653,-0.3247223,3.4040260288996813,3.4326248398316226,-96.48843383789062,-8.178597450256348,-89.83002471923828,17422493.0,50354.0,0.020318779738605002,0.19816183654181993,0.3317692803362434,0.001451680745712341,0.003841935987210815,0.013691056737770182,17.42249379200007
1623,C,1989768343611.0,0.80319214,11.594794930927431,5.573402221312972,116,1970-01-01 00:33:09.768343611,2.137146,-2.8432465,-0.25646973,6.599620216941235,3.5661211992141437,-96.6121597290039,-8.147560119628906,-89.65599822998047,17472847.0,50354.0,0.03910202960518,0.1664927330873198,0.3155438368012434,0.001496037716848475,0.009180908099552852,0.016297402350170506,17.472847795999996
1623,C,1989818697615.0,3.18544,6.890403430927432,3.827674721312972,116,1970-01-01 00:33:09.818697615,2.3092651,-3.8598785,-0.33161926,11.986544169375245,4.510137322792201,-96.5244140625,-8.141956329345703,-89.46040344238281,17523201.0,50354.0,0.10042179138878,-0.028067360843580153,0.23669091418449342,0.003512791241164931,0.0034851355969806328,0.013903614325567897,17.523201799999924
1623,C,1989869051619.0,-4.771698,8.402732430927431,7.7109907613129725,116,1970-01-01 00:33:09.869051619,0.6299896,-2.7111053,-0.0022277832,10.660644927517653,2.7833404044087446,-96.51216888427734,-8.12667179107666,-89.32434844970703,17573555.0,50354.0,-0.039937217666,-0.10843391840608017,0.2905089808560734,0.0015228201126184322,-0.0034366927076686983,0.013273311757436353,17.57355580400008
1623,C,1989919405623.0,-0.20724487,7.877418430927431,6.335212561312972,116,1970-01-01 00:33:09.919405623,0.40899658,-1.3805084,0.40031433,10.092056199389155,1.494434076072145,-96.46910095214844,-7.867473125457764,-89.26180267333984,17623909.0,50354.0,-0.12535484463799001,-0.08358384175108018,0.35364126105375343,-0.004161558252627557,-0.004834431147476826,0.016217770640563713,17.623909808000008
1623,C,1989969759627.0,6.380905,8.71829943092743,7.215125894312972,116,1970-01-01 00:33:09.969759627,-0.30560303,-3.2629242,-0.43388367,11.201893914865192,3.3058013530736368,-96.50712585449219,-7.870593070983887,-89.09567260742188,17674263.0,50354.0,0.15543424109301002,-0.07563881139208019,0.34115687129729444,0.0007573089645480386,-0.004008748738185349,0.017492932578202336,17.674263811999936
1623,C,1990020113630.0,-1.6442719,8.567634430927432,5.606407021312972,116,1970-01-01 00:33:10.020113630,0.8316345,-3.3794556,-0.56077576,9.64326830813986,3.5251674494930287,-96.48921966552734,-7.879331588745117,-88.9229965209961,17724617.0,50354.0,0.11925421155870002,-0.058261243160080155,0.32280773421671444,0.0069158311724121044,-0.003371201673459741,0.016716636873026203,17.7246178150001
1623,C,1990070467634.0,-1.3640442,6.412162430927431,6.727561821312972,116,1970-01-01 00:33:10.070467634,0.497818,-3.0138855,-0.27900696,11.60555593996786,3.0674376035972912,-96.4852523803711,-7.87616491317749,-88.77023315429688,17774971.0,50354.0,-0.07574037444970001,-0.11632285440908015,0.3105323335507934,0.001095547876893293,-0.004395503824498749,0.015945602886182547,17.77497181900003
1623,C,1990120821638.0,-1.3879547,9.096473430927432,6.081382621312972,116,1970-01-01 00:33:10.120821638,0.3710785,-2.6880188,-0.28338623,9.014139414279027,2.7282690625503383,-96.48538970947266,-7.875062465667725,-88.6338119506836,17825325.0,50354.0,-0.06928707630530001,-0.10300827490608015,0.3224907942319934,-0.0036513561276586355,-0.005522099842767791,0.015937623288187226,17.825325822999957
1623,C,1990171175642.0,-0.124176025,7.670799430927431,7.130958421312972,116,1970-01-01 00:33:10.171175642,0.6637268,-1.8600159,-0.1828003,10.255809245571973,1.9833326405248164,-96.46512603759766,-7.873656272888184,-88.53948211669922,17875679.0,50354.0,-0.038070915263325004,-0.07131957115708015,0.3326471104301934,-0.002702952153723272,-0.004389052180332188,0.016494407025679877,17.875679827000113
1623,C,1990221529646.0,-0.83929443,8.378455430927431,6.288154461312972,116,1970-01-01 00:33:10.221529646,0.53744507,-1.7797699,-0.05105591,9.632375708663698,1.8598480599659863,-96.45051574707031,-7.866183280944824,-88.4499282836914,17926033.0,50354.0,-0.024257295645535002,-0.08939711034308016,0.3378530050458734,-0.0015692373660523686,-0.004046363890129537,0.016881181407340934,17.92603383100004
1623,C,1990271883650.0,0.9310608,8.349891430927432,5.958488321312972,116,1970-01-01 00:33:10.271883650,0.464859,-1.5558014,-0.084503174,9.70769630934703,1.6259620759842568,-96.4700698852539,-7.802633285522461,-88.3670425415039,17976387.0,50354.0,0.00231040189749,-0.07229961105908014,0.30833372533817344,-0.0005525569438945291,-0.0040710383547421895,0.01626904331087915,17.97638783499997
1623,C,1990322237654.0,0.37260437,8.566947430927431,5.629157921312972,116,1970-01-01 00:33:10.322237654,0.30755615,-1.5162354,-0.073776245,9.506106340263226,1.5488716886631644,-96.55070495605469,-7.659346580505371,-88.279052734375,18026741.0,50354.0,0.03282237798509,-0.06755394797508014,0.2917421694505934,0.0008845379991037169,-0.0035210930558030543,0.015108110803096783,18.026741839000124
1623,C,1990372591658.0,-0.16493225,8.575217930927431,6.127494621312972,116,1970-01-01 00:33:10.372591658,0.084243774,-1.4270782,0.0020141602,9.41938089960573,1.4295640101843339,-96.56452178955078,-7.435356140136719,-88.20642852783203,18077095.0,50354.0,0.005228560965240001,-0.06188090268458016,0.29599724106569336,0.0009580084899524585,-0.003258781235058268,0.014797515138568553,18.077095843000052
1623,C,1990422945662.0,-0.11437988,8.523978430927432,6.487602091312972,116,1970-01-01 00:33:10.422945662,-0.23594666,-1.1125183,0.1063385,9.433290093154126,1.1422240020163714,-96.53597259521484,-7.221257209777832,-88.15741729736328,18127449.0,50354.0,-0.00703224149701,-0.06296273319758014,0.31761028993378343,-4.5411264748373265e-05,-0.00314318822060515,0.01544879680797383,18.12744984699998
1623,C,1990473299666.0,0.7806854,8.980231930927431,7.824272021312972,116,1970-01-01 00:33:10.473299666,-0.14892578,-1.009018,0.28182983,8.996689510003911,1.0581702440299658,-96.549560546875,-7.201513767242432,-88.10851287841797,18177803.0,50354.0,0.01677557407704,-0.052765695719580154,0.3603300545335834,0.00024530788436741535,-0.002913694654847345,0.017068504052654896,18.177803851000135
1623,C,1990523653670.0,2.094757,8.596519430927431,7.150718545312972,116,1970-01-01 00:33:10.523653670,0.38742065,-0.89530945,0.3096161,9.56145245776056,1.023492013004955,-96.3909912109375,-7.318121433258057,-88.08375549316406,18228157.0,50354.0,0.0723950133048,-0.05093933096258017,0.3770253374959414,0.0022450478785125856,-0.002610981456776751,0.01856439670512735,18.228157855000063
1623,C,1990574007673.0,1.6463623,4.358192430927431,6.519142021312972,116,1970-01-01 00:33:10.574007673,0.7965393,-0.9106903,0.26081848,13.686359995763056,1.23768249501562,-96.27490234375,-7.290192604064941,-88.04999542236328,18278511.0,50354.0,0.09419016061610001,-0.16730841945408018,0.3441660794859414,0.0041941149238065,-0.005494823612240258,0.018157436305352864,18.278511858
1623,C,1990624361677.0,-1.2516022,1.7865974309274328,5.923560921312972,116,1970-01-01 00:33:10.624361677,0.5939789,-1.2659149,0.38046265,16.241836757121554,1.4491733145943044,-96.25296783447266,-7.264378547668457,-87.9886474609375,18328865.0,50354.0,0.009938875037700003,-0.33876182564808016,0.3132699319864934,0.0026216567306557234,-0.012741330560937092,0.016552266460841493,18.32886586199993
1623,C,1990674715681.0,-1.3572845,5.2537304309274315,6.397132721312972,116,1970-01-01 00:33:10.674715681,-0.35736084,-1.0077362,0.49475098,12.772861527010075,1.1781415666068769,-96.27685546875,-7.23429012298584,-87.94087982177734,18379219.0,50354.0,-0.06568394044590001,-0.31621486542208016,0.3101981038403934,-0.0014034935117822516,-0.016490348151073426,0.01569705473801353,18.379219866000085
1623,C,1990725069685.0,-0.38711548,6.337226430927432,5.977210821312972,116,1970-01-01 00:33:10.725069685,-1.0966339,-1.4569702,0.37147522,11.664824315010007,1.8610109922811575,-96.34120178222656,-6.980388641357422,-87.87001037597656,18429573.0,50354.0,-0.043918758296460005,-0.20164367908908015,0.3115488473726934,-0.002759467146236398,-0.013038124575157484,0.015653722990691888,18.429573870000013
1623,C,1990775423689.0,0.8051758,6.170402430927432,6.250678921312972,116,1970-01-01 00:33:10.775423689,-1.7515411,-1.6091919,-0.21646118,11.82518530251053,2.388357225890175,-96.40237426757812,-6.905406475067139,-87.7927017211914,18479927.0,50354.0,0.01052550467664,-0.17856462814508015,0.3078615800500934,-0.0008407419463862083,-0.009572504551234455,0.015594896331223502,18.47992787399994
1623,C,1990825777693.0,0.18214417,5.526206430927431,7.1044386413129725,116,1970-01-01 00:33:10.825777693,-1.9312897,-1.1422119,-0.81604004,12.401152138042258,2.3875613660618025,-96.36319732666016,-6.789138317108154,-87.74810791015625,18530281.0,50354.0,0.02485775488469,-0.19898367868508018,0.33624179487423345,0.0008908443259756056,-0.009505533721062947,0.016216590670469776,18.530281878000096
1623,C,1990876141485.0,1.014679,6.026527430927432,5.357047921312972,116,1970-01-01 00:33:10.876141485,-1.8014526,-0.97758484,-1.1798553,12.092067204040532,2.3649444218380005,-96.52787780761719,-6.793066501617432,-87.68455505371094,18580645.0,50364.0,0.03013840106694,-0.20264625589077087,0.31380515462004654,0.0013849131991739466,-0.01011384501248908,0.01636948228216496,18.580645669999967
1623,C,1990926495489.0,2.527771,6.579185430927431,4.431220821312972,116,1970-01-01 00:33:10.926495489,-2.539627,-2.0018768,-1.6960449,11.962807498229713,3.6515454706635175,-96.85127258300781,-7.001914978027344,-87.55242919921875,18630999.0,50354.0,0.08918826365,-0.17609516727708016,0.24643924213309343,0.003004287437578399,-0.009535572811096986,0.014105273177053805,18.630999674000122
1623,C,1990976849493.0,0.13275146,7.813300430927432,6.065711821312972,116,1970-01-01 00:33:10.976849493,-3.1692047,-2.4734344,-1.7134247,10.182671707759303,4.370075555888655,-97.02275085449219,-6.915964603424072,-87.4189682006836,18681353.0,50354.0,0.06698397397542001,-0.13110958345608015,0.2642812731433934,0.0039319484266952,-0.0077344940092087784,0.012858410413116111,18.68135367800005
1623,C,1991027203497.0,-0.9368286,10.65035243092743,5.438133121312972,116,1970-01-01 00:33:11.027203497,-3.1792908,-2.623642,-1.3561554,7.557159967493964,4.33941756507458,-97.19859313964844,-6.967011451721191,-87.27937316894531,18731707.0,50354.0,-0.02024425015378,-0.02860981189708016,0.2896323041204934,0.0011767660266574307,-0.004021255216806518,0.013945882134772878,18.73170768199998
1623,C,1991077557501.0,-1.3034515,12.967750430927431,5.782966421312972,116,1970-01-01 00:33:11.077557501,-2.6795807,-1.9305573,-0.78282166,5.33379699531079,3.39411460734032,-97.34489440917969,-6.993619441986084,-87.17791748046875,18782061.0,50354.0,-0.056403532077700005,0.10116377575291982,0.28251362318469336,-0.0019297612132419721,0.0018266911479984753,0.014404918011762687,18.782061686000134
1623,C,1991127911504.0,-1.0503235,14.893989230927431,5.768958921312972,116,1970-01-01 00:33:11.127911504,-1.4875183,-1.1554718,-0.32348633,3.5365983342298715,1.911143421914483,-97.42654418945312,-7.002233505249023,-87.11808013916016,18832415.0,50354.0,-0.059260993175,0.20800581946651986,0.29084282435129344,-0.002912085752287228,0.007783962898839833,0.01443539527961354,18.832415689000072
1623,C,1991178265508.0,-0.5972748,15.60010503092743,2.3475110213129717,116,1970-01-01 00:33:11.178265508,-0.16511536,-0.49613953,-0.18946838,5.465705762730373,0.5561616512816889,-97.43798828125,-7.008416652679443,-87.09208679199219,18882769.0,50354.0,-0.0414815823991,0.27428061123071984,0.2043483637454934,-0.002536395825229116,0.012142525465664404,0.012467428542712803,18.882769693
1623,C,1991228619512.0,-2.05719,11.962974430927432,-5.296622978687028,116,1970-01-01 00:33:11.228619512,0.5492554,0.18911743,-0.24734497,14.049704695100356,0.6313686965183384,-97.40956115722656,-7.021904468536377,-87.09992218017578,18933123.0,50354.0,-0.0668314602696,0.20048645161111983,-0.0742497917508066,-0.0027269974752698605,0.011953210341168998,0.003275491747110229,18.933123696999928
1623,C,1991278973516.0,-2.8920288,9.591987430927432,-5.543372978687028,116,1970-01-01 00:33:11.278973516,1.2223206,0.55807495,-0.4351654,15.545939132249343,1.4124037044552886,-97.34537506103516,-7.04706335067749,-87.12496948242188,18983477.0,50354.0,-0.1246064817276,0.04922007479591987,-0.2729185782188066,-0.004819833065663504,0.0062868612153500385,-0.008740658050724952,18.983477701000083
1623,C,1991329327520.0,-1.2700958,8.217185430927431,0.09626002131297184,116,1970-01-01 00:33:11.329327520,1.7941895,0.6565552,-0.18400574,12.130334260761929,1.9193850069515075,-97.25179290771484,-7.06036376953125,-87.1566162109375,19033831.0,50354.0,-0.10478981105420002,-0.04508765485708015,-0.13714196292780662,-0.005775510463367379,0.00010404193680016762,-0.010324094244448282,19.03383170500001
1623,C,1991379681524.0,-1.0039673,8.480598430927431,2.5405960213129717,116,1970-01-01 00:33:11.379681524,1.7733917,1.1381378,0.3052826,10.604659275923169,2.129195444124491,-97.15589141845703,-7.052352428436279,-87.2154312133789,19084185.0,50354.0,-0.05725408666870001,-0.07306909571008018,0.06638812458519339,-0.004079779212969454,-0.0029748325090293956,-0.0017813693879519734,19.08418570899994
1623,C,1991430035528.0,1.1086121,8.900474430927432,3.380058121312972,116,1970-01-01 00:33:11.430035528,1.839859,1.8591156,0.48962402,9.884830916330325,2.6610380747004205,-97.05211639404297,-7.039555072784424,-87.3114242553711,19134539.0,50354.0,0.0026346421295999995,-0.05586592855708016,0.1490643093488934,-0.001375153755160921,-0.003246197105974296,0.005424445929158504,19.134539713000095
1623,C,1991480389532.0,2.0585938,8.999244430927432,3.049614021312972,116,1970-01-01 00:33:11.480389532,1.8221893,1.5609436,0.48913574,10.080560857939227,2.448708341056729,-96.95108795166016,-7.0247931480407715,-87.39248657226562,19184893.0,50354.0,0.0797407429443,-0.04280797821508015,0.1618798555348934,0.0020739650700055804,-0.0024843129508026803,0.0078286412392791,19.184893717000023
1623,C,1991530743536.0,0.78045654,9.920829430927432,3.729591221312972,116,1970-01-01 00:33:11.530743536,1.7465057,0.9767456,0.6160736,8.782131365345021,2.093767133152302,-96.85733032226562,-7.0000810623168945,-87.44505310058594,19235247.0,50354.0,0.07147877041018,-0.017118500380080143,0.17068005039359338,0.003807253687725743,-0.0015087689515903507,0.008372860751561512,19.23524772099995
1623,C,1991581097540.0,1.1183624,9.731467930927431,4.810035521312972,116,1970-01-01 00:33:11.581097540,1.7875214,0.8361969,0.7393646,8.62425767036307,2.1073960289325617,-97.00530242919922,-6.982173919677734,-87.46174621582031,19285601.0,50354.0,0.047806564452380004,0.001316690679419858,0.21500218249909342,0.0030032468758346732,-0.000397842162833524,0.009710321577539175,19.285601725000106
1623,C,1991631451543.0,2.1130219,9.05181093092743,4.6920850213129714,116,1970-01-01 00:33:11.631451543,1.6562347,0.0053253174,0.5900421,9.4753850879189,1.758206876411849,-96.92202758789062,-6.952924728393555,-87.46562194824219,19335955.0,50354.0,0.0813565625211,-0.02056258809508017,0.2392348889016934,0.003251940047811306,-0.0004845539592340796,0.011436326746657611,19.335955728000044
1623,C,1991681805547.0,0.37727356,9.972465430927432,4.5698012213129715,116,1970-01-01 00:33:11.681805547,1.5383301,-0.651886,0.29240417,8.40309767535039,1.6961471198558806,-96.84883117675781,-6.934503555297852,-87.43477630615234,19386309.0,50354.0,0.06269816879642,-0.014494994037580153,0.23318650993059337,0.003626865970381201,-0.0008826447453539891,0.011894153558400483,19.386309731999972
1623,C,1991732159551.0,-0.33306885,9.47591343092743,5.343620121312972,116,1970-01-01 00:33:11.732159551,1.3378754,-0.32789612,0.20014954,8.669694375297963,1.391936165849004,-96.78377532958984,-6.9226226806640625,-87.4195785522461,19436663.0,50354.0,0.0011129419836699995,-0.003817365395080151,0.24959020914329338,0.0016065723361103259,-0.0004610502734360885,0.012154869456123247,19.436663736000128
1623,C,1991782513555.0,-0.45788574,7.190025430927431,4.180320621312973,116,1970-01-01 00:33:11.782513555,0.9190674,-0.04071045,0.192276,11.176862260431571,0.9398469485283029,-96.73792266845703,-6.9128336906433105,-87.4186782836914,19487017.0,50354.0,-0.01991386371243,-0.07387085727508018,0.23978425607709342,-0.0004733508063649906,-0.001955956382166627,0.01232098091085368,19.487017740000056
1623,C,1991832867559.0,1.2142181,5.517448430927432,5.524879321312972,116,1970-01-01 00:33:11.832867559,0.3513794,0.27296448,0.25567627,12.586768012349296,0.5131738936531586,-96.74893951416016,-6.867356300354004,-87.43018341064453,19537371.0,50354.0,0.019042179827720003,-0.17353313058008016,0.24434781895549346,-2.1946385165343616e-05,-0.006228890202229372,0.01218899325309544,19.537371743999984
1623,C,1991883221563.0,-0.94000244,2.784950430927431,8.093009821312972,116,1970-01-01 00:33:11.883221563,-0.20077515,-0.012649536,0.15527344,15.192245014955374,0.25412696194613316,-96.75895690917969,-6.8595733642578125,-87.43048858642578,19587725.0,50354.0,0.006903927671820002,-0.28443970385508016,0.34285759494389345,0.0006532451485159187,-0.011530382052574032,0.014784070705744867,19.58772574800014
1623,C,1991933575567.0,-1.2769165,4.626807430927432,4.841865421312972,116,1970-01-01 00:33:11.933575567,-0.5771942,-0.08204651,0.20773315,13.576136141815594,0.6189005056757851,-96.78815460205078,-6.8487749099731445,-87.4276123046875,19638079.0,50354.0,-0.05581536815238001,-0.30686337231208016,0.3256613539835934,-0.0012314433369790595,-0.014887237548660595,0.016831301577147337,19.638079752000067
1623,C,1991983929571.0,1.2207642,5.217292430927431,0.12003302131297211,116,1970-01-01 00:33:11.983929571,-1.6307678,-0.32073975,0.024749756,14.626236235475846,1.6621943794782132,-96.87158966064453,-6.845639705657959,-87.41172790527344,19688433.0,50354.0,-0.0014137464570999985,-0.24562429777808018,0.12492571708999341,-0.0014408574185228783,-0.013909982069859966,0.011344430688419695,19.688433755999995
1623,C,1992034283575.0,3.1621552,5.545341430927431,5.913703821312972,116,1970-01-01 00:33:12.034283575,-3.047165,0.18624878,-0.6782074,12.847713910528475,3.12727811725968,-97.00688171386719,-7.064995288848877,-87.41865539550781,19738787.0,50354.0,0.11034876173380002,-0.22249836726008018,0.15191139248679342,0.0027426568796214764,-0.011785924337665765,0.006969927907814762,19.738787759999923
1623,C,1992084637579.0,0.94618225,7.008979430927431,6.4070509213129725,116,1970-01-01 00:33:12.084637579,-2.4297028,-0.9733124,-1.4986877,10.99000624484559,3.0160997242221437,-97.0715103149414,-7.080439567565918,-87.3686294555664,19789141.0,50354.0,0.10343561197864999,-0.17738906366108018,0.3101996421550934,0.005382449176958354,-0.010067965848302055,0.011634569519178784,19.789141764000078
1623,C,1992134991583.0,-1.1771393,9.20682543092743,4.0703200213129715,116,1970-01-01 00:33:12.134991583,-2.817215,-2.4055939,-1.6619263,9.357030264824491,4.060244006777659,-97.22854614257812,-7.1479172706604,-87.23793029785156,19839495.0,50354.0,-0.005814805647850003,-0.0852038809930802,0.2637887682224934,0.0024577990409905513,-0.006611302567557796,0.014451306208076503,19.839495768000006
1623,C,1992185345586.0,0.15194702,11.006553430927433,3.673744021312972,116,1970-01-01 00:33:12.185345586,-2.9987946,-2.4575348,-1.0346375,7.79326743080076,4.012819595073575,-97.3946304321289,-7.183592796325684,-87.10845947265625,19889849.0,50354.0,-0.025811266033560005,0.015443039604919865,0.1949723004011934,-0.0007962496067228598,-0.0017563687036297126,0.011550227424738563,19.889849770999945
1623,C,1992235699590.0,-0.47302246,13.414573430927431,4.139091321312971,116,1970-01-01 00:33:12.235699590,-2.5423431,-1.6266632,-0.27120972,5.504106798427384,3.0303624068045605,-97.53214263916016,-7.1864728927612305,-87.02540588378906,19940203.0,50354.0,-0.00808371635288,0.12138151100091989,0.1967037554212934,-0.0008533739715434001,0.003444831710603228,0.00986122805744275,19.9402037750001
1623,C,1992286053594.0,-2.0829926,14.39160893092743,4.390449421312972,116,1970-01-01 00:33:12.286053594,-1.6990967,-0.84503174,0.036117554,5.004635790069001,1.8979759522357653,-97.62235260009766,-7.179113388061523,-86.98342895507812,19990557.0,50354.0,-0.06435279116562001,0.20660705332441984,0.2147482472770934,-0.0018237339497932748,0.008257768084019079,0.010359127071937285,19.990557779000028
1623,C,1992336407598.0,-0.81703186,14.823219030927431,3.295448121312972,116,1970-01-01 00:33:12.336407598,-0.37698364,-0.20451355,0.07234192,5.098029409354484,0.4349434564981275,-97.64241790771484,-7.174170970916748,-86.97370147705078,20040911.0,50354.0,-0.07301391582942,0.24207252359561984,0.1935078424306934,-0.0034584815820141225,0.01129640570811584,0.010278663570572949,20.040911782999956
1623,C,1992386761602.0,0.24716187,14.43382993092743,-1.1910329786870282,116,1970-01-01 00:33:12.386761602,0.56355286,0.43643188,0.099365234,9.145162873382855,0.7196791379652385,-97.6114273071289,-7.172146320343018,-86.99615478515625,20091265.0,50354.0,-0.014347616738230002,0.2431355217126198,0.05298286004589339,-0.002199501305455724,0.012216082956725549,0.006205896416253027,20.09126578700011
1623,C,1992437115606.0,-2.8753357,9.991126730927432,-10.271278978687029,116,1970-01-01 00:33:12.437115606,1.4281464,1.4447784,-0.103393555,19.45472909592813,2.0341280668028396,-97.53108978271484,-7.186789512634277,-87.0676498413086,20141619.0,50354.0,-0.06616953251791,0.12147793387551985,-0.28858662815080666,-0.0020271802668218367,0.009179872971342592,-0.005931796069577402,20.14161979100004
1623,C,1992487469610.0,-4.6130676,12.479774230927433,-5.648002978687028,116,1970-01-01 00:33:12.487469610,1.990387,0.63975525,-0.39305115,14.747660699241544,2.127302610393708,-97.4278793334961,-7.2104339599609375,-87.09703063964844,20191973.0,50354.0,-0.1885355298841,0.07228067351661989,-0.4007997618408067,-0.006412709356095405,0.004878260458311902,-0.01735668114081885,20.191973794999967
1623,C,1992537823614.0,-1.4268646,7.719596430927432,-0.17932897868702824,116,1970-01-01 00:33:12.537823614,1.9481964,1.1742249,0.26383972,12.70825539350143,2.28995299659243,-97.3228988647461,-7.2048869132995605,-87.15743255615234,20242327.0,50354.0,-0.1520673729994,0.015090355153519884,-0.14671473669080662,-0.008575359285897881,0.002199740388828109,-0.013784772529530429,20.242327799000122
1623,C,1992588177618.0,-1.6795502,9.721259430927432,2.0955885213129717,116,1970-01-01 00:33:12.588177618,1.8806915,1.2246399,0.5140991,9.837310814507198,2.302399028723099,-97.22077941894531,-7.187138557434082,-87.22193145751953,20292681.0,50354.0,-0.0782102054196,-0.05436077196608013,0.048245666504693384,-0.005797698591855163,-0.0009887112840898293,-0.002479155780075773,20.29268180300005
1623,C,1992638531622.0,1.8866882,9.269965430927432,3.256324621312972,116,1970-01-01 00:33:12.638531622,1.9894104,1.9143219,0.59866333,9.72023178003674,2.825027408563403,-97.10887908935547,-7.16937780380249,-87.32141876220703,20343035.0,50354.0,0.005215113426000001,-0.01532713165308013,0.1347451171918934,-0.0018377974311228672,-0.001754532349419598,0.0046071589611289656,20.34303580699998
1623,C,1992688885626.0,2.2020721,10.217017830927432,3.642600821312972,116,1970-01-01 00:33:12.688885626,1.9391174,1.3710632,0.4824829,8.793944664289366,2.4233820041770984,-97.00299835205078,-7.15385627746582,-87.39295959472656,20393389.0,50354.0,0.10294271807310001,-0.0028454224162801373,0.1736942458689934,0.0027230897236528414,-0.0004575303938042835,0.007765577843783948,20.393389811000134
1623,C,1992739239629.0,0.22483826,11.13811443092743,4.153282021312972,116,1970-01-01 00:33:12.739239629,1.7796478,0.95236206,0.6068115,7.466717653280445,2.1076906751002467,-96.90764617919922,-7.129510879516602,-87.44432067871094,20443743.0,50354.0,0.06110232213372,0.04418896495671984,0.1962769423287934,0.004130161977287107,0.0010409063705406505,0.009314764605255679,20.443743814000072
1623,C,1992789593633.0,1.8360596,10.009223430927431,3.849525321312972,116,1970-01-01 00:33:12.789593633,1.6056824,1.1039429,0.8465271,8.811847308684976,2.1245032424462384,-96.81986999511719,-7.094078063964844,-87.50463104248047,20494097.0,50354.0,0.05188722542122,0.03895732534791981,0.20148668046529342,0.0028447378387907248,0.002093374150999913,0.010014494731086725,20.494097818
1623,C,1992839947637.0,2.3353424,8.656089430927432,4.540901021312973,116,1970-01-01 00:33:12.839947637,1.3777466,0.18667603,0.53593445,9.937294992197915,1.4900534784647574,-96.74945831298828,-7.068575859069824,-87.51716613769531,20544451.0,50354.0,0.10502338815400002,-0.023532618077080146,0.21124576402829343,0.003950538517983314,0.0003883478549579303,0.010391364755015035,20.544451821999928
1623,C,1992890301641.0,-0.2565918,8.738471430927431,5.190498221312972,116,1970-01-01 00:33:12.890301641,1.1693878,-0.2866516,0.17936707,9.419847692694564,1.2172959838805781,-96.69261169433594,-7.057990550994873,-87.50387573242188,20594805.0,50354.0,0.05233670385620001,-0.055526341181080144,0.2450074387315934,0.003961855036540806,-0.0019904674172427014,0.011487086885885671,20.594805826000083
1623,C,1992940655645.0,0.10939026,8.535575430927432,5.310829021312972,116,1970-01-01 00:33:12.940655645,0.8227997,-0.12728882,0.20762634,9.589870325176605,0.858085361184351,-96.7784194946289,-6.887825012207031,-87.48333740234375,20645159.0,50354.0,-0.0037060931725799995,-0.05856052215908015,0.26439191598759343,0.001224372885181501,-0.002872364958315216,0.012825147553764968,20.64515983000001
1623,C,1992991009649.0,0.6399994,8.984412430927431,4.753608521312972,116,1970-01-01 00:33:12.991009649,0.65986633,-0.27944946,0.27574158,9.30679124835932,0.7678209381769012,-96.96876525878906,-6.8008856773376465,-87.44452667236328,20695513.0,50354.0,0.01886738346982,-0.05236846560208014,0.2533923440106934,0.0003817158058136115,-0.0027928591248627325,0.013036254313976868,20.69551383399994
1623,C,1993041363653.0,1.3285522,6.890495430927432,4.483406021312972,116,1970-01-01 00:33:13.041363653,0.70674133,0.10424805,0.16137695,11.455331945147893,0.7323888881258875,-97.11090850830078,-6.791275978088379,-87.42963409423828,20745867.0,50354.0,0.0495622236332,-0.09378664476208015,0.2325603151396934,0.0017228522180327346,-0.003679747213638464,0.012234830099429288,20.745867838000095
1623,C,1993091717657.0,3.7785187,4.425559430927432,7.069160321312972,116,1970-01-01 00:33:13.091717657,0.13960266,-0.15544128,0.038467407,14.019616375172403,0.21243972229415486,-97.10481262207031,-6.788409233093262,-87.42210388183594,20796221.0,50354.0,0.12858072404930002,-0.20856488674308013,0.29085896280829343,0.004485104993802304,-0.00761230450870542,0.013178127160896464,20.796221842000023
1623,C,1993142071661.0,-4.218918,0.8240124309274321,7.067024091312972,116,1970-01-01 00:33:13.142071661,0.037521362,-0.094680786,-0.03842163,17.61482087277455,0.10885093245245876,-97.1035385131836,-6.789730072021484,-87.41715240478516,20846575.0,50354.0,-0.011087933176100016,-0.36130072923408013,0.3559067149566834,0.0029581159958145566,-0.014347506613456964,0.016283619469088823,20.84657584599995
1623,C,1993192425665.0,-0.43896484,5.477973430927431,4.443260021312972,116,1970-01-01 00:33:13.192425665,-0.7075653,-0.05076599,0.38034058,12.768908728861728,0.8049129122454841,-97.13893127441406,-6.770543098449707,-87.41698455810547,20896929.0,50354.0,-0.11727151626268001,-0.3348041019560802,0.28979442310358344,-0.0032317058585201648,-0.01752583133487467,0.01625681755294334,20.896929850000106
1623,C,1993242779668.0,0.55926514,4.121284430927432,1.2377850213129724,116,1970-01-01 00:33:13.242779668,-1.8391418,-0.2866211,0.09480286,15.06979989540021,1.8637547579380258,-97.23249816894531,-6.7640485763549805,-87.40325164794922,20947283.0,50354.0,0.003028800653100001,-0.25178868481208017,0.14303167103819342,-0.002876288850902396,-0.014768646592461975,0.010897262572207517,20.947283853000044
1623,C,1993293133672.0,2.3974457,5.691184430927432,5.849906821312972,116,1970-01-01 00:33:13.293133672,-3.384735,0.12849426,-0.3522339,12.545841078265065,3.405438373453139,-97.38477325439453,-6.8885626792907715,-87.40922546386719,20997637.0,50354.0,0.07444110881868,-0.24642067146508015,0.17844681752179342,0.0019504599107710054,-0.012543416962990066,0.008093863906474789,20.997637856999972
1623,C,1993343487676.0,1.5101013,8.516608430927432,6.894615021312972,116,1970-01-01 00:33:13.343487676,-1.6776123,-0.46498108,-1.5967865,9.535803277405982,2.3622695782766847,-97.34422302246094,-7.0210137367248535,-87.39111328125,21047991.0,50354.0,0.098380310819,-0.13575959911708013,0.3208688264317934,0.0043511248822178696,-0.009622152672447051,0.012571269967819456,21.047991861000128
1623,C,1993393841680.0,-0.9627075,10.081626430927432,3.896873321312972,116,1970-01-01 00:33:13.393841680,-3.2411804,-2.498703,-1.2907104,8.587363271577635,4.291235300495805,-97.52262115478516,-7.068845748901367,-87.25788116455078,21098345.0,50354.0,0.013781733702600002,-0.025221440883080114,0.27169730200229336,0.0028239037949203236,-0.004053019644084035,0.014919037415585003,21.098345865000056
1623,C,1993444195684.0,-0.3001709,13.337196030927432,5.448890521312972,116,1970-01-01 00:33:13.444195684,-2.6637726,-2.2506256,-0.8278198,4.940764099228197,3.5841715468373105,-97.67034149169922,-7.094995021820068,-87.13996124267578,21148699.0,50354.0,-0.0317954894768,0.09614649312211988,0.2352982962657934,-0.0004535323291270333,0.0017856800402223046,0.01276462817759562,21.148699868999984
1623,C,1993494549688.0,-1.2785339,12.409476930927433,4.435600021312972,116,1970-01-01 00:33:13.494549688,-2.6037903,-1.370224,-0.21704102,6.3262707549424775,2.9503126174886503,-97.80917358398438,-7.096522808074951,-87.07008361816406,21199053.0,50354.0,-0.039747050749600006,0.15475478516061988,0.2488618183916934,-0.0018012265352800728,0.00631694148332454,0.012189699206731547,21.19905387300014
1623,C,1993544903692.0,-0.7329407,12.579459830927432,3.8569258213129722,116,1970-01-01 00:33:13.544903692,-1.7786865,-1.0117188,-0.07873535,6.378029611108597,2.047803665124006,-97.9044189453125,-7.093506813049316,-87.01905059814453,21249407.0,50354.0,-0.05064289600420001,0.1356772608532199,0.2087809231397934,-0.0022757476894204234,0.007312207622490444,0.011522071303538245,21.249407877000067
1623,C,1993595257696.0,-2.0264282,14.07085393092743,2.616645621312972,116,1970-01-01 00:33:13.595257696,-0.5655823,-0.01322937,0.06048584,6.364155075520603,0.56896123870119,-97.9327163696289,-7.090421676635742,-87.018798828125,21299761.0,50354.0,-0.0694726307953,0.1775057495822199,0.1629851082109934,-0.003024148618231012,0.007885008653733068,0.00935995337131876,21.299761880999995
1623,C,1993645611700.0,-0.99328613,15.303336830927432,0.1323775213129723,116,1970-01-01 00:33:13.645611700,0.64663696,0.3431549,0.16003418,7.657212924909414,0.7493367615433825,-97.89813232421875,-7.084858417510986,-87.03703308105469,21350115.0,50354.0,-0.07602734768641,0.24608480081121983,0.0692121556618934,-0.003663252958234012,0.010664739287255634,0.005846030512527672,21.350115884999923
1623,C,1993695965704.0,1.7559052,12.71039543092743,-1.0928579786870287,116,1970-01-01 00:33:13.695965704,0.7440491,0.7826843,0.033691406,10.000544520299085,1.080434582709919,-97.85608673095703,-7.088559627532959,-87.07633209228516,21400469.0,50354.0,0.01920046032539,0.21183253715671985,-0.02418201647530662,-0.0014307305430884005,0.011528984818018817,0.0011337238143006953,21.400469889000078
1623,C,1993746319708.0,4.5586853,-0.25382256907256817,1.4126510213129722,116,1970-01-01 00:33:13.746319708,0.30711365,0.047698975,-0.18772888,19.63212959616384,0.36309243811793646,-97.8405990600586,-7.098183631896973,-87.07742309570312,21450823.0,50354.0,0.1589824450185,-0.17985006505708018,0.008051429434193378,0.004486111007843119,0.000805222700052628,-0.0004061197899341081,21.450823893000006
1623,C,1993796673711.0,-4.146652,13.05355043092743,3.931404021312972,116,1970-01-01 00:33:13.796673711,1.7003174,1.1260071,-0.069488525,7.210540124988835,2.040539121188282,-97.74867248535156,-7.109256744384766,-87.13314819335938,21501177.0,50354.0,0.010373762394100003,-0.17121045162208018,0.13454727380819342,0.004263881234027031,-0.008838650628431222,0.0035902075515335725,21.501177895999945
1623,C,1993847027715.0,1.5610962,6.043327430927432,1.1624525213129724,116,1970-01-01 00:33:13.847027715,1.6159668,1.227768,0.5721283,13.44496598827244,2.1085762381728412,-97.65982818603516,-7.089139461517334,-87.19832611083984,21551531.0,50354.0,-0.0650965383766,-0.012667106072080169,0.1282480261736934,-0.0013777553309114025,-0.004629485270065875,0.006616397267643966,21.5515319000001
1623,C,1993897381719.0,0.53726196,10.407432430927432,3.784095621312972,116,1970-01-01 00:33:13.897381719,1.811615,1.7453156,0.4963684,8.298839169018592,2.564070404717257,-97.55809020996094,-7.076095104217529,-87.2887954711914,21601885.0,50354.0,0.052830363394320005,-0.07928841895808011,0.12453924258689342,-0.00030882548752886335,-0.002315164253684346,0.006364425065585295,21.601885904000028
1623,C,1993947735723.0,2.7831726,8.245216430927432,3.335288821312972,116,1970-01-01 00:33:13.947735723,1.923996,1.6019135,0.64430237,10.808902447053383,2.585152415910108,-97.45152282714844,-7.054615020751953,-87.373046875,21652239.0,50354.0,0.08359858091712,-0.023851459605080127,0.1792447421119934,0.0034348715309291252,-0.0025967527225846856,0.007648369382763873,21.652239907999956
1623,C,1993998089727.0,0.88568115,11.092841830927432,4.081870921312972,116,1970-01-01 00:33:13.998089727,1.8681335,1.1062622,0.547287,7.586226503465573,2.2390314623381444,-97.35089874267578,-7.034603595733643,-87.4318618774414,21702593.0,50354.0,0.09237073086375,-0.006594907141280143,0.1867418308400934,0.004430379362706964,-0.0007665481755731125,0.00921444394721469,21.70259391200011
1623,C,1994048443731.0,1.1118774,10.899528430927433,4.838767821312972,116,1970-01-01 00:33:14.048443731,1.7927246,1.1488495,0.6978607,7.513097528442845,2.240697708683592,-97.25372314453125,-7.007294654846191,-87.4937515258789,21752947.0,50354.0,0.050292531613350004,0.06023270608271988,0.22459492162309339,0.003591832959385947,0.0013504388639486284,0.010356225416765655,21.75294791600004
1623,C,1994098797735.0,1.6044006,9.040321430927431,4.422813321312972,116,1970-01-01 00:33:14.098797735,1.3784027,0.44354248,0.7245178,9.463112210650557,1.6191510051408673,-97.18153381347656,-6.974143981933594,-87.52049255371094,21803301.0,50354.0,0.068387731206,0.008556399971919867,0.23317882842789342,0.0029880129770027755,0.0017319033231376652,0.011525369705033695,21.803301919999967
1623,C,1994149151739.0,0.73083496,9.126334430927432,5.381217821312972,116,1970-01-01 00:33:14.149151739,1.2768402,0.024215698,0.25431824,9.02628147689631,1.3021463295507019,-97.23917388916016,-6.904066562652588,-87.50855255126953,21853655.0,50354.0,0.05879422569412,-0.03608730536608014,0.24683609207789342,0.003202060128874322,-0.0006931456051087732,0.012085335653574197,21.853655924000122
1623,C,1994199505743.0,0.18803406,8.670509430927432,5.197547721312972,116,1970-01-01 00:33:14.199505743,0.9290314,0.045822144,0.20198059,9.482997834369307,0.9518377854463779,-97.3258056640625,-6.751114368438721,-87.49617767333984,21904009.0,50354.0,0.023134365316540003,-0.04539806209008013,0.26634158006669345,0.0020627161358753874,-0.002051557096443747,0.012920274251584265,21.90400992800005
1623,C,1994249859747.0,1.254837,8.121970430927432,4.604057121312972,116,1970-01-01 00:33:14.249859747,0.7164459,-0.019119263,0.2821045,10.233190431384593,0.77022283968,-97.48470306396484,-6.745835781097412,-87.47413635253906,21954363.0,50354.0,0.03632716467762,-0.07068493451808015,0.24677500512279343,0.0014970629406629665,-0.0029226216056036517,0.012918736265315712,21.95436393199998
1623,C,1994300213751.0,1.0733795,6.601875430927432,5.428199621312972,116,1970-01-01 00:33:14.300213751,0.71536255,0.113861084,0.14588928,11.520184253341707,0.7389124484071682,-97.4906005859375,-6.704429626464844,-87.47578430175781,22004717.0,50354.0,0.0586175068205,-0.12276693273608014,0.2525821280090934,0.0023904219943081673,-0.004870537661857994,0.012572314540861516,22.004717936000134
1623,C,1994350567754.0,1.3605042,2.1604074309274317,5.854179221312972,116,1970-01-01 00:33:14.350567754,0.2931366,0.0791626,0.09220886,15.885401520088715,0.3173298872794991,-97.41519927978516,-6.655739784240723,-87.48735046386719,22055071.0,50354.0,0.061277889914900005,-0.27286120438708017,0.2840564521207934,0.003018606403607166,-0.009960729608349808,0.01351094953193016,22.055071939000072
1623,C,1994400921758.0,-2.4137573,1.8449014309274325,6.126716421312972,116,1970-01-01 00:33:14.400921758,-0.39826965,0.077560425,0.08013916,16.29962039080961,0.4135899159829803,-97.4345932006836,-6.652265548706055,-87.49173736572266,22105425.0,50354.0,-0.026517753298699997,-0.39262753878508017,0.3016430095943934,0.0008751559595860676,-0.016755010086845483,0.014746155347603257,22.105425943
1623,C,1994451275762.0,0.54048157,5.585563430927431,3.3128126213129723,116,1970-01-01 00:33:14.451275762,-1.2769318,0.1566925,0.23703003,12.966076611305835,1.3081630619037106,-97.49736022949219,-6.641532897949219,-87.50111389160156,22155779.0,50354.0,-0.04716346305421,-0.3063923861730802,0.2376590227061934,-0.0018550719841172153,-0.017599224650671604,0.013578007267231875,22.155779946999928
1623,C,1994501629766.0,2.852066,5.338828430927432,3.087287721312972,116,1970-01-01 00:33:14.501629766,-2.4056396,-0.004043579,-0.28927612,13.5625086837727,2.4229731548701783,-97.61788940429688,-6.6558427810668945,-87.4990005493164,22206133.0,50354.0,0.08541417016989,-0.21842578609408017,0.1611353263262934,0.0009630380530514755,-0.013213347123170295,0.01004044532559092,22.206133951000083
1623,C,1994551983770.0,3.5182495,5.858894430927432,7.671272121312972,116,1970-01-01 00:33:14.551983770,-2.985321,0.29400635,-1.1893005,12.575436339989896,3.2269206507414423,-97.76638793945312,-6.716743469238281,-87.50566101074219,22256487.0,50354.0,0.16038543334350003,-0.21154413150708015,0.2708682611577934,0.006188496617656621,-0.010825352615444414,0.010876554322086854,22.25648795500001
1623,C,1994602337774.0,-0.18840027,8.408485430927431,5.1899184213129725,116,1970-01-01 00:33:14.602337774,-2.5220795,-1.9961243,-1.5291138,9.740501684827677,3.561402285437743,-98.01815032958984,-6.584235668182373,-87.38277435302734,22306841.0,50354.0,0.08383561406371001,-0.13425937721808015,0.32380619429169344,0.006148753310571327,-0.008706294939173362,0.01497211876485173,22.30684195899994
1623,C,1994652691778.0,-1.190155,11.52391783092743,4.809974521312972,116,1970-01-01 00:33:14.652691778,-3.0188293,-2.7874298,-1.2198181,6.955823644081282,4.286146454515308,-98.1860580444336,-6.624973297119141,-87.2352294921875,22357195.0,50354.0,-0.03470788603279001,0.008368916923719829,0.25176730461649344,0.001236888808634473,-0.00316954411883111,0.014491213982011421,22.357195963000095
1623,C,1994703045782.0,-0.20826721,12.509742430927432,4.0514600213129714,116,1970-01-01 00:33:14.703045782,-2.7415466,-1.8522034,-0.6201782,6.296848341689927,3.3662079844683337,-98.33431243896484,-6.642361640930176,-87.13846588134766,22407549.0,50354.0,-0.035208075981170005,0.11162626441271985,0.22310433747969338,-0.0017602741756254712,0.003021118680507542,0.011955843333055697,22.407549967000023
1623,C,1994753399786.0,-0.72047424,13.493491830927432,4.4054182213129724,116,1970-01-01 00:33:14.753399786,-2.0503082,-1.2140503,-0.14868164,5.319259808189818,2.3874228942502875,-98.4439468383789,-6.640860557556152,-87.07691955566406,22457903.0,50354.0,-0.023382923486650005,0.16121422901071988,0.2129188235145934,-0.0014751455936013044,0.006869305102921943,0.010977755124353158,22.45790397099995
1623,C,1994803753790.0,-0.5355072,13.957938830927432,4.2088087213129715,116,1970-01-01 00:33:14.803753790,-1.0320892,-0.7092285,-0.064071655,5.032072228998893,1.2539211932746528,-98.49968719482422,-6.638801574707031,-87.04112243652344,22508257.0,50354.0,-0.03162184471488,0.1976754697735199,0.2168803917344934,-0.001384855049009921,0.009035765946290807,0.01082105484232626,22.508257975000106
1623,C,1994854107793.0,-0.827713,14.831657130927432,1.502296321312972,116,1970-01-01 00:33:14.854107793,0.13110352,0.042007446,-0.0566864,6.5864312097438305,0.1488828614071926,-98.49295043945312,-6.6419148445129395,-87.04280853271484,22558611.0,50354.0,-0.0343217949754,0.2313664575316199,0.14378849165819338,-0.0016602630164821797,0.010801988603761505,0.009080560477177676,22.558611978000044
1623,C,1994904461797.0,-0.80229187,13.129173030927433,-4.3157429786870285,116,1970-01-01 00:33:14.904461797,0.72102356,0.6542053,0.021972656,12.553608493224834,0.9738287047704324,-98.4531021118164,-6.645647048950195,-87.0755386352539,22608965.0,50354.0,-0.041038632611990006,0.21050062098501993,-0.07083414649270663,-0.0018973494853677182,0.011124887435813443,0.00183677154823146,22.608965981999972
1623,C,1994954815801.0,-1.1012878,9.997901430927431,-7.477363978687029,116,1970-01-01 00:33:14.954815801,0.9750824,0.79563904,0.07055664,16.76843177632762,1.2604782458297212,-98.39971160888672,-6.6479902267456055,-87.11568450927734,22659319.0,50354.0,-0.04792642535159,0.08880115372611988,-0.29691505386580663,-0.002239873264349054,0.007535520781902368,-0.00925882161742629,22.659319986000128
1623,C,1995005169805.0,-0.7654114,10.577613430927432,-1.6103439786870286,116,1970-01-01 00:33:15.005169805,1.5256195,0.7843628,-0.0055389404,11.541941271884854,1.7154505357674539,-98.31890106201172,-6.653964042663574,-87.15470123291016,22709673.0,50354.0,-0.0469978857584,0.024560537676919854,-0.22880122324280666,-0.0023899093808162184,0.0028541073044543314,-0.013235958708763556,22.709673990000056
1623,C,1995055523809.0,-0.4800415,9.488090430927432,0.9324873213129719,116,1970-01-01 00:33:15.055523809,1.9271545,1.335144,0.19165039,10.555742214362898,2.3522890637830636,-98.21467590332031,-6.654079437255859,-87.22259521484375,22760027.0,50354.0,-0.031356767663300006,0.011725026129919875,-0.01706639706270663,-0.001972735109198141,0.0009135616399648038,-0.006190209076431909,22.760027993999984
1623,C,1995105877813.0,0.58239746,9.422767430927431,2.4805983213129723,116,1970-01-01 00:33:15.105877813,1.9577789,1.4713593,0.49028015,9.769892021181695,2.497633086837561,-98.10789489746094,-6.640254020690918,-87.2994155883789,22810381.0,50354.0,0.0025770160049200007,-0.01735053161208015,0.0859312572243934,-0.0007245878075030335,-0.00014163335152434924,0.001733810584290788,22.81038199800014
1623,C,1995156231817.0,1.6369171,8.939872430927432,4.083473021312972,116,1970-01-01 00:33:15.156231817,1.9772491,1.7961578,0.6624298,9.669031224085348,2.7521827856956906,-97.9981460571289,-6.620041370391846,-87.39360809326172,22860736.0,50355.0,0.055876792334399995,-0.031153634878149226,0.1652669062289647,0.0014717207594632292,-0.00122121365180775,0.006324541760346923,22.860736002000067
1623,C,1995206585821.0,2.2017365,9.975669430927432,4.134223821312972,116,1970-01-01 00:33:15.206585821,1.956192,1.2355194,0.6811218,8.82031008956874,2.4118711066463727,-97.89271545410156,-6.594851493835449,-87.4599380493164,22911090.0,50354.0,0.0966457816872,-0.017232602544080124,0.2068969534067934,0.0038400608461418234,-0.0012182202995794683,0.009369969494049482,22.911090005999995
1623,C,1995256939825.0,1.4253235,11.484229730927431,4.308692821312972,116,1970-01-01 00:33:15.256939825,1.8802338,1.0837402,0.6877136,7.225904782318293,2.276559236959021,-97.7919692993164,-6.568176746368408,-87.5186996459961,22961444.0,50354.0,0.09131848962000001,0.04682668119801987,0.2125673123113934,0.004732376458701375,0.000745090118270241,0.010560851817986789,22.961444009999923
1623,C,1995307293829.0,2.3726196,9.64682743092743,4.780357221312972,116,1970-01-01 00:33:15.307293829,1.6215973,0.5329132,0.6231842,8.960846593341872,1.817122128320265,-97.7073745727539,-6.540895938873291,-87.54950714111328,23011798.0,50354.0,0.09562081342870002,0.03854742616401983,0.22883501292319341,0.004706570832857121,0.0021494639010540737,0.011113186342431192,23.011798014000078
1623,C,1995357647833.0,1.4325714,8.485145430927432,5.119163321312972,116,1970-01-01 00:33:15.357647833,1.2298889,-0.2362976,0.32133484,9.784609195152724,1.2929498603993874,-97.7727279663086,-6.570950508117676,-87.52554321289062,23062152.0,50354.0,0.095803293807,-0.03696051925708017,0.24924022870169338,0.00481948474787322,3.9953555196019856e-05,0.012036500358389775,23.062152018000006
1623,C,1995408001836.0,-0.19589233,8.43480643092743,5.2708967213129725,116,1970-01-01 00:33:15.408001836,0.8872833,-0.23999023,0.1525116,9.698020941595473,0.931733198447336,-97.83143615722656,-6.369548320770264,-87.50306701660156,23112506.0,50354.0,0.031135868945390003,-0.06747557197408018,0.2615905416931934,0.0031959473006169235,-0.002629387468926924,0.012861186306232066,23.112506020999945
1623,C,1995458355840.0,0.6335907,7.733253430927432,4.969657721312972,116,1970-01-01 00:33:15.458355840,0.5699463,-0.12055969,0.20994568,10.464729198164346,0.6192338914233042,-97.92437744140625,-6.286444664001465,-87.48513793945312,23162860.0,50354.0,0.01101993186149,-0.08640595685808017,0.25782643920199344,0.0010613565969148178,-0.0038742752514073007,0.01307736132799812,23.1628600250001
1623,C,1995508709844.0,0.8994293,6.824195430927432,5.5956496213129725,116,1970-01-01 00:33:15.508709844,0.6369629,-0.00048828125,0.25,11.260614293200014,0.6842674728459545,-97.90718078613281,-6.231448173522949,-87.48521423339844,23213214.0,50354.0,0.03859684454,-0.12695631000508015,0.2660027429652934,0.0012492015794603138,-0.005371821792813787,0.013188447319425783,23.213214029000028
1623,C,1995559063848.0,1.0865784,3.537208430927432,6.917167521312972,116,1970-01-01 00:33:15.559063848,0.33831787,0.06098938,0.26504517,14.43285626669918,0.4340825126337736,-97.72583770751953,-6.171879768371582,-87.50778198242188,23263568.0,50354.0,0.050001715862900004,-0.23260013497008014,0.3150351971998934,0.0022306459552638136,-0.00905255261513961,0.01462879221953891,23.263568032999956
1623,C,1995609417852.0,0.42279053,3.4444654309274316,5.5716933213129725,116,1970-01-01 00:33:15.609417852,-0.53152466,0.15031433,0.18434143,14.584578530733241,0.5823183191398922,-97.72425079345703,-6.051132678985596,-87.51945495605469,23313922.0,50354.0,0.03800138155061,-0.31769159718008017,0.3144320494347934,0.0022156539835799416,-0.013854694940344588,0.015848096868521514,23.31392203700011
1623,C,1995659771856.0,0.24499512,5.329704430927432,3.2239910213129717,116,1970-01-01 00:33:15.659771856,-1.4541931,0.29051208,0.02192688,13.227832815908009,1.4830898923464046,-97.79541778564453,-6.052011489868164,-87.53407287597656,23364276.0,50354.0,0.016812839310050003,-0.27256192538808016,0.22144894469429338,0.001380057638608837,-0.014860812937698573,0.013491875789188017,23.36427604100004
1623,C,1995710125860.0,1.8093414,4.913490430927432,4.432380521312972,116,1970-01-01 00:33:15.710125860,-2.7586212,0.2715149,-0.58110046,13.437202443098608,2.832205679434963,-98.04325866699219,-6.125245094299316,-87.53179168701172,23414630.0,50354.0,0.051722030564040004,-0.23557628296308014,0.19276446632869337,0.0017255024188199642,-0.012793395671657163,0.010428651049325739,23.414630044999967
1623,C,1995760479864.0,0.2987671,6.913429430927431,5.812248121312972,116,1970-01-01 00:33:15.760479864,-2.7646484,-0.1878357,-1.2674103,11.110147424664031,3.0471120580581115,-98.16924285888672,-6.072181224822998,-87.51508331298828,23464984.0,50354.0,0.05307584770450001,-0.19570283863808016,0.2579290153353934,0.002638496181167032,-0.010858314444552415,0.011347109787856713,23.464984049000122
1623,C,1995810833868.0,-2.8914032,10.274909730927432,5.288947921312972,116,1970-01-01 00:33:15.810833868,-2.8448029,-1.8096924,-0.9070587,8.41200832461504,3.491510505169913,-98.32173156738281,-6.104087829589844,-87.41848754882812,23515338.0,50354.0,-0.0652747990897,-0.06071838492198016,0.2794948127651934,-0.00030713299902518034,-0.006455917145571638,0.013530719720088473,23.51533805300005
1623,C,1995861187872.0,-0.41932678,10.976173130927432,4.090339521312972,116,1970-01-01 00:33:15.861187872,-3.231598,-1.9389038,-0.32514954,7.648290115208124,3.782630804429723,-98.49382019042969,-6.105997085571289,-87.31964874267578,23565692.0,50354.0,-0.08335424870646001,0.04156931321291986,0.23614231994299342,-0.003742033536363921,-0.0004821161784190112,0.012982196090194019,23.56569205699998
1623,C,1995911541876.0,0.86125183,12.304008430927432,3.6724470213129723,116,1970-01-01 00:33:15.911541876,-2.7125244,-0.8910675,-0.002822876,6.722606706702643,2.8551353520946288,-98.6341552734375,-6.099503993988037,-87.27532196044922,23616046.0,50354.0,0.011126346983850002,0.09265593118281988,0.19544367678369343,-0.0018184818816701523,0.0033793889781515395,0.010866040639587795,23.616046061000134
1623,C,1995961895879.0,-0.8352356,13.845451030927432,4.160469021312972,116,1970-01-01 00:33:15.961895879,-1.8135681,-0.6168976,0.26802063,5.189882678187198,1.9342768572076146,-98.72787475585938,-6.081601619720459,-87.24668884277344,23666400.0,50354.0,0.0006550106227100022,0.16489574087111988,0.1972093272051934,0.00029661924046036123,0.006484378447302042,0.009885824681428203,23.666400064000072
1623,C,1996012249883.0,-0.6150055,14.808646830927431,3.095924021312972,116,1970-01-01 00:33:16.012249883,-0.6516266,0.030960083,0.31300354,5.235668068390548,0.7235654556565415,-98.76004028320312,-6.066367149353027,-87.25061798095703,23716754.0,50354.0,-0.0365127201747,0.22795502186791983,0.1826942076341934,-0.0009027895533904524,0.009890803653480804,0.009564831296651241,23.716754068
1623,C,1996062603887.0,0.1301117,15.540488930927431,-0.34664167868702833,116,1970-01-01 00:33:16.062603887,0.26197815,0.63414,0.2169342,7.970691829985553,0.7196016521708817,-98.74343872070312,-6.060473918914795,-87.2837905883789,23767108.0,50354.0,-0.0122081712026,0.2706309910762199,0.06921868154029338,-0.0012266458822062822,0.012552900047894607,0.006342410810746054,23.767108071999928
1623,C,1996112957891.0,-1.802124,12.284751430927432,-5.290275978687028,116,1970-01-01 00:33:16.112957891,1.001709,1.1822205,0.12548828,13.875053322795734,1.554610414129086,-98.68705749511719,-6.063228130340576,-87.343505859375,23817462.0,50354.0,-0.0420962536771,0.20708687659041988,-0.1419206758597066,-0.0013672225051962069,0.012027502754242992,-0.001830418110979867,23.817462076000083
1623,C,1996163311895.0,-1.7183685,10.183021430927433,-2.3092419786870284,116,1970-01-01 00:33:16.163311895,1.1949005,0.8127289,0.04560852,12.42666371160905,1.4458200465106472,-98.62300109863281,-6.0670881271362305,-87.38423919677734,23867816.0,50354.0,-0.08863543967250001,0.0722019173429199,-0.1913330636128066,-0.0032914318434628794,0.007031653964859696,-0.008390329398699466,23.86781608000001
1623,C,1996213665899.0,-1.2436371,9.76677643092743,2.431663321312972,116,1970-01-01 00:33:16.213665899,1.5987701,1.0979156,0.40766907,9.560166726125372,1.9818371699037325,-98.53697967529297,-6.055126667022705,-87.44188690185547,23918170.0,50354.0,-0.0745744149912,0.008806860767919858,0.0030822021432933854,-0.004109134510867976,0.0020395580064966126,-0.004739591939217935,23.91817008399994
1623,C,1996264019903.0,-0.37236023,9.047034930927431,2.2517010213129725,116,1970-01-01 00:33:16.264019903,1.8237152,1.5570068,0.5017853,10.199020660270175,2.44989709850299,-98.43724060058594,-6.0417985916137695,-87.52303314208984,23968524.0,50354.0,-0.04068596477741,-0.019793871342580177,0.11791306405429341,-0.002901910581434294,-0.0002766199652382229,0.003046297817056643,23.968524088000095
1623,C,1996314373907.0,0.8609314,9.513480430927432,2.4071120213129724,116,1970-01-01 00:33:16.314373907,1.795929,1.9447784,0.42160034,9.748129354812027,2.680535551869379,-98.3369369506836,-6.035125732421875,-87.62285614013672,24018878.0,50354.0,0.01230075634709,-0.02617110473458015,0.11729493597419342,-0.0007146543926501667,-0.0011572602026946655,0.005921831816717214,24.018878092000023
1623,C,1996364727911.0,1.8370056,9.43964343092743,3.055702021312972,116,1970-01-01 00:33:16.364727911,1.7750397,1.6710358,0.55667114,9.645485278909318,2.5006017954817654,-98.2390365600586,-6.01962947845459,-87.71002960205078,24069232.0,50354.0,0.067925959849,-0.016286400530080156,0.1375372691511934,0.0020198680336689584,-0.0010689526100483525,0.006415910428441865,24.06923209599995
1623,C,1996415081915.0,1.3921051,9.927634930927432,3.7210310213129723,116,1970-01-01 00:33:16.415081915,1.7271118,1.1482239,0.628479,8.854730662390486,2.1670992473053583,-98.146240234375,-5.996711730957031,-87.77167510986328,24119586.0,50354.0,0.0812993200939,-0.005859232683580146,0.1706178078141934,0.0037570448731223936,-0.0005575606074203254,0.007758420372757544,24.119586100000106
1623,C,1996465435918.0,1.2447815,10.767860130927431,3.750999321312972,116,1970-01-01 00:33:16.465435918,1.6840668,0.9621277,0.6673889,8.066806916828048,2.051140814720613,-98.05654907226562,-5.970451354980469,-87.82428741455078,24169940.0,50354.0,0.06638889392820001,0.027581279172319867,0.1881233079362934,0.003718346164434412,0.000546895964447,0.009032025071250007,24.169940103000044
1623,C,1996515789922.0,1.7646332,8.99480443092743,4.272209021312972,116,1970-01-01 00:33:16.515789922,1.5916901,0.67985535,0.5436096,9.580074963872425,1.8141642893006666,-97.97306060791016,-5.948278427124023,-87.86194610595703,24220294.0,50354.0,0.0757680339019,0.00409540567381983,0.2020003164422934,0.003579084971978428,0.0007975238943712592,0.009822142490979681,24.220294106999972
1623,C,1996566143926.0,0.91781616,8.749839430927432,4.894935421312972,116,1970-01-01 00:33:16.566143926,1.2480011,-0.17370605,0.32902527,9.518969517019187,1.3022819071561984,-98.07279205322266,-5.92132043838501,-87.83887481689453,24270648.0,50354.0,0.06753602753672,-0.046712301490080155,0.2308011956319934,0.0036079663548401362,-0.0010729655859659862,0.010896643669494319,24.270648111000128
1623,C,1996616497930.0,0.52134705,9.36261743092743,6.0063856213129725,116,1970-01-01 00:33:16.616497930,1.0431976,0.03843689,0.1563263,8.669121177194427,1.0555456121032014,-98.02642822265625,-5.852035045623779,-87.84123229980469,24321002.0,50354.0,0.03623381213817,-0.037451873589080156,0.2744625598901934,0.002612613253494706,-0.002119001435968019,0.012721025572782098,24.321002115000056
1623,C,1996666851934.0,0.7786102,8.432517430927431,4.8890150213129715,116,1970-01-01 00:33:16.666851934,0.80336,-0.20639038,0.1542511,9.81459838263472,0.843669177111357,-98.13685607910156,-5.811182022094727,-87.81683349609375,24371356.0,50354.0,0.03272902368325,-0.04544108958308017,0.2743135019793934,0.0017362773174758915,-0.0020869961337854808,0.013816534909690589,24.371356118999984
1623,C,1996717205938.0,0.9606323,8.414985430927432,5.039192021312973,116,1970-01-01 00:33:16.717205938,0.74342346,-0.011413574,0.1878357,9.812600624804837,0.7668708892273296,-98.22437286376953,-5.797516822814941,-87.80496978759766,24421710.0,50354.0,0.0437889084225,-0.06929962044708014,0.2499624687121934,0.0019264919766264679,-0.0028888268564293464,0.013199696114102082,24.42171012300014
1623,C,1996767559942.0,1.357666,6.069495430927432,5.113655021312972,116,1970-01-01 00:33:16.767559942,0.8022003,0.25357056,0.20256042,12.124176029669314,0.8653635501737867,-98.23345184326172,-5.805197238922119,-87.81391906738281,24472064.0,50354.0,0.0583677962991,-0.12879342534108013,0.2556182299921934,0.0025719993547757233,-0.0049873886138085115,0.012729005251280347,24.472064127000067
1623,C,1996817913946.0,4.471527,3.6739274309274315,7.456855631312972,116,1970-01-01 00:33:16.817913946,0.10586548,-0.14082336,0.14355469,14.937511503456312,0.22725903194002237,-98.228759765625,-5.797086238861084,-87.80795288085938,24522418.0,50354.0,0.14676159216100002,-0.24815904260708013,0.3164877467011634,0.005164542613259938,-0.009490532285530833,0.014403912175208646,24.522418130999995
1623,C,1996868267950.0,-0.4052887,3.944862430927431,4.860938921312972,116,1970-01-01 00:33:16.868267950,-0.50494385,-0.68507385,0.04335022,14.189990628777071,0.8521582676831184,-98.29502868652344,-5.604743957519531,-87.7705078125,24572772.0,50354.0,0.10237568167910001,-0.30165092764808016,0.31012511345146343,0.006272529143472199,-0.013842565621114172,0.015776231980062685,24.572772134999923
1623,C,1996918621954.0,2.6983185,5.240150430927432,2.3889387213129725,116,1970-01-01 00:33:16.918621954,-1.7237549,-0.67588806,0.13424683,13.85260779147423,1.8563883850879972,-98.3843994140625,-5.593198776245117,-87.73787689208984,24623126.0,50354.0,0.05773161127460001,-0.26221813117708015,0.1825301694083934,0.0040310213146953055,-0.01419653129404106,0.012403582056562616,24.623126139000078
1623,C,1996968975958.0,3.1671143,4.534721430927432,4.7623060213129715,116,1970-01-01 00:33:16.968975958,-3.081894,-0.79167175,-0.56915283,13.984276194797838,3.2324525875689303,-98.59601593017578,-5.80246639251709,-87.68878936767578,24673480.0,50354.0,0.1476740016056,-0.24736725113408015,0.1800468888850934,0.005171497115484797,-0.012829831170448083,0.009128602596655117,24.673480143000006
1623,C,1997019329961.0,2.4841156,7.017829430927431,7.109702921312972,116,1970-01-01 00:33:17.019329961,-2.2709808,-1.2457886,-1.771637,11.187524976957457,3.138158805673734,-98.71721649169922,-5.8806633949279785,-87.61348724365234,24723834.0,50354.0,0.14228101519230002,-0.20261062695108015,0.29890156914849336,0.00730019745792073,-0.011329093036550083,0.012058485327911615,24.723834145999945
1623,C,1997069683965.0,-2.35141,8.610175430927432,5.561378321312972,116,1970-01-01 00:33:17.069683965,-2.9596863,-3.2794495,-1.4044342,9.755743840939207,4.6354036975853115,-98.88306427001953,-5.924973487854004,-87.43978118896484,24774188.0,50354.0,0.0033411288911999997,-0.10000292159308014,0.31901981244559346,0.00366632872159028,-0.007618901311696324,0.015557406624394325,24.7741881500001
1623,C,1997120037969.0,0.3575287,9.958137430927431,3.110633721312972,116,1970-01-01 00:33:17.120037969,-3.0113525,-2.5823364,-1.0513611,8.988855561139971,4.103908542428111,-99.04776000976562,-5.956778526306152,-87.30330657958984,24824542.0,50354.0,-0.0501999494901,-0.025974787077080137,0.2183352471971934,-0.0011797645262185054,-0.0031717407711886257,0.013528988336626446,24.824542154000028
1623,C,1997170391973.0,-0.13615417,14.244193730927432,4.681724421312972,116,1970-01-01 00:33:17.170391973,-2.6168213,-1.7353821,-0.45587158,4.494883917087208,3.1728730902111097,-99.18792724609375,-5.965536117553711,-87.21353912353516,24874896.0,50354.0,0.00557354654181,0.11587289166201985,0.1961882009568934,-0.0011235589470290975,0.002263364579135027,0.010436456854175444,24.874896157999956
1623,C,1997220745977.0,-1.2936707,14.15724913092743,5.362571621312972,116,1970-01-01 00:33:17.220745977,-1.7061157,-1.5328369,-0.022735596,4.4116058851787905,2.2936731787928233,-99.28113555908203,-5.954361438751221,-87.13729095458984,24925250.0,50354.0,-0.03599870075199,0.2215939269329199,0.2528852414651934,-0.000766014107549702,0.008496402091764799,0.01130632205986088,24.92525016200011
1623,C,1997271099981.0,-0.15475464,15.395927130927431,2.1954115213129723,116,1970-01-01 00:33:17.271099981,-0.31781006,-0.18223572,-0.060516357,5.6611939842452195,0.3713156626721709,-99.29801177978516,-5.955875396728516,-87.12776184082031,24975604.0,50354.0,-0.03646700478518,0.25059111874471984,0.1902873415818934,-0.0018244690683093291,0.011888202895025936,0.011157756123376507,24.97560416600004
1623,C,1997321453985.0,0.69924927,15.683845230927432,-1.121528978687028,116,1970-01-01 00:33:17.321453985,0.6127472,0.2850952,-0.092666626,8.702100687148016,0.6821477169536697,-99.26599884033203,-5.962748050689697,-87.14115905761719,25025958.0,50354.0,0.01370874129951,0.2890262287544198,0.027037140775693403,-0.0005729847997787136,0.01358594595798584,0.005471578492316964,25.025958169999967
1623,C,1997371807989.0,-2.3079834,9.715369430927431,-9.774940978687027,116,1970-01-01 00:33:17.371807989,0.7663574,0.8020325,-0.3922119,19.048438770334002,1.1766010241762583,-99.22386932373047,-5.988547325134277,-87.17778778076172,25076312.0,50354.0,-0.04050309919100999,0.14600682754151986,-0.2743404241168066,-0.0006746015486342954,0.010952827258362875,-0.006226354764679207,25.076312174000122
1623,C,1997422161993.0,0.95150757,10.687751430927431,-4.089225978687027,116,1970-01-01 00:33:17.422161993,1.0787964,-0.18293762,-0.08306885,13.492257213217377,1.0973460162157365,-99.17093658447266,-5.991184711456299,-87.16804504394531,25126666.0,50354.0,-0.03415199197191,0.02022017393891984,-0.3490581314858066,-0.0018795912302088367,0.00418509721627303,-0.015695305434406993,25.12666617800005
1623,C,1997472515997.0,0.67559814,7.845206930927432,0.7726057213129724,116,1970-01-01 00:33:17.472515997,1.635376,0.7983856,0.050567627,12.004953015398344,1.8205579673725774,-99.08499908447266,-5.995018482208252,-87.20807647705078,25177020.0,50354.0,0.04096564046067,-0.026864907323580146,-0.08350254821990659,0.00017154722800151044,-0.00016729445242559256,-0.010890580232950742,25.17702018199998
1623,C,1997522870001.0,0.1670227,8.866340430927432,1.5993270213129724,116,1970-01-01 00:33:17.522870001,1.7878113,1.1981201,0.2469635,10.682122321130398,2.1662760647627417,-98.98918151855469,-5.99223518371582,-87.2695083618164,25227374.0,50354.0,0.02121466488868,-0.07272257207058014,0.05971815066109342,0.001565513547780585,-0.0025073139687067734,-0.0005988197773382391,25.227374186000134
1623,C,1997573224004.0,1.3126831,9.555549430927432,3.070030021312972,116,1970-01-01 00:33:17.573224004,1.8468323,1.8046112,0.617157,9.450403770617985,2.654862310956583,-98.8869857788086,-5.975769996643066,-87.36394500732422,25277728.0,50354.0,0.0372545529266,-0.029661278948080145,0.1175604022621934,0.0014720794969353046,-0.00257771821709681,0.004463342126949593,25.277728189000072
1623,C,1997623578008.0,2.318161,8.420509430927432,3.502342021312972,116,1970-01-01 00:33:17.623578008,1.8321991,0.99238586,0.8232269,10.479248179821203,2.2404208903802783,-98.78959655761719,-5.942718029022217,-87.41960144042969,25328082.0,50354.0,0.09141376190570001,-0.04088596603508015,0.1654726109171934,0.0032394821625328176,-0.0017761679869410269,0.007125922172817422,25.328082193
1623,C,1997673932012.0,0.78060913,10.404090430927432,4.855567821312972,116,1970-01-01 00:33:17.673932012,1.7049255,0.5662689,0.80918884,7.933827230731369,1.970334491003496,-98.92314147949219,-5.901456832885742,-87.43099212646484,25378436.0,50354.0,0.07801773556301,-0.019522249278080127,0.2104270961077934,0.004265776811769712,-0.0015208976369394363,0.009464026923768092,25.378436196999928
1623,C,1997724286016.0,1.8988953,10.49712343092743,4.172386021312972,116,1970-01-01 00:33:17.724286016,1.7452545,0.24603271,0.6983185,8.264411306686707,1.8958096137540932,-98.83406829833984,-5.868862152099609,-87.44862365722656,25428790.0,50354.0,0.06746188303410999,0.03276066139991986,0.2272967938957934,0.0036627403574196905,0.0003333035019915589,0.011020574378620305,25.428790201000083
1623,C,1997774640020.0,2.548935,8.241737430927431,4.888847221312972,116,1970-01-01 00:33:17.774640020,1.4475403,-0.22142029,0.27044678,10.289623323296311,1.489141136951143,-98.88214111328125,-6.065379619598389,-87.42741394042969,25479144.0,50354.0,0.1119830234631,-0.021680900081080177,0.2281346693495934,0.004517884410880257,0.00027895515072442665,0.011466397950129104,25.47914420500001
1623,C,1997824994024.0,-1.4105072,10.517753430927431,5.443900921312972,116,1970-01-01 00:33:17.824994024,1.1768646,-0.49287415,0.1609497,7.755540878466946,1.286017115127739,-98.82575225830078,-6.053634166717529,-87.40416717529297,25529498.0,50354.0,0.028662196720600004,-0.021161498571080163,0.2601475999868934,0.0035410247085650155,-0.0010786430708654411,0.012293482695084729,25.52949820899994
1623,C,1997875348028.0,0.38755798,9.392692430927431,4.794059621312972,116,1970-01-01 00:33:17.875348028,1.1981964,-0.061050415,0.10342407,8.889438029403246,1.2042002758677632,-98.94841766357422,-5.960433483123779,-87.38279724121094,25579852.0,50354.0,-0.025754792511940003,0.007816095463919833,0.2577611325816934,7.319971576143286e-05,-0.00033599721402897563,0.013039388159879312,25.579852213000095
1623,C,1997925702032.0,0.9625244,8.200263430927432,4.983512721312972,116,1970-01-01 00:33:17.925702032,0.9486389,-0.38658142,-0.026412964,10.033498643120666,1.0247236708253067,-99.00836181640625,-5.947727680206299,-87.35245513916016,25630206.0,50354.0,0.03399102408126,-0.050531350266080154,0.24616993887029343,0.00020736360222076958,-0.0010754419701539905,0.012687472585946675,25.630206217000023
1623,C,1997976056036.0,-0.4426117,5.733924430927431,4.678611621312973,116,1970-01-01 00:33:17.976056036,0.5532532,-0.088531494,0.03440857,12.468865262338921,0.5613473776811975,-99.05487060546875,-5.746623516082764,-87.34078216552734,25680560.0,50354.0,0.013089842047899997,-0.14264815220208016,0.2432633045742934,0.0011853549665338614,-0.004863680333640872,0.012322460770204364,25.68056022099995
1623,C,1998026410040.0,1.2628784,5.800285430927431,7.165687421312972,116,1970-01-01 00:33:18.026410040,0.37347412,0.17355347,0.35290527,12.190725862673785,0.5423521502239925,-98.82047271728516,-5.737098693847656,-87.37364959716797,25730914.0,50354.0,0.0206518547059,-0.2030723983080802,0.2982039169961934,0.0008495146991704225,-0.008704206300194308,0.013632520237480145,25.730914225000106
1623,C,1998076764043.0,2.5729065,3.0481644309274323,7.679557661312972,116,1970-01-01 00:33:18.076764043,0.25334167,-0.2501068,0.30226135,15.103642637890799,0.4670089258980511,-98.80879974365234,-5.720245838165283,-87.36355590820312,25781268.0,50354.0,0.0965735564273,-0.2706917778280801,0.3737587354452734,0.002951384176100577,-0.011927960662580108,0.01691800370051881,25.781268228000044
1623,C,1998127118047.0,-1.7259674,3.9905314309274313,4.062004021312973,116,1970-01-01 00:33:18.127118047,-0.46118164,-0.65023804,0.014297485,14.400138828379113,0.7973094956247896,-98.83506774902344,-5.71455192565918,-87.33138275146484,25831622.0,50354.0,0.021323385720700007,-0.31625595428608017,0.29561729848347346,0.0029682913124601962,-0.014777583051438215,0.016852880406224062,25.831622231999972
1623,C,1998177472051.0,-0.041259766,4.622047430927431,2.013450521312972,116,1970-01-01 00:33:18.177472051,-2.0701752,-0.21237183,-0.05229187,14.299517515713482,2.0816968061033014,-98.93965911865234,-5.715489387512207,-87.32042694091797,25881976.0,50354.0,-0.04449347835838201,-0.2766303019950802,0.1529617190196934,-0.0005833534223389198,-0.014927097274390774,0.011293873923677233,25.881976236000128
1623,C,1998227826055.0,0.692276,5.555427430927432,4.3482283213129715,116,1970-01-01 00:33:18.227826055,-3.1418915,-0.30410767,-0.51486206,12.72609199957038,3.198288075447945,-99.20634460449219,-5.673985481262207,-87.29069519042969,25932330.0,50354.0,0.016390635723418,-0.23723091540308017,0.1601679882207934,-0.0007075452690204889,-0.012937483870433485,0.007883666639193737,25.932330240000056
1623,C,1998278180059.0,3.9421234,5.808280430927432,7.784721221312972,116,1970-01-01 00:33:18.278180059,-2.2770996,-1.1131897,-1.6844482,12.752824065078471,3.0433106372812966,-99.3270492553711,-5.74814510345459,-87.22185516357422,25982684.0,50354.0,0.11668027369379999,-0.2073651271620801,0.3054712706346934,0.0033503262863972976,-0.011193594563663041,0.011723399620204593,25.982684243999984
1623,C,1998328534063.0,0.1516571,8.218467430927431,5.438545121312972,116,1970-01-01 00:33:18.328534063,-2.757309,-1.8878479,-1.8656311,9.876798277064548,3.8271793812548975,-99.50814056396484,-5.703193664550781,-87.10987854003906,26033038.0,50354.0,0.1030691116485,-0.14031776908208016,0.33292217670829344,0.0055326302747630875,-0.008753612278739224,0.01607283182375438,26.03303824800014
1623,C,1998378888067.0,-1.8945618,13.110923430927432,4.699226221312973,116,1970-01-01 00:33:18.378888067,-2.7014923,-2.9745026,-1.0248413,5.771663518041075,4.146809141322005,-99.65874481201172,-5.7289605140686035,-86.95391845703125,26083392.0,50354.0,-0.043881111631900005,0.043540873728919856,0.2552386690932934,0.001490176276417938,-0.002436551894306517,0.01480812561474655,26.083392252000067
1623,C,1998429242071.0,-0.55667114,13.818656430927431,4.491294721312972,116,1970-01-01 00:33:18.429242071,-2.5633698,-1.3063049,-0.26522827,4.982622468708781,2.889228834572167,-99.79359436035156,-5.730997562408447,-86.88697052001953,26133746.0,50354.0,-0.061714691730379995,0.1845368321819199,0.2313897457724934,-0.0026585855412521236,0.005742312401717213,0.012251843601075915,26.133746255999995
1623,C,1998479596075.0,-0.35517883,13.527839430927433,4.921852021312972,116,1970-01-01 00:33:18.479596075,-1.5910797,-1.0140381,-0.060913086,4.991876676355814,1.8877283395790148,-99.87822723388672,-5.725336074829102,-86.83625030517578,26184100.0,50354.0,-0.02295764669469,0.19503352631391993,0.23699479553909342,-0.0021317954645279874,0.00955644291584976,0.011792517596601822,26.184100259999923
1623,C,1998529950079.0,-0.92251587,15.784583730927432,3.272911021312972,116,1970-01-01 00:33:18.529950079,-0.15631104,-0.19868469,0.06768799,4.616568966792671,0.26170672757213903,-99.88694763183594,-5.720292568206787,-86.82698822021484,26234454.0,50354.0,-0.032168519461900004,0.24452967794601985,0.2063195491241934,-0.0013879114853244667,0.011066882793652505,0.011161325255587572,26.234454264000078
1623,C,1998580304083.0,-0.77415466,14.15264103092743,-2.8292309786870273,116,1970-01-01 00:33:18.580304083,0.73547363,0.72688293,0.12109375,10.797239233294215,1.0411262894768456,-99.84648132324219,-5.720553398132324,-86.864013671875,26284808.0,50354.0,-0.04271707393381,0.26026030782921983,0.011170532433193409,-0.001885394584923791,0.01270909747186321,0.005475747783370328,26.284808268000006
1623,C,1998630658086.0,-2.7354279,9.713325430927432,-9.699622978687028,116,1970-01-01 00:33:18.630658086,1.1829834,1.2667389,-0.05633545,19.03870478983879,1.7341426839725365,-99.7811279296875,-5.734124660491943,-86.92625427246094,26335162.0,50354.0,-0.08836076011312001,0.10740423761011983,-0.3154389560848066,-0.0033001466277995575,0.009256690260526257,-0.007660566102276666,26.335162270999945
1623,C,1998681012090.0,-1.9333954,9.557899430927431,-2.6405869786870273,116,1970-01-01 00:33:18.681012090,1.5827789,0.6329498,-0.09275818,13.104474571586193,1.7071668271033626,-99.69894409179688,-5.744052410125732,-86.95681762695312,26385516.0,50354.0,-0.11754696422409999,-0.008277571653080146,-0.3106894660968066,-0.005184138775638188,0.0024957120688003883,-0.015764035285266476,26.3855162750001
1623,C,1998731366094.0,-0.24357605,7.620338430927431,1.1744610213129718,116,1970-01-01 00:33:18.731366094,1.7932587,1.4036713,0.117492676,11.968911829812376,2.2803233131472873,-99.60221099853516,-5.750022888183594,-87.02735137939453,26435870.0,50354.0,-0.054809610196650003,-0.06097270535208017,-0.036912653228806595,-0.004339421474191223,-0.0017435142241589213,-0.008751578558260963,26.435870279000028
1623,C,1998781720098.0,0.42718506,10.681098430927431,2.3650435213129724,116,1970-01-01 00:33:18.781720098,1.8174438,1.5537262,0.47920227,8.751999240266333,2.43860654602132,-99.50322723388672,-5.7392897605896,-87.10834503173828,26486224.0,50354.0,0.004622724044770001,-0.032693924129080176,0.0891141058696934,-0.0012635552326458828,-0.0023582447304471743,0.0013142759731396073,26.486224282999956
1623,C,1998832074102.0,2.3639984,9.100730430927431,3.822486721312972,116,1970-01-01 00:33:18.832074102,1.8139496,1.5324707,0.58825684,9.760093058775416,2.4464107806142112,-99.40447235107422,-5.722859859466553,-87.18916320800781,26536578.0,50354.0,0.07027362597242001,0.004577905254919828,0.15578344891859341,0.001885665404382793,-0.0007078770071947351,0.006165785736904698,26.53657828700011
1623,C,1998882428106.0,1.4129333,9.977470130927433,3.904655321312972,116,1970-01-01 00:33:18.882428106,1.7021942,1.0128937,0.49684143,8.740987903501015,2.042123930758801,-99.3139419555664,-5.706581115722656,-87.24343872070312,26586932.0,50354.0,0.0950918094109,-0.013137344454180131,0.1945462552071934,0.004163405566645848,-0.0002155010007197767,0.008820250960774935,26.58693229100004
1623,C,1998932782110.0,0.66007996,10.198966730927431,4.836814721312972,116,1970-01-01 00:33:18.932782110,1.5920105,0.9581299,0.6850586,8.123420549125312,1.98035744824469,-99.43086242675781,-5.65583610534668,-87.27650451660156,26637286.0,50354.0,0.052192254847019996,0.01451295087091987,0.22008399126319342,0.0037081708858216515,3.4633642754256386e-05,0.010439145715384929,26.637286294999967
1623,C,1998983136114.0,2.109375,9.526069430927432,4.591926421312972,116,1970-01-01 00:33:18.983136114,1.3466492,0.5389404,0.75520325,9.060905662012498,1.6353142729834418,-99.36030578613281,-5.622982978820801,-87.3094253540039,26687640.0,50354.0,0.06972656752792,0.003148035447019852,0.23738741574789343,0.0030695501909338645,0.00044465065252676834,0.011517757614318135,26.687640299000122
1623,C,1999033490118.0,1.8377075,9.15793543092743,4.7060010213129715,116,1970-01-01 00:33:19.033490118,1.1730499,-0.2633667,0.32192993,9.31407182882182,1.2446071534378649,-99.47146606445312,-5.749588489532471,-87.28233337402344,26737994.0,50354.0,0.09937569610250001,-0.023062009593080156,0.2340939192229934,0.004257487691423085,-0.0005013741270753603,0.01187048557056202,26.73799430300005
1623,C,1999083844122.0,0.12780762,8.64432543092743,4.193397421312972,116,1970-01-01 00:33:19.083844122,0.90626526,-0.32221985,0.26766968,9.774438134180144,0.998393414846168,-99.42753601074219,-5.733743190765381,-87.26856231689453,26788348.0,50354.0,0.049485774176240005,-0.04526167828108019,0.22406015458999343,0.003747885237207838,-0.0017201854896077352,0.011534945116389571,26.78834830699998
1623,C,1999134198126.0,1.622345,7.284995430927431,5.021659721312972,116,1970-01-01 00:33:19.134198126,0.68214417,-0.07878113,0.2928772,10.992902541520811,0.7465280901539512,-99.45423889160156,-5.7875776290893555,-87.260986328125,26838702.0,50354.0,0.04406359251374,-0.09241668866108019,0.23200749367989343,0.002355292405153627,-0.003466328244502772,0.011482415180490943,26.838702311000134
1623,C,1999184552129.0,0.9707184,6.127006430927432,5.375678921312972,116,1970-01-01 00:33:19.184552129,0.7862091,0.09080505,0.3027954,11.98663074852846,0.8473814727084092,-99.40446472167969,-5.744826316833496,-87.26895904541016,26889056.0,50354.0,0.0652855572218,-0.15579522912408017,0.2617737950053934,0.0027530835428916907,-0.006249231454076983,0.012431931505229466,26.889056314000072
1623,C,1999234906133.0,0.49325562,3.0345224309274315,5.640693521312972,116,1970-01-01 00:33:19.234906133,0.5184479,0.27999878,0.34747314,14.986228546175946,0.6840505279855853,-99.29642486572266,-5.633782386779785,-87.29364776611328,26939410.0,50354.0,0.036858473901540005,-0.2628093878450802,0.2773592089879934,0.0025716802715923313,-0.010539208441432552,0.0135737516415415,26.939410318
1623,C,1999285260137.0,-0.5707092,4.100684430927432,5.447502021312972,116,1970-01-01 00:33:19.285260137,-0.41467285,0.13465881,0.16300964,13.95409821666648,0.46546612161431056,-99.27034759521484,-5.428092956542969,-87.30612182617188,26989764.0,50354.0,-0.0019500487836600006,-0.31382609683908014,0.27916749917669337,0.0008788894191928649,-0.014517951597893106,0.01401167293146232,26.989764321999928
1623,C,1999335614141.0,-0.29541016,4.901649430927431,1.7665020213129718,116,1970-01-01 00:33:19.335614141,-1.6528625,-0.15213013,-0.03453064,14.136903164213733,1.6602079344042648,-99.35372161865234,-5.428565979003906,-87.29829406738281,27040118.0,50354.0,-0.02180628712672,-0.26681744036008015,0.1816269797811934,-0.0005981132692156374,-0.014618862336063259,0.011601422596722717,27.040118326000083
1623,C,1999385968145.0,2.1502075,5.892005430927432,3.3826980213129723,116,1970-01-01 00:33:19.385968145,-2.669983,-0.04232788,-0.7551575,12.823225527803105,2.7750430121928824,-99.69767761230469,-5.572375774383545,-87.26976776123047,27090472.0,50354.0,0.046698232629180006,-0.22171735154308017,0.12964140947319341,0.0006267045119154357,-0.012299840455745868,0.007836804236257697,27.09047233000001
1623,C,1999436322149.0,1.6951141,6.612601930927431,6.818183751312972,116,1970-01-01 00:33:19.436322149,-2.5962982,-0.19911194,-1.4213562,11.447214145358448,2.9665912012362345,-99.64453125,-5.715468883514404,-87.26593017578125,27140826.0,50354.0,0.09681366192320001,-0.17864070045058017,0.25682760038940344,0.0036131989691452716,-0.010079814675044388,0.009730130261310602,27.14082633399994
1623,C,1999486676153.0,-1.8735352,10.600257430927432,5.727241421312972,116,1970-01-01 00:33:19.486676153,-2.5254974,-2.0889435,-1.2019043,7.714006213720806,3.4909018906233245,-99.78215789794922,-5.757081508636475,-87.15226745605469,27191180.0,50354.0,-0.0044921080347000006,-0.06010103984658017,0.3158561695712034,0.002324379762250765,-0.006010800795461606,0.014418459276298201,27.191180338000095
1623,C,1999537030157.0,-1.7779694,12.744651430927432,5.458152621312972,116,1970-01-01 00:33:19.537030157,-2.783249,-2.4678192,-0.6175995,5.765149510420603,3.77068107141003,-99.93412780761719,-5.766376495361328,-87.02476501464844,27241534.0,50354.0,-0.09193393131420001,0.09428557041491986,0.28161466581119343,-0.0024277183926872557,0.0008606639261190884,0.015042523222422603,27.241534342000023
1623,C,1999587384161.0,0.12844849,11.85436243092743,3.975135621312972,116,1970-01-01 00:33:19.587384161,-2.58107,-1.159668,-0.15130615,6.90263892569251,2.8336629591664253,-100.06908416748047,-5.763757705688477,-86.96605682373047,27291888.0,50354.0,-0.04152998795107,0.12586017199991983,0.2375018980845934,-0.0033602210953417033,0.00554260935677842,0.013069797729204226,27.29188834599995
1623,C,1999637738165.0,-0.6751251,13.232810730927431,3.834953121312972,116,1970-01-01 00:33:19.637738165,-1.6324463,-0.9026642,0.22036743,5.847182209065569,1.8783624209800767,-100.15497589111328,-5.744985580444336,-86.92334747314453,27342242.0,50354.0,-0.01376367700997,0.13815055869601983,0.1966346042730934,-0.001392128602724104,0.006646998166731673,0.010930254719859481,27.342242350000106
1623,C,1999688092168.0,-1.1959991,14.253486430927431,2.3341444213129723,116,1970-01-01 00:33:19.688092168,-0.5490265,-0.033828735,0.36886597,6.257326295280226,0.6622964478524637,-100.18226623535156,-5.726533889770508,-86.9249267578125,27392596.0,50354.0,-0.047109293983400004,0.1985533036440198,0.15531936883069342,-0.0015325987907000766,0.008477193142135178,0.008861145180834041,27.392596353000044
1623,C,1999738446172.0,0.12887573,14.849235230927432,-0.37535867868702777,116,1970-01-01 00:33:19.738446172,0.3505249,0.6348877,0.3453827,8.23065766513646,0.8032678921695987,-100.16130828857422,-5.715146064758301,-86.95940399169922,27442950.0,50354.0,-0.026866965086490002,0.23925002328051984,0.04931634864209341,-0.0018625002746026206,0.011022574361979134,0.005152113458812354,27.442950356999972
1623,C,1999788800176.0,-0.414917,11.207969430927431,-5.349815978687028,116,1970-01-01 00:33:19.788800176,0.7827301,1.0207214,0.13793945,14.291453356433069,1.2936637421410064,-100.11702728271484,-5.71734094619751,-87.01110076904297,27493304.0,50354.0,-0.0072016610547900005,0.1625730417715199,-0.14414272234870662,-0.0008577458003590068,0.010116699308815206,-0.002387443610811401,27.493304361000128
1623,C,1999839154180.0,-1.9971466,8.990195930927431,-6.111762978687027,116,1970-01-01 00:33:19.839154180,1.2340698,0.98835754,-0.19483948,16.20394937751682,1.5930289768593546,-100.05062103271484,-5.735586643218994,-87.05829620361328,27543658.0,50354.0,-0.060728525257199996,0.015060009315419825,-0.2885681734098066,-0.001710278300776972,0.004472267327215881,-0.010894362222512088,27.543658365000056
1623,C,1999889508184.0,-1.0641785,9.451255430927432,-0.5832289786870275,116,1970-01-01 00:33:19.889508184,1.7698059,0.77948,-0.14750671,11.594008776683681,1.9394742131747547,-99.95840454101562,-5.749622821807861,-87.0955810546875,27594012.0,50354.0,-0.0770749820427,-0.029168779062580145,-0.1685598125108066,-0.0034694789032895823,-0.0003552164959242554,-0.01150911130152328,27.594012368999984
1623,C,1999939862188.0,-0.40377808,8.296058430927431,2.0193100213129718,116,1970-01-01 00:33:19.939862188,1.8524933,1.3916779,0.20523071,10.969209370510644,2.3260736119522107,-99.85868835449219,-5.751490116119385,-87.16624450683594,27644366.0,50354.0,-0.036958742814659995,-0.04664507890008015,0.0361562124101934,-0.0028710270907337525,-0.0019087655019258984,-0.0033335254397331387,27.64436637300014
1623,C,1999990216192.0,1.2598572,9.80065143092743,3.279090721312972,116,1970-01-01 00:33:19.990216192,1.7658234,1.7141418,0.49147034,9.133685606159538,2.5095731680097546,-99.761474609375,-5.741879940032959,-87.25533294677734,27694720.0,50354.0,0.021553504004240002,-0.03784833580808018,0.1333978354970934,-0.0003878576975299442,-0.0021272907021073527,0.004268862264161759,27.694720377000067
1623,C,2000040570196.0,2.769226,9.493125430927432,3.544197021312972,116,1970-01-01 00:33:20.040570196,1.7773132,1.4455261,0.55696106,9.620695132777465,2.3576669694916146,-99.66499328613281,-5.726616382598877,-87.3316650390625,27745074.0,50354.0,0.10144022772640002,-0.007709779949080165,0.17178991549609338,0.003096613183782324,-0.001147016680418026,0.007683712006755463,27.745074380999995
1623,C,2000090924200.0,1.2932281,10.059852430927432,4.064506421312972,116,1970-01-01 00:33:20.090924200,1.7669067,0.968277,0.55804443,8.586719406881523,2.090677694214944,-99.5713882446289,-5.70719575881958,-87.38430786132812,27795428.0,50354.0,0.1022804068757,-0.0011838763720801425,0.1915643265749934,0.005129074417377072,-0.00022391558519785308,0.009148169752623753,27.795428384999923
1623,C,2000141278204.0,0.67544556,9.94271043092743,4.639656021312972,116,1970-01-01 00:33:20.141278204,1.6841583,0.88505554,0.8044739,8.427895110255568,2.0656453577816283,-99.69644165039062,-5.648759841918945,-87.41364288330078,27845782.0,50354.0,0.04956529673782001,0.010135325172919834,0.2191446978179934,0.0038230192798775937,0.0002253706264587409,0.01034042110714223,27.845782389000078
1623,C,2000191632208.0,1.5036774,9.063621430927432,4.736183021312971,116,1970-01-01 00:33:20.191632208,1.421814,0.23731995,0.7596283,9.33516484208901,1.629389751847265,-99.7767105102539,-5.704588413238525,-87.41671752929688,27896136.0,50354.0,0.05486377876392,-0.014946782714080165,0.23605549957619343,0.002629210833907308,-0.00012113806651379368,0.011460575369793443,27.896136393000006
1623,C,2000241986211.0,0.75891113,9.101875430927432,4.617408621312972,116,1970-01-01 00:33:20.241986211,1.1819153,-0.077560425,0.4337616,9.241040431294282,1.261383574308319,-99.88955688476562,-5.658717155456543,-87.39952087402344,27946490.0,50354.0,0.056965191419810005,-0.03611648550908013,0.2354953767863934,0.0028155179823157704,-0.0012856199040545068,0.01187223641418085,27.946490395999945
1623,C,2000292340215.0,1.2072754,8.365562430927431,4.877265821312973,116,1970-01-01 00:33:20.292340215,0.8519745,0.02822876,0.27401733,9.925172791593969,0.8954009764802116,-99.9486083984375,-5.679009914398193,-87.3932113647461,27996844.0,50354.0,0.04950267826581001,-0.053691516952080146,0.23904741844199343,0.0026805415550748553,-0.0022610960779646323,0.011947563955465096,27.9968444000001
1623,C,2000342694219.0,1.7836914,7.323219430927432,5.358940021312972,116,1970-01-01 00:33:20.342694219,0.6661682,0.06838989,0.26626587,10.9172706186949,0.7206627236594862,-99.91984558105469,-5.759530544281006,-87.39842987060547,28047198.0,50354.0,0.0753035711236,-0.09847273906408015,0.2577169544997935,0.003142246940877176,-0.003831039473718868,0.012507036617555369,28.047198404000028
1623,C,2000393048223.0,0.6267395,4.936774930927431,6.109428221312972,116,1970-01-01 00:33:20.393048223,0.6734009,0.21199036,0.29631042,13.054025900334363,0.7656425731725711,-99.76288604736328,-5.672087669372559,-87.42359924316406,28097552.0,50354.0,0.0606874187693,-0.18479932195158016,0.2887391072445934,0.003423845152533544,-0.007131940680191281,0.013758124266538429,28.097552407999956
1623,C,2000443402227.0,-1.1166382,3.022071430927431,6.260200361312972,116,1970-01-01 00:33:20.443402227,0.2880249,0.19033813,0.20161438,14.978039142993227,0.3997940782136365,-99.74739074707031,-5.6637654304504395,-87.43474578857422,28147906.0,50354.0,-0.012334179569899998,-0.2930893251475802,0.3114301388247734,0.001217389503323294,-0.012031802468015561,0.01511046110828845,28.14790641200011
1623,C,2000493756231.0,-0.5217743,4.356071430927431,4.111991721312972,116,1970-01-01 00:33:20.493756231,-0.7207031,0.07424927,0.18234253,13.93867385758039,0.7471109092309816,-99.8658218383789,-5.461014270782471,-87.43199920654297,28198260.0,50354.0,-0.0412503115125,-0.3077096971670802,0.2611406800642734,-0.0013490967319815847,-0.015126316984816207,0.014415615507169532,28.19826041600004
1623,C,2000544110235.0,1.1532135,5.485343430927431,1.6557844213129718,116,1970-01-01 00:33:20.544110235,-1.8725433,-0.22384644,-0.09147644,13.691611315192155,1.88809257668967,-99.96058654785156,-5.463592529296875,-87.42013549804688,28248614.0,50354.0,0.0158977447384,-0.2456918980230802,0.1452152999428934,-0.0006383015736715158,-0.013932991962102669,0.010230824508640438,28.248614419999967
1623,C,2000594464239.0,2.3135529,4.927406430927432,5.428230121312972,116,1970-01-01 00:33:20.594464239,-2.7434387,0.29837036,-0.8446045,13.328144840494277,2.8859725455735834,-100.04888916015625,-5.621052265167236,-87.4320297241211,28298968.0,50354.0,0.0872827776528,-0.23130739672808018,0.1783542341396934,0.0025977760122432424,-0.012009411243949965,0.00814651015959729,28.298968424000122
1623,C,2000644818243.0,0.8494568,6.746726430927431,6.333946081312972,116,1970-01-01 00:33:20.644818243,-2.6809387,-0.6936035,-1.4635773,11.248583447147647,3.132184005042684,-100.05439758300781,-5.655409336090088,-87.39791870117188,28349322.0,50354.0,0.0796350952169,-0.19954955693708015,0.29613631025351345,0.004202491285240437,-0.010847685522427741,0.01194624843618777,28.34932242800005
1623,C,2000695172247.0,-2.5478516,11.13149243092743,6.389869521312972,116,1970-01-01 00:33:20.695172247,-2.8788147,-2.8083038,-1.0996552,7.307373493191368,4.169338780780182,-100.2130126953125,-5.684830665588379,-87.24929809570312,28399676.0,50354.0,-0.042760485879600005,-0.043349283715080185,0.3203475054273134,0.000928392039285202,-0.006115464111099441,0.015521213027396176,28.39967643199998
1623,C,2000745526251.0,-0.871048,12.679099730927431,4.8058852213129715,116,1970-01-01 00:33:20.745526251,-3.0932312,-2.3058624,-0.4608307,5.855871164798841,3.8855431535950915,-100.37938690185547,-5.686891555786133,-87.13116455078125,28450030.0,50354.0,-0.0860776352292,0.10601007885901982,0.2818755171550934,-0.0032437573751562575,0.0015776108393389682,0.015162169039557256,28.450030436000134
1623,C,2000795880254.0,0.41992188,13.126350130927431,4.433433421312972,116,1970-01-01 00:33:20.795880254,-2.6123505,-1.4312439,0.13375854,5.584045553675416,2.9817319770831836,-100.51687622070312,-5.667337894439697,-87.06166076660156,28500384.0,50354.0,-0.011358002323240001,0.1562346111719199,0.23261832546539338,-0.002453137046657782,0.006602534560908969,0.012953411475655997,28.500384439000072
1623,C,2000846234258.0,-1.076767,13.828910430927431,4.704566821312972,116,1970-01-01 00:33:20.846234258,-1.5734558,-0.91571045,0.40647888,4.945439870641604,1.8653455075880438,-100.59963989257812,-5.638969421386719,-87.02017211914062,28550738.0,50354.0,-0.016537389586240004,0.1851833951658198,0.2300674321085934,-0.0007023222821049781,0.008595881145565271,0.011649039318440265,28.550738443
1623,C,2000896586027.0,-1.3110809,14.054298130927432,2.4870220213129723,116,1970-01-01 00:33:20.896586027,-0.197052,0.24085999,0.32170105,6.28195150126286,0.4475875233492357,-100.60803985595703,-5.625376224517822,-87.03504943847656,28601090.0,50352.0,-0.0601164587304,0.20853805875325795,0.1810554407019508,-0.0019298372852197287,0.009912331323866702,0.01035042944587826,28.601090211999917
1623,C,2000946940031.0,0.6669159,14.490348430927432,-1.3103109786870277,116,1970-01-01 00:33:20.946940031,0.6198578,0.9397125,0.37200928,9.255053379276957,1.185611310372505,-100.57215881347656,-5.615726470947266,-87.08488464355469,28651444.0,50354.0,-0.016218142205000004,0.2251993664878199,0.02962605392019341,-0.0019218762477505663,0.010920207155294617,0.005304327990101725,28.651444216000073
1623,C,2000997294035.0,0.5009155,6.843665430927432,-9.744071978687028,116,1970-01-01 00:33:20.997294035,0.52853394,1.1434174,0.44328308,20.30061282545887,1.3353843511772068,-100.53980255126953,-5.604413032531738,-87.14543151855469,28701798.0,50354.0,0.029402491157799998,0.04365726699991987,-0.27831619971780663,0.00033194235358464545,0.006769003461320825,-0.006261271800746509,28.70179822
1623,C,2001047648039.0,-4.0329895,12.786613130927432,-7.093223978687028,116,1970-01-01 00:33:21.047648039,1.4383392,0.5400238,0.1587677,15.767782746124269,1.5445557747735656,-100.46514892578125,-5.601528644561768,-87.17356872558594,28752152.0,50354.0,-0.088927027098,0.0007623233518198661,-0.4239126003188066,-0.0014986492413664157,0.0011183520262857513,-0.01768001449852181,28.75215222399993
1623,C,2001098002043.0,0.20716858,7.185584430927431,-0.7822949786870286,116,1970-01-01 00:33:21.098002043,1.7287445,1.1543427,0.0901947,13.417299652116451,2.080672895779543,-100.37305450439453,-5.6075286865234375,-87.2314224243164,28802506.0,50354.0,-0.09632269330284002,0.009370818014819841,-0.19828194078980665,-0.00466403221053195,0.0002551221001878879,-0.015664991961491556,28.802506228000084
1623,C,2001148356047.0,-0.3552246,10.063667030927432,2.5004500213129717,116,1970-01-01 00:33:21.148356047,1.7259979,2.3723297,0.096832275,9.195706246751552,2.9353693883033145,-100.27519989013672,-5.624024391174316,-87.34955596923828,28852860.0,50354.0,-0.0037276064155400005,-0.05918479594488016,0.04325798950819337,-0.002518966396009654,-0.0012541665223451287,-0.0039030380214171777,28.852860232000012
1623,C,2001198710051.0,3.5511932,8.907310430927431,3.349540521312972,116,1970-01-01 00:33:21.198710051,1.9367371,2.4075165,0.7088318,10.450172824445895,3.170099180306493,-100.16609191894531,-5.610509395599365,-87.47491455078125,28903214.0,50354.0,0.0804649014422,-0.015836900442880147,0.1472852118916934,0.0019320148768862191,-0.0018888212499546413,0.00479730618164495,28.90321423599994
1623,C,2001249064055.0,1.1701355,10.063972230927432,3.451866021312972,116,1970-01-01 00:33:21.249064055,1.7308502,1.9760284,0.6829529,8.812028591693622,2.7142135723013783,-100.06941986083984,-5.594244003295898,-87.57867431640625,28953568.0,50354.0,0.1188688926799,-0.015829216422480155,0.17123901252369342,0.0050186269346121125,-0.0007972578243191765,0.008019484398106196,28.953568240000095
1623,C,2001299418058.0,0.8835449,10.631919430927432,4.635642821312972,116,1970-01-01 00:33:21.299418058,1.6361237,1.8593597,0.7763214,7.800439145519902,2.595533504269159,-100.21907043457031,-5.597102165222168,-87.65396118164062,29003922.0,50354.0,0.05170551143080001,0.027591264370519872,0.2036192101307934,0.004294551772295095,0.000296133081187796,0.009437805471772014,29.003922243000034
1623,C,2001349772062.0,1.7935486,9.080314430927432,4.207725421312972,116,1970-01-01 00:33:21.349772062,1.3572693,1.6544647,1.1470032,9.526279029811288,2.42797235097083,-100.14227294921875,-5.555272579193115,-87.74595642089844,29054276.0,50354.0,0.0674011830495,0.002825711939919882,0.2226494822445934,0.0029987492469305136,0.0007658082125679417,0.010732166867935114,29.05427624699996
1623,C,2001400126066.0,3.2541046,9.91576343092743,3.889213421312972,116,1970-01-01 00:33:21.400126066,1.0294342,1.2303162,0.8514862,9.278261301876281,1.8161611913325646,-100.0842056274414,-5.5241594314575195,-87.81430053710938,29104630.0,50354.0,0.1270847646164,-0.015204947672080159,0.2038566292407934,0.004896572704384364,-0.0003116720180285993,0.010738144368867584,29.104630251000117
1623,C,2001450480070.0,2.9544678,8.921256430927432,4.609001021312972,116,1970-01-01 00:33:21.450480070,0.5962372,0.87768555,0.26138306,9.839417146856913,1.0927725414731129,-100.04999542236328,-5.518960952758789,-87.8600082397461,29154984.0,50354.0,0.1563132273148,-0.019209550938080158,0.2139595450219934,0.007135111242851822,-0.0008664538315080062,0.010519357819414184,29.154984255000045
1623,C,2001500834074.0,0.32107544,9.047813430927432,5.026679821312972,116,1970-01-01 00:33:21.500834074,0.15090942,0.45744324,0.13645935,9.15898781698156,0.5006487042516503,-100.14193725585938,-5.428895950317383,-87.87410736083984,29205338.0,50354.0,0.08246835215348002,-0.041061928088080124,0.24259753657479344,0.006011803826272886,-0.0015174550274416375,0.011494737643362304,29.205338258999973
1623,C,2001551188078.0,1.1152344,6.311897430927431,5.675926021312972,116,1970-01-01 00:33:21.551188078,0.037200928,0.84339905,0.47816467,11.773365693090671,0.9702305490042935,-100.07614135742188,-5.413038730621338,-87.92566680908203,29255692.0,50354.0,0.036161972841680004,-0.10675775963108017,0.2694595072997934,0.002986755692403144,-0.0037216562777052987,0.012892060193630473,29.255692263000128
1623,C,2001601542082.0,1.7993774,4.751670430927431,7.267173624312972,116,1970-01-01 00:33:21.601542082,0.3561859,0.95526123,0.7158203,13.295726354242639,1.245709081122881,-100.05329895019531,-5.386147975921631,-87.97918701171875,29306046.0,50354.0,0.07338118128860001,-0.21492175194208019,0.3258684197779244,0.00275796799153806,-0.008098925062877458,0.014988571220035704,29.306046267000056
1623,C,2001651896086.0,2.6757813,2.418937430927432,10.164207321312972,116,1970-01-01 00:33:21.651896086,0.058898926,0.6756439,0.70402527,16.001460238161307,0.9775558009084373,-100.04664611816406,-5.3573808670043945,-88.01876831054688,29356400.0,50354.0,0.1126710705899,-0.31293480586208017,0.4388698780680244,0.0046842375455449945,-0.013289844555835345,0.019253816124867453,29.356400270999984
1623,C,2001702250090.0,-2.2167358,5.311881430927432,7.459800581312972,116,1970-01-01 00:33:21.702250090,-0.1292572,1.2834473,0.7896881,12.808093187192707,1.512465434616851,-100.04654693603516,-5.329697608947754,-88.08914184570312,29406754.0,50354.0,0.011557388553500006,-0.2988303735150801,0.4437196469644134,0.003127699915853382,-0.015402411921178766,0.022220956471741687,29.40675427500014
1623,C,2001752604094.0,-0.29022217,7.102164930927431,6.994224401312972,116,1970-01-01 00:33:21.752604094,-0.41506958,1.8789673,0.65579224,10.830006871141476,2.0329447441469934,-100.05815887451172,-5.313808917999268,-88.18779754638672,29457108.0,50354.0,-0.06311768081069,-0.18092075474758015,0.36390898698757346,-0.0012981334781592725,-0.012078694156268999,0.020333666117009177,29.457108279000067
1623,C,2001802958098.0,-0.36454773,8.366142430927432,3.547416521312972,116,1970-01-01 00:33:21.802958098,-0.9556427,1.7138367,0.107406616,10.260290711293193,1.9652036498772212,-100.0979995727539,-5.32351541519165,-88.27348327636719,29507462.0,50354.0,-0.0164851417723,-0.10402362555058015,0.2654068935089534,-0.002004160264171939,-0.007174044662766782,0.015844285923261058,29.507462282999995
1623,C,2001853312101.0,-2.7559662,9.147727430927432,6.462501381312972,116,1970-01-01 00:33:21.853312101,-1.8230133,2.8533936,-0.37104797,9.234161908998832,3.406304320600109,-100.17631530761719,-5.366889476776123,-88.41124725341797,29557816.0,50354.0,-0.07856517921561,-0.05252249848808012,0.2520197030344134,-0.00239308193151261,-0.003941361764921349,0.013027249421172348,29.557816285999934
1623,C,2001903666105.0,-3.4901428,10.555518830927433,4.457237021312972,116,1970-01-01 00:33:21.903666105,-1.8118439,2.7223053,0.10310364,8.621775287218671,3.2717510334615234,-100.25421905517578,-5.385957717895508,-88.54672241210938,29608170.0,50354.0,-0.157258286293,0.002599431134719899,0.2749262537629134,-0.005937327391110274,-0.0012569130667555502,0.013266918354286297,29.60817029000009
1623,C,2001954020109.0,-4.140747,11.511817430927431,6.793510291312972,116,1970-01-01 00:33:21.954020109,-1.5068512,1.9040527,0.8879852,7.647957424136574,2.585446758055128,-100.32000732421875,-5.359276294708252,-88.6487808227539,29658524.0,50354.0,-0.1921229124946,0.06212012506471988,0.2832600650899834,-0.008796370441875406,0.0016294442664332954,0.014053456949759385,29.658524294000017
1623,C,2002004374113.0,1.563034,9.499137430927432,4.340385321312972,116,1970-01-01 00:33:22.004374113,-0.5228729,1.476593,1.0552979,9.052691324519492,1.8887500138842674,-100.5546875,-5.436718940734863,-88.71086120605469,29708878.0,50354.0,-0.064899080201,0.03552361055691985,0.28031808983908346,-0.0064710427100971215,0.0024583763317460234,0.014189207206649117,29.708878297999945
1623,C,2002054728117.0,-2.7509918,11.30442023092743,6.680122221312972,116,1970-01-01 00:33:22.054728117,-0.42608643,2.2877045,1.0233002,7.192689582256843,2.5421024417734297,-100.5644302368164,-5.407380104064941,-88.83323669433594,29759232.0,50354.0,-0.029909213530600002,0.03030197125251983,0.27746331840069344,-0.0023869884112804936,0.0016572906732162627,0.014043262515252865,29.7592323020001
1623,C,2002105082121.0,-0.14056396,10.822715430927431,5.525382821312972,116,1970-01-01 00:33:22.105082121,0.11213684,2.892105,1.0818939,7.311960680323036,3.0898770869999663,-100.62355041503906,-5.218617916107178,-88.97862243652344,29809586.0,50354.0,-0.07280069936952001,0.06362569455851982,0.3072980004581934,-0.0025859274770863214,0.0023648168421245455,0.014722535724910195,29.80958630600003
1623,C,2002155436125.0,0.33706665,10.416541730927431,4.354148721312972,116,1970-01-01 00:33:22.155436125,0.7226105,2.9174347,1.108551,8.057499205857088,3.2035100254369953,-100.57344055175781,-5.190968036651611,-89.13285064697266,29859940.0,50354.0,0.004947348226130001,0.041271577564019835,0.2487369656486934,-0.0017083438217371301,0.0026409986202291813,0.01399929234167309,29.859940309999956
1623,C,2002205790129.0,0.9229126,9.623008430927431,3.402183421312972,116,1970-01-01 00:33:22.205790129,1.4971161,2.7252655,1.1100006,9.200131613507143,3.301595068201099,-100.48553466796875,-5.16130256652832,-89.27754974365234,29910294.0,50354.0,0.03172249757725,0.01106655442501983,0.19528117435489342,0.0009232367077916983,0.0013177171490880517,0.011179044710870306,29.91029431400011
1623,C,2002256144133.0,6.6230774,8.588325430927432,-2.210334978687028,116,1970-01-01 00:33:22.256144133,1.2912903,1.7964478,0.556015,14.855540863178383,2.2811856604020484,-100.41254425048828,-5.150249481201172,-89.37130737304688,29960648.0,50354.0,0.18998539023,-0.034962447360080154,0.030007168239993397,0.005581939491323133,-0.0006016268964260138,0.005672084601511466,29.96064831800004
1623,C,2002306498137.0,2.3303528,9.494224430927432,2.3043288213129722,116,1970-01-01 00:33:22.306498137,0.89424133,1.7150574,-0.517746,10.05223381681911,2.002286283749387,-100.3606185913086,-5.191173553466797,-89.45130920410156,30011002.0,50354.0,0.22542051214540001,-0.038204842128080146,0.002366482975793401,0.010458674404105446,-0.001842132847443412,0.0008150714166598644,30.011002321999968
1623,C,2002356852141.0,-5.1153717,1.3615944309274326,-0.028938478687027924,116,1970-01-01 00:33:22.356852141,0.8786011,-0.1272583,-0.09101868,18.80461476298491,0.8924230879739959,-100.31732940673828,-5.194509983062744,-89.44419860839844,30061356.0,50354.0,-0.0701184208453,-0.22015224851508014,0.057287502656293406,0.003910040752662619,-0.006504656471122847,0.0015019083962590496,30.061356326000123
1623,C,2002407206144.0,-3.954071,12.388435030927432,5.306785421312972,116,1970-01-01 00:33:22.407206144,0.08973694,1.030014,-0.22621155,7.077838239122544,1.0583729134619642,-100.30841827392578,-5.21485710144043,-89.4930419921875,30111710.0,50354.0,-0.2283413588579,-0.1472847082388801,0.1328803524744934,-0.007514321873587466,-0.009250960260194459,0.0047878560886278195,30.11171032900006
1623,C,2002457560148.0,-0.9819946,7.887031430927431,8.402824221312972,116,1970-01-01 00:33:22.457560148,0.52360535,1.5287018,0.14379883,10.150736690864136,1.6222730532747043,-100.27525329589844,-5.221437931060791,-89.56985473632812,30162064.0,50354.0,-0.12427532361120001,0.01700621911011986,0.3451668419723934,-0.008877830214524532,-0.0032800215207947963,0.01203579421458927,30.16206433299999
1623,C,2002507914152.0,0.13484192,8.13542943092743,5.727119321312972,116,1970-01-01 00:33:22.507914152,0.58932495,1.2671509,-0.12332153,9.909515841540403,1.4029196341290735,-100.20539855957031,-5.127871036529541,-89.63445281982422,30212418.0,50354.0,-0.02132876302436,-0.09007170288108018,0.35574958857269345,-0.003665874089223495,-0.001839569684901468,0.017646972971833652,30.212418336999917
1623,C,2002558268156.0,-0.25001526,7.330146430927432,7.831291051312972,116,1970-01-01 00:33:22.558268156,0.53134155,1.7854156,-0.08049011,10.61337563870998,1.864540523905977,-100.17101287841797,-5.147621154785156,-89.72196960449219,30262772.0,50354.0,-0.0028997191811800005,-0.10409239652608017,0.3413600979516034,-0.0006100004964888807,-0.004888469530774076,0.017551130577622222,30.262772341000073
1623,C,2002608622160.0,0.97332764,8.362281430927432,8.051704261312972,116,1970-01-01 00:33:22.608622160,0.57040405,2.4220886,-0.23574829,9.644919627205406,2.4994901925681337,-100.13188934326172,-5.180567264556885,-89.83956146240234,30313126.0,50354.0,0.018210835791260004,-0.09838094372208014,0.3998861729859834,0.0003854879828919843,-0.005097671287427933,0.018662357363395624,30.313126345
