Subject-id_accel,Activity_accel,Timestamp_accel,accel_x,accel_y,accel_z,Segment_accel,DateTime,gyro_x,gyro_y,gyro_z,accel_magnitude,gyro_magnitude,Roll,Pitch,Yaw,Time_Difference,Difference_Microseconds,vx,vy,vz,dx,dy,dz,Time_diff
1637,C,15533564529788.0,3.3322438579733635,18.0855,4.339341,191,1970-01-01 04:18:53.564529788,-1.5454049,1.6584796,0.023374565,18.8911655967082,2.2670194659175533,-59.81629943847656,-65.97315216064453,84.95747375488281,15038509.0,49900.0,0.06000981025787084,0.45004927264999994,0.282899068,0.0011150997663980052,0.020214411632049997,0.0137544971412225,15.038509829999384
1637,C,15533614429938.0,2.4463893579733638,10.957962,4.375254,191,1970-01-01 04:18:53.614429938,-0.71556395,1.0715189,2.5171585,12.523223141398526,2.827767924303383,-59.42418670654297,-65.73846435546875,84.57389831542969,15088409.0,49900.0,0.14417689873787085,0.2356143769,0.21742914524999998,0.005094458389443755,0.0171073080562725,0.0124831889205875,15.088409980000506
1637,C,15533664330088.0,3.9212175579733635,11.118374,3.6306572,191,1970-01-01 04:18:53.664330088,-0.2500434,1.0171903,3.1296856,12.008658580197807,3.3003226756099187,-59.01178741455078,-65.66657257080078,84.20133972167969,15138310.0,49901.0,0.1588749763563288,0.061785821367999955,0.1997514873956,0.007561295809537827,0.007420283646885733,0.010408865374824043,15.138310129999809
1637,C,15533714230238.0,3.6291249579733638,8.362647,1.5692496,191,1970-01-01 04:18:53.714230238,-0.30224136,0.7327648,2.852717,9.026611047558777,2.9607918491347363,-59.19872283935547,-65.58172607421875,84.37516021728516,15188210.0,49900.0,0.18838104577287085,-0.002968526050000032,0.12973767466,0.008664037752123531,0.001467491518184098,0.00822075459328722,15.18821028000093
1637,C,15533764130388.0,5.460689257973364,4.6468463,1.0760441,191,1970-01-01 04:18:53.764130388,-0.29904556,0.15752198,2.2732131,4.914148276351193,2.298203476446427,-59.10200500488281,-65.62420654296875,84.29473114013672,15238110.0,49900.0,0.22679086468787085,-0.16443314216500002,0.066000077815,0.010358539165995505,-0.004176671621964251,0.00488365692425125,15.238110430000233
1637,C,15533814030538.0,5.994596217973363,2.8104935,1.1143513,191,1970-01-01 04:18:53.814030538,-0.2351297,-0.41985133,1.520071,3.092094568507957,1.5944205719213043,-59.23931884765625,-65.5696792602539,84.43260955810547,15288010.0,49900.0,0.2858093726248708,-0.30295937199000006,0.05465036523,0.012789375920952903,-0.011661443228167251,0.00301022855397275,15.288010579999536
1637,C,15533863930688.0,5.168596657973364,2.7721863,0.5565023,191,1970-01-01 04:18:53.863930688,0.23678245,-0.8278476,0.22151375,3.188809497615289,0.8890815029528086,-59.61626434326172,-65.46131134033203,84.80349731445312,15337910.0,49900.0,0.27852166225487085,-0.34973213899000005,0.041687797320000004,0.014080059320249555,-0.016284653198951,0.0024036371556225,15.337910730000658
1637,C,15533913831488.0,4.2707709579733635,3.1672297,0.8892963,191,1970-01-01 04:18:53.913831488,0.33052573,-1.111208,-0.95240766,4.055804290616201,1.5003702304040523,-59.652076721191406,-65.53047943115234,84.86101531982422,15387811.0,49901.0,0.23551694170167883,-0.34083840109200003,0.0360733979693,0.012825520188017893,-0.017230080260315944,0.0019401807030656798,15.387811529999453
1637,C,15533963732288.0,4.565257657973364,2.7147255,3.7838862,191,1970-01-01 04:18:53.963732288,0.6064292,-0.87471926,-1.9154067,5.099455132566182,2.1912720015626714,-59.59818649291992,-65.63520050048828,84.83512115478516,15437712.0,49901.0,0.22046333198217882,-0.3422720767824,0.11659823996625,0.01137693581854909,-0.01704394797820522,0.0038092337023109403,15.437712330000068
1637,C,15534013633088.0,3.7177103579733637,4.1608233,0.29792848,191,1970-01-01 04:18:54.013633088,-0.23299916,-0.430504,-3.1628313,5.094937756593436,3.200488108841587,-59.47330093383789,-65.78242492675781,84.68534088134766,15487613.0,49901.0,0.2066641934818788,-0.3174814196656,0.10184331717334,0.01065704532409097,-0.016461179613125827,0.005450226071411341,15.487613130000682
1637,C,15534063533888.0,0.11683095797336396,19.552547,3.1135097,191,1970-01-01 04:18:54.063533888,0.29643726,-0.82891285,-4.7191825,20.84674088197549,4.800589029516865,-59.37605285644531,-66.1064224243164,84.57553100585938,15537513.0,49900.0,0.09567180583287085,0.10262858898499999,0.08511538259099999,0.007543283182903003,-0.005360578125480971,0.004664619559120282,15.537513929999477
1637,C,15534113434688.0,0.8686105579733638,19.462166,7.9545856,191,1970-01-01 04:18:54.113434688,0.9057685,-0.9365046,-3.3652315,21.803546345766794,3.6086341585156094,-59.227317810058594,-66.27499389648438,84.46246337890625,15587414.0,49901.0,0.024587258543628834,0.4844067967065,0.27615451178265,0.0030005237857258556,0.014646826390695773,0.009013864499569754,15.587414730000091
1637,C,15534163335488.0,3.0712759579733637,12.327445,3.7838862,191,1970-01-01 04:18:54.163335488,1.0826024,-0.6606011,-0.5838262,13.380610445438409,1.3961643175548535,-58.82376480102539,-66.35700988769531,84.14786529541016,15637315.0,49901.0,0.09830213851612883,0.3041368892555,0.2928807406459,0.0030661519013394836,0.01967455923659488,0.014197714065718537,15.637315530000706
1637,C,15534213236288.0,4.620324557973364,13.292309,2.1031566,191,1970-01-01 04:18:54.213236288,2.5803642,-0.9652667,1.0044831,13.60881570606078,2.932406094823181,-58.84838104248047,-66.3390121459961,84.31558990478516,15687216.0,49901.0,0.19190927867312882,0.15019587217699998,0.1468846613814,0.007240919964580573,0.01133582956412159,0.010972366663282149,15.6872163299995
1637,C,15534263137088.0,4.131907357973363,10.601226,3.0129533,191,1970-01-01 04:18:54.263137088,-0.1509738,-0.61479473,1.0300494,11.303510331085775,1.209035737587013,-58.571903228759766,-66.4194107055664,84.07661437988281,15737117.0,49901.0,0.2183725624188288,0.10712584501749997,0.12764950005995,0.01023673707616489,0.00642030550486137,0.006849764595042404,15.737117130000115
1637,C,15534313037888.0,3.6722206579733636,7.2277956,3.3146226,191,1970-01-01 04:18:54.313037888,-1.3185036,-0.36019653,0.6273795,8.488412058111235,1.5039276313896395,-58.71045684814453,-66.40202331542969,84.15586853027344,15787017.0,49900.0,0.19471299399787084,-0.044185911080000015,0.15787301870499998,0.010306484632596657,0.0015703513517406238,0.007123786843185501,15.78701793000073
1637,C,15534362938688.0,2.9874789579733636,6.770503,2.0983682,191,1970-01-01 04:18:54.362938688,-1.736087,-0.14075206,0.12883574,7.975306783615865,1.7465416862659164,-58.864990234375,-66.19340515136719,84.2215576171875,15836918.0,49901.0,0.16616283526767883,-0.13976525078070004,0.13505682695539997,0.009004032378090098,-0.0045896734640053964,0.007308746114149808,15.836918729999525
1637,C,15534412839488.0,2.135142957973364,7.82874,0.29553428,191,1970-01-01 04:18:54.412839488,-0.7358037,-0.0885541,-0.4474723,9.038643086998409,0.8657253449147657,-58.884151458740234,-66.21485900878906,84.2022933959961,15886819.0,49901.0,0.12781197811382883,-0.12477138752850005,0.05972906382724,0.007334818581275307,-0.006600321394133697,0.004860005367972258,15.886819530000139
1637,C,15534462740288.0,3.0545164579733637,8.037036,-0.5256769,191,1970-01-01 04:18:54.462740288,-0.042316563,-0.14181732,-0.68183047,8.817444383245629,0.6977074125853445,-58.86005401611328,-66.24772644042969,84.17364501953125,15936720.0,49901.0,0.12948459725757883,-0.09317075591200003,-0.005742173440310001,0.006419678203804307,-0.005437765449912197,0.001346999908599097,15.936720330000753
1637,C,15534512641088.0,3.7560175579733635,7.3475056,1.1406875,191,1970-01-01 04:18:54.512641088,0.43811768,-0.26645327,-0.5018008,7.976310883987545,0.7174597476534244,-59.06536865234375,-66.30426025390625,84.38102722167969,15986621.0,49901.0,0.16992622896487883,-0.10517779480920003,0.015344821975300002,0.007470449819663429,-0.004948895514769302,0.00023959088227226805,15.986621129999548
1637,C,15534562541888.0,4.1295131579733635,6.3946133,1.2316672,191,1970-01-01 04:18:54.562541888,-0.19891043,0.025429193,-0.31431425,6.980370949675709,0.3728343476297197,-59.17478942871094,-66.32032775878906,84.46842956542969,16036521.0,49900.0,0.19674399136287082,-0.14615413344500006,0.059190249764999994,0.009148421997177353,-0.006270731609942292,0.001859650039920485,16.036521930000163
1637,C,15534612442688.0,4.014591357973364,5.8008513,1.6171336,191,1970-01-01 04:18:54.612442688,-0.9190292,0.43342546,-0.24081102,6.570647037429252,1.0442520036764555,-59.14179229736328,-66.21138763427734,84.38619232177734,16086421.999999998,49900.99999999814,0.20319947972512123,-0.18474686049769315,0.07107900436039735,0.009978789575380573,-0.008256145249366858,0.0032502830250556052,16.086422730000777
1637,C,15534662343488.0,3.2699946579733634,5.142446,2.0528784,191,1970-01-01 04:18:54.662343488,-0.99572825,0.5783014,-0.23654996,6.483522456061385,1.1755267502979352,-59.12152099609375,-66.20671081542969,84.30962371826172,16136323.0,49901.00000000186,0.1817540633908856,-0.2159890607163581,0.09156863440600341,0.009604783377516286,-0.009998561602251557,0.0040581399110412334,16.136323529999572
1637,C,15534712244288.0,2.104018357973364,9.844658,3.0057707,191,1970-01-01 04:18:54.712244288,-0.121146135,0.44194758,-0.47623447,11.249625981895587,0.6609034119366275,-58.97856521606445,-66.08783721923828,84.16075134277344,16186224.0,49901.0,0.13408431175437882,-0.11509406164800003,0.12621582436955,0.00788032537906192,-0.008260689444551918,0.005433831138679446,16.186224330000186
1637,C,15534762145088.0,1.3737869579733637,15.095142,5.7519197,191,1970-01-01 04:18:54.762145088,1.0410573,0.55593085,-0.70420104,16.991534508487838,1.3743211111680176,-58.372528076171875,-66.04193115234375,83.63741302490234,16236125.000000002,49901.00000000186,0.08677298153553206,0.13323067990000492,0.21850875432520814,0.005510499896230127,0.00045251769369666504,0.008601050600723885,16.2361251300008
1637,C,15534812045888.0,1.7329169579733632,15.736789,5.8859954,191,1970-01-01 04:18:54.812045888,0.5606231,0.65286994,-0.32603216,17.504289453240403,0.9202360502411755,-57.77219009399414,-66.01701354980469,83.0997085571289,16286024.999999998,49899.999999996275,0.07751226270286504,0.28023667844997907,0.29036598174497835,0.004098916843747702,0.01031601059083133,0.012696424664950206,16.286025929999596
1637,C,15534861946688.0,5.563639957973363,9.085696,5.8141694,191,1970-01-01 04:18:54.861946688,0.33691758,0.65073943,0.9565462,10.840636688737815,1.204971325054759,-57.7508430480957,-65.95921325683594,83.09478759765625,16335926.0,49901.00000000186,0.1820527433313356,0.13030361199250484,0.2919249618424109,0.006476276683056564,0.010243185516685576,0.0145284501879777,16.33592673000021
1637,C,15534911847488.0,3.5644814579733635,8.101679,3.568408,191,1970-01-01 04:18:54.911847488,0.23039113,0.8574007,1.741646,9.37271927777821,1.9548777001283653,-57.25057601928711,-65.73714447021484,82.6529769897461,16385826.999999998,49900.99999999814,0.22775119338857028,-0.060196200062497755,0.23409999741869122,0.010224813123129629,0.0017492149813595763,0.01312458574604364,16.385827530000824
1637,C,15534961751438.0,4.969877857973364,7.6922708,3.0632315,191,1970-01-01 04:18:54.961751438,0.7917855,0.8318344,1.7512335,8.447110425189699,2.094204268584099,-57.238433837890625,-65.6410140991211,82.68309783935547,16435731.0,49904.00000000186,0.21294933365151067,-0.09496856459040356,0.16547266880400618,0.01099635955070451,-0.0038716712076193385,0.009970137167589117,16.43573147999996
1637,C,15535011655388.0,4.696938957973364,6.5717845,2.5412955,191,1970-01-01 04:18:55.011655388,0.8802024,0.7402216,1.6031617,7.309828612089992,1.9730209624885415,-56.70833969116211,-65.5462646484375,82.24552154541016,16485634.999999998,49903.99999999814,0.24120641319149375,-0.13314249215439508,0.13984415770399478,0.011332094195226223,-0.005691827087896003,0.007618265455027356,16.48563543000091
1637,C,15535061559338.0,7.318589757973363,5.5015764,3.2811038,191,1970-01-01 04:18:55.061559338,-0.34804747,0.35566115,1.5126143,6.4412296215988025,1.592367393398023,-56.784149169921875,-65.47325897216797,82.30970001220703,16535539.0,49904.00000000186,0.2998114725203139,-0.18780469882320705,0.14528050733360542,0.013499478284281528,-0.008008274309273427,0.007114430642018466,16.535539380000046
1637,C,15535111463288.0,3.4639249579733637,5.7793036,1.6362872,191,1970-01-01 04:18:55.111463288,-2.5158606,0.38016224,1.4092836,6.795892227107329,2.9086351013118055,-57.14598083496094,-65.2273941040039,82.53353881835938,16585443.000000002,49904.00000000186,0.2690453071923128,-0.2075786822400078,0.12269874023200458,0.014194114367389992,-0.009865606124289706,0.0066866181852573495,16.585443330001
1637,C,15535161367238.0,0.930859757973364,8.032248,0.767192,191,1970-01-01 04:18:55.161367238,-1.1097115,-0.1546005,1.0769211,9.886043848813863,1.5540656303572606,-57.278682708740234,-65.18634796142578,82.61860656738281,16635347.0,49903.99999999814,0.10965866823229864,-0.14443336447679467,0.05997161299839776,0.009449421594794552,-0.008783404589677328,0.004557990653804829,16.635347280000133
1637,C,15535211271188.0,1.7496763579733638,12.796709,0.21413141,191,1970-01-01 04:18:55.211271188,1.2274786,-0.113055184,0.4750467,13.70204344128239,1.3210429800987262,-57.25531768798828,-65.16938018798828,82.66048431396484,16685251.000000002,49904.00000000186,0.06688473716510525,0.030664935064001086,0.024485981726320914,0.004405111051476186,-0.0028387498507081313,0.002107385903571259,16.685251230001086
1637,C,15535261175138.0,4.031350757973364,12.147881,0.70254856,191,1970-01-01 04:18:55.261175138,1.0431879,-0.0043982104,-0.10765296,12.4452871985581,1.0487370970638419,-57.19725799560547,-65.17402648925781,82.65397644042969,16735154.999999998,49903.999999996275,0.144248188597092,0.13335820967999001,0.022872998611438294,0.005268188763617952,0.00409270550765176,0.0011817012773876795,16.73515518000022
1637,C,15535311079088.0,3.6794032579733638,13.821427,1.8757074,191,1970-01-01 04:18:55.311079088,-0.2990453,-0.17164473,-0.85759914,14.259484062017428,0.9243193656510733,-57.17757797241211,-65.21473693847656,82.6158218383789,16785059.0,49904.00000000186,0.19239873420590994,0.15892697321600593,0.0643326427139224,0.008400014017780818,0.007293099883621162,0.0021759551623504814,16.785059130001173
1637,C,15535360983038.0,3.1574672579733636,12.009016,1.4255974,191,1970-01-01 04:18:55.360983038,-1.490011,-0.19295001,-1.4328419,12.585609406497506,2.076149897496712,-57.37468719482422,-65.47058868408203,82.71443939208984,16834963.0,49904.0,0.17059359311390274,0.15546201373599994,0.08237415736959999,0.009057384551283965,0.007844634002426451,0.00366062807568405,16.834963080000307
1637,C,15535410886988.0,1.6563025579733637,8.839093,1.064073,191,1970-01-01 04:18:55.410886988,-1.3973329,-0.4475482,-1.7534865,10.204348485339256,2.2863843794139034,-57.38215637207031,-65.5564956665039,82.64588165283203,16884867.0,49904.0,0.12011318444750274,0.031142815767999984,0.0621222558208,0.00725371551371219,0.004656163705783806,0.0036054745019268603,16.88486702999944
1637,C,15535460790938.0,1.8645984579733632,7.211036,2.4886231,191,1970-01-01 04:18:55.460790938,0.29217646,-0.92585194,-1.7470949,9.001398594643826,1.9987269668931535,-57.3495979309082,-65.65499114990234,82.62617492675781,16934770.0,49903.0,0.08785176169939476,-0.08857460625650004,0.08864509673915,0.005189037353784313,-0.0014330093203738091,0.0037618715973995924,16.934770980000394
1637,C,15535510694888.0,1.6922155579733635,7.088932,2.7064953,191,1970-01-01 04:18:55.510694888,1.8836815,-1.187907,-1.3987534,9.060248465012107,2.6298079983342526,-57.28252029418945,-65.74595642089844,82.65591430664062,16984674.0,49904.0,0.08874962332590272,-0.13224639846400002,0.1296285943168,0.004406557759151223,-0.005509925709785917,0.005446365139228064,16.984674929999528
1637,C,15535560598838.0,2.8557976579733637,7.9628158,2.9076083,191,1970-01-01 04:18:55.560598838,2.058385,-1.1090775,-0.8362938,9.284575432778249,2.483221502232471,-57.083553314208984,-65.64645385742188,82.57828521728516,17034578.0,49904.0,0.11348202576430273,-0.11348798889440002,0.1400831130272,0.005046084108098806,-0.006131564433366797,0.006729846521647487,17.03457888000048
1637,C,15535610502788.0,4.833408357973363,9.428067,2.8836663,191,1970-01-01 04:18:55.610502788,1.7473277,-0.82678235,-0.5998051,10.023897125630054,2.023978582753489,-57.03684997558594,-65.69409942626953,82.62291717529297,17084482.0,49904.0,0.19186106850990273,-0.05512189237440001,0.14450388381919999,0.007618920888329974,-0.004207153757419098,0.007101014745311372,17.084482829999615
1637,C,15535660406738.0,4.787918557973364,8.142381,2.0863972,191,1970-01-01 04:18:55.660406738,-0.34591693,-0.20147213,-0.6914179,8.60770931099695,0.7989419591358135,-56.72929000854492,-65.87776947021484,82.3223876953125,17134386.0,49904.0,0.24007134920670276,-0.050641381504000015,0.12401302445199999,0.01077757768686474,-0.002639005209813837,0.006700033895182982,17.13438678000057
1637,C,15535710310688.0,3.9643131579733635,7.23019,2.8908489,191,1970-01-01 04:18:55.710310688,-1.3195686,0.032886043,-0.7894222,8.23455458387611,1.5380280204804455,-56.34156036376953,-65.81593322753906,81.89897155761719,17184290.0,49904.0,0.21838568577630274,-0.105482808408,0.1241922446872,0.011439419936895952,-0.0038956107866842246,0.006193217875561318,17.184290729999702
1637,C,15535760214638.0,3.0449396579733636,6.1839237,3.0033765,191,1970-01-01 04:18:55.760214638,-1.7446091,0.3545959,-0.57530403,7.7593200697156215,1.870928617300473,-56.36039733886719,-65.83003997802734,81.82400512695312,17234194.0,49904.0,0.17489487626350272,-0.1543502349576,0.14707271218079998,0.009813136584017225,-0.0064833540980584504,0.0067686032037703354,17.234194680000655
1637,C,15535810118588.0,1.6275722579733634,9.693824,3.331382,191,1970-01-01 04:18:55.810118588,-0.870027,0.40359807,-0.41977543,11.411511908895932,1.0469239678545954,-56.342384338378906,-65.6450424194336,81.75626373291016,17284098.0,49904.0,0.11658851732670271,-0.09287763938960004,0.15806489409199997,0.007273093636862805,-0.006168829920711336,0.007613793551718904,17.28409862999979
1637,C,15535860022538.0,2.9443832579733638,14.577995,5.926697,191,1970-01-01 04:18:55.860022538,-0.15097353,0.7764406,-0.47090814,16.16549607993294,0.9205473852047381,-56.249717712402344,-65.64308166503906,81.64625549316406,17334002.0,49904.0,0.11407943403390272,0.11657122768799993,0.231007587208,0.005755626722349826,0.000591202415221674,0.009708136553397598,17.334002580000742
1637,C,15535909926488.0,1.9555779579733636,13.51018,3.9395092,191,1970-01-01 04:18:55.909926488,-2.0631232,1.1333042,-0.123631924,14.832949685739806,2.3571467075147914,-56.084232330322266,-65.61923217773438,81.38069152832031,17383906.0,49904.0,0.12226383226030274,0.21179694259999995,0.2461815771024,0.0058972371805730145,0.008193442585026174,0.0119068240278731,17.383906529999877
1637,C,15535959830438.0,3.3801279579733636,12.301109,5.9123316,191,1970-01-01 04:18:55.959830438,0.058883555,0.38868436,0.93417567,14.032787486787633,1.013522070395113,-56.10316848754883,-65.56962585449219,81.40471649169922,17433810.0,49904.0,0.13313653401470274,0.1549840831279999,0.24582313164159997,0.006372749939293937,0.009151920153965052,0.012276501492580286,17.43381048000083
1637,C,15536009746138.0,3.0257859579733637,9.686641,3.47264,191,1970-01-01 04:18:56.009746138,-0.32461163,0.5612572,1.6436417,10.907534365225764,1.7669013534609075,-55.8955192565918,-65.42118072509766,81.21031188964844,17483726.0,49916.0,0.15987879951419842,0.05959346449999997,0.2342301211928,0.007313076694214316,0.005355426433699621,0.011981169084240954,17.483726180000303
1637,C,15536059661838.0,3.7823537579733637,7.3451114,2.9770403,191,1970-01-01 04:18:56.059661838,0.2761975,0.43981704,1.9728085,8.425947412449647,2.0400238884270108,-55.61293411254883,-65.22208404541016,80.98152923583984,17533641.0,49915.0,0.16991414696074045,-0.06409703947700003,0.16096789608725,0.008230807461648287,-0.00011239797248847902,0.009863154516266848,17.533641879999777
1637,C,15536109577538.0,3.2125339579733634,6.4760165,2.69213,191,1970-01-01 04:18:56.109577538,0.7086949,0.34394327,2.031398,7.807322585914857,2.1787894043868263,-55.547080993652344,-64.90165710449219,80.97208404541016,17583557.0,49916.0,0.17457840761459842,-0.14422908987180003,0.1414911523474,0.008597845177091308,-0.005199403536287352,0.007548772930831994,17.58355758000107
1637,C,15536159493238.0,9.231556757973364,7.2373724,2.8166287,191,1970-01-01 04:18:56.159493238,3.6861088,-0.45500505,1.6425765,8.18619002027647,4.061094093876082,-55.501888275146484,-64.84683227539062,81.12574005126953,17633473.0,49916.0,0.3105796160885984,-0.14691803983380003,0.1374875996346,0.012108573955584387,-0.007266450063192367,0.006962751691966756,17.633473280000544
1637,C,15536209408938.0,4.589199657973364,5.688324,1.3178585,191,1970-01-01 04:18:56.209408938,2.598474,-0.20147213,1.531789,6.189650882355154,3.023083804389772,-55.523948669433594,-64.83797454833984,81.28526306152344,17683388.0,49915.0,0.34493152825099044,-0.16657393209700005,0.103186464294,0.01635991938485529,-0.007823975889462943,0.006006622950498034,17.683388980000018
1637,C,15536259324638.0,5.6665906079733634,6.6436105,3.2978632,191,1970-01-01 04:18:56.259324638,-0.370418,0.052060805,1.1142054,7.481095542319929,1.1753184655787587,-55.604896545410156,-64.79057312011719,81.354248046875,17733304.0,49916.0,0.2559640134574984,-0.18139637874900005,0.11519918218860001,0.014997150929960467,-0.008684643018094471,0.005450468964912731,17.733304679999492
1637,C,15536309240338.0,3.6099714579733635,7.2254014,3.02253,191,1970-01-01 04:18:56.309240338,-0.2606958,-0.03529088,0.790365,8.398882621458775,0.832997346678736,-55.357269287109375,-64.63397216796875,81.1286849975586,17783220.0,49916.0,0.23152443604189843,-0.14303400099980004,0.1577443734856,0.012166736722605946,-0.008097133417770552,0.006812125262516685,17.783220380000785
1637,C,15536359156038.0,2.7217225579733637,6.9596453,1.8900726,191,1970-01-01 04:18:56.359156038,0.35928813,0.056321863,0.6007479,8.208852865175158,0.7022521996869057,-55.64296340942383,-64.44955444335938,81.40918731689453,17833136.0,49916.0,0.1580264192499984,-0.13514640446140003,0.12260873569080001,0.00972241024637516,-0.006942826559500631,0.006997052898824591,17.83313608000026
1637,C,15536409071738.0,3.480684457973364,8.93965,1.384896,191,1970-01-01 04:18:56.409071738,1.2200217,-0.07150987,0.2140569,9.583077093725597,1.2407203417434232,-55.823909759521484,-64.56145477294922,81.63143920898438,17883051.0,49915.0,0.15479657310049044,-0.09236033755025003,0.08173502883450001,0.007807279831587325,-0.005677999513755756,0.005099909503140175,17.883051779999732
1637,C,15536458987438.0,3.0952179579733636,11.767202,2.4359505,191,1970-01-01 04:18:56.458987438,1.6067128,-0.16312261,-0.5763693,12.529464656313863,1.7147409651488301,-55.717369079589844,-64.72343444824219,81.6036605834961,17932967.0,49916.0,0.1641213724971984,0.027624812215999956,0.095360686947,0.007959554086227118,-0.0016156692412922133,0.004419954874474678,17.932967480001025
1637,C,15536508903138.0,1.232528957973364,14.781502,2.3952491,191,1970-01-01 04:18:56.508903138,0.83439606,-0.47950613,-1.4083408,15.921776168721372,1.7057452103393813,-55.85970687866211,-64.88941955566406,81.76170349121094,17982883.0,49916.0,0.10801190752819843,0.1734257544319999,0.1205770796168,0.006791902402873854,0.005017820042400781,0.005389374777899321,17.9828831800005
1637,C,15536558818838.0,2.5373689579733636,12.648269,5.395184,191,1970-01-01 04:18:56.558818838,0.62240845,-1.2401049,-1.3422945,14.350704788569306,1.930545769041921,-55.34853744506836,-64.93390655517578,81.33273315429688,18032798.0,49915.0,0.09408722723724046,0.19541150973249993,0.19442973409325,0.005043889155908441,0.009205256020385504,0.007861782553168573,18.032798879999973
1637,C,15536608734538.0,4.0409275579733634,9.430461,4.4398975,191,1970-01-01 04:18:56.608734538,-0.08386188,-1.3231956,-0.48262605,10.743227650895694,1.4109597141361254,-55.43999481201172,-64.99136352539062,81.42903900146484,18082714.0,49916.0,0.1641811244449984,0.06186414333999997,0.24546396407700005,0.0064458615212853185,0.006421085749383453,0.0109788669189331,18.082714579999447
1637,C,15536658650238.0,1.7951666579733638,8.365042,2.9363387,191,1970-01-01 04:18:56.658650238,0.26234907,-1.1410353,0.25134116,10.104319256241272,1.1974810934148816,-55.652366638183594,-64.78760528564453,81.6561050415039,18132630.0,49916.0,0.14565723944159842,-0.045036636126000035,0.18409610307959998,0.007732945885881683,0.0004199809250470104,0.010720960156094424,18.13263028000074
1637,C,15536708565938.0,4.486249157973363,7.9221144,2.8525417,191,1970-01-01 04:18:56.708565938,1.1337354,-1.2017554,0.44095823,8.691856027728743,1.7099754849842301,-55.28632354736328,-64.85365295410156,81.40257263183594,18182545.0,49915.0,0.15676843522649045,-0.08268029414700002,0.144475982583,0.007547788775528828,-0.0031874952872883995,0.008200337827924339,18.182545980000214
1637,C,15536758481638.0,5.4271704579733635,8.060978,3.6953006,191,1970-01-01 04:18:56.758481638,1.1230828,-1.1751238,0.10859572,8.950575168930465,1.6291175376210885,-55.339759826660156,-64.88263702392578,81.52362060546875,18232461.0,49916.0,0.24741912677479838,-0.09027077988080003,0.1634210481234,0.010087713172428167,-0.0043165129055858335,0.007684494092370332,18.232461679999687
1637,C,15536808397338.0,4.198944957973364,8.1998415,5.170129,191,1970-01-01 04:18:56.808397338,0.5265346,-0.80015075,-0.30153108,9.997045665131486,1.004191664936873,-55.365386962890625,-64.91777801513672,81.58098602294922,18282377.0,49916.0,0.24024858855119846,-0.08333926691900004,0.22126339195680003,0.012171210839106229,-0.004332959548029411,0.009600954255521633,18.28237738000098
1637,C,15536858313038.0,4.910022857973363,8.240543,5.3425117,191,1970-01-01 04:18:56.858313038,-0.46735707,-0.2568659,-0.54441136,9.972567705775957,0.7620934656319029,-55.37828063964844,-64.94745635986328,81.56941986083984,18332293.0,49916.0,0.2273416187503984,-0.07885768364900003,0.26237448659060003,0.011670116393833254,-0.004048111492276146,0.012070634172786011,18.332293080000454
1637,C,15536908228738.0,3.7344697579733634,7.58932,4.2268133,191,1970-01-01 04:18:56.908228738,-1.3866802,0.14260828,-0.6626557,9.160957212589485,1.543480377374163,-55.39478302001953,-64.9706802368164,81.51110076904297,18382208.0,49915.0,0.2157449244624904,-0.09409319417750002,0.23882642868749998,0.011058332402235672,-0.004316421533354875,0.012508721843053183,18.382208779999928
1637,C,15536958144438.0,3.1766209579733635,6.9740105,3.6450224,191,1970-01-01 04:18:56.958144438,-0.8455259,0.4952108,-0.40699226,8.598757336768902,1.0610327439374139,-55.3686637878418,-64.97337341308594,81.43561553955078,18432124.0,49916.0,0.17248700208859843,-0.12570519738100003,0.19646527540060002,0.009689492422862076,-0.005485728256517045,0.0108640103506308,18.432124479999402
1637,C,15537008060138.0,3.2723889579733636,6.9835873,3.805434,191,1970-01-01 04:18:57.008060138,0.9569015,0.5506046,0.04681038,8.637862943439556,1.1049964334418252,-55.27519226074219,-64.95579528808594,81.38526153564453,18482040.0,49916.0,0.16095438948219842,-0.14082307410760003,0.18594849083120002,0.00832203025082395,-0.00665201259981248,0.009544282777613265,18.482040180000695
1637,C,15537057976668.0,4.541315657973364,7.6898766,5.3856072,191,1970-01-01 04:18:57.057976668,1.4352052,0.9404913,0.480373,9.620599932047663,1.7818799259803477,-55.150150299072266,-64.90922546386719,81.3264389038086,18531956.0,49916.0,0.19501443980479843,-0.12295648798380004,0.22939000626960002,0.008884270041344868,-0.006583410310677163,0.010366018210641769,18.531956709999577
1637,C,15537107893198.0,5.659407957973364,9.859023,4.906767,191,1970-01-01 04:18:57.107893198,0.20375952,1.3005507,0.258798,11.056405515240566,1.34161338323122,-55.0420036315918,-64.8614273071289,81.21825408935547,18581873.0,49917.0,0.25459476036860645,-0.05119238933340003,0.25688222147070006,0.011221571222527926,-0.004346494754521339,0.012136625396056281,18.581873240000277
1637,C,15537157809728.0,4.196550757973363,11.66904,7.0639424,191,1970-01-01 04:18:57.157809728,-0.6101025,0.84248704,-0.40805754,13.858238452679071,1.1173721085766652,-54.97404861450195,-64.85399627685547,81.1094970703125,18631789.0,49916.0,0.24598501763259842,0.048120596354,0.2987649652052,0.012493470099354073,-7.666580917986596e-05,0.013867842485057114,18.631789770000978
1637,C,15537207726258.0,2.7025689579733636,11.884518,6.89156,191,1970-01-01 04:18:57.207726258,-0.8433954,0.77004904,-0.3878175,14.292031858751681,1.20610685183873,-54.925350189208984,-64.84773254394531,81.00910949707031,18681706.0,49917.0,0.17219167943045638,0.09867487734299998,0.3483084066504,0.010437063093648254,0.003663794830266574,0.016149980751457994,18.68170629999986
1637,C,15537257642788.0,4.366539157973364,10.589254,5.96261,191,1970-01-01 04:18:57.257642788,-0.44072545,0.44088233,0.1032694,12.363946893812276,0.6318866355291045,-54.915283203125,-64.83082580566406,80.9736328125,18731622.0,49916.0,0.17643080035779843,0.07172360157599998,0.32081437486000003,0.008700919850555263,0.004252805236860401,0.016699966380936564,18.73162283000056
1637,C,15537307559318.0,4.373721757973364,8.918102,4.6936827,191,1970-01-01 04:18:57.307559318,0.30495963,0.27896214,0.44521928,10.330184664123916,0.6074870029612444,-54.902976989746094,-64.80459594726562,80.97689056396484,18781539.0,49917.0,0.21814380207065642,-0.002312255274000043,0.26596508135295,0.009847990214710592,0.0017324030866784656,0.014645135057890914,18.781539359999442
1637,C,15537357475848.0,5.9251643579733635,7.5462246,4.909161,191,1970-01-01 04:18:57.357475848,0.7853939,0.3119853,0.5038088,9.031091901351726,0.9838707804029653,-54.86737060546875,-64.77500915527344,80.98094177246094,18831455.0,49916.0,0.25703959968179846,-0.07826013671720004,0.23966777306460005,0.011859627340937769,-0.0020109257593163717,0.012619584780553214,18.831455890000143
1637,C,15537407392378.0,5.017761857973364,6.392219,3.721637,191,1970-01-01 04:18:57.407392378,0.08338464,0.5218424,0.48889512,7.573134527695174,0.71992425086637,-54.847801208496094,-64.7400131225586,80.96392059326172,18881372.0,49917.0,0.2731190239607064,-0.14130395540940005,0.21541177188300004,0.01323196400818146,-0.0054799903933417495,0.011358102822574677,18.881372420000844
1637,C,15537457308908.0,4.950724257973364,5.915773,3.3457472,191,1970-01-01 04:18:57.457308908,0.20056373,0.5229077,0.4558719,7.003863957130359,0.7221339638324823,-54.82029342651367,-64.70631408691406,80.94458770751953,18931288.0,49916.0,0.24879347648179845,-0.18199393566400004,0.1763877748636,0.013025892186044039,-0.008068868765409921,0.009778533087701644,18.931288949999725
1637,C,15537507225438.0,5.123106757973364,5.094562,3.2380083,191,1970-01-01 04:18:57.507225438,0.34117863,0.37909698,0.5219183,6.224890529786169,0.7297370003560785,-54.80229187011719,-64.67406463623047,80.94354248046875,18981205.0,49917.0,0.2514277114115064,-0.21438515390250007,0.16432066164675002,0.01248477051803505,-0.009893027506945495,0.008503571512643571,18.981205480000426
1637,C,15537557141968.0,5.408016857973363,5.238214,3.0895677,191,1970-01-01 04:18:57.557141968,0.47433668,0.23422103,0.6103353,6.205597349276869,0.8076905071336257,-54.79552459716797,-64.64239501953125,80.96229553222656,19031122.0,49917.0,0.2628410487686064,-0.23129601020400006,0.15792680559600003,0.012835376850955347,-0.011123533334352086,0.008042813411178178,19.031122010001127
1637,C,15537607058498.0,4.864532957973363,5.9349265,2.9698575,191,1970-01-01 04:18:57.607058498,0.35502708,0.02436393,0.5229836,6.870681599008755,0.6325738490384591,-54.80746078491211,-64.62031555175781,80.99515533447266,19081038.0,49916.0,0.2563822983063984,-0.21031755940100003,0.1512311341416,0.01295877629629797,-0.011021791470201592,0.007715963859971022,19.08103854000001
1637,C,15537656975028.0,3.7703827579733638,6.9524627,3.9083846,191,1970-01-01 04:18:57.656975028,0.52120835,-0.30373752,0.32804018,8.477263678162588,0.6866767688366232,-54.82746887207031,-64.61563873291016,81.046142578125,19130955.0,49917.0,0.2155145438964564,-0.16753669665180004,0.17167060545285,0.011777837336119952,-0.009430675449693811,0.00805914306766808,19.13095507000071
1637,C,15537706891558.0,4.268376757973364,8.726566,4.1932945,191,1970-01-01 04:18:57.706891558,0.6799327,-0.3346302,0.22257902,9.9687207944012,0.7898273655840815,-54.83582305908203,-64.6162109375,81.09302520751953,19180871.0,49916.0,0.20063135999899845,-0.09785960170540003,0.20220170697780002,0.010386169469422763,-0.006623760814399,0.009331105173644163,19.18087159999959
1637,C,15537756808088.0,4.589199657973364,11.33864,5.098303,191,1970-01-01 04:18:57.756808088,1.2146955,-0.39002395,-0.097000316,12.600612985876944,1.2794580495654995,-54.80280303955078,-64.63140106201172,81.12368774414062,19230788.0,49917.0,0.2210718209774064,0.011610843950999962,0.23190433620375,0.010525078842399602,-0.0021526396204131944,0.010834635678746716,19.230788130000292
1637,C,15537806724618.0,4.385692757973364,13.356952,6.3480763,191,1970-01-01 04:18:57.806724618,0.5009683,-0.5551399,-0.4272323,14.959998893246214,0.8612067024473219,-54.79963684082031,-64.66484832763672,81.14791107177734,19280704.0,49916.0,0.2239953649171984,0.12717578513599995,0.2856787345694,0.011107986825557548,0.0034638366887533435,0.012917838280356279,19.280704660000993
1637,C,15537856641148.0,3.2221106579733636,13.388077,6.913108,191,1970-01-01 04:18:57.856641148,-0.7816101,-0.4901588,-0.5252366,15.451018975405379,1.0616230421477344,-54.84907531738281,-64.70043182373047,81.15937042236328,19330621.0,49917.0,0.1898793615569064,0.17832920629649995,0.33097926835155,0.010329692360703946,0.007624946328668048,0.015390858765902533,19.330621189999874
1637,C,15537906557678.0,3.9954377579733635,11.271603,4.4518685,191,1970-01-01 04:18:57.906557678,-2.296416,-0.17377526,-0.39847016,12.404742071133946,2.3371997677679355,-54.95469665527344,-64.72171783447266,81.1491928100586,19380537.0,49916.0,0.18013557336519842,0.12627949343999997,0.283647083487,0.009234832745785891,0.0076024239280235665,0.01533984448918653,19.380537720000575
1637,C,15537956474208.0,-0.338067342026636,7.5581956,4.2435727,191,1970-01-01 04:18:57.956474208,-1.6668448,0.042473424,-0.11724034,11.12965388251223,1.6715025804217711,-55.02724838256836,-64.7253189086914,81.13725280761719,19430454.0,49917.0,0.0912824795264064,-0.01922307164190003,0.2170251691902,0.006774187473095119,0.0026719677034478776,0.012496028418443899,19.430454249999457
1637,C,15538006390738.0,4.531738957973364,6.6436105,6.108656,191,1970-01-01 04:18:58.006390738,-0.51529396,-0.36019653,0.36745498,9.268794974116929,0.7282118975705649,-55.10657501220703,-64.7205810546875,81.19648742675781,19480370.0,49916.0,0.10466565619079843,-0.13472812335620002,0.2583709238946,0.004890473571229998,-0.0038423139247625816,0.01186493569121044,19.480370780000158
1637,C,15538056307268.0,3.7655943579733635,6.2772975,5.857265,191,1970-01-01 04:18:58.056307268,-0.26815262,-0.15353523,0.43137085,9.05490707051982,0.530621997936139,-55.159393310546875,-64.70726013183594,81.24007415771484,19530287.0,49917.0,0.2070889935660564,-0.16670011768200002,0.2986514392785,0.007780928425956462,-0.007523196753951916,0.013902442651255816,19.53028731000086
1637,C,15538106234008.0,3.8853045579733636,6.356306,5.6058736,191,1970-01-01 04:18:58.106234008,0.19417214,-0.09601095,0.38662973,8.912530299257945,0.4431743117464673,-55.18136215209961,-64.6941146850586,81.27511596679688,19580214.0,49927.0,0.1909932150882361,-0.17390563902775003,0.2861600604411,0.00993752521574143,-0.008502711807623844,0.014598941873250235,19.580214049999995
1637,C,15538156160748.0,3.4687134579733634,6.2318077,5.277868,191,1970-01-01 04:18:58.156160748,0.21654269,-0.026768763,0.1629242,8.761692773323517,0.27230791066479554,-55.18271255493164,-64.6882095336914,81.28858184814453,19630140.0,49926.0,0.18357835173207812,-0.17503771770690002,0.2716908415608,0.009350430022535505,-0.008710673014167069,0.01392563206667343,19.63014079000095
1637,C,15538206087488.0,3.9691015579733637,6.528689,4.3824368,191,1970-01-01 04:18:58.206087488,0.10042887,0.31092006,-0.024562335,8.305367943185335,0.3276591978573663,-55.149234771728516,-64.68034362792969,81.25711059570312,19680067.0,49927.0,0.18567389515058613,-0.17073794062955003,0.24115501887479995,0.009217828465055387,-0.008631770646881972,0.012802427636984097,19.680067530000088
1637,C,15538256014228.0,2.8893167579733636,6.6340337,3.439121,191,1970-01-01 04:18:58.256014228,-0.3981149,0.35353065,-0.32390165,8.36229117976176,0.6232107773170767,-55.118896484375,-64.68350982666016,81.20152282714844,19729994.0,49927.0,0.1712101256301361,-0.16069697187855003,0.19525345814029998,0.00890907425275956,-0.008273775438395957,0.010894283015966446,19.729994270001043
1637,C,15538305940968.0,3.0066324579733634,6.2294135,3.5372834,191,1970-01-01 04:18:58.305940968,0.5009683,0.28535372,-0.2503984,8.033738883974888,0.628566099821879,-55.0539665222168,-64.68561553955078,81.15740966796875,19779921.0,49927.0,0.14718352825228612,-0.16816793582280004,0.1741554712394,0.007948219978693848,-0.008209619123402652,0.009221739808570141,19.77992101000018
1637,C,15538355867708.0,3.224504957973364,5.891831,5.270685,191,1970-01-01 04:18:58.355867708,0.59258103,0.36844435,-0.20885308,8.612765925045624,0.7283701841702952,-54.979774475097656,-64.6836166381836,81.10811614990234,19829847.0,49926.0,0.15554788331427816,-0.18669217354650003,0.2198733151692,0.007557084226936143,-0.008858372910185838,0.009836140595117882,19.829847750001136
1637,C,15538405794448.0,4.625112957973363,7.4049664,5.7136126,191,1970-01-01 04:18:58.405794448,-0.7954585,0.56764877,0.002069276,9.568211296516017,0.9772326402694125,-54.970550537109375,-64.6672134399414,81.05390167236328,19879774.0,49927.0,0.1959539368447361,-0.15734999810510003,0.2742065131376,0.008774715687539552,-0.008588496752024718,0.012333961793936803,19.879774490000273
1637,C,15538455721188.0,-3.582210042026637,10.299557,7.909096,191,1970-01-01 04:18:58.455721188,-1.16404,0.6059983,-0.313249,16.52843315829002,1.349202726503282,-54.957366943359375,-64.66265869140625,80.97492218017578,19929701.0,49927.0,0.0260345069422361,-0.04731773010410003,0.34007048613609997,0.005541608516476081,-0.005109222833150366,0.015334503871369011,19.92970122999941
1637,C,15538505647928.0,6.006567207973363,10.459968,5.883601,191,1970-01-01 04:18:58.505647928,-0.47161812,-0.37511024,-0.8022054,12.018015950451288,1.0033268894305345,-54.9647216796875,-64.70626831054688,80.95697784423828,19979627.0,49926.0,0.060519227933528125,0.028945222574999964,0.344307095211,0.0021606408837037024,-0.0004586329054489249,0.017084117563167658,19.979627970000365
1637,C,15538555574668.0,3.9834667579733636,11.05373,5.5819316,191,1970-01-01 04:18:58.555574668,-0.20956308,-1.05901,-0.905536,12.665539723393678,1.4090473064787734,-55.01207733154297,-64.77375030517578,80.99775695800781,20029554.0,49927.0,0.24938621290891114,0.047772600022999955,0.28621982306009996,0.007736324472470232,0.0019151453644251709,0.015740158724260604,20.029554709999502
1637,C,15538605501408.0,4.337808557973363,9.77762,5.7016416,191,1970-01-01 04:18:58.605501408,0.013077186,-1.0440964,-0.8064664,11.550946564731106,1.3193545238546,-55.05323028564453,-64.83670806884766,81.04395294189453,20079481.0,49927.0,0.2077281563496361,0.030738805724999974,0.2816774795782,0.011411174556985744,0.0019599194773901965,0.0141767043144112,20.079481450000458
1637,C,15538655428148.0,5.317037157973363,8.597279,4.4039845,191,1970-01-01 04:18:58.655428148,0.30495963,-0.98870254,-0.6573294,9.750199966227703,1.225811987474649,-55.08424377441406,-64.89193725585938,81.09505462646484,20129408.0,49927.0,0.24101874103003612,-0.03058280881350001,0.25227179714735,0.011202293172737448,3.894228900229359e-06,0.013329242769538268,20.129408189999594
1637,C,15538705354888.0,4.816648957973364,7.9939404,2.6490345,191,1970-01-01 04:18:58.705354888,-0.27347896,-0.6637969,-0.6626557,8.617188474895476,0.9770003289430262,-54.67167663574219,-65.0477523803711,80.71235656738281,20179334.0,49926.0,0.25296720651237814,-0.07510819011780004,0.17606451329699999,0.012331371208501286,-0.002638364406322043,0.010692559317622308,20.17933493000055
1637,C,15538755281628.0,3.8039015579733637,7.218219,2.6346693,191,1970-01-01 04:18:58.755281628,-0.029533392,-0.69895035,-0.4655818,8.19173432803206,0.8403393513928693,-54.49528884887695,-65.01056671142578,80.5574722290039,20229261.0,49927.0,0.2151991128048361,-0.10953585881810003,0.1318997398113,0.011687069912275277,-0.004609361715611342,0.007687865632469047,20.229261669999687
1637,C,15538805208368.0,3.3992816579733636,6.54066,2.9626749,191,1970-01-01 04:18:58.805208368,0.7768718,-0.77138835,0.0105913915,7.879037283230896,1.09484334848638,-54.29851150512695,-64.81613159179688,80.4278564453125,20279188.0,49927.0,0.17981666421128611,-0.14581482408350002,0.1397293019367,0.009860976349541967,-0.006374446772614093,0.006780811583676197,20.279188410000643
1637,C,15538855135108.0,4.119936357973364,7.527071,3.4008138,191,1970-01-01 04:18:58.855135108,1.2668934,-0.7330388,0.35360655,8.636437990542143,1.5057896139474143,-53.818946838378906,-64.74834442138672,80.06837463378906,20329115.0,49927.0,0.1877059989410861,-0.13810479718150004,0.15885495016245,0.009174652001604245,-0.007087627465448828,0.00745370797727713,20.32911514999978
1637,C,15538905061848.0,6.150219327973364,9.13358,4.6218567,191,1970-01-01 04:18:58.905061848,0.5084251,-0.24727823,0.38556448,10.248251171206913,0.6843263648140507,-53.83878707885742,-64.74007415771484,80.11841583251953,20379041.0,49926.0,0.25637389638828817,-0.07337496908700002,0.2002699236915,0.01108556642710717,-0.005279169405360567,0.008964834226016153,20.379041890000735
1637,C,15538954988588.0,11.285781957973363,9.653122,2.4503157,191,1970-01-01 04:18:58.954988588,-5.087409,1.0725844,-0.13428457,10.988287352002882,5.200980674271387,-53.99298095703125,-64.71392059326172,80.00764465332031,20428968.0,49927.0,0.4352636181017311,-0.020302764623000034,0.1765461757074,0.017265693092971598,-0.002338524105469586,0.009406648697344441,20.428968629999872
1637,C,15539004915328.0,0.8997349579733633,7.4384856,1.7559973,191,1970-01-01 04:18:59.004915328,-4.305505,1.1322392,-0.19287412,9.560303955580894,4.456067698903083,-54.09933090209961,-64.68848419189453,79.88716125488281,20478895.0,49927.0,0.3041931515312361,-0.06261825367740004,0.10500429457549999,0.018459429068732578,-0.0020699988403420373,0.007028485164907173,20.478895370000828
1637,C,15539054842068.0,-0.6971977420266366,8.925284,1.8541596,191,1970-01-01 04:18:59.054842068,-0.057230268,-0.26751825,-0.03308445,11.703706773885779,0.27556469020942587,-54.123077392578125,-64.69768524169922,79.91026306152344,20528822.0,49927.0,0.005056037790286112,-0.08078763759040004,0.09012215177315,0.00771994213762782,-0.003579912966663727,0.004871039043424524,20.528822109999965
1637,C,15539104768808.0,6.056845457973363,13.3665285,-1.5695488,191,1970-01-01 04:18:59.104768808,1.9667722,-0.766062,-0.007518104,13.471121576911253,2.1107108746639356,-54.089935302734375,-64.7204360961914,79.98236846923828,20578748.0,49926.0,0.13379288593317812,0.06719571543749993,0.007104739400400001,0.003466085682908837,-0.0003392951527028456,0.0024270748843653288,20.57874885000092
1637,C,15539154702668.0,2.8629802579733634,9.212589,4.032883,191,1970-01-01 04:18:59.154702668,-0.48866236,-0.020376911,-0.14813301,10.74357058275453,0.511027894771246,-53.78076171875,-64.5969467163086,79.67935180664062,20628682.0,49934.0,0.22270128865004193,0.07437962662249993,0.061502064971400004,0.008900590056819256,0.0035347115652120164,0.0017129060847507307,20.628682710001158
1637,C,15539204636528.0,1.5820824579733639,9.514258,2.7328317,191,1970-01-01 04:18:59.204636528,0.12706047,0.050995804,0.58902997,11.117648915550047,0.6047323710704002,-54.04104995727539,-64.43415832519531,79.92662811279297,20678616.0,49934.0,0.11097988082904195,-0.02180001095100005,0.1689195989149,0.008331017758384287,0.0013127552644703374,0.005752937682249252,20.678616569999576
1637,C,15539254570388.0,0.8398799579733636,12.420819,1.6865655,191,1970-01-01 04:18:59.254570388,1.349984,0.13728222,0.3781076,13.812934916293758,1.4086406800039137,-54.47602462768555,-64.43788146972656,80.38230895996094,20728550.0,49934.0,0.06046913563894194,0.058299867458999954,0.11033908989240002,0.004280567594156154,0.0009112919174352335,0.006972251683451859,20.728550429999814
1637,C,15539304504248.0,0.6124309579733636,10.902895,1.9475335,191,1970-01-01 04:18:59.304504248,3.1193883,0.22037286,0.4420235,12.610847676174359,3.158248302169055,-54.83155822753906,-64.32836151123047,80.84526824951172,20778484.0,49934.0,0.03625984663844194,0.09296996743799994,0.090732549733,0.0024150325005194433,0.0037767539678733968,0.005020155626527362,20.77848429000005
1637,C,15539354438108.0,5.362526957973364,9.114427,3.0273185,191,1970-01-01 04:18:59.354438108,2.2725031,0.35779196,0.7445586,9.68901370008177,2.4179853049562174,-54.732181549072266,-64.28762817382812,80.861083984375,20828418.0,49934.0,0.14917677428744194,0.010419278373999922,0.12420712988400001,0.004629796114656542,0.0025813193001882006,0.005366398980997639,20.82841815000029
1637,C,15539404371968.0,5.041703957973364,8.733748,3.0129533,191,1970-01-01 04:18:59.404371968,0.48711985,0.38974988,1.0279189,9.376583265426106,1.2024175573407296,-54.73638916015625,-64.23442840576172,80.89278411865234,20878352.0,49934.0,0.2597624332784419,-0.04373781477500005,0.15080746603059997,0.010209985195297422,-0.0008318638983237703,0.006866289416199818,20.878352010000526
1637,C,15539454305828.0,3.8254493579733637,9.159917,2.558055,191,1970-01-01 04:18:59.454305828,-0.57175297,0.2842887,1.0279189,9.918980843394221,1.2100986689641142,-54.64881896972656,-64.26797485351562,80.7960205078125,20928285.0,49933.0,0.22138178326258395,-0.04260121277750002,0.13908857872195,0.012012487082271522,-0.002155583331389493,0.0072376896013145375,20.928285870000764
1637,C,15539504239688.0,2.8510092579733635,8.77445,1.7871219,191,1970-01-01 04:18:59.504239688,-1.152322,0.19267598,0.8180618,9.72439144326618,1.4262521283322245,-54.98875045776367,-64.24221801757812,81.05715942382812,20978219.0,49934.0,0.16669114226434192,-0.04158585911100004,0.1084860316623,0.009689016731630758,-0.002101898623840181,0.00618119529746357,20.978219730001
1637,C,15539554173548.0,2.3482269579733632,8.532636,1.0951977,191,1970-01-01 04:18:59.554173548,-1.0798842,0.08508427,0.43669716,9.615102915912148,1.1679441887192805,-55.59815979003906,-64.21686553955078,81.56126403808594,21028153.0,49934.0,0.1298093306035419,-0.05724718383800004,0.07196287345319999,0.007402727306092456,-0.002467564583307685,0.004505267814018688,21.02815358999942
1637,C,15539604107408.0,2.1710559579733637,7.9939404,1.241244,191,1970-01-01 04:18:59.604107408,-0.4875971,-0.137556,-0.08315188,9.243475443397259,0.5134070706680465,-56.16334533691406,-64.14923095703125,82.0495376586914,21078087.0,49934.0,0.11283293656244194,-0.07673416702120005,0.0583339399239,0.006058049484333119,-0.0033451123869016487,0.003253120539586055,21.078087449999657
1637,C,15539654041268.0,2.0226155579733636,8.228572,1.5070003,191,1970-01-01 04:18:59.654041268,-0.40450647,-0.31758568,-0.56039035,9.55657769754802,0.7606073183884349,-56.63169479370117,-64.08757019042969,82.45166015625,21128021.0,49934.0,0.10470339673864194,-0.08432573290920005,0.0686154154381,0.0054312296335281614,-0.004021182521562299,0.003169544555323054,21.128021309999895
1637,C,15539703975128.0,1.1798564579733632,8.863035,1.2029368,191,1970-01-01 04:18:59.703975128,-0.42261598,-0.4486132,-0.77663904,10.480750022173961,0.9914768117398016,-56.647430419921875,-64.13235473632812,82.44566345214844,21177955.0,49934.0,0.07995611882214193,-0.06262704803100004,0.06765899957570001,0.004610394125006091,-0.0036689700817339756,0.0034023633196495445,21.177955170000132
1637,C,15539753908988.0,-0.5607280420266365,11.379341,0.93718034,191,1970-01-01 04:18:59.753908988,0.40296397,-0.53916067,-0.7798348,13.500409619844115,1.0301536314958317,-56.6295051574707,-64.17974853515625,82.44813537597656,21227889.0,49934.0,0.015457779160941926,0.01603820159199997,0.05343230463438,0.0023821987909436546,-0.0011631837290425149,0.0030232865922130677,21.22788903000037
1637,C,15539803842848.0,0.38498195797336354,8.410531,1.052102,191,1970-01-01 04:18:59.803842848,1.3648977,-0.56792283,-0.13961089,10.535959340487274,1.4849152409841753,-56.60231018066406,-64.20116424560547,82.49372863769531,21277822.0,49933.0,-0.004387764607516039,0.004740439287999984,0.049665417541609996,0.00027637951834810743,0.0005187699375305188,0.0025739892807068545,21.277822890000607
1637,C,15539853776708.0,1.5270159579733633,7.026683,0.81747025,191,1970-01-01 04:18:59.853776708,2.1340187,-0.90880746,0.9458936,8.730153395772842,2.5049314389464437,-56.627891540527344,-64.18668365478516,82.64067077636719,21327756.0,49934.0,0.04773685196744193,-0.103932278062,0.04667761036575,0.0010822966641152697,-0.0024765226386704586,0.0024053963777630567,21.327756750000844
1637,C,15539903710568.0,2.1973919579733634,9.942821,1.5237597,191,1970-01-01 04:18:59.903710568,2.372638,-0.9407654,1.4423068,10.997488357004116,2.931671796468254,-57.023216247558594,-64.1819076538086,83.13771057128906,21377690.0,49934.0,0.09298729243744193,-0.06567559363200003,0.05845348816165,0.003513459713356735,-0.004234599732584099,0.0026248081369335957,21.377690610001082
1637,C,15539953644428.0,3.8661509579733635,9.971551,4.3321586,191,1970-01-01 04:18:59.953644428,1.5981907,-0.7447567,1.205818,11.220970749528757,2.136088271791543,-57.07560348510742,-64.15158081054688,83.2846908569336,21427624.0,49934.0,0.15138847598244193,0.007848925723999969,0.14620471219609998,0.0061013298101392395,-0.0014437584176590374,0.005109701288331944,21.4276244699995
1637,C,15540003578288.0,1.4456129579733634,7.658752,2.5053825,191,1970-01-01 04:19:00.003578288,0.27726278,-0.6137292,0.8787819,9.588847992463915,1.1071566320415456,-57.16413497924805,-64.13136291503906,83.39848327636719,21477558.0,49934.0,0.13261880968944195,-0.04917742499900005,0.1707128886437,0.007090809901369925,-0.001031848641398927,0.007912481740167286,21.477558329999738
1637,C,15540053512148.0,1.0362044579733638,7.529465,0.52537763,191,1970-01-01 04:19:00.053512148,1.257306,-0.8960243,0.6774469,9.40238009727014,1.6860048120174806,-57.21674346923828,-64.12714385986328,83.52681732177734,21527492.0,49934.0,0.06196353542394194,-0.11014898616100004,0.07566898816571,0.0048581374104458555,-0.003977902507431722,0.0061514163183005385,21.527492189999975
1637,C,15540103446008.0,-0.2063864420266368,8.604462,-1.1290157,191,1970-01-01 04:19:00.103446008,2.510057,-1.0632708,0.6625332,11.055551006025174,2.8053308500930654,-57.220401763916016,-64.1280746459961,83.67036437988281,21577426.0,49934.0,0.020718066404141932,-0.08653744459100003,-0.01507103169369,0.00206431155284177,-0.004910670116585186,0.0015129491792369232,21.577426050000213
1637,C,15540153379868.0,1.3043552579733637,8.707413,-1.1745056,191,1970-01-01 04:19:00.153379868,2.9809039,-1.184711,0.5623984,10.281020160250094,3.25662711633966,-57.20546340942383,-64.13652801513672,83.81940460205078,21627359.0,49933.0,0.027412438443333957,-0.057126472812500016,-0.05751086453645,0.0012016502492745067,-0.0035867851938544836,-0.0018121159122297902,21.62735991000045
1637,C,15540203319078.0,1.6802445579733636,7.721001,-0.4777929,191,1970-01-01 04:19:00.203319078,2.901009,-1.2028204,0.38556448,9.190802219928212,3.164062278302188,-57.1862678527832,-64.15289306640625,83.95925903320312,21677299.0,49940.0,0.07452545740418978,-0.07919450242000001,-0.041257893545,0.002545389259312668,-0.0034039347515555257,-0.0024662558892938062,21.67729911999959
1637,C,15540253258288.0,-0.057945542026636154,7.170335,-0.90156657,191,1970-01-01 04:19:00.253258288,3.0117965,-1.1005551,0.43776244,9.855398279193428,3.236321312759753,-57.15565490722656,-64.16432189941406,84.09256744384766,21727238.0,49939.0,0.04050799527868181,-0.11757298574800003,-0.034441916286165,0.002872327796764962,-0.004913185795810877,-0.0018901864015792745,21.727238330000546
1637,C,15540303197498.0,0.6698915579733633,6.4305263,-1.1721114,191,1970-01-01 04:19:00.303197498,2.9883606,-1.120795,0.7765165,8.85456102122093,3.284731097430901,-57.146968841552734,-64.16210174560547,84.24893188476562,21777177.0,49939.0,0.015279986045181803,-0.14979549376965004,-0.05177870207191499,0.0013929979996662124,-0.006676057249315964,-0.002152885730092078,21.777177539999684
1637,C,15540353136708.0,0.3754049579733634,6.2677207,-1.1625346,191,1970-01-01 04:19:00.353136708,2.8615942,-1.1048161,1.1632075,8.939701097321244,3.2806084295979456,-57.164798736572266,-64.14320373535156,84.42772674560547,21827116.0,49939.0,0.026100531354931792,-0.1723333215335,-0.058294943297,0.0010332508292221364,-0.008043395453712006,-0.0027484838880391226,21.82711675000064
1637,C,15540403075918.0,-1.9014805420266372,8.001122,-1.8855835,191,1970-01-01 04:19:00.403075918,3.1268451,-1.2624753,1.7927787,11.856690738766384,3.8190390976890756,-57.21795654296875,-64.1020736694336,84.66057586669922,21877055.0,49939.0,-0.038105344296018216,-0.13311633220235003,-0.07610998489795,-0.00029975417673245745,-0.007626925128957307,-0.003356023854563804,21.87705595999978
1637,C,15540453015128.0,-3.4577120420266363,12.645874,-0.29822776,191,1970-01-01 04:19:00.453015128,3.3058095,-1.333848,2.4511123,16.1873706047046,4.326138976570856,-57.30432891845703,-64.03504180908203,84.94041442871094,21926995.0,49940.0,-0.13381903882381024,0.026143490119999956,-0.0545297671622,-0.004292951846502116,-0.0026711118667962813,-0.0032620746089419453,21.926995170000737
1637,C,15540502954338.0,-1.525592042026637,10.874165,-0.0923264,191,1970-01-01 04:19:00.502954338,1.9358795,-1.0387697,2.7579083,13.600790116092005,3.5260076743205238,-57.44955062866211,-63.9469108581543,85.20970153808594,21976934.0,49939.0,-0.12443061132676819,0.09788141381049993,-0.00975194209812,-0.006448364639434868,0.0030968398386926168,-0.0016050821393755604,21.976934379999875
1637,C,15540552893548.0,-0.32130804202663654,8.690653,-0.57356095,191,1970-01-01 04:19:00.552893548,1.3308092,-1.2049509,2.9145021,11.15157716928103,3.4230516047994164,-57.64643096923828,-63.85628128051758,85.50303649902344,22026873.0,49939.0,-0.04611617164876821,-0.0008784769490000621,-0.016626874185824998,-0.004258467897507656,0.002422114831963221,-0.0006586658532019646,22.026873590000832
1637,C,15540602832758.0,0.17429195797336394,8.195053,0.09920973,191,1970-01-01 04:19:00.602832758,1.7143044,-1.394568,2.5075712,10.440910349925991,3.3423902832483225,-57.81681823730469,-63.7874870300293,85.78839874267578,22076812.0,49939.0,-0.0036709181107681898,-0.06777456403300006,-0.011844312787789999,-0.001243158737750744,-0.0017142321068000519,-0.0007109113031376796,22.07681279999997
1637,C,15540652771968.0,0.5980655579733636,7.400178,0.6211457,191,1970-01-01 04:19:00.652771968,1.3798114,-1.5096166,2.0015707,9.575458117309097,2.861661588249737,-57.9854736328125,-63.74281311035156,86.0533447265625,22126752.0,49940.0,0.019285767173189784,-0.09999908193000002,0.0179872750871,0.0003899027810886672,-0.004189307939696112,0.00015338976861377075,22.126752010000928
1637,C,15540702711178.0,0.8111499579733632,7.419332,0.41524437,191,1970-01-01 04:19:00.702711178,1.6418664,-1.6385136,1.4359152,9.446116117607103,2.7280587520112096,-58.121253967285156,-63.725250244140625,86.29631042480469,22176691.0,49939.0,0.03518740682543179,-0.11936644505500002,0.025878141852864998,0.0013601679181585813,-0.005477447526051959,0.001095297528282456,22.176691220000066
1637,C,15540752650388.0,1.7951666579733638,6.820781,1.3226469,191,1970-01-01 04:19:00.752650388,1.4213568,-1.600164,0.91287035,8.471936217961458,2.3268245004106696,-58.23664093017578,-63.72865295410156,86.50424194335938,22226630.0,49939.0,0.0650784227418818,-0.13383369844650003,0.043394276066264996,0.0025035876313810363,-0.006322280983160705,0.0017296976392317163,22.226630430001023
1637,C,15540802589598.0,-0.5487570420266366,7.503129,2.8405707,191,1970-01-01 04:19:00.802589598,1.7089782,-1.4616797,0.7924955,10.774358924577763,2.384358016529309,-58.3193473815918,-63.73335266113281,86.69175720214844,22276569.0,49939.0,0.031122224905381805,-0.131741329255,0.10395346186319998,0.0024020820714283483,-0.006631275654192605,0.0036791993422297755,22.27656964000016
1637,C,15540852528808.0,0.7943903579733638,7.644387,5.139004,191,1970-01-01 04:19:00.852528808,1.3883336,-1.003616,1.0172663,10.91109381493498,1.992371949576848,-58.39051055908203,-63.71638488769531,86.84854125976562,22326508.0,49939.0,0.006133341082531805,-0.11117629923800001,0.19924599047164998,0.0009302528549352088,-0.006065531724655964,0.007570738725075036,22.32650885000112
1637,C,15540902468018.0,-2.3970800420266363,6.710648,4.8876133,191,1970-01-01 04:19:00.902468018,0.44024822,-0.24621297,1.1994265,12.273718785819435,1.301177639952224,-58.45326614379883,-63.671756744384766,86.94310760498047,22376448.0,49940.0,-0.04001916141081021,-0.13096677605000004,0.250364633981,-0.0008461289335971116,-0.006046312589941361,0.01122677729258267,22.376448060000257
1637,C,15540952407228.0,-1.5878410420266365,5.8870425,6.9059253,191,1970-01-01 04:19:00.952407228,0.52546936,0.26191816,1.285713,12.251343686856366,1.413427426225201,-58.47232437133789,-63.61011505126953,86.99369812011719,22426387.0,49939.0,-0.09950148700826819,-0.17484416706025002,0.29447876207269996,-0.003483760830700178,-0.007635946343991388,0.013604467177762862,22.426387269999395
1637,C,15541002346438.0,-2.466512542026636,4.869507,7.6864347,191,1970-01-01 04:19:01.002346438,0.5510357,0.8275736,1.1930349,12.875409024650258,1.5530134187151958,-58.436622619628906,-63.53763198852539,86.98458862304688,22476326.0,49939.0,-0.10123518181701818,-0.22081653725975006,0.36436393302,-0.005012294252232988,-0.009879449956518242,0.01645097267511717,22.476326480000353
1637,C,15541052285648.0,-0.03160934202663679,3.588609,6.5444007,191,1970-01-01 04:19:01.052285648,0.09084149,1.0076033,0.61992264,10.012860930024823,1.1865161887057756,-58.37855911254883,-63.48484420776367,86.92478942871094,22526265.0,49939.0,-0.06237685438386819,-0.278207272538,0.3553368445203,-0.004085310737918032,-0.01246037501874492,0.017970568564792518,22.52626568999949
1637,C,15541102224858.0,-0.28778904202663647,3.895067,5.3999724,191,1970-01-01 04:19:01.102224858,-0.5184898,0.7530051,-0.2717037,9.61076231838431,0.9537668760885649,-58.32597351074219,-63.476654052734375,86.83704376220703,22576204.0,49939.0,-0.007975217950618205,-0.302538552118,0.29824502412045,-0.001756656070155958,-0.014500932868747991,0.016319612469025205,22.576204900000448
1637,C,15541152164068.0,0.2341469579733637,3.612551,1.7919103,191,1970-01-01 04:19:01.152164068,-0.8945281,0.43342572,-0.7649211,7.5719585578691655,1.2542498418067822,-58.29344177246094,-63.4977912902832,86.7507095336914,22626144.0,49940.0,-0.0013394428388102207,-0.30194677854,0.17958131101900002,-0.0002325870799120278,-0.01509399870653026,0.011931323588432068,22.626144109999586
1637,C,15541202103278.0,2.1854209579733634,4.476858,-0.32456398,191,1970-01-01 04:19:01.202103278,-0.64099514,-0.26112667,-1.0940878,6.325930438070153,1.2946389540708825,-58.29008102416992,-63.551204681396484,86.71114349365234,22676083.0,49939.0,0.0604154010772318,-0.2874137019745,0.03663890393724,0.0014750971392342674,-0.014716036518206809,0.005398910657349835,22.676083320000544
1637,C,15541252046798.0,1.2995669579733633,4.6229043,0.3314473,191,1970-01-01 04:19:01.252046798,-0.09451452,-0.8672621,-1.4126018,7.0734094481315575,1.6602772027437107,-58.294349670410156,-63.63409423828125,86.71063232421875,22726026.0,49943.0,0.0870253757430637,-0.26220668572555006,0.00017188682538000065,0.003681817358368009,-0.0137248455114518,0.0009192206615287655,22.726026840000486
1637,C,15541301990318.0,-2.263005042026637,5.156811,3.4056022,191,1970-01-01 04:19:01.301990318,0.7108254,-1.1154687,-1.2410944,10.84007950186376,1.8137967029621072,-58.28876876831055,-63.71619415283203,86.74405670166016,22775970.0,49944.0,-0.02405897583497835,-0.24523214952840006,0.09332160011400001,0.0015723969385047073,-0.012671762593961642,0.0023347193558501977,22.77597036000043
1637,C,15541351933838.0,0.6770739579733638,6.844723,2.5293245,191,1970-01-01 04:19:01.351933838,0.8439834,-1.4499618,-1.1888963,9.425481528634664,2.05625183600854,-58.3083381652832,-63.80487823486328,86.81291961669922,22825913.0,49943.0,-0.039603078065436316,-0.18974509371900003,0.14820402208905,-0.0015897369789742049,-0.010862034229752451,0.006031257074843464,22.82591388000037
1637,C,15541401877358.0,0.5645469579733637,8.171111,4.3584948,191,1970-01-01 04:19:01.401877358,2.1830208,-1.6385136,-0.8277717,11.077492089998938,2.8522820018256416,-58.29682159423828,-63.88312530517578,86.92169952392578,22875857.0,49944.0,0.031005757513021683,-0.11447579335200005,0.17200262355960003,-0.00021469228883489824,-0.007597003991937015,0.00799620035513809,22.875857400000314
1637,C,15541451820878.0,2.8270672579733636,7.527071,4.1310453,191,1970-01-01 04:19:01.451820878,1.700456,-1.2486268,-0.47729972,9.39592956106147,2.1629689124733895,-58.29463577270508,-63.936222076416016,87.01393127441406,22925800.0,49943.0,0.08469369439351371,-0.09743424818700004,0.21199655060714998,0.0028891888632840484,-0.005291711602291141,0.009589035377704998,22.925800920000256
1637,C,15541501764398.0,4.175002957973364,6.9596453,5.2275896,191,1970-01-01 04:19:01.501764398,1.0794069,-1.0504876,-0.3526638,9.047388930325106,1.5469373643919169,-58.313201904296875,-63.97885513305664,87.09465789794922,22975744.0,49944.0,0.17485569743262167,-0.12768892055640002,0.23370383072280002,0.006481467412682252,-0.005621775769860186,0.011130029922571512,22.9757444400002
1637,C,15541551707918.0,-0.464960042026636,7.598897,9.762208,191,1970-01-01 04:19:01.551707918,2.6964784,-0.77138835,-0.30472687,14.267680078834434,2.8211512213070535,-58.22917556762695,-64.01207733154297,87.15118408203125,23025687.0,49943.0,0.09264533667556371,-0.12589276095555005,0.37431773076839997,0.006679902073232552,-0.00633231495987566,0.015183210422777501,23.02568796000014
1637,C,15541601651438.0,0.8255149579733638,5.7912745,8.581866,191,1970-01-01 04:19:01.601651438,-0.43433386,-0.13542546,0.032961946,11.875611010083954,0.4561495884496862,-58.264488220214844,-64.01425170898438,87.16630554199219,23075631.0,49944.0,0.009003777361021688,-0.15507183730200003,0.458088215928,0.0025383816757216108,-0.00701624794768754,0.0207868413009025,23.075631480000084
1637,C,15541651594958.0,2.2476703579733632,4.881478,5.0360537,191,1970-01-01 04:19:01.651594958,-0.3970496,-0.5476828,-0.095935054,8.277039063044167,0.6832337585789969,-58.32699203491211,-64.03272247314453,87.21375274658203,23125575.0,49944.0,0.07674358370982168,-0.22293122457,0.3400666907484,0.0021412831006611005,-0.009439492461067586,0.01993152432952306,23.125575000000026
1637,C,15541701538478.0,1.7784072579733632,7.9843636,4.5835495,191,1970-01-01 04:19:01.701538478,1.6503886,-1.1815151,-0.32709745,10.412637358180438,2.055906905561259,-58.33013916015625,-64.07764434814453,87.30902099609375,23175518.0,49943.0,0.10053719718661368,-0.16816203648560002,0.2402159213088,0.004426967020155335,-0.009766185368449917,0.01449052724698637,23.17551851999997
1637,C,15541751481998.0,1.8741752579733637,12.214918,6.134992,191,1970-01-01 04:19:01.751481998,1.2466534,-1.3881764,-0.1992657,14.477009660254721,1.876402205404004,-58.37875747680664,-64.12257385253906,87.43235778808594,23225462.0,49944.0,0.09121229058822167,0.014965260115199986,0.267663418338,0.0047883682087131885,-0.0038256298995216296,0.01268276286965989,23.22546203999991
1637,C,15541801425518.0,0.961984357973364,10.584466,5.0959086,191,1970-01-01 04:19:01.801425518,0.83226556,-0.8619358,0.17464212,13.048864721652246,1.2108258156158747,-58.4222526550293,-64.13768768310547,87.52694702148438,23275405.0,49943.0,0.07082315984961371,0.079893417556,0.28045243433289996,0.004046268250608406,0.0023687634694663706,0.01368727501497138,23.275405559999854
1637,C,15541851369038.0,1.8095319579733635,8.029853,2.5053825,191,1970-01-01 04:19:01.851369038,0.51162094,-0.5956197,0.5038088,9.701425749551003,0.9329212829773011,-58.60889434814453,-63.92744445800781,87.73458862304688,23325349.0,49944.0,0.06921030544182169,-0.024614425932000035,0.18981944134919998,0.003496915695257725,0.0013804269788345272,0.0117436292795334,23.325349079999796
1637,C,15541901312558.0,3.0808526579733635,7.3977838,3.1853356,191,1970-01-01 04:19:01.901312558,0.7971118,-0.5668576,0.46545932,8.806945579516924,1.0832207249456882,-58.32515335083008,-63.764339447021484,87.53166198730469,23375292.0,49943.0,0.12212023943711371,-0.10419016764880006,0.14210576703415,0.004777810701444336,-0.0032164439086029496,0.008288670341144824,23.37529259999974
1637,C,15541951256078.0,3.1335252579733637,6.2318077,3.319411,191,1970-01-01 04:19:01.951256078,0.40935555,-0.35273942,0.41645715,7.884805692750506,0.6822269582212809,-58.357303619384766,-63.755859375,87.59032440185547,23425236.0,49944.0,0.1551854453170217,-0.14909304106200005,0.16243653209520004,0.00692487755968027,-0.006324988287926101,0.00760503029385813,23.42523611999968
1637,C,15542001199598.0,3.7440465579733635,6.0474544,3.1159039,191,1970-01-01 04:19:02.001199598,0.25063115,-0.08429278,0.3791729,7.39488698360556,0.462269763455129,-58.372215270996094,-63.7419319152832,87.62092590332031,23475179.0,49943.0,0.17174328460191368,-0.18280980646985004,0.16069946602535,0.008163900779170695,-0.008288111957141594,0.008069190577067316,23.475179639999624
1637,C,15542051143118.0,3.5237799579733635,6.2892685,2.833388,191,1970-01-01 04:19:02.051143118,0.23891324,0.0062547,0.28223383,7.570493346543028,0.36983049132792783,-58.04461669921875,-63.553062438964844,87.34123992919922,23525123.0,49944.0,0.18149216375622165,-0.18137855574120001,0.14856571732680002,0.008820995616399357,-0.009094511781134343,0.007722970158669891,23.525123159999566
1637,C,15542101086638.0,3.3346379579733636,7.163152,3.2858922,191,1970-01-01 04:19:02.101086638,0.4018987,-0.04700852,0.24281904,8.547100938175987,0.47190407097290654,-57.65333557128906,-63.3960075378418,87.01288604736328,23575066.0,49943.0,0.17126498298806372,-0.15351428148425003,0.1528076055143,0.008808875089924922,-0.008362776484775326,0.0075257439313265295,23.57506667999951
1637,C,15542151030158.0,2.623559957973364,8.927679,3.9682398,191,1970-01-01 04:19:02.151030158,0.8216129,-0.3442173,0.12777048,10.56437808952335,0.8999214424743587,-57.28568649291992,-63.27244567871094,86.72911834716797,23625010.0,49944.0,0.1487881183570217,-0.08763096826800004,0.181150184304,0.007992366046789474,-0.006021879176813189,0.00833959392734259,23.62501019999945
1637,C,15542200973678.0,1.6156012579733634,10.021829,5.5125,191,1970-01-01 04:19:02.200973678,1.2200217,-0.50507224,0.13948838,12.493966909250283,1.327783086292536,-57.27437210083008,-63.28020477294922,86.78474426269531,23674953.0,49943.0,0.10585821430401371,-0.01624376097800004,0.23674829391570001,0.006358900896045046,-0.002593907801366491,0.01043555184886324,23.674953719999394
1637,C,15542250917198.0,1.9388185579733639,9.456798,4.2435727,191,1970-01-01 04:19:02.250917198,1.386203,-0.5625965,0.24814536,11.38279554929122,1.5164595934975584,-56.97942352294922,-63.11713790893555,86.59703826904297,23724897.0,49944.0,0.08876097164382168,-0.0030309265560000487,0.24362864746440002,0.004860030311489346,-0.00048132749709905027,0.011995972980143857,23.724897240001155
1637,C,15542300862438.0,1.6491199579733635,10.759243,3.166182,191,1970-01-01 04:19:02.300862438,1.4735547,-0.6297082,0.15866315,12.276995403554935,1.6103011725162633,-56.98350524902344,-63.07999801635742,86.6802978515625,23774842.0,49945.0,0.08959979458947966,0.015384083872499937,0.18504009924575002,0.004454114234761118,0.0003084892210862935,0.010704930277219223,23.774842480001098
1637,C,15542350807678.0,2.2883719579733635,15.782278,4.7032595,191,1970-01-01 04:19:02.350807678,-1.148061,-0.017181117,-0.08634767,17.034186942453115,1.1514317915607493,-56.74462127685547,-63.218772888183594,86.41524505615234,23824787.0,49945.0,0.09832901687097964,0.17334713317249997,0.19651962785875002,0.004693052244196321,0.00471309031765626,0.009528500285117128,23.82478772000104
1637,C,15542400752918.0,-0.3045485420266365,9.590873,4.7248073,191,1970-01-01 04:19:02.400752918,-1.3067855,0.30133295,0.14055365,12.750558638834713,1.3484232341124485,-56.792625427246094,-63.204627990722656,86.39582061767578,23874732.0,49945.0,0.04954103025472964,0.1441700133475,0.235442398163,0.0036926847518467753,0.0079291969414707,0.010787171694828153,23.874732960000983
1637,C,15542450698158.0,2.9252296579733637,5.2094836,3.1829414,191,1970-01-01 04:19:02.450698158,-0.9179639,0.76259243,0.830845,7.147829942413755,1.4541349146559663,-56.82038879394531,-63.148983001708984,86.37550354003906,23924678.0,49946.0,0.06544626950853762,-0.11986149462820002,0.1974802082851,0.002871577836988073,0.0006070566379770781,0.0108113762508284,23.924678200000926
1637,C,15542500643398.0,2.8031252579733636,3.4593222,2.1055508,191,1970-01-01 04:19:02.500643398,0.15156156,0.9010768,0.697687,5.580744363710272,1.1496423165214795,-56.776126861572266,-63.09512710571289,86.3343734741211,23974623.0,49945.0,0.14305134313847967,-0.2729792471595,0.13206687146450002,0.005206706631827639,-0.009810215424293339,0.008229614449046886,23.97462344000087
1637,C,15542550588638.0,2.4703313579733637,5.307646,2.4694693,191,1970-01-01 04:19:02.550588638,1.5928643,0.79028934,0.12670521,7.188904481412147,1.7826463837153093,-56.63829803466797,-63.068153381347656,86.26911926269531,24024568.0,49945.0,0.13169139534172966,-0.27052788662550004,0.11424968944725,0.006861013036697028,-0.013572731898445914,0.006151140317368678,24.02456868000081
1637,C,15542600533878.0,4.397663757973364,8.281244,3.6234746,191,1970-01-01 04:19:02.600533878,1.7217613,0.69121975,-0.53056294,9.313967856925961,1.9297004301883742,-56.46662521362305,-63.07120132446289,86.17312622070312,24074513.0,49945.0,0.17151100803297967,-0.15011244447500005,0.15215604154275,0.007571722018274929,-0.01050444066840724,0.006652817117147775,24.074513920000754
1637,C,15542650479118.0,3.5094148579733635,8.958803,3.9634514,191,1970-01-01 04:19:02.650479118,0.03544774,0.8094641,-0.6189799,10.285344105104318,1.0196199233361065,-55.88175582885742,-63.042266845703125,85.63029479980469,24124459.0,49946.0,0.1974634742760376,-0.05893510626900006,0.189468302998,0.009214399746703088,-0.005220544484729915,0.008531384756216148,24.124459160000697
1637,C,15542700424358.0,3.6363076579733637,7.7617025,2.060061,191,1970-01-01 04:19:02.700424358,-1.340874,1.0001464,-0.04267183,8.574842930832736,1.6733370223551824,-55.85798645019531,-63.06108474731445,85.53004455566406,24174404.0,49945.0,0.17844655552947966,-0.07190817640125005,0.150422163409,0.00938741321931828,-0.003267483876482821,0.008487914672348808,24.17440440000064
1637,C,15542750369598.0,4.064869557973363,7.3115926,1.7919103,191,1970-01-01 04:19:02.750369598,-0.5408603,0.5569964,0.11711784,7.957195578929916,0.7851696900513387,-55.831687927246094,-63.133060455322266,85.47352600097656,24224349.0,49945.0,0.19231764802522963,-0.11304313811525003,0.09619335328925001,0.009258909073269978,-0.004618696701763299,0.006158605990747048,24.224349640000582
1637,C,15542800314838.0,2.5684935579733637,7.2972274,4.834941,191,1970-01-01 04:19:02.800314838,-0.090253465,0.079757944,-0.08634767,9.655443492077488,0.1481989800573616,-55.82489013671875,-63.13438415527344,85.46085357666016,24274294.0,49945.0,0.16565166041297966,-0.12464224255000005,0.16548904408925003,0.008939388554973181,-0.005935598168662958,0.006534863668534592,24.274294880000525
1637,C,15542850260078.0,-1.159278042026636,7.778462,7.614609,191,1970-01-01 04:19:02.850260078,-0.88920176,0.2842887,-0.016040219,13.392606497199901,0.9336793472923964,-55.84526443481445,-63.127079010009766,85.43384552001953,24324240.0,49946.0,0.03519233907973763,-0.11298560861380003,0.3109026121499999,0.005015677199331628,-0.005934280327113579,0.011896928831262789,24.324240120000468
1637,C,15542900205318.0,-2.097806042026636,10.582072,10.085425,191,1970-01-01 04:19:02.900205318,-0.3256769,0.6858934,0.7402975,17.032243399368536,1.06045065319581,-55.8465576171875,-63.07717514038086,85.41703796386719,24374185.0,49945.0,-0.08133753228902034,-0.030952564685000006,0.4420140990650001,-0.0011523608374188125,-0.003594496032704284,0.01880221257081659,24.37418536000041
1637,C,15542950150558.0,-2.308495042026636,7.541436,7.470957,191,1970-01-01 04:19:02.950150558,-0.27987054,0.52929956,1.3613467,13.885866501655055,1.4871954750391676,-55.89256286621094,-63.005977630615234,85.45294952392578,24424130.0,49945.0,-0.11003635382152034,-0.036871696470000014,0.438426749495,-0.004779084370895478,-0.0016937413616932382,0.021986809090664604,24.424130600000353
1637,C,15543000095798.0,2.740876157973364,3.3659482,4.423138,191,1970-01-01 04:19:03.000095798,-1.3749623,0.42916468,0.98317784,6.791181038765442,1.7439444698865436,-55.98046112060547,-62.953250885009766,85.47444152832031,24474075.0,49945.0,0.010797637417979658,-0.21707634806550008,0.2970252873875,-0.0024782388453874196,-0.006341717542162776,0.018366075991048232,24.474075840000296
1637,C,15543050041038.0,3.5309626579733635,1.4434043,2.155829,191,1970-01-01 04:19:03.050041038,0.11108151,-0.32823834,0.34082335,4.051622073920071,0.4860453328806463,-56.02022933959961,-62.94830322265625,85.52532958984375,24524021.0,49946.0,0.15662663075063762,-0.36936684001750003,0.164296542891,0.0041810862489748786,-0.014645245735996761,0.01152059006754498,24.52402108000024
1637,C,15543099986278.0,2.5445515579733637,4.2948985,3.283498,191,1970-01-01 04:19:03.099986278,1.0847332,-1.0643361,-0.40166596,6.784142893823922,1.5718756287849784,-56.0305061340332,-62.99470901489258,85.5977554321289,24573966.0,49945.0,0.15172077875772966,-0.34616123332700005,0.13583359350750002,0.007700205683947701,-0.01786852481159553,0.007494999831211544,24.57396632000018
1637,C,15543149931518.0,2.7121457579733637,5.7529674,5.718401,191,1970-01-01 04:19:03.149931518,1.2711545,-1.044096,-0.76066005,9.013776675927566,1.8123393533641132,-56.010231018066406,-63.055416107177734,85.64631652832031,24623911.0,49945.0,0.13127287372247967,-0.23854066881225003,0.22479992277750002,0.0070670589865620284,-0.014601468251172424,0.009005920485427164,24.623911560000124
1637,C,15543199876758.0,4.052898557973363,5.9229555,5.6274214,191,1970-01-01 04:19:03.199876758,0.54357886,-0.5956197,-0.58063036,8.570751099299814,0.9936661506867984,-55.999698638916016,-63.09614181518555,85.66499328613281,24673856.0,49945.0,0.16894006917997964,-0.19788401537975006,0.283333549884,0.007497067716631666,-0.010898615425984724,0.01268936314603931,24.673856800000067
1637,C,15543249821998.0,4.146272557973363,5.83437,3.8628948,191,1970-01-01 04:19:03.249821998,0.16114894,-0.3293036,-0.25678998,7.42935780537851,0.4476057815360342,-56.0044059753418,-63.11599349975586,85.67930603027344,24723802.0,49946.0,0.20475790027853757,-0.19585511028850003,0.2370016664626,0.00933235939128755,-0.00983284718531321,0.01299433135782364,24.72380204000001
1637,C,15543299771548.0,3.6650379579733636,6.416161,3.1877298,191,1970-01-01 04:19:03.299771548,-0.18506199,-0.41452473,-0.18541726,7.758663415020208,0.490365427237933,-55.639930725097656,-62.97036361694336,85.35160064697266,24773751.0,49949.0,0.19508357448051153,-0.18354931354050005,0.1760858240727,0.009985840911369871,-0.009475435782917362,0.01031665353237385,24.773751590000757
1637,C,15543349721098.0,2.0633169579733632,7.826346,4.0640078,191,1970-01-01 04:19:03.349721098,0.53186095,-0.58177125,-0.41018805,9.936857031599974,0.8885876961922596,-55.63775634765625,-63.00373840332031,85.3790054321289,24823701.0,49950.0,0.1430656640257695,-0.13380338767500005,0.18111214656000002,0.00844527723169437,-0.007925883712857115,0.008921019316551683,24.823701139999685
1637,C,15543399670648.0,0.8135439579733639,9.011476,5.088726,191,1970-01-01 04:19:03.399670648,0.41574714,-0.40919843,-0.7798348,11.87788320553271,0.9738744040294337,-55.60688781738281,-63.04746627807617,85.3676986694336,24873650.0,49949.0,0.07184816294531153,-0.06898401446100004,0.2285849502881,0.005367365371689263,-0.005064513974645535,0.010231980145232874,24.87365069000043
1637,C,15543449620198.0,2.144719957973364,9.394548,4.506935,191,1970-01-01 04:19:03.449620198,-0.47907498,-0.31652042,-0.9630603,11.349198309134659,1.1212417911294008,-55.2763671875,-62.92912673950195,85.04547119140625,24923600.0,49950.0,0.07388264130076953,-0.029819550600000026,0.23965163347500001,0.003639626836045875,-0.0024676190373984766,0.011694208679483424,24.92360024000118
1637,C,15543499569748.0,2.130354557973364,12.0449295,5.344906,191,1970-01-01 04:19:03.499569748,-0.7453911,-0.41665527,-1.1196542,13.928822588738225,1.408131752910793,-54.872867584228516,-62.9316520690918,84.6462631225586,24973549.0,49949.0,0.10676784849851156,0.04594003082374998,0.24604480305450002,0.0045116556574921465,0.0004026009333480432,0.012130025654105998,24.973549790000106
1637,C,15543549519298.0,1.2540766579733633,14.673763,5.58672,191,1970-01-01 04:19:03.549519298,-0.23406416,-0.5583354,-1.1217847,16.600331219710935,1.2747256030392407,-54.58710479736328,-62.98380661010742,84.37702178955078,25023499.0,49950.0,0.08452616961826952,0.17778934518749995,0.27301735935,0.004777568102466608,0.005587641165880967,0.012963577506052388,25.023499340000853
1637,C,15543599468848.0,1.2852016579733636,12.179005,7.26745,191,1970-01-01 04:19:03.599468848,1.2679586,-0.56366175,-0.67117786,15.16079607877718,1.5413997857406112,-54.53058624267578,-63.02748107910156,84.38475036621094,25073448.0,49949.0,0.06341720630161153,0.18113425441599998,0.321026468665,0.003694811841911069,0.00896393743829761,0.014835947582760618,25.07344888999978
1637,C,15543649418398.0,5.518150157973364,8.621221,4.7152305,191,1970-01-01 04:19:03.649418398,0.74810964,0.2161118,0.10220413,9.89060580952031,0.7853776338483459,-54.48174285888672,-63.01707077026367,84.37191009521484,25123398.0,49950.0,0.1699137116032695,0.029975644349999973,0.2992674454875,0.005827439674674404,0.005272469721680849,0.015491840505958688,25.12339844000053
1637,C,15543699367948.0,7.313801317973364,7.431303,3.3170168,191,1970-01-01 04:19:03.699367948,-0.4002454,0.59641117,0.16611972,8.165590694671781,0.7372234568262239,-54.46357345581055,-62.99297332763672,84.32905578613281,25173347.0,49949.0,0.32047157213603156,-0.08859643936200004,0.20060136019385,0.012247127268747174,-0.0014640250450271958,0.012483973487488876,25.173347989999456
1637,C,15543749317498.0,5.6785615979733635,5.9349265,3.0512605,191,1970-01-01 04:19:03.749317498,-1.2354127,0.5974765,-0.1982007,6.742672931192549,1.3865447071241626,-54.46636962890625,-62.98367691040039,84.26286315917969,25223297.0,49950.0,0.32448426382576956,-0.15568841823750004,0.15904772556750002,0.016107772003145983,-0.006101014318547515,0.008982235916889717,25.223297540000203
1637,C,15543799267048.0,3.3944932579733638,5.5015764,3.0440779,191,1970-01-01 04:19:03.799267048,-1.2748275,0.60386807,-0.47836524,7.077174082817566,1.4895217700866383,-54.45465850830078,-62.985591888427734,84.17816162109375,25273247.0,49950.0,0.22659954502726953,-0.20388334007250003,0.15223107654,0.013763318126104651,-0.008980304663792254,0.0077741880826348135,25.27324709000095
1637,C,15543849216598.0,4.593988357973364,6.080973,3.415179,191,1970-01-01 04:19:03.849216598,-1.4559225,0.54421324,-0.6296328,7.269114830137419,1.6769960761532472,-54.44809341430664,-62.995365142822266,84.0890884399414,25323196.0,49949.0,0.19950833411746158,-0.2002318200097,0.16131671144905,0.010641831227700087,-0.010092574065472905,0.00783069923113253,25.32319663999988
1637,C,15543899166148.0,4.091205757973364,6.2198367,3.7407906,191,1970-01-01 04:19:03.899166148,-1.804264,0.4941458,-0.7617256,7.693595651015414,2.0198451779898874,-54.45538330078125,-63.01198959350586,83.99603271484375,25373146.0,49950.0,0.21691272304576956,-0.18229727774250004,0.17872034076,0.010400115902651698,-0.009553664216361196,0.008492425378921024,25.373146190000625
1637,C,15543949115698.0,4.639478157973364,6.5382657,3.7072716,191,1970-01-01 04:19:03.949115698,-2.0567317,0.48349315,-0.569978,7.778610705940225,2.1883294615678444,-54.487064361572266,-63.02116775512695,83.91618347167969,25423095.0,49949.0,0.21804446545881154,-0.17087297161120002,0.1860116294139,0.01086283830430766,-0.008820250392483983,0.009108998589108066,25.423095739999553
1637,C,15543999065248.0,1.553351957973364,6.566996,4.494964,191,1970-01-01 04:19:03.999065248,-1.8926809,0.51332057,-0.04373736,9.446396682687425,1.961543258118389,-54.538150787353516,-63.008026123046875,83.8673095703125,25473045.0,49950.0,0.1546659321457695,-0.16220608904250006,0.20485083411,0.009308442180174412,-0.00831864953982616,0.009761790026509402,25.4730452900003
1637,C,15544049014798.0,2.5660993579733633,6.5023527,3.709666,191,1970-01-01 04:19:04.049014798,0.07060146,0.020103138,0.18742502,8.524267433532389,0.2012879540200532,-54.5436897277832,-62.99980926513672,83.87748718261719,25522994.0,49949.0,0.10288123689011154,-0.16309975089185003,0.204906531935,0.006432111773086611,-0.008124350699440426,0.010233485338290852,25.522994840001047
1637,C,15544098964348.0,2.269218557973364,6.904578,4.2746973,191,1970-01-01 04:19:04.098964348,1.8325489,-0.20147187,0.15014076,9.223664573192481,1.8496941998897773,-54.4766845703125,-62.99953079223633,83.9051284790039,25572944.0,49950.0,0.12076206495076952,-0.15467190576750003,0.1994094734175,0.005585491463476005,-0.007936347125067267,0.010097792233678689,25.572944389999975
1637,C,15544148913898.0,3.0880352579733636,7.548619,4.018518,191,1970-01-01 04:19:04.148913898,0.31774282,-0.14820865,0.2683851,9.261087360780131,0.44153920040964073,-54.48794174194336,-62.992919921875,83.93559265136719,25622893.0,49949.0,0.13379473542636153,-0.12853883152350004,0.20711890550985,0.0063574288110186585,-0.0070730465584740825,0.010152842999521102,25.622893940000722
1637,C,15544198863448.0,3.9619189579733636,7.318775,4.6529813,191,1970-01-01 04:19:04.198863448,0.13345207,-0.32823834,0.38769475,9.077597100335732,0.5252209839779852,-54.529563903808594,-62.98666763305664,83.98979949951172,25672843.0,49950.0,0.1760726065432695,-0.11819683485000004,0.21657069501750004,0.007738936865691536,-0.006162223267678165,0.010581647773170567,25.67284348999965
1637,C,15544248812998.0,3.4160409579733635,8.333917,5.218013,191,1970-01-01 04:19:04.248812998,-0.19891043,-0.3687184,0.23216613,10.348668596746299,0.47897779654230505,-54.582183837890625,-62.987918853759766,84.0376968383789,25722793.0,49950.0,0.18426454890076951,-0.09858401730000006,0.2465280826425,0.008999420457214875,-0.005414101782446252,0.011565891972058501,25.722793040000397
1637,C,15544298762548.0,2.7145399579733636,10.617986,7.617003,191,1970-01-01 04:19:04.298762548,0.60642946,-0.32397726,-0.07036897,13.645254515922414,0.691136561680729,-54.57374572753906,-63.000160217285156,84.062255859375,25772742.0,49949.0,0.1531081930853115,-0.016185898526500042,0.320548107092,0.00842571554473138,-0.0028663212628089268,0.01416244430052427,25.772742590001144
1637,C,15544348710078.0,3.7392581579733637,13.143868,6.8628297,191,1970-01-01 04:19:04.348710078,0.76834965,-0.3644573,-0.43255886,15.109310856378027,0.954095108227116,-54.53985595703125,-63.02835464477539,84.06733703613281,25822690.0,49948.0,0.16117715414765355,0.10393814179599996,0.3616193418498,0.00784896226179607,0.0021915245234124907,0.01703644986987251,25.822690119999606
1637,C,15544398657608.0,2.056134357973364,11.647492,4.16217,191,1970-01-01 04:19:04.398657608,-0.64845204,-0.3772405,-0.34627247,13.191923470914109,0.8262596846635522,-54.40816879272461,-63.031742095947266,83.92350006103516,25872637.0,49947.0,0.1447312349969956,0.12964642895999995,0.27533283000794995,0.007639603156303895,0.005833424277774964,0.015906925063889518,25.872637649999888
1637,C,15544448605138.0,4.4455477579733635,8.037036,3.3002574,191,1970-01-01 04:19:04.448605138,0.020534037,-0.4464827,0.26412407,8.961826670144095,0.5191627610183268,-53.96194839477539,-63.08766555786133,83.53832244873047,25922585.0,49948.0,0.16237300916365358,0.0021110022719999706,0.18636666188759998,0.007669621393668053,0.0032905100875879664,0.011530483110599463,25.92258518000017
1637,C,15544498552668.0,4.632295557973364,8.060978,2.7232547,191,1970-01-01 04:19:04.498552668,0.32519966,-0.54981333,0.42604426,8.742901014451682,0.7678302079162763,-53.64397048950195,-63.21248245239258,83.28485870361328,25972532.0,49947.0,0.22670552005079556,-0.08745684737100001,0.15042817942935,0.009716652649337045,-0.0021313844625798777,0.00841094596962885,25.97253271000045
1637,C,15544548500198.0,3.823055157973364,7.876624,3.0416837,191,1970-01-01 04:19:04.548500198,0.6011031,-0.42304686,0.2779725,8.901966001198518,0.7858513175796803,-53.386329650878906,-63.19962692260742,83.09309387207031,26022480.0,49948.0,0.21116392878005355,-0.09146472765200003,0.14397357160160001,0.010935351615101625,-0.004468387414624403,0.007352389330246945,26.022480240000732
1637,C,15544598447728.0,3.7703827579733638,6.9261265,2.558055,191,1970-01-01 04:19:04.598447728,0.22399954,-0.19827607,0.1639892,7.922541597853146,0.34114755102667305,-53.264427185058594,-63.145225524902344,83.00010681152344,26072427.0,49947.0,0.1896347217938956,-0.11980411038825005,0.13984507442445,0.010009345100108518,-0.005276122326798186,0.007087944956531559,26.072427770001013
1637,C,15544648395258.0,1.6610909579733635,5.5638256,2.249203,191,1970-01-01 04:19:04.648395258,1.3712894,-0.7788452,0.22257875,7.799631247414801,1.592663104384277,-53.27067565917969,-63.159603118896484,83.08395385742188,26122375.0,49948.0,0.13564562458205356,-0.17756633625460003,0.120056461292,0.008123551370392954,-0.007426529534458538,0.0064907809529826214,26.122375299999476
1637,C,15544698342788.0,4.493431757973363,6.7393785,6.8580413,191,1970-01-01 04:19:04.698342788,3.77133,-1.2401047,0.7711899,9.852537404472088,4.044196273392786,-53.22590637207031,-63.16580581665039,83.24510955810547,26172322.0,49947.0,0.15369997304669558,-0.18222653240865003,0.22743976552604997,0.007225972282381566,-0.008985287205561675,0.008678197020440571,26.172322829999757
1637,C,15544748290318.0,3.6075769579733636,8.046613,5.42152,191,1970-01-01 04:19:04.748290318,3.6893048,-0.9343738,1.0556155,10.16634186772066,3.9494744446913095,-53.1778678894043,-63.15155792236328,83.39801025390625,26222270.0,49948.0,0.20231459167205354,-0.12022504827900002,0.30666976390620004,0.008891107739286041,-0.007553425776093372,0.013338851388041011,26.22227036000004
1637,C,15544798237848.0,6.224439557973364,9.499893,4.3800426,191,1970-01-01 04:19:04.798237848,1.8900731,-0.048073787,0.47824222,10.469379776633797,1.95023153326231,-53.11545944213867,-63.13383102416992,83.43399047851562,26272217.0,49947.0,0.24553986446099557,-0.05128293240900001,0.2447793235911,0.0111844932602387,-0.004283154555711768,0.013771613786613821,26.27221789000032
1637,C,15544848185378.0,5.9706542179733635,9.490316,2.9722517,191,1970-01-01 04:19:04.848185378,-0.15843038,0.73809135,-0.5369548,9.967567128948042,0.9263905674686065,-53.033302307128906,-63.133121490478516,83.3330078125,26322165.0,49948.0,0.30456027196049357,-0.015228920434000032,0.18361619784820002,0.013738200806990269,-0.001661067012901083,0.01069874975242508,26.3221654200006
1637,C,15544898132908.0,5.903616517973363,9.435249,3.3289878,191,1970-01-01 04:19:04.898132908,-1.1832148,0.93623054,-1.1175239,10.032583707403939,1.8776007440451608,-52.952232360839844,-63.14956283569336,83.17581939697266,26372112.0,49947.0,0.29654210022416555,-0.016843002472500018,0.15736400465325,0.015011630091753584,-0.000800948166705479,0.008515469087169962,26.372112950000883
1637,C,15544948080438.0,6.166978717973364,10.871771,2.9602807,191,1970-01-01 04:19:04.948080438,-3.951837,1.2984204,-1.4328421,11.27764336515928,4.399539486496009,-52.96214294433594,-63.167640686035156,82.9654769897461,26422060.0,49948.0,0.30145104542253354,0.017657117479999998,0.157068191519,0.014934280819380663,2.0331708197304513e-05,0.007852629667205773,26.422060480001164
1637,C,15544998027968.0,1.1630969579733632,12.583625,2.0026002,191,1970-01-01 04:19:04.998027968,-4.813636,1.1652623,-1.6661351,13.870367679203968,5.225412322463108,-53.40217971801758,-63.27114486694336,83.09990692138672,26472008.0,49948.0,0.18306130993109357,0.09628465970399998,0.1239429875966,0.012100211562601484,0.0028455819433932153,0.007017973187232995,26.472008009999627
1637,C,15545047975498.0,-1.7721940420266362,15.5476465,4.1214685,191,1970-01-01 04:19:05.047975498,-3.5417101,0.49201527,-1.259204,18.152985991686176,3.790960850756861,-53.764652252197266,-63.209312438964844,83.23963165283203,26521955.0,49947.0,-0.015211286028604413,0.21305570880524996,0.15293942967944998,0.004191802571928813,0.007725311692965754,0.006914723047843434,26.521955539999908
1637,C,15545097923028.0,1.3091436579733635,10.167875,5.5125,191,1970-01-01 04:19:05.097923028,-1.494272,-0.042747464,-0.029888922,12.736683448612055,1.495182097043953,-53.841026306152344,-63.21177673339844,83.24149322509766,26571903.0,49948.0,-0.011564220291346433,0.152729033941,0.240598729319,-0.0006686914948344525,0.009135108165344847,0.00982822198282729,26.57190307000019
1637,C,15545147870558.0,4.708909957973363,8.970775,3.6713586,191,1970-01-01 04:19:05.147870558,0.53505677,-0.23556033,1.1514894,9.88404215707192,1.2913954678969963,-53.900264739990234,-63.17219924926758,83.33782958984375,26621850.0,49947.0,0.15029186197784558,-0.01152152422500003,0.2293530927471,0.0034645147596577865,0.003526445743892525,0.011736341828367747,26.62185060000047
1637,C,15545197818088.0,5.9682599579733635,7.151181,1.9379567,191,1970-01-01 04:19:05.197818088,1.0527753,-0.19401501,0.9437628,7.439778729672804,1.4271180326305284,-53.91806411743164,-63.139808654785156,83.41677856445312,26671798.0,49948.0,0.2666516414808536,-0.08686067085600004,0.1400870403022,0.010412747055377551,-0.002456996939952896,0.009226397882773218,26.671798130000752
1637,C,15545247765618.0,3.6219424579733634,5.5853734,2.0337248,191,1970-01-01 04:19:05.247765618,0.44557455,0.097867444,0.29075566,6.667763942108692,0.5409746482274667,-53.96896743774414,-62.969818115234375,83.48411560058594,26721745.0,49947.0,0.2395009200346456,-0.17140425869160003,0.09918678794024999,0.012640400995007317,-0.00644977921805699,0.0059755049496128245,26.721745660001034
1637,C,15545297713148.0,4.491037557973364,5.046678,2.797475,191,1970-01-01 04:19:05.297713148,0.95157516,0.23954761,-0.11937114,6.158381612786233,0.9884977550053603,-53.89552688598633,-62.96759796142578,83.455078125,26771693.0,49948.0,0.20261356291825355,-0.22396554833640003,0.12065438380520001,0.011041367097265702,-0.009873965560717273,0.005490313423170867,26.771693189999496
1637,C,15545347660678.0,3.7919305579733638,5.559037,3.1805472,191,1970-01-01 04:19:05.347660678,1.0634279,0.5346258,-0.4016662,7.010508735581034,1.256200374441311,-53.77684783935547,-62.96805191040039,83.38153839111328,26821640.0,49947.0,0.20685470424359562,-0.22461877644750003,0.1492921374117,0.010225855769966439,-0.011202720634990728,0.0067415094476102515,26.821640719999778
1637,C,15545397608498.0,6.080787457973363,6.018724,5.028871,191,1970-01-01 04:19:05.397608498,0.21973848,0.5367564,-0.4112536,7.863246023898098,0.71100067232502,-53.69959259033203,-62.9687385559082,83.30714416503906,26871588.0,49948.0,0.24656125973025356,-0.20034739678600005,0.2050220101268,0.01132361028428291,-0.01061310521033343,0.0088486415206265,26.87158853999972
1637,C,15545447556318.0,4.074446357973363,7.7473373,6.2259717,191,1970-01-01 04:19:05.447556318,-0.89878917,0.6656534,-0.3334893,10.26553959396428,1.1671039089367061,-53.672630310058594,-62.96247482299805,83.22642517089844,26921536.0,49948.0,0.2536168093194535,-0.14569678509380005,0.2810784415898,0.012491447096447384,-0.008642107398266128,0.012139872681170368,26.921536359999664
1637,C,15545497504138.0,0.9643784579733632,7.7497315,7.109432,191,1970-01-01 04:19:05.497504138,-0.6175594,0.83929145,0.3259094,11.951938388885818,1.0917905877867893,-53.65620803833008,-62.92446517944336,83.17330932617188,26971484.0,49948.0,0.12583961095345353,-0.10246660378880003,0.3330383720038,0.009476544639895581,-0.006197632473954055,0.015336953302686564,26.971484179999607
1637,C,15545547451958.0,3.5333568579733634,5.9636574,7.9306436,191,1970-01-01 04:19:05.547451958,-0.0050323093,0.5122553,0.96826386,10.398559921541084,1.0954294678787313,-53.67219543457031,-62.87028884887695,83.19098663330078,27021432.0,49948.0,0.11232644178045356,-0.14701222561140004,0.3756108480344,0.005947959000976596,-0.006230484285440596,0.017697805621234006,27.02143199999955
1637,C,15545597399778.0,4.6562375579733635,3.717896,4.1837177,191,1970-01-01 04:19:05.597399778,0.16434473,-0.02250744,0.8404321,5.939139157331123,0.8566457201460453,-53.71428680419922,-62.83710861206055,83.24752044677734,27071379.0,49947.0,0.2045228361466456,-0.2476983261651,0.30253800192554997,0.00791283544231241,-0.009857303964790424,0.01693575030447481,27.071379819999493
1637,C,15545647347598.0,3.6722206579733636,5.058649,4.7295957,191,1970-01-01 04:19:05.647347598,1.3233525,-0.7159946,0.4846338,7.535541934269729,1.5807529935406892,-53.73232650756836,-62.83876037597656,83.3421630859375,27121327.0,49948.0,0.20799491548505356,-0.2703049651700001,0.2226010888516,0.010302218329250054,-0.012936614197802789,0.013114823653068541,27.121327639999436
1637,C,15545697295418.0,1.6419373579733634,10.493486,9.158869,191,1970-01-01 04:19:05.697295418,1.4192263,-0.9578096,0.09261648,14.798936342522964,1.7146954052634074,-53.74201202392578,-62.86334991455078,83.43280029296875,27171275.0,49948.0,0.13271578229025358,-0.10109138051000002,0.3468505174178,0.00850890896624052,-0.009275252337012324,0.014221484414971994,27.17127545999938
1637,C,15545747243238.0,3.3490032579733637,12.1167555,8.512435,191,1970-01-01 04:19:05.747243238,-0.23086837,-0.6520787,0.051071174,15.169956151035853,0.693624610343293,-53.80783462524414,-62.880550384521484,83.49378204345703,27221223.0,49948.0,0.12464375094265355,0.07517777122099999,0.441323146096,0.006427296982958622,-0.0006471664783834869,0.01968384907259364,27.22122328000114
1637,C,15545797191058.0,2.7959426579733635,10.457574,4.245967,191,1970-01-01 04:19:05.797191058,-1.6924112,0.046734747,0.34188837,11.924292639057207,1.727231155347729,-53.60447692871094,-62.837799072265625,83.24124145507812,27271171.0,49948.0,0.15346387930485356,0.07428090493299995,0.318628331548,0.006945459957801243,0.003732580978269994,0.018979028202681256,27.271171100001084
1637,C,15545847138878.0,3.382522257973364,7.5701666,2.1055508,191,1970-01-01 04:19:05.847138878,-1.3568529,-0.11412018,0.26305878,8.507133762494856,1.3868212319750268,-53.78487014770508,-62.83207321166992,83.34703826904297,27321118.0,49947.0,0.1542978935783956,-0.039264820125900046,0.1586196297783,0.007685888635099822,0.0008744741939301095,0.011918551962182352,27.321118920001027
1637,C,15545897086698.0,0.6507379579733632,6.126463,3.1925182,191,1970-01-01 04:19:05.897086698,-0.38320118,-0.57964075,0.02870062,9.145088167773139,0.6954496883329083,-53.85127639770508,-62.84803771972656,83.40013885498047,27371066.0,49948.0,0.10072664063305357,-0.14743077236960003,0.132313975206,0.006368982717396731,-0.004662535726982619,0.0072657758508779076,27.37106674000097
1637,C,15545947034518.0,1.1702796579733636,5.2813096,3.7982514,191,1970-01-01 04:19:05.947034518,1.7132392,-1.0558139,0.31845254,8.501138134431637,2.0374846178762436,-53.8670768737793,-62.86628723144531,83.51415252685547,27421014.0,49948.0,0.04547809394065355,-0.2045926870876,0.1745874799904,0.003651317041243762,-0.008791433876484114,0.007664556942074893,27.421014560000913
1637,C,15545996982338.0,2.1758443579733635,5.4225674,2.5365071,191,1970-01-01 04:19:05.996982338,3.3825085,-1.2187994,0.5112654,7.469495980828407,3.631560000777871,-53.82344436645508,-62.88160705566406,83.6551513671875,27470962.0,49948.0,0.08356610117425356,-0.22217177580200004,0.158204258779,0.0032227497287996903,-0.010658015696204871,0.008311140884026996,27.470962380000856
1637,C,15546046930158.0,5.745599257973364,6.4664397,4.6074915,191,1970-01-01 04:19:06.046930158,2.7816994,-1.0334433,0.35680208,7.990563513170471,2.988839964027444,-53.78641891479492,-62.89775466918945,83.76981353759766,27520910.0,49948.0,0.19783013286465356,-0.19257433668460003,0.17841422103639998,0.007027589548887666,-0.01035786941324035,0.008406709914909797,27.5209102000008
1637,C,15546096877978.0,3.923611757973364,7.268497,5.488558,191,1970-01-01 04:19:06.096877978,1.4437273,-0.55513966,0.20873031,9.505275335865587,1.5608000836695588,-53.7700080871582,-62.905696868896484,83.83246612548828,27570858.0,49948.0,0.24147887591225356,-0.14647409085420005,0.252138740213,0.01097130318519448,-0.008467395429353992,0.010752629654242514,27.570858020000742
1637,C,15546146825798.0,3.9810725579733637,8.475175,5.866842,191,1970-01-01 04:19:06.146825798,0.825874,-0.20360239,0.0713112,10.645851588507167,0.8535848430795571,-53.7489013671875,-62.90886688232422,83.85514068603516,27620805.0,49947.0,0.1974076337642956,-0.09630600730800003,0.28358408189999995,0.0109605322494073,-0.006063068781453703,0.013378873898039004,27.620805840000685
1637,C,15546196773618.0,4.158243557973364,9.049783,5.7351604,191,1970-01-01 04:19:06.196773618,0.5829936,-0.008659001,-0.052259475,10.99838771186154,0.5853952243284477,-53.71742630004883,-62.91122817993164,83.85252380371094,27670753.0,49948.0,0.20327128067965355,-0.05182209890800004,0.2897484079376,0.010006555209323186,-0.0036993513246383856,0.014318405601204221,27.670753660000628
1637,C,15546246721438.0,5.151837257973364,9.660305,5.859659,191,1970-01-01 04:19:06.246721438,-0.5983846,0.17137069,-0.22163652,11.396516613068384,0.6607229297564499,-53.72100830078125,-62.91508865356445,83.82294464111328,27720701.0,49948.0,0.23250995829745358,-0.02222466228800006,0.28956901969559995,0.010883200662214274,-0.0018492438141089064,0.014467873437711535,27.72070148000057
1637,C,15546296669258.0,5.360132757973363,11.791144,5.7112184,191,1970-01-01 04:19:06.296669258,-2.2751107,0.57617116,-0.64348125,13.164147489185192,2.433550908029622,-53.7520866394043,-62.9239616394043,83.73008728027344,27770649.0,49948.0,0.26252593917825356,0.046238087325999926,0.28897109218760003,0.01236302650355831,0.0005997112768990087,0.014448460754171036,27.770649300000514
1637,C,15546346617078.0,0.6100365579733635,15.988179,2.7304375,191,1970-01-01 04:19:06.346617078,-3.9624896,1.0619317,-1.1516124,17.305303073957408,4.260895901733204,-54.048980712890625,-63.06377410888672,83.78321838378906,27820597.0,49948.0,0.14909900849645355,0.204270412602,0.2108219144466,0.010279921443228136,0.00625619927720187,0.012481830547682512,27.820597120000457
1637,C,15546396564898.0,1.7855899579733636,10.823887,2.8477533,191,1970-01-01 04:19:06.396564898,0.40402922,-0.0747054,-0.9108626,12.200837159778253,0.999245306960072,-54.12379455566406,-63.0919075012207,83.8572006225586,27870544.0,49947.0,0.05982717879599559,0.1801105302509999,0.1393069479438,0.005217618138347978,0.009599337476339393,0.008743943144906653,27.8705449400004
1637,C,15546446513448.0,1.210980957973364,6.7274075,3.1254807,191,1970-01-01 04:19:06.446513448,3.2333715,-0.84276104,-0.2163102,9.194194415888417,3.3483917826589784,-54.01689147949219,-63.125404357910156,83.9186019897461,27920493.0,49949.0,0.07483786034031155,-0.05116539550975006,0.14917853253299998,0.003363192019909703,0.0032203402675953447,0.0072047806321678416,27.92049349000081
1637,C,15546496461998.0,7.129447817973364,7.194277,4.04246,191,1970-01-01 04:19:06.496461998,2.6847603,-0.45393953,0.15440182,8.266544578897573,2.7272401594601132,-53.9278564453125,-63.13249969482422,83.96926879882812,27970442.0,49949.0,0.2082980384648815,-0.14181309045475005,0.17901573501215,0.007071177504710295,-0.004819541197720408,0.00819648773480635,27.970442039999398
1637,C,15546546410548.0,5.065645957973364,7.6635404,4.73199,191,1970-01-01 04:19:06.546410548,1.103908,0.28854978,0.1011386,9.143825826831575,1.1454705864455919,-53.85551452636719,-63.11989212036133,83.9500503540039,28020390.0,49948.0,0.30456027196049357,-0.11843126825240005,0.2191331143,0.012808123444563318,-0.0064993426143523676,0.009943369362721634,28.020390589999806
1637,C,15546596359098.0,6.241198987973363,6.650793,4.3417354,191,1970-01-01 04:19:06.596359098,-0.26176104,0.7530051,-0.1321543,7.952681217431298,0.8080843283323725,-53.80098342895508,-63.10300827026367,83.87423706054688,28070339.0,49949.0,0.28238279910254654,-0.13200688050170004,0.22661175500230002,0.014658609728263895,-0.006254567546059272,0.01113225523839029,28.070339140000215
1637,C,15546646307648.0,5.362526957973364,5.372289,4.2268133,191,1970-01-01 04:19:06.646307648,-1.0500567,1.0118643,-0.32709768,6.954637978657041,1.4944836322592372,-53.75400924682617,-63.086307525634766,83.7626724243164,28120287.0,49948.0,0.28979145177407356,-0.18922595013200003,0.21399093523380003,0.01428947974139271,-0.008022468712246026,0.011003611585956363,28.120287690000623
1637,C,15546696256198.0,4.519767957973364,5.1448402,4.4758105,191,1970-01-01 04:19:06.696256198,-1.0841452,1.0534096,-0.23974602,7.142147613058014,1.5305295665752559,-53.71063995361328,-63.0648193359375,83.65323638916016,28170236.0,49949.0,0.24680537437831152,-0.22684015679460004,0.21734367809309998,0.01340123743474274,-0.010391042987438374,0.010772366300532665,28.17023624000103
1637,C,15546746204748.0,3.4854728579733636,5.307646,4.7607203,191,1970-01-01 04:19:06.746204748,0.6213432,0.5388869,0.07024594,7.79778107301415,0.8254701419581046,-53.6409797668457,-63.046043395996094,83.60994720458984,28220184.0,49948.0,0.19992288413745357,-0.22845000964120005,0.2306731201992,0.011156591528172718,-0.011370416616567671,0.0111887715205519,28.22018478999962
1637,C,15546796153298.0,7.883621357973364,6.902184,7.545177,191,1970-01-01 04:19:06.796153298,1.6567802,0.16071804,0.50593907,10.300924275992235,1.739748620360409,-53.57489776611328,-63.02090072631836,83.62874603271484,28270133.0,49949.0,0.28393744349616157,-0.18456580066500003,0.30733363211885,0.012084169752485722,-0.010314863354492193,0.013436449635767142,28.27013334000003
1637,C,15546846101848.0,4.7136982579733635,7.1056914,6.087108,191,1970-01-01 04:19:06.846101848,0.3475702,0.22889496,0.6135308,9.553315995999256,0.7413622523369271,-53.5752067565918,-62.98942947387695,83.64859771728516,28320081.0,49948.0,0.31460546008865353,-0.13965771976040003,0.34045268558999997,0.014948010474127173,-0.00809715819910394,0.01617781549846082,28.320081890000438
1637,C,15546896050398.0,5.127895157973364,8.927679,6.498911,191,1970-01-01 04:19:06.896050398,0.36674497,0.028625254,0.70194775,11.146065060975134,0.792497269343515,-53.59545135498047,-62.9603385925293,83.69190979003906,28370030.0,49949.0,0.24578887476656155,-0.08907479094520004,0.3143295315155,0.013995568315841568,-0.005712480088617009,0.01635285848110131,28.370030440000846
1637,C,15546945998948.0,4.5125853579733635,11.616367,6.9059253,191,1970-01-01 04:19:06.945998948,0.3475702,-0.25793087,0.687034,13.681021549447156,0.8120031371755881,-53.638301849365234,-62.94032669067383,83.75953674316406,28419978.0,49948.0,0.24076136040525356,0.023576604803999958,0.3347723817562,0.012151105573180911,-0.001635751700690331,0.016210671182047436,28.419978989999436
1637,C,15546995947498.0,4.220492757973364,10.960356,7.2578726,191,1970-01-01 04:19:06.995947498,-0.36509168,-0.35380468,0.6135308,13.366919734136546,0.7967996793070168,-53.72001266479492,-62.92609405517578,83.83079528808594,28469927.0,49949.0,0.21810425940671158,0.0743421685635,0.35373377065355,0.011459939421993925,0.002445472405466628,0.017195096903357302,28.469927539999844
1637,C,15547045896048.0,4.143878357973364,9.023447,5.931485,191,1970-01-01 04:19:07.045896048,-0.1669525,-0.113054916,0.7722552,11.083798937248897,0.798143248555707,-53.78192138671875,-62.89830017089844,83.89095306396484,28519876.0,49949.0,0.20889598643521157,0.009585288023500008,0.32939761138120005,0.010664117639779109,0.0020960462645320315,0.017060864700626864,28.519876090000253
1637,C,15547095844598.0,4.165426157973364,7.4839754,5.526865,191,1970-01-01 04:19:07.095844598,0.031186681,-0.09707595,0.6785119,9.627791934161758,0.686130270125002,-53.8271369934082,-62.873779296875,83.94349670410156,28569824.0,49948.0,0.2075165709812536,-0.0772340329824,0.2861608329,0.010399487208918801,-0.0016894597566035686,0.01537295658747869,28.56982464000066
1637,C,15547145793148.0,5.513361757973364,6.674735,5.610662,191,1970-01-01 04:19:07.145793148,-0.94566077,0.15432645,0.26518932,8.792476536181978,0.9941912897066931,-53.87751770019531,-62.85852813720703,83.94698333740234,28619773.0,49949.0,0.24172288880681156,-0.13589348711520002,0.27815416806149995,0.011219530888477032,-0.005322753250677512,0.01409348499151298,28.61977319000107
1637,C,15547195741698.0,3.8517855579733635,5.7553616,4.1094975,191,1970-01-01 04:19:07.195741698,-2.2463486,0.21824232,-0.14387222,7.6028218904767835,2.261506347249256,-53.9643669128418,-62.857906341552734,83.91836547851562,28669721.0,49948.0,0.23388518906845354,-0.17906116751160003,0.24275126335299999,0.01187783613685687,-0.007865677544649705,0.013009092244145723,28.66972173999966
1637,C,15547245690248.0,3.0880352579733636,5.2334256,3.4654574,191,1970-01-01 04:19:07.245690248,-1.8170471,-0.036355875,-0.34307668,7.213580378873353,1.8495089947402925,-54.03840255737305,-62.87283706665039,83.89946746826172,28719670.0,49949.0,0.17331855496786153,-0.21506073407360002,0.18918071115005,0.010169709905434952,-0.009842997431139578,0.010787285097226422,28.719670290000067
1637,C,15547295638798.0,2.477513957973364,5.3507414,3.3385646,191,1970-01-01 04:19:07.295638798,0.23252165,-0.4848322,-0.16304697,7.558274987819054,0.5618833458127616,-54.055763244628906,-62.89368438720703,83.93203735351562,28769618.0,49948.0,0.1389940261190536,-0.22516141334200002,0.16992364542799998,0.007799694400064618,-0.010994107909557196,0.00896827220118022,28.769618840000476
1637,C,15547345587348.0,3.2963309579733635,6.2318077,4.28188,191,1970-01-01 04:19:07.345587348,1.349984,-0.8555442,-0.20778808,8.268612719205338,1.6117036218237293,-54.04404830932617,-62.92721939086914,83.99469757080078,28819567.0,49949.0,0.14419888985331153,-0.20023182750205,0.19031679366270002,0.007072601479951833,-0.010623983493459728,0.008996824846070688,28.819567390000884
1637,C,15547395535898.0,3.1071889579733636,7.792827,6.0583777,191,1970-01-01 04:19:07.395535898,1.5001863,-0.80015045,-0.23548496,10.484935990131522,1.716465217745205,-54.01887130737305,-62.960227966308594,84.05064392089844,28869515.0,49948.0,0.15992150638085356,-0.13923917300220004,0.2582375957998,0.007595102775552039,-0.00847794876659314,0.011202197322436476,28.869515939999474
1637,C,15547445484448.0,2.9587484579733636,7.9221144,6.9705687,191,1970-01-01 04:19:07.445484448,1.1071037,-0.5125291,-0.111914285,11.176862566922049,1.2251079495650825,-53.99771499633789,-62.97981262207031,84.08903503417969,28919464.0,49949.0,0.15149375399456155,-0.09702739600570004,0.32539142186680003,0.007777440420245805,-0.0059006394276878,0.014575842901714502,28.919464489999882
1637,C,15547495435898.0,5.020156157973363,9.734525,9.929802,191,1970-01-01 04:19:07.495435898,-1.9288999,0.8020072,-0.46238628,13.999838886147977,2.1395493555896503,-54.003910064697266,-62.97496795654297,83.98773193359375,28969415.0,49951.0,0.19927713223557747,-0.04853640266530005,0.42209520841785003,0.008760678269040837,-0.0036355286537075628,0.01866885233467428,28.969415940000545
1637,C,15547545387348.0,2.441600957973364,9.859023,6.8724065,191,1970-01-01 04:19:07.545387348,-3.1070824,1.6275872,-0.78090036,12.731137321794792,3.5934393700522804,-53.98524475097656,-62.95869827270508,83.79236602783203,29019367.0,49952.0,0.18636484572788548,-0.00016114515200003085,0.419651959496,0.009631794041615451,-0.0012162699542848869,0.02102347726581632,29.01936738999939
1637,C,15547595338798.0,2.9994499579733636,12.09042,3.5755906,191,1970-01-01 04:19:07.595338798,-4.717762,1.4986901,-0.9587995,13.123962268609445,5.042087542445317,-53.86623764038086,-63.06230163574219,83.43584442138672,29069318.0,49951.0,0.13589296715122748,0.05867851364649998,0.26094395157105,0.008048550005562285,0.0014615005368343835,0.016998223176855107,29.06931884000005
1637,C,15547645290248.0,1.4336419579733635,11.652281,1.9259856,191,1970-01-01 04:19:07.645290248,-5.322832,0.7753756,-0.8309678,12.908223493491441,5.4428168539770105,-54.39485168457031,-63.1297607421875,83.64469909667969,29119270.0,49952.0,0.11072090369268547,0.10346810017599997,0.1374073671712,0.00615942803819757,0.004049773826830759,0.009949222536906437,29.119270290000713
1637,C,15547695241698.0,0.162320957973364,8.599673,0.20694882,191,1970-01-01 04:19:07.695241698,-4.4056396,0.16071804,-0.067173176,10.770148223216493,4.409081855561714,-54.598388671875,-63.12784957885742,83.62593078613281,29169221.0,49951.0,0.039859971807227494,0.016282877126999953,0.053271103606709995,0.0037608326560480765,0.002990840533631075,0.004762290146913692,29.169221739999557
1637,C,15547745193148.0,0.33230935797336336,8.156746,0.063296705,191,1970-01-01 04:19:07.745193148,-0.38320118,-0.3261078,0.34295362,10.313148147764359,0.6089389353993854,-54.66338348388672,-63.12329864501953,83.67731475830078,29219173.0,49952.0,0.012353886771085463,-0.07102127905600006,0.0067496522324,0.0013040933318519445,-0.0013671463265787066,0.0014990783978376114,29.21917319000022
1637,C,15547795144598.0,0.3347035579733637,7.479187,-0.43469724,191,1970-01-01 04:19:07.795144598,2.043471,-0.12157703,0.52830964,9.793952243299657,2.1141584088666465,-54.601131439208984,-63.10527038574219,83.7220687866211,29269124.0,49951.0,0.01665898108222748,-0.09900455535850004,-0.0092759140618925,0.0007246108810704175,-0.004246480227419347,-6.309465232248992e-05,29.269124640000882
1637,C,15547845096048.0,3.801507357973364,5.68593,0.52058923,191,1970-01-01 04:19:07.845096048,4.482927,0.0030589069,0.3046041,6.377676451191135,4.493264681940875,-54.3941764831543,-63.09278869628906,83.74134826660156,29319076.0,49952.0,0.10330600383668548,-0.16071763780800005,0.002145238342240001,0.00299624546333477,-0.006486821496526507,-0.0001780957567740408,29.319076089999726
1637,C,15547895047498.0,7.112688397973364,4.038719,1.9475335,191,1970-01-01 04:19:07.895047498,3.2663949,0.06164845,-0.19287439,4.50829986479094,3.2726650767304744,-54.2148323059082,-63.09881591796875,83.7233657836914,29369027.0,49951.0,0.27258749610264754,-0.24664182890050007,0.06164259924311501,0.009388128107734811,-0.010174006360778145,0.0015931331376130339,29.36902754000039
1637,C,15547944998948.0,6.401610497973364,4.7354317,3.2930748,191,1970-01-01 04:19:07.944998948,1.1060385,-0.012920059,-0.5721085,5.772946588098745,1.2453096912732444,-54.12754821777344,-63.12239074707031,83.68751525878906,29418978.0,49951.0,0.3375263720757175,-0.27038099919215003,0.13088681259665,0.015237898914688758,-0.012912903643027983,0.004808518325404051,29.41897899000105
1637,C,15547994950398.0,2.0824705579733633,5.8295817,4.3321586,191,1970-01-01 04:19:07.994950398,0.5606231,-0.16844867,-0.64028543,8.576119777379395,0.8675474895062886,-54.075923919677734,-63.15327072143555,83.66107177734375,29468930.0,49952.0,0.2118984084533255,-0.2256578253216,0.1904478293984,0.013722433318493378,-0.012389065681055422,0.00802565401846837,29.468930439999895
1637,C,15548044901848.0,6.708068312973364,8.86543,4.198083,191,1970-01-01 04:19:08.044901848,0.52014303,-0.28243196,-0.4922137,9.809382599046101,0.769799266143267,-54.04396057128906,-63.18146514892578,83.65438842773438,29518881.0,49951.0,0.21954810357132998,-0.12250453528665003,0.21304704908080002,0.010775592361071782,-0.008695529037371348,0.01007748633745726,29.518881890000557
1637,C,15548094853298.0,1.2229519579733639,8.403349,11.509975,191,1970-01-01 04:19:08.094853298,-0.049773414,0.17030542,0.28862515,15.24704755278877,0.33880054019306743,-54.0495719909668,-63.16478729248047,83.65789031982422,29568833.0,49952.0,0.19808516228716547,-0.05822457569600003,0.3923244566080001,0.010430808448081783,-0.004513890275902668,0.015119758726083472,29.5688333399994
1637,C,15548144804748.0,3.1550730579733637,5.178359,6.0344357,191,1970-01-01 04:19:08.144804748,-1.4527267,0.527169,0.7179267,8.683045709320199,1.7040366093563777,-54.121646881103516,-63.120262145996094,83.65726470947266,29618784.0,49951.0,0.1093433637857775,-0.15030985184600001,0.43818042943785,0.007678181152934787,-0.005208251595075222,0.02074227478143813,29.618784790000063
1637,C,15548194756198.0,4.658631757973364,3.4641106,3.4367268,191,1970-01-01 04:19:08.194756198,-1.426095,0.21930759,0.6199224,5.26771062710778,1.5703969402919657,-54.21120834350586,-63.08871841430664,83.677734375,29668736.0,49952.0,0.1951550914830855,-0.27367527927040003,0.23655175460000002,0.007605153418795123,-0.010589452634763208,0.016852111028529345,29.668736240000726
1637,C,15548244707648.0,3.645884457973364,4.572626,4.3297644,191,1970-01-01 04:19:08.244707648,-1.2663054,-0.3442173,-0.18648279,6.974118277944217,1.3254398313973494,-54.29130172729492,-63.106327056884766,83.6965560913086,29718687.0,49951.0,0.2074094447513775,-0.2887982850467001,0.19397200096560002,0.01005425057472383,-0.014048058505601736,0.010752546057128646,29.71868768999957
1637,C,15548294659098.0,-2.136113042026637,10.809522,8.352023,191,1970-01-01 04:19:08.294659098,-1.2780232,-0.39108893,-1.1846355,16.238055848251477,1.7859605591297458,-54.31835174560547,-63.16585922241211,83.65523529052734,29768639.0,49952.0,0.03770805088468544,-0.10534507155200007,0.31674032210240005,0.006122054571006308,-0.009844124474409136,0.01275555098094637,29.768639140000232
1637,C,15548344610548.0,-1.1281536420266365,13.704111,5.4502506,191,1970-01-01 04:19:08.344610548,-1.4633793,-0.27071404,-1.2581388,16.670283295826664,1.94876327633375,-54.360843658447266,-63.028682708740234,83.61624145507812,29818590.0,49951.0,-0.08152669256757254,0.12272044099149994,0.3447186842968,-0.0010943924853509467,0.000433958539436229,0.016520269414323222,29.818590590000895
1637,C,15548394561998.0,1.598841957973364,11.063307,3.9395092,191,1970-01-01 04:19:08.394561998,-0.8380691,-0.5668576,-0.26957342,12.78122773144621,1.0470707635222494,-54.36772918701172,-62.97978591918945,83.5919189453125,29868542.0,49952.0,0.011755911379085465,0.12906143196799996,0.23451864076480003,-0.0017425950309636533,0.00628850405903647,0.014467031430738525,29.86854203999974
1637,C,15548444513448.0,2.953960057973364,9.337088,2.476652,191,1970-01-01 04:19:08.444513448,0.47753248,-0.4187858,0.44734955,10.340399206960088,0.7768786492250851,-54.44439697265625,-63.0132942199707,83.69514465332031,29918493.0,49951.0,0.11370850674927752,0.019990265322499957,0.1602468340506,0.00313353657496493,0.0037226406656788807,0.009859465116252023,29.9184934900004
1637,C,15548494470788.0,3.5620872579733636,8.537424,2.8908489,191,1970-01-01 04:19:08.494470788,1.664237,-0.50507224,0.23429665,9.525570381882384,1.754901045640135,-54.22908020019531,-63.03980255126953,83.58981323242188,29968450.0,49957.0,0.16276108788137533,-0.04310010200800005,0.13407212123065,0.006905795769481762,-0.0005772490556487642,0.007351646024492702,29.96845082999971
1637,C,15548544428128.0,2.2069689579733636,6.5215063,2.4742577,191,1970-01-01 04:19:08.544428128,1.3744851,-0.29414988,-0.008583634,8.26620551952333,1.4056340636163704,-54.1833381652832,-63.04877471923828,83.61559295654297,30018408.0,49958.0,0.1441052552181333,-0.11343138003630004,0.1340149977614,0.0076652143842826275,-0.003909999889984572,0.006696548145302416,30.01840817000084
1637,C,15548594385468.0,2.099229957973364,5.506365,2.9123967,191,1970-01-01 04:19:08.594385468,3.6797173,-0.8683274,0.12777022,7.7102359084474115,3.7829402732040194,-54.075923919677734,-63.06901931762695,83.70149230957031,30068365.0,49957.0,0.10756238962197534,-0.18914041673295004,0.1345505469304,0.006286280266638653,-0.007557789625600712,0.006708364458084127,30.06836551000015
1637,C,15548644342808.0,3.5812407579733634,4.9676695,4.0735846,191,1970-01-01 04:19:08.644342808,3.626454,-0.72345144,0.31525674,7.1166041192064675,3.7113255599946364,-53.970462799072266,-63.077518463134766,83.78657531738281,30118322.0,49957.0,0.14188963777827535,-0.22795292924175004,0.17449933390205002,0.006230937466417162,-0.010418366142429046,0.007719602448373352,30.11832284999946
1637,C,15548694300148.0,4.230069557973364,5.441721,3.8221934,191,1970-01-01 04:19:08.694300148,2.6528025,-0.36658785,0.26412407,7.074150629157222,2.691005254570722,-53.88230895996094,-63.077632904052734,83.83646392822266,30168280.0,49958.0,0.19511872038203332,-0.22957223470050003,0.19722863866200002,0.00841813177848635,-0.011428521070113464,0.009285393026677406,30.168280190000587
1637,C,15548744257488.0,4.067263757973364,7.0817494,2.8357823,191,1970-01-01 04:19:08.744257488,2.1318882,-0.23982139,0.15333655,8.051529615832168,2.150807684096064,-53.50041961669922,-63.053401947021484,83.59747314453125,30218237.0,49957.0,0.2072549402323753,-0.17676109461360004,0.16630624602245,0.010050690481657005,-0.010149597066272248,0.009080556117090535,30.218237529999897
1637,C,15548794214828.0,4.567651957973363,9.408914,5.0360537,191,1970-01-01 04:19:08.794214828,2.2693071,-0.36339206,-0.06291212,10.871819959586144,2.2990794762740037,-53.4119987487793,-63.06675338745117,83.62557220458984,30268194.0,49957.0,0.21568724221077534,-0.07766656426310006,0.196626655526,0.010564461304156239,-0.006355221277251653,0.00906551948132796,30.268194870001025
1637,C,15548844172168.0,3.7272871579733637,9.325116,6.7455134,191,1970-01-01 04:19:08.844172168,1.4320095,-0.29734567,-0.056520533,11.872698961124255,1.4636462093718559,-53.36058044433594,-63.077884674072266,83.64820098876953,30318152.0,49958.0,0.2071992841772333,-0.021631064630000064,0.2942917645909,0.010563282542646067,-0.002480355472120748,0.012262651216100045,30.318152210000335
1637,C,15548894129508.0,5.305066157973363,9.056966,6.453421,191,1970-01-01 04:19:08.894129508,0.9473141,-0.13862126,0.57624656,11.201128441426471,1.117443491052067,-53.35801696777344,-63.05891036987305,83.69845581054688,30368109.0,49957.0,0.22561463730237533,-0.03042176476300007,0.32968958291039996,0.010811042537678403,-0.001300201598993054,0.015586118088561222,30.368109549999645
1637,C,15548944086848.0,5.544486357973364,8.86543,4.7655087,191,1970-01-01 04:19:08.944086848,-0.03166392,-0.035290614,0.87558585,10.124850697960136,0.8768686400975267,-53.41373825073242,-63.02484130859375,83.75919342041016,30418066.0,49957.0,0.2710055475195753,-0.04190403151400006,0.28023203551145004,0.012404827286575094,-0.0018065899023050477,0.01523492714575018,30.418066890000773
1637,C,15548994044188.0,7.050439157973363,9.67467,4.8397293,191,1970-01-01 04:19:08.994044188,-1.5198383,0.23102549,0.7434931,10.825351983447593,1.7076484488688648,-53.51492691040039,-62.988067626953125,83.7874755859375,30468024.0,49958.0,0.3146086444628333,-0.026475242100000018,0.239929240002,0.014628056901528585,-0.001708045875604108,0.01299310850105047,30.468024230000083
1637,C,15549044001528.0,4.6011709579733635,11.058518,3.6354456,191,1970-01-01 04:19:09.044001528,-2.9174652,0.2842887,-0.041606832,11.818470828533966,2.9315788214932597,-53.63597106933594,-62.981319427490234,83.75961303710938,30517981.0,49957.0,0.2910397432811753,0.028305336457999968,0.21169715623965002,0.01512818825326372,4.571301192130175e-05,0.011280949938522055,30.517981569999392
1637,C,15549093958868.0,-0.23032844202663671,14.692917,3.1589994,191,1970-01-01 04:19:09.093958868,-1.304655,-0.137556,-1.0014101,16.525840388710908,1.6504146480636341,-53.946502685546875,-63.031986236572266,83.96721649169922,30567938.0,49957.0,0.10917708978457531,0.15365361914749995,0.1697150444325,0.009996816164732853,0.0045450617725919795,0.0095271046544893,30.56793891000052
1637,C,15549143916208.0,1.2995669579733633,11.281179,4.6673465,191,1970-01-01 04:19:09.143916208,0.10042887,-0.42304686,-0.89701414,13.326707872628718,0.9968394911144303,-53.774696350097656,-62.953487396240234,83.81441497802734,30617896.0,49958.0,0.026708508889833286,0.15921854398399996,0.1954942942361,0.0033942863692880527,0.007815233762861737,0.00912256407060296,30.61789624999983
