Subject-id_accel,Activity_accel,Timestamp_accel,accel_x,accel_y,accel_z,Segment_accel,DateTime,gyro_x,gyro_y,gyro_z,accel_magnitude,gyro_magnitude,Roll,Pitch,Yaw,Time_Difference,Difference_Microseconds,vx,vy,vz,dx,dy,dz,Time_diff
1626,C,598347654397667.0,1.6334839,7.5659625740823735,2.6895905,131,1970-01-07 22:12:27.654397667,-0.70851135,1.211441,-0.12425232,9.659328263263157,1.408906053853558,-71.44857788085938,-4.7075324058532715,-35.339656829833984,15005508.0,50354.0,0.05666015972808001,-0.08801914074765621,0.1534895738931,0.0021473194528112897,-0.003248182693205073,0.00782169669833966,15.005508044967428
1626,C,598347704751671.0,1.8710327,8.461378574082373,1.051117,131,1970-01-07 22:12:27.704751671,-0.43893433,1.3171387,0.028381348,8.511948579445209,1.3886407750042975,-71.46544647216797,-4.685247421264648,-35.401859283447266,15055862.0,50354.0,0.08823321443820001,-0.08994883191265624,0.0941797927275,0.003647980481384432,-0.004480699647668686,0.006235571643406847,15.055862048990093
1626,C,598347755105675.0,1.150711,9.593916574082373,2.6124878,131,1970-01-07 22:12:27.755105675,-0.10684204,1.0701752,0.057754517,7.656511486599549,1.0770449222016252,-71.4256362915039,-4.7644171714782715,-35.45522689819336,15106216.0,50354.0,0.0760784411349,-0.03889103405465624,0.0922385780496,0.004136874552363939,-0.0032438013054590263,0.004693455321055047,15.106216053012758
1626,C,598347805459679.0,0.40299988,9.791395574082372,2.374115,131,1970-01-07 22:12:27.805459679,-0.10681152,0.8386688,-0.16033936,7.314698685988987,0.8605130837258431,-71.4175796508789,-4.718510627746582,-35.498497009277344,15156570.0,50354.0,0.03911777882576001,-0.005405196045656245,0.1255476986956,0.0029002952299495375,-0.0011152461852355676,0.005483205089613901,15.156570056919008
1626,C,598347855813683.0,-1.0805359,7.727278574082373,2.4047546,131,1970-01-07 22:12:27.855813683,-0.0960083,0.27285767,-0.04537964,9.350426809518963,0.29279380709511,-71.42124938964844,-4.716315269470215,-35.51218795776367,15206924.0,50354.0,-0.017058324375540005,-0.05240154097165625,0.1203175999192,0.000555390884693189,-0.0014554002178848767,0.00619015062322482,15.206924060941674
1626,C,598347906167687.0,0.5689697,5.390165574082372,2.8566437,131,1970-01-07 22:12:27.906167687,-0.23764038,-0.41163635,0.39544678,11.677290777119143,0.6183005666019038,-71.54540252685547,-4.6563639640808105,-35.47730255126953,15257278.0,50354.0,-0.012879702217400002,-0.16321130868165626,0.1324662249991,-0.0007537496955304507,-0.005428484715721449,0.006364338359968039,15.25727806496434
1626,C,598347956521690.0,2.2241516,4.218687574082372,3.0168915,131,1970-01-07 22:12:27.956521690,-0.61990356,-0.77893066,0.45518494,13.03036447602886,1.094626295313388,-71.70014953613281,-4.776556968688965,-35.423099517822266,15307632.0,50354.0,0.07032241497010001,-0.2515471042886563,0.14787799573039997,0.0014462351789747284,-0.01044237256335356,0.0070582264453066205,15.307632067939267
1626,C,598348006875694.0,1.1614227,3.4189135740823726,1.9694824,131,1970-01-07 22:12:28.006875694,-1.0215607,-0.6502075,0.29756165,13.47483324469513,1.2469558903150755,-71.99951171875,-4.778452396392822,-35.367008209228516,15357986.0,50354.0,0.0852386041511,-0.3011773158926563,0.1255419356803,0.003916559778414453,-0.013915942726904908,0.006883893613127193,15.357986071961932
1626,C,598348057229698.0,0.15661621,5.255979574082373,2.2758484,131,1970-01-07 22:12:28.057229698,-0.86805725,-1.4645844,0.3160553,11.667553300689967,1.7315951624611952,-72.21802520751953,-4.686559677124023,-35.27832794189453,15408340.0,50354.0,0.03318426563707,-0.27506141520865623,0.10688469355159999,0.0029815325926567564,-0.014507962532937745,0.0058518052441715466,15.408340075984597
1626,C,598348107583702.0,1.994812,8.833052174082372,2.7243652,131,1970-01-07 22:12:28.107583702,0.00819397,-1.3273468,0.093170166,8.559457482082388,1.3306379479208716,-72.19075775146484,-4.921334743499756,-35.2161750793457,15458694.0,50354.0,0.054166508043170004,-0.13874964767645626,0.12589037780720003,0.0021992304289474027,-0.010418521130258478,0.005860577971600508,15.458694080007263
1626,C,598348157937706.0,2.8132324,10.514555574082372,2.3390198,131,1970-01-07 22:12:28.157937706,0.6956177,-1.5374756,-0.15647888,7.185024263039464,1.6947568690035466,-72.16210174560547,-4.95231294631958,-35.14512252807617,15509048.0,50354.0,0.12105213385880001,-0.006354479724456267,0.12748084414500002,0.004411479747165899,-0.003653286615572775,0.006379127255090542,15.509048083913513
1626,C,598348208291710.0,1.4322662,8.565016574082373,2.5428925,131,1970-01-07 22:12:28.208291710,1.3611145,-1.986206,-0.3166046,8.641108834506118,2.428556243797415,-72.11371612548828,-5.112433910369873,-35.05413818359375,15559402.0,50354.0,0.1068889182522,-0.013102812025656248,0.1229119059771,0.005738871868998648,-0.0004898762343925828,0.0063041382698241135,15.559402087936178
1626,C,598348258645714.0,-1.3964691,5.729734574082373,2.120575,131,1970-01-07 22:12:28.258645714,1.2532501,-1.4573517,-0.5444031,11.258660463023512,1.9977198316912483,-72.0565414428711,-5.160750865936279,-34.99292755126953,15609756.0,50354.0,0.000901263586699998,-0.13357025034265624,0.11741212124749999,0.0027138334081579854,-0.0036927876912470035,0.006050638033433755,15.609756091958843
1626,C,598348308999718.0,-1.3312988,9.537092574082372,1.7429504,131,1970-01-07 22:12:28.308999718,1.4824524,-0.66526794,-0.38256836,7.489579812430508,1.6693127628849822,-71.9847412109375,-5.189213752746582,-34.96708679199219,15660110.0,50354.0,-0.0686770124183,-0.10909629289065624,0.09727197899580002,-0.0017063900283331936,-0.006109615558985109,0.005405101591825565,15.660110095981508
1626,C,598348359353722.0,1.572113,10.303297574082372,0.98298645,131,1970-01-07 22:12:28.359353722,2.063507,-1.0534668,-0.9049988,6.658413185448362,2.4873432143057137,-71.8848648071289,-5.248569011688232,-34.93089294433594,15710464.0,50354.0,0.006062979113400005,0.006052302760343718,0.06863091207245,-0.0015764335165174672,-0.0025943385395108785,0.004176937088425331,15.710464100004174
1626,C,598348409707726.0,0.57388306,8.892027574082373,1.9625549,131,1970-01-07 22:12:28.409707726,0.79000854,-0.18811035,-1.1047668,8.069671334352408,1.3711340851398501,-71.94477081298828,-5.275054931640625,-34.929988861083984,15760818.0,50354.0,0.05402974280262,-0.010188498744656254,0.07415989456895,0.0015129544596796357,-0.00010413700629703671,0.003595044138810528,15.760818103910424
1626,C,598348460061729.0,1.5257416,9.151289574082373,4.1228027,131,1970-01-07 22:12:28.460061729,0.65571594,-0.52664185,-0.9321289,8.734041102975292,1.2554598035607178,-71.91297149658203,-5.327528953552246,-34.919368743896484,15811172.0,50354.0,0.05286225006482,-0.03919260416065622,0.15321104829520002,0.002691219704423537,-0.0012432680278470522,0.005724518228490705,15.811172107001767
1626,C,598348510415733.0,1.6848602,7.438780574082372,4.066971,131,1970-01-07 22:12:28.510415733,0.4485016,0.068573,-0.41810608,10.252735636691021,0.6169834970763208,-71.7505111694336,-5.450119495391846,-34.94225311279297,15861526.0,50354.0,0.08083332151860001,-0.07578100387965625,0.2061939324449,0.003366053405755766,-0.0028946905296309473,0.0090487392000935,15.861526111024432
1626,C,598348560769737.0,2.6390839,7.021025574082373,4.890915,131,1970-01-07 22:12:28.560769737,-0.1337738,0.51161194,0.46290588,11.159586661706975,0.7027973110759446,-71.75556945800781,-5.420128345489502,-34.959373474121094,15911880.0,50354.0,0.10886394060570001,-0.12941466060765627,0.22553269582199997,0.004776007968503502,-0.005166211244797068,0.010869581319875742,15.911880114930682
1626,C,598348611123741.0,6.2465363,9.330885574082373,7.1305237,131,1970-01-07 22:12:28.611123741,-0.7520752,0.77308655,1.1867065,12.0059601992062,1.6036060106485612,-71.79146575927734,-5.351679801940918,-34.97761154174805,15962234.0,50354.0,0.22371325977540002,-0.08177713302265624,0.30266376214990004,0.008373296173994956,-0.005317175788230378,0.013298402222358528,15.962234118953347
1626,C,598348661477745.0,1.4319458,3.4423355740823727,3.7096558,131,1970-01-07 22:12:28.661477745,-0.7582245,0.78074646,0.2316742,13.839576188335945,1.1127184559215424,-71.89051055908203,-5.343315601348877,-35.00523376464844,16012588.000000002,50354.00000000186,0.19332114383170715,-0.1718778111526626,0.27292319927151015,0.010499675179616526,-0.006386270529502239,0.014491552927707381,16.012588122976013
1626,C,598348711831749.0,0.9716644,9.224745274082373,2.0119781,131,1970-01-07 22:12:28.711831749,-1.0089722,0.43824768,0.9123993,7.8004435078828855,1.429181028435066,-72.01609802246094,-5.338632583618164,-35.0048713684082,16062942.0,50353.99999999814,0.06051569400539776,-0.17455010548574976,0.14405357670029467,0.0063908500662245545,-0.008722015657204985,0.010498224288641741,16.062942126998678
1626,C,598348762185753.0,1.630661,9.158567874082372,3.6812592,131,1970-01-07 22:12:28.762185753,-0.88072205,-0.1977539,0.6663208,8.547455909160206,1.121945338612382,-71.86444091796875,-5.452541351318359,-35.00361633300781,16113295.999999998,50353.99999999814,0.06551874659579757,-0.0306325248686551,0.1433386355020947,0.0031731691110161776,-0.00516588308443266,0.007235673726619289,16.113296131021343
1626,C,598348812539757.0,-0.99269104,8.404814574082373,2.8407288,131,1970-01-07 22:12:28.812539757,-0.5478668,0.20219421,0.07368469,8.822577017976931,0.5886169914640251,-71.89102172851562,-5.445895671844482,-35.01211929321289,16163650.0,50354.00000000186,0.016062169682920593,-0.051275920102558145,0.16420409187600607,0.002053962729149363,-0.002062208919040312,0.0077430032471987285,16.163650134927593
1626,C,598348862893761.0,-0.94947815,8.758268874082372,2.4613037,131,1970-01-07 22:12:28.862893761,-0.6079712,0.64134216,-0.09315491,8.366861683041904,0.8886093536982457,-71.91838073730469,-5.44036340713501,-35.04419708251953,16214004.0,50354.0,-0.048897993696630004,-0.06135424802555626,0.1334892722525,-0.0008267075411931618,-0.0028356897429615367,0.007495025828663399,16.21400413895026
1626,C,598348913247765.0,-0.15618896,8.173277574082373,3.059723,131,1970-01-07 22:12:28.913247765,-0.38059998,1.1811829,0.043548584,9.05886959464893,1.241751129331806,-71.8905029296875,-5.259633541107178,-35.10380935668945,16264358.000000002,50354.00000000186,-0.02783738082847103,-0.06718365507455873,0.13900288922590515,-0.0019319665244185403,-0.0032361987863517147,0.00686053514954206,16.264358142972924
1626,C,598348963601769.0,0.78396606,7.902952574082374,2.4819336,131,1970-01-07 22:12:28.963601769,-0.19792175,0.8326721,0.19963074,9.17243535731192,0.8788448541093132,-71.95585632324219,-5.228417873382568,-35.13506317138672,16314712.0,50353.99999999814,0.015805544046699416,-0.08871795355965292,0.13952228821819482,-0.0003029255546546527,-0.003925134800583402,0.007012428392509846,16.31471214699559
1626,C,598349013955772.0,2.3755188,9.146727074082373,2.6412048,131,1970-01-07 22:12:29.013955772,-0.02748108,0.70513916,0.31985474,8.34541937476582,0.774779645721246,-71.9546127319336,-5.202291965484619,-35.16374588012695,16365065.999999998,50353.99999999814,0.07954635032021706,-0.06420941549815384,0.12898525549679524,0.0024006746444757672,-0.0038502523707682583,0.006760214428112055,16.365066149970517
1626,C,598349064309776.0,2.584137,10.082792574082372,2.1897125,131,1970-01-07 22:12:29.064309776,0.16944885,0.7449188,0.14640808,7.432238749222891,0.7778510508118176,-71.9431381225586,-5.183791637420654,-35.1970329284668,16415420.000000002,50354.000000003725,0.12486925407660923,-0.009327583818156945,0.121628004862109,0.005146571671899276,-0.0018514410317868935,0.006309690056056598,16.415420153993182
1626,C,598349114663780.0,-0.7122345,8.768049574082372,1.4047394,131,1970-01-07 22:12:29.114663780,0.06611633,0.3383484,-0.044448853,8.085183803334752,0.34760136565934907,-71.93829345703125,-5.180659770965576,-35.2138671875,16465774.0,50353.99999999814,0.04712888924249826,-0.018861547235655564,0.09049751548629666,0.004330397254345009,-0.0007097177525418113,0.005340684225811612,16.465774158015847
1626,C,598349165017784.0,-0.35110474,7.2182605740823735,3.442047,131,1970-01-07 22:12:29.165017784,-0.250412,-0.06994629,-0.018981934,10.091729862428368,0.2606894072400036,-71.90361785888672,-5.003823280334473,-35.215065002441406,16516127.999999998,50353.99999999814,-0.026771692045479006,-0.09098186939965286,0.12202754119279549,0.0005125331538293347,-0.0027655277006270575,0.005350743352009305,16.516128161922097
1626,C,598349215371788.0,0.28752136,4.830091574082372,3.812088,131,1970-01-07 22:12:29.215371788,-0.33511353,0.044570923,0.08540344,12.468768340687713,0.3486852344593422,-71.92755126953125,-4.907073974609375,-35.215240478515625,16566482.0,50354.00000000186,-0.0016008387582600598,-0.19012783796566327,0.18263735689500676,-0.0007143352080457648,-0.007077499102336827,0.0076705481391568815,16.566482165944763
1626,C,598349265725792.0,-0.41931152,3.1871475740823723,2.9117432,131,1970-01-07 22:12:29.265725792,-0.46443176,-0.36676025,0.3628235,13.827747323897373,0.6941547614394143,-72.10066986083984,-4.730368614196777,-35.179718017578125,16616836.0,50354.0,-0.00331808085832,-0.29161916996665627,0.16928589812240002,-0.00012384363918663616,-0.012128944418712009,0.008860371791573252,16.616836169967428
1626,C,598349316079796.0,-0.7241211,3.5274185740823736,1.8709717,131,1970-01-07 22:12:29.316079796,-1.0423431,0.09675598,0.101257324,13.322847187921472,1.0517099901812341,-72.15252685546875,-4.72406530380249,-35.18277359008789,16667190.000000002,50354.00000000186,-0.028788203073741064,-0.3244165680876682,0.12041441303730446,-0.0008083399105575313,-0.0155099317769943,0.00729378473406815,16.667190173990093
1626,C,598349366433800.0,-0.09207153,5.525709574082374,4.063156,131,1970-01-07 22:12:29.366433800,-1.2085419,-0.21362305,-0.17230225,11.888883619836495,1.2393128728864131,-72.15997314453125,-4.606602668762207,-35.179649353027344,16717544.0,50353.99999999814,-0.020549281845509238,-0.2655385926136464,0.14940353310289448,-0.001242169857811919,-0.014853301080976447,0.006793206429971537,16.71754417801276
1626,C,598349416787804.0,2.3677826,8.555433574082373,2.3252106,131,1970-01-07 22:12:29.416787804,-0.17814636,-0.14198303,-0.09197998,8.793181857928966,0.24567381445736317,-72.16931915283203,-4.613155841827393,-35.17428207397461,16767897.999999998,50353.99999999814,0.057295577609387874,-0.13894825895865107,0.16083990588819405,0.0009251614884471383,-0.010183765462035357,0.007810999063478347,16.76789818191901
1626,C,598349467141808.0,3.861023,10.717649974082374,1.9868469,131,1970-01-07 22:12:29.467141808,0.24098206,-0.7132263,-0.34925842,7.390791770386605,0.8299069539378676,-72.15957641601562,-4.640702724456787,-35.14558792114258,16818252.0,50354.00000000186,0.1568226385912058,-0.008230775507856503,0.10856467167750401,0.005390854329282546,-0.003705526550763398,0.006782799049371831,16.818252185941674
1626,C,598349517495812.0,1.3098297,8.222090574082372,2.1325226,131,1970-01-07 22:12:29.517495812,0.92204285,-1.2507629,-0.50231934,8.837999729156019,1.6330632469658266,-72.2099380493164,-4.780963897705078,-35.08605194091797,16868606.0,50354.0,0.1301865584279,-0.016623352218856226,0.10371336590150002,0.007226030553350026,-0.0006257523737754464,0.0053445241521265854,16.86860618996434
1626,C,598349567849815.0,-0.72239685,6.537382574082374,1.8497772,131,1970-01-07 22:12:29.567849815,1.3320618,-0.95451355,-0.6032562,10.353199632468929,1.7462539331355227,-72.14637756347656,-4.82428503036499,-35.04972839355469,16918960.0,50354.0,0.014789796864450004,-0.12186994454865623,0.1002623620646,0.0036500696971954964,-0.0034868457327156613,0.005135496903002501,16.918960192939267
1626,C,598349618203819.0,-0.6947632,8.394087574082373,0.98716736,131,1970-01-07 22:12:29.618203819,1.5104065,-0.2882843,-0.6650696,8.391539158481214,1.6753367439750433,-72.07115936279297,-4.860362529754639,-35.04621887207031,16969314.0,50354.0,-0.03567983857885001,-0.1175395760796562,0.07142575318712001,-0.0005259485802434489,-0.006027613500859023,0.004322591677692555,16.969314196961932
1626,C,598349668557823.0,1.4069519,10.666410974082373,2.0546417,131,1970-01-07 22:12:29.668557823,1.7555084,-0.47509766,-0.75857544,6.525743276494414,1.9705238458793717,-71.96272277832031,-5.092987060546875,-35.03730010986328,17019668.0,50354.0,0.0179307748999,-0.013583028052856216,0.07658362670362,-0.0004468681762449244,-0.0033012738042442653,0.0037264321575091615,17.019668200984597
1626,C,598349718911827.0,2.362564,9.237211574082373,2.5979767,131,1970-01-07 22:12:29.718911827,0.95414734,-0.5186615,-1.3008881,8.246195607571705,1.6946140406396188,-71.91542053222656,-5.162866115570068,-35.03279113769531,17070022.0,50354.0,0.09490510181430001,0.0076443048951437735,0.1171389734568,0.0028408688680334137,-0.0001495192329417262,0.004877353904238894,17.070022205007263
1626,C,598349769265831.0,1.5924988,9.520185974082374,3.6619873,131,1970-01-07 22:12:29.769265831,0.7038269,-0.1906128,-1.208374,8.214146782781356,1.4113374042246065,-71.87935638427734,-5.2232584953308105,-35.042545318603516,17120376.0,50354.0,0.09957661611560001,-0.02121420192985621,0.157607113628,0.004896466212321093,-0.00034164929764295506,0.00691728223453401,17.120376208913513
1626,C,598349819619835.0,1.5706329,8.637876574082373,4.0230713,131,1970-01-07 22:12:29.819619835,0.56773376,-0.088531494,-0.6245575,9.144571238351588,0.848664550031318,-71.643310546875,-5.372178554534912,-35.067237854003906,17170730.0,50354.0,0.07963816681090001,-0.03630365922485621,0.1934867203722,0.004512090589740491,-0.0014481271902921948,0.008839489458623036,17.170730212936178
1626,C,598349869973839.0,2.7618256,7.727476574082372,3.9667358,131,1970-01-07 22:12:29.869973839,0.05104065,0.25405884,0.16246033,10.190152111252216,0.30585029174136324,-71.63986206054688,-5.36046838760376,-35.0767707824707,17221084.0,50354.0,0.1090783076545,-0.08143870378865625,0.2011593733567,0.0047513146776153765,-0.0029643994735912035,0.009936004701812516,17.221084216958843
1626,C,598349920327843.0,5.078537,6.024076574082374,5.6709137,131,1970-01-07 22:12:29.920327843,-0.32557678,0.36151123,0.6773224,13.110715527180721,0.8339401912805505,-71.65554809570312,-5.322633743286133,-35.08330154418945,17271438.0,50354.0,0.1973968091802,-0.14724634638865625,0.2426471014615,0.007716124016547241,-0.005757603508314197,0.011173715616497822,17.27143822098151
1626,C,598349970681847.0,5.533951,4.779722574082372,5.148361,131,1970-01-07 22:12:29.970681847,-0.5804596,0.4710846,0.5857849,14.113251097721852,0.9497357509630403,-71.68334197998047,-5.287422180175781,-35.09649658203125,17321792.0,50354.0,0.267190610376,-0.22146194884665624,0.2723968791219,0.011696917462166447,-0.009282968749139463,0.012967262299148264,17.321792225004174
1626,C,598350021035851.0,1.1000519,7.241850574082372,3.1234283,131,1970-01-07 22:12:30.021035851,-1.0768127,0.6178131,0.5327301,10.019543604323678,1.3509330023575967,-71.7362060546875,-5.277830600738525,-35.11745834350586,17372146.0,50354.0,0.16702429101330002,-0.19080205284865628,0.2082588392061,0.010932228572278407,-0.010379570770682883,0.012101469020344058,17.372146228910424
1626,C,598350071389854.0,1.2316437,9.539885074082374,3.4393005,131,1970-01-07 22:12:30.071389854,-1.0800781,0.29492188,0.86203,8.036748067281703,1.4130263048869063,-71.60710906982422,-5.321728229522705,-35.13483428955078,17422500.0,50354.0,0.0587051001212,-0.07095544158615623,0.16522982299760003,0.005683188880593307,-0.0065902684373852745,0.009403324048302556,17.422500232001767
1626,C,598350121743858.0,0.93811035,9.421904074082374,3.7810974,131,1970-01-07 22:12:30.121743858,-0.72740173,0.65864563,0.20680237,8.253688786582405,1.0028432394759943,-71.41567993164062,-5.333202362060547,-35.18385696411133,17472854.0,50354.0,0.05462789771685,-0.016068234616656185,0.18178795792830002,0.002853384886568585,-0.002190995095758208,0.008736866670371386,17.472854236024432
1626,C,598350172097862.0,-0.0476532,8.681333574082373,1.9833527,131,1970-01-07 22:12:30.172097862,-0.5035248,1.0824127,-0.24958801,8.258842063889073,1.2196100409852693,-71.55333709716797,-5.18691873550415,-35.228614807128906,17523208.0,50354.0,0.022419039665550002,-0.03768398573215621,0.1451315601677,0.0019398107424766849,-0.0013533196517220498,0.008230852707102995,17.523208239930682
1626,C,598350222451866.0,-0.12716675,8.736799574082372,2.2241364,131,1970-01-07 22:12:30.222451866,-0.500412,1.2054291,-0.066970825,8.26735753819892,1.306888126915227,-71.64433288574219,-5.019800186157227,-35.28076934814453,17573562.0,50354.0,-0.00440144188115,-0.054932861728656246,0.10593195307070001,0.0004536290594178389,-0.002331814368520875,0.006321026072803198,17.573562243953347
1626,C,598350272805870.0,1.4320526,8.648832574082373,2.4380798,131,1970-01-07 22:12:30.272805870,-0.42263794,1.040329,0.1065979,8.531687962857045,1.1279496304591148,-71.69847869873047,-5.114376068115234,-35.325355529785156,17623916.0,50354.0,0.03285311104545,-0.05575113940565624,0.1173806172674,0.0007163276745495812,-0.0027866910965585853,0.005622340583402345,17.623916247976013
1626,C,598350323159874.0,1.6296539,8.317488574082374,1.8917694,131,1970-01-07 22:12:30.323159874,-0.20718384,0.73457336,0.21148682,8.744904852223526,0.7919910604372675,-71.84342956542969,-5.2338385581970215,-35.34462356567383,17674270.0,50354.0,0.0770845845505,-0.06630813245265621,0.10901261330840001,0.0027679013620192337,-0.0030730862875767324,0.005699902366206918,17.674270251998678
1626,C,598350373513878.0,1.3916168,8.678129574082373,2.6882782,131,1970-01-07 22:12:30.373513878,-0.027816772,0.5823364,0.15748596,8.572475358154229,0.6038967487630493,-71.8332290649414,-5.319913387298584,-35.37080001831055,17724624.0,50354.0,0.0760665324139,-0.06557052188365621,0.11531185842520002,0.003855885671812699,-0.0033203088802253376,0.005647817224836848,17.724624256021343
1626,C,598350423867882.0,0.87220764,9.337156574082373,3.2733765,131,1970-01-07 22:12:30.423867882,0.14117432,0.62942505,-0.09490967,8.103263096833745,0.6520076131875101,-71.67853546142578,-5.336706161499023,-35.41575622558594,17774978.0,50354.0,0.05699630792588001,-0.03989834064765623,0.15009658038190002,0.003350123131234641,-0.0026553895519508533,0.0066821882638463575,17.774978259927593
1626,C,598350474221886.0,0.5930023,7.748259074082373,3.93573,131,1970-01-07 22:12:30.474221886,0.11842346,0.38075256,-0.1733551,9.795187926657535,0.43479721540154237,-71.53516387939453,-5.292863368988037,-35.449188232421875,17825332.0,50354.0,0.036889590659379995,-0.06330969022615622,0.1815036743505,0.002363765268681091,-0.0025984685933099763,0.008348699613397636,17.82533226395026
1626,C,598350524575890.0,0.47174072,5.488066574082373,3.8504028,131,1970-01-07 22:12:30.524575890,-0.16558838,-0.0743103,0.1937561,11.862484610237223,0.26548626812760845,-71.53173065185547,-5.209547996520996,-35.44371032714844,17875686.0,50354.0,0.026807035014539998,-0.16021822915615624,0.1960314655056,0.0016036899445922839,-0.005627762426288482,0.00950520221615703,17.875686267972924
1626,C,598350574929894.0,1.2771149,4.668867574082373,4.1670837,131,1970-01-07 22:12:30.574929894,-0.52523804,-0.4618683,0.4524231,12.7946863228845,0.8329969907637972,-71.5447006225586,-5.208388328552246,-35.41596221923828,17926040.0,50354.0,0.04403093794474,-0.23774806895165623,0.20185625761050002,0.0017834876451957927,-0.010019597487460395,0.01001761920489405,17.92604027199559
1626,C,598350625283897.0,1.1963654,4.323210574082372,3.0804596,131,1970-01-07 22:12:30.625283897,-1.0947418,0.0027160645,0.15402222,12.80876798471728,1.1055269467214883,-71.71144104003906,-5.205190181732178,-35.40350341796875,17976394.0,50354.0,0.0622748135131,-0.2670756484636563,0.1824713976641,0.0026764599044540377,-0.012709946733365323,0.009676217376848605,17.976394274970517
1626,C,598350675637901.0,-0.31791687,5.394377574082373,2.4223785,131,1970-01-07 22:12:30.675637901,-1.2693787,0.20402527,-0.24887085,11.564978447640655,1.3095362899866447,-71.92874908447266,-5.04544734954834,-35.40337371826172,18026748.0,50354.0,0.022116698639809997,-0.24880948319365626,0.1385449548437,0.002124725101473815,-0.012988439959736158,0.008082228707088883,18.026748278993182
1626,C,598350725991905.0,-0.30303955,7.724104574082373,2.8859253,131,1970-01-07 22:12:30.725991905,-0.7472534,-0.1352539,-0.2300415,9.431724933918147,0.7934735994341714,-71.97250366210938,-4.886727809906006,-35.400028228759766,18077102.0,50354.0,-0.01563381978634,-0.16318517495565624,0.1336471647726,0.00016321944089381412,-0.01037278950822524,0.006852980995579585,18.077102283015847
1626,C,598350776345909.0,2.2854004,9.578245574082374,2.0103912,131,1970-01-07 22:12:30.776345909,0.0018310547,-0.58361816,-0.24989319,7.743421740791444,0.6348701566867638,-71.97445678710938,-4.907635688781738,-35.37605285644531,18127456.0,50354.0,0.04990989912045,-0.05784793031965621,0.1232745605205,0.0008629688493948874,-0.005564950491516542,0.006468518277704379,18.127456286922097
1626,C,598350826699913.0,3.5700684,9.054945574082373,1.6956482,131,1970-01-07 22:12:30.826699913,0.5807953,-1.3255005,-0.46313477,8.60477805248025,1.5194632510150723,-71.95023345947266,-4.950178146362305,-35.31999969482422,18177810.0,50354.0,0.1474231379776,-0.02434134646265622,0.0933069539738,0.004968253875017605,-0.00206927942154828,0.005452872790422991,18.177810290944763
1626,C,598350877053917.0,1.7171631,7.664488574082373,2.017456,131,1970-01-07 22:12:30.877053917,1.1372986,-1.382019,-0.44685364,9.414318151402075,1.8447500636954075,-72.03311157226562,-5.132095813751221,-35.24925231933594,18228164.0,50354.0,0.13311662747550002,-0.07252400645165623,0.0934848244434,0.007063149674812699,-0.0024387789903236447,0.004702856605209845,18.228164294967428
1626,C,598350927407921.0,-0.10958862,8.199827574082374,1.9592133,131,1970-01-07 22:12:30.927407921,1.4726563,-0.9149933,-0.3428955,8.722119502215637,1.7673445167524158,-72.08780670166016,-5.016934394836426,-35.19974899291992,18278518.0,50354.0,0.04047390268296,-0.09405331233765621,0.10012060296610001,0.004370488777799548,-0.004193917155158519,0.004874403845888982,18.278518298990093
1626,C,598350977761925.0,0.80737305,9.663130274082373,2.2114716,131,1970-01-07 22:12:30.977761925,1.8498688,-0.78071594,-0.37322998,7.418675106627339,2.0422616321505735,-72.00960540771484,-5.077494144439697,-35.16725540161133,18328872.0,50354.0,0.01756811859411,-0.0437335102567562,0.10500533372729999,0.0014613239696927916,-0.0034690588324595216,0.005164455708129732,18.32887230301276
1626,C,598351028115929.0,1.5687561,9.610960574082373,2.1800232,131,1970-01-07 22:12:31.028115929,1.6211548,-0.78086853,-0.6663513,7.579218385928357,1.9188336566047333,-71.95291137695312,-5.292559623718262,-35.13846969604492,18379226.0,50354.0,0.05982380360955001,-0.00820541471575621,0.11056466457960001,0.001948496425321548,-0.0013076663140329451,0.005427405847372821,18.37922630691901
1626,C,598351078469933.0,1.6759338,8.818785174082372,2.9789886,131,1970-01-07 22:12:31.078469933,0.9975281,-0.6886444,-0.90841675,8.588983106072929,1.5147654642292094,-71.83922576904297,-5.495285987854004,-35.12596893310547,18429580.0,50354.0,0.0816915576123,-0.029463491298456258,0.1298884400886,0.003562932249482518,-0.0009483900467198274,0.006053887816231273,18.429580310941674
1626,C,598351128823937.0,1.938034,8.656813574082372,3.8165894,131,1970-01-07 22:12:31.128823937,0.8397064,-0.5148773,-0.7659302,9.109807874291551,1.24773977396262,-71.62147521972656,-5.710052967071533,-35.130741119384766,18479934.0,50354.0,0.0909888673006,-0.05348605031745628,0.171092267306,0.004347575058032084,-0.00208842060926383,0.007577791270073846,18.47993431496434
1626,C,598351179177940.0,1.8790436,8.178556574082373,3.6964722,131,1970-01-07 22:12:31.179177940,0.5363312,-0.19573975,-0.2484436,9.475312673455942,0.6226471137044342,-71.47032165527344,-5.86842679977417,-35.137969970703125,18530288.0,50354.0,0.09610256273520001,-0.06960508577965624,0.18915635190320002,0.004710400934011338,-0.003099065533517002,0.00906997948583003,18.530288317939267
1626,C,598351229531944.0,3.235138,7.761320574082372,4.5737915,131,1970-01-07 22:12:31.229531944,-0.06137085,-0.04725647,0.45637512,10.54780252769482,0.4629015071714477,-71.47437286376953,-5.847541332244873,-35.1284294128418,18580642.0,50354.0,0.1287597501432,-0.09215091304065624,0.2082204291749,0.005661358451339478,-0.004072530782299008,0.010004755217203325,18.580642321961932
1626,C,598351279885948.0,6.194107,7.683119574082372,5.638031,131,1970-01-07 22:12:31.279885948,-0.31756592,0.09428406,1.1177063,12.30563655307575,1.1657636855620526,-71.49160766601562,-5.793054580688477,-35.115081787109375,18630996.0,50354.0,0.237400101365,-0.10462453038965627,0.25710305508250003,0.009218806581421952,-0.004954215339244978,0.011715449363148561,18.630996325984597
1626,C,598351330239952.0,4.19252,6.060499574082373,5.6731873,131,1970-01-07 22:12:31.330239952,-0.47097778,0.22467041,0.7264252,12.76425039563175,0.8944218431916433,-71.51524353027344,-5.755046844482422,-35.11421203613281,18681350.0,50354.0,0.26150410797900003,-0.14744610070665626,0.2847825431391,0.01256091127865389,-0.0063463822791118615,0.013643053706425224,18.681350330007263
1626,C,598351380593956.0,0.8312073,6.746366574082373,3.5650787,131,1970-01-07 22:12:31.380593956,-0.90260315,0.15263367,0.81481934,10.603896337532161,1.225528473943232,-71.53028869628906,-5.682544231414795,-35.11159133911133,18731704.0,50354.0,0.1264823822321,-0.17103073098765625,0.232591823082,0.009768335864044866,-0.008018291191567706,0.013025934418348635,18.731704333913513
1626,C,598351430947960.0,0.4007721,8.862318574082373,3.4228363,131,1970-01-07 22:12:31.430947960,-1.0150452,0.18122864,0.94825745,8.560360804404047,1.4008400228005309,-71.45321655273438,-5.5603179931640625,-35.11776351928711,18782058.0,50354.0,0.0310175453538,-0.10048933402465623,0.175934735955,0.003965375676830205,-0.006836060676814993,0.01028547317687455,18.782058337936178
1626,C,598351481301964.0,0.28727722,8.804304574082373,2.7172394,131,1970-01-07 22:12:31.481301964,-0.79071045,0.5278015,0.19108582,8.353552121336904,0.9696964626864042,-71.4793930053711,-5.4531965255737305,-35.14096450805664,18832412.0,50354.0,0.01732301772964,-0.048676628998656234,0.1545886858989,0.001217070356751769,-0.0037555514510379385,0.008321588192015643,18.832412341958843
1626,C,598351531655968.0,-0.52259827,8.137831574082373,2.2613525,131,1970-01-07 22:12:31.531655968,-0.7371063,0.7922058,-0.19645691,8.869569226705389,1.0997777250608771,-71.60568237304688,-5.230348587036133,-35.1732063293457,18882766.0,50354.0,-0.005924678075850001,-0.06691703819765624,0.1253460082663,0.00028697599746347084,-0.002910301759001559,0.007047915794997241,18.88276634598151
1626,C,598351582009972.0,1.2818451,8.801664874082373,3.3050232,131,1970-01-07 22:12:31.582009972,-0.6910553,1.0601196,-0.06517029,8.655859453422956,1.2671456746013592,-71.5284194946289,-5.299142837524414,-35.234554290771484,18933120.0,50354.0,0.01911555743891,-0.06698349792455623,0.1401446409989,0.00033210676972376165,-0.0033712137979489435,0.006684258076549941,18.933120350004174
1626,C,598351632363976.0,2.164856,9.449644574082374,2.5855255,131,1970-01-07 22:12:31.632363976,-0.30802917,1.0596619,-0.072265625,7.994700669449435,1.1058877124008295,-71.5390625,-5.2857866287231445,-35.286170959472656,18983474.0,50354.0,0.0867775935947,-0.0339559820235562,0.1483063446199,0.002666071863573199,-0.0025413532866536267,0.007262330464924528,18.983474353910424
1626,C,598351682717979.0,1.1861115,9.117048574082373,1.4507599,131,1970-01-07 22:12:31.682717979,-0.18458557,0.8321533,-0.10960388,7.809459603921468,0.8593974388280252,-71.73320770263672,-5.365209579467773,-35.310035705566406,19033828.0,50354.0,0.08436730874750001,-0.026015566608656202,0.10162155751580002,0.00430891520626957,-0.0015099036799132118,0.00629243479207052,19.033828357001767
1626,C,598351733071983.0,0.7838898,9.315718174082374,2.6668854,131,1970-01-07 22:12:31.733071983,-0.14942932,0.8883972,-0.28282166,7.888597962440572,0.9442281493413857,-71.69645690917969,-5.37319278717041,-35.36058044433594,19084182.0,50354.0,0.0495987227301,-0.0293874315814562,0.10366995571809999,0.0033728627745115355,-0.0013948812854324602,0.0051686244286899006,19.084182361024432
1626,C,598351783425987.0,-0.07810974,8.703337174082373,3.2002716,131,1970-01-07 22:12:31.783425987,0.16888428,1.1015778,-0.40603638,8.612086317574713,1.1861117533215253,-71.59447479248047,-5.228302001953125,-35.4276237487793,19134536.0,50354.0,0.017769424570619998,-0.039803443499256214,0.14771741178900002,0.0016961278445902274,-0.0017420186619070967,0.0063291797517262575,19.134536364930682
1626,C,598351833779991.0,-0.08203125,6.835157574082373,3.1502228,131,1970-01-07 22:12:31.833779991,0.14349365,0.81352234,-0.13815308,10.354378290931638,0.8375531617652007,-71.60100555419922,-5.080202579498291,-35.46699523925781,19184890.0,50354.0,-0.00403186970523,-0.10225651772545623,0.15988639750880002,0.000345870418845924,-0.003576643643754585,0.0077445411066907124,19.184890368953347
1626,C,598351884133995.0,1.4318695,5.670072574082372,4.0093536,131,1970-01-07 22:12:31.884133995,-0.18609619,0.21763611,0.31755066,11.82150650426959,0.42759290215681056,-71.57046508789062,-5.108658313751221,-35.47581481933594,19235244.0,50354.0,0.03398487762025,-0.17862502055965626,0.1802566550228,0.0007541268802764586,-0.007071754489404277,0.008563781633588095,19.235244372976013
1626,C,598351934487999.0,2.204956,3.9225905740823723,4.2596436,131,1970-01-07 22:12:31.934487999,-0.7830353,-0.17086792,0.4701233,13.646477988257848,0.9291695455265989,-71.61079406738281,-5.1937031745910645,-35.4602165222168,19285598.0,50354.0,0.0915643556135,-0.25195471991865626,0.20818854250440005,0.003160953045126124,-0.010840706126022474,0.009779884738142317,19.285598376998678
1626,C,598351984842003.0,0.104400635,3.227522574082373,2.9325562,131,1970-01-07 22:12:31.984842003,-1.2135315,-0.0061798096,0.16595459,13.786729544724224,1.224841956123732,-71.82472229003906,-5.067773342132568,-35.44367218017578,19335952.0,50354.0,0.05814267199939501,-0.31345080126865627,0.18107801436460003,0.0037691738342098577,-0.01423521480693297,0.009800564102290816,19.335952381021343
1626,C,598352035196007.0,0.4338684,6.072889574082373,4.8719177,131,1970-01-07 22:12:32.035196007,-1.1411438,-0.2197876,-0.0005187988,11.697186908562923,1.1621170468349542,-71.72109985351562,-4.998504161834717,-35.447410583496094,19386306.0,50354.0,0.013551999494195001,-0.25931272334565625,0.1964932393803,0.001805056744194116,-0.014420467259214548,0.009506111455535348,19.386306384927593
1626,C,598352085550011.0,2.0994415,9.091825974082372,1.7129517,131,1970-01-07 22:12:32.085550011,-0.42544556,-0.3091278,0.078445435,8.074715412305359,0.5317119591742251,-71.7437744140625,-4.999626159667969,-35.43144226074219,19436660.0,50354.0,0.06378114335230001,-0.11166715664385626,0.16578725688380003,0.001947016537446205,-0.009340160438495958,0.009121136054441247,19.43666038895026
1626,C,598352135904015.0,2.109314,9.902235574082372,1.6056671,131,1970-01-07 22:12:32.135904015,-0.15805054,-0.48440552,-0.27297974,7.29482766781796,0.578054166537384,-71.75332641601562,-5.020174026489258,-35.41264343261719,19487014.0,50354.0,0.10596383722350002,-0.015255712401856273,0.08355286552760001,0.004273669375956917,-0.003195537073963905,0.006277636261951818,19.487014392972924
1626,C,598352186258019.0,2.7253723,8.231077574082374,2.9240723,131,1970-01-07 22:12:32.186258019,0.91563416,-1.1822815,-0.3703003,9.363360200383973,1.5405511261822002,-71.71198272705078,-5.056284427642822,-35.36212158203125,19537368.0,50354.0,0.1217228969751,-0.03692677486865624,0.11404524887380002,0.0057324689069181535,-0.0013137984820096936,0.004974927726284048,19.53736839699559
1626,C,598352236612022.0,1.2697906,6.750563574082372,1.1506348,131,1970-01-07 22:12:32.236612022,1.4089813,-0.7290802,-0.574234,10.094292205076858,1.6871665384714485,-71.64380645751953,-5.095000743865967,-35.33643341064453,19587722.0,50354.0,0.10058621633330002,-0.11627642081265623,0.10258890065670001,0.0055970765457655875,-0.003857196857668404,0.0054541979827294,19.587722399970517
1626,C,598352286966026.0,-0.055847168,8.340101574082373,0.92099,131,1970-01-07 22:12:32.286966026,1.6046143,-0.2966156,-0.51164246,8.409020019169274,1.7101303671950572,-71.56411743164062,-5.123956680297852,-35.33041000366211,19638076.0,50354.0,0.030563453787464008,-0.11353152356465623,0.0521572975896,0.003301955244630476,-0.0057858746155875955,0.0038960450332470955,19.638076403993182
1626,C,598352337320030.0,2.1995087,10.366774074082372,2.5680847,131,1970-01-07 22:12:32.337320030,2.0130768,-0.6269226,-0.5913086,7.177863228959718,2.1897844664539385,-71.46528625488281,-5.161936283111572,-35.309974670410156,19688430.0,50354.0,0.053970966391164,-0.02248619180615625,0.0878444337219,0.0021283230968373174,-0.0034245180198909458,0.003524823589229636,19.688430408015847
1626,C,598352387674034.0,1.7787018,9.574751574082374,1.7689819,131,1970-01-07 22:12:32.387674034,1.3263245,-0.4828949,-1.0626221,7.55239677367833,1.7667738653134615,-71.51138305664062,-5.431113243103027,-35.29377365112305,19738784.0,50354.0,0.10015940575850002,0.008598591243843759,0.1091943257882,0.0038805403796120914,-0.0003496481193573416,0.004960844848185788,19.738784411922097
1626,C,598352438028038.0,1.3789825,9.272352574082372,3.038742,131,1970-01-07 22:12:32.438028038,0.7353058,-0.4363556,-1.0611725,8.14131116085703,1.3627794773628088,-71.38182830810547,-5.596551418304443,-35.29889678955078,19789138.0,50354.0,0.07950101762110001,-0.018955658861656226,0.12104406463030001,0.00452331047942819,-0.0002607598914136645,0.005796711955566576,19.789138415944763
1626,C,598352488382042.0,1.8081207,9.111036574082373,3.6654053,131,1970-01-07 22:12:32.488382042,0.6800842,-0.23770142,-0.59573364,8.618107953011355,0.9348342387756805,-71.17235565185547,-5.792118549346924,-35.31460952758789,19839492.0,50354.0,0.08024169726640001,-0.03063061141665624,0.16879031657210003,0.0040218423327225885,-0.001248433526797073,0.0072971602155328255,19.839492419967428
1626,C,598352538736046.0,2.1147003,8.710798574082373,4.270767,131,1970-01-07 22:12:32.538736046,0.4077301,0.06951904,-0.004486084,9.301201382322075,0.4136385575816,-71.15164184570312,-5.791208267211914,-35.317996978759766,19889846.0,50354.0,0.098764864317,-0.04476885647465622,0.19980900999710002,0.004506848200985262,-0.001898332403099574,0.009280225245032749,19.889846423990093
1626,C,598352589090050.0,4.4527893,8.443006574082373,4.527817,131,1970-01-07 22:12:32.589090050,0.0713501,0.029464722,0.5613251,10.415330737041645,0.566608219586124,-71.14884185791016,-5.764171123504639,-35.31027603149414,19940200.0,50354.0,0.16534968565920002,-0.061587847784656216,0.22152194936800002,0.006649612024750789,-0.002677742743136709,0.010607849563935123,19.94020042801276
1626,C,598352639444054.0,7.5684967,8.892088574082372,6.4493256,131,1970-01-07 22:12:32.639444054,-0.6914215,0.18379211,1.0907898,12.641741279104206,1.3044790600636496,-71.18431091308594,-5.7095866203308105,-35.30133056640625,19990554.0,50354.0,0.302659917622,-0.05702350945465625,0.27637151924020004,0.011783077781810774,-0.00298627814121417,0.012535463859148653,19.99055443191901
1626,C,598352689798058.0,3.8290253,4.636854574082372,6.613678,131,1970-01-07 22:12:32.689798058,-0.54208374,0.05555725,0.6841736,14.278717898494007,0.8746627373661863,-71.21224975585938,-5.676307201385498,-35.29289627075195,20040908.0,50354.0,0.28695541139400005,-0.1528509983586563,0.3288872416372,0.014844745138635833,-0.00528401048321577,0.015238599822610301,20.040908435941674
1626,C,598352740152062.0,0.031555176,6.240812574082373,3.3042145,131,1970-01-07 22:12:32.740152062,-1.0552063,0.15907288,0.8049774,10.967172263959732,1.336694853443352,-71.2969970703125,-5.498095989227295,-35.284454345703125,20091262.0,50354.0,0.09719783464425201,-0.21960217421065625,0.24970277947250002,0.009671826275505073,-0.009377253525777582,0.014567160961478918,20.09126243996434
1626,C,598352790506065.0,-0.49246216,9.480329974082373,4.8119965,131,1970-01-07 22:12:32.790506065,-1.3111725,0.30560303,0.7336731,8.688935916955186,1.5332458232015638,-71.36229705810547,-5.458450794219971,-35.287193298339844,20141616.0,50354.0,-0.011604255136168,-0.09765799406485623,0.204341844347,0.002154989551275031,-0.007987659256672578,0.011431481493903554,20.141616442939267
1626,C,598352840860069.0,-0.041900635,7.419279574082372,2.3841095,131,1970-01-07 22:12:32.840860069,-0.7810211,0.8035126,0.07261658,9.580544698493279,1.1228978692182412,-71.5039291381836,-5.300085067749023,-35.31437301635742,20191970.0,50354.0,-0.013453652089715,-0.06798773040585625,0.18117636076200003,-0.0006308829302260563,-0.004170462404999128,0.009706191850029295,20.191970446961932
1626,C,598352891214073.0,-0.20491028,7.8331435740823725,2.4609375,131,1970-01-07 22:12:32.891214073,-1.0797272,0.9798584,-0.004486084,9.20271935698204,1.4580649626885818,-71.62845611572266,-5.120943069458008,-35.354393005371094,20242324.0,50354.0,-0.006213958406955,-0.10945894239865626,0.12198374831900001,-0.0004951714294746606,-0.004467574881199212,0.007632662066332339,20.242324450984597
1626,C,598352941568077.0,0.73968506,10.398237574082373,4.2227325,131,1970-01-07 22:12:32.941568077,-0.9305725,1.2443848,0.016540527,7.6203667737611855,1.5539408924604332,-71.66973114013672,-5.100570201873779,-35.413421630859375,20292678.0,50354.0,0.013464024636060001,-0.03445771683265625,0.16827475959000002,0.00018253491745017663,-0.0036233897294667555,0.007307838453624894,20.292678455007263
1626,C,598352991922081.0,1.6686401,11.317884974082371,2.859192,131,1970-01-07 22:12:32.991922081,-0.41670227,1.3514862,-0.104522705,6.317334601411482,1.4181257794970479,-71.68470001220703,-5.08428955078125,-35.47947311401367,20343032.0,50354.0,0.060634402553320005,0.05327761739514373,0.17830161313650003,0.0018655761013470205,0.0004738286364617473,0.008725753336135093,20.343032458913513
1626,C,598353042276085.0,0.9986267,9.502394174082372,1.978302,131,1970-01-07 22:12:33.042276085,-0.027740479,1.3356018,-0.079559326,7.52945412524231,1.338256847055887,-71.75348663330078,-5.130691051483154,-35.53786087036133,20393386.0,50354.0,0.06715377622360001,0.03072296811334372,0.12179358643800002,0.0032173229770665153,0.0021148827413471887,0.007555496839687188,20.393386462936178
1626,C,598353092630089.0,1.0195313,8.583342074082372,1.4492645,131,1970-01-07 22:12:33.092630089,-0.065200806,0.8829498,-0.051239014,8.306210082081371,0.8868353460359943,-71.95453643798828,-5.168607711791992,-35.56267547607422,20443740.0,50354.0,0.050811163965999995,-0.03812461847995626,0.08629584177050001,0.0029700032991535597,-0.00018635135128020397,0.005239067534005405,20.443740466958843
1626,C,598353142984093.0,-0.5162964,7.759596574082373,1.3568573,131,1970-01-07 22:12:33.142984093,0.072052,0.80267334,-0.4046936,9.055876166623374,0.9018053511327795,-71.94691467285156,-5.175410747528076,-35.60728454589844,20494094.0,50354.0,0.012669945077299998,-0.08200303365515625,0.0706497285586,0.001598263882383164,-0.0030244538978057276,0.003951418624175751,20.49409447098151
1626,C,598353193338097.0,-0.53974915,7.100508574082372,3.5954742,131,1970-01-07 22:12:33.193338097,-0.21151733,0.5657196,-0.20574951,10.263395020056102,0.6380525899796419,-71.8926010131836,-4.972476959228516,-35.643001556396484,20544448.0,50354.0,-0.026588058812349998,-0.11933633268465625,0.1246848501755,-0.00035041634950735387,-0.005069121226337459,0.004917938688788435,20.544448475004174
1626,C,598353243692101.0,2.273407,6.302305574082373,3.3598328,131,1970-01-07 22:12:33.243692101,-0.0020141602,0.048675537,0.22175598,11.159504697672242,0.22704422346606845,-71.89765167236328,-5.130337238311768,-35.64143753051758,20594802.0,50354.0,0.04364830368945,-0.15602654819165623,0.175113764339,0.00042952578527074686,-0.00693281125182292,0.007548029717631567,20.594802478910424
1626,C,598353294046104.0,0.8260498,4.677168574082373,2.1845856,131,1970-01-07 22:12:33.294046104,-0.4716034,0.113845825,0.13859558,12.245959213791641,0.5045585927888128,-72.11572265625,-5.091578960418701,-35.62736129760742,20645156.0,50354.0,0.0780350238536,-0.21703897937165623,0.13959182205679999,0.00306362113755137,-0.009392670787461518,0.007923342548687057,20.645156482001767
1626,C,598353344400108.0,0.5749359,0.9788345740823736,3.4038544,131,1970-01-07 22:12:33.344400108,-0.63449097,0.18122864,0.01637268,16.094094103821973,0.6600686900756412,-72.28858947753906,-5.012558937072754,-35.62329864501953,20695510.0,50354.0,0.0352726169689,-0.35106800873865623,0.14070015388,0.0028527464729880825,-0.014303229639653338,0.007056911078160814,20.695510486024432
1626,C,598353394754112.0,0.6430054,3.5782455740823735,2.0484924,131,1970-01-07 22:12:33.394754112,-0.5592041,0.054748535,0.16195679,13.294617465263562,0.5847534774317809,-72.53715515136719,-4.949459075927734,-35.60429382324219,20745864.0,50354.0,0.030664108110100004,-0.3787355931096562,0.13727373538360002,0.001660088927313983,-0.018374265283734963,0.006998548609989658,20.745864489930682
1626,C,598353445108116.0,2.1290894,8.609098574082372,1.8712769,131,1970-01-07 22:12:33.445108116,-0.405838,-0.6058655,0.17800903,8.571502102529461,0.7506428585524483,-72.56016540527344,-4.950052261352539,-35.57260513305664,20796218.0,50354.0,0.0697930307796,-0.18662843638165624,0.09868803166610002,0.002529209385825977,-0.014234170170502776,0.005940809409010298,20.796218493953347
1626,C,598353495462120.0,4.874466,11.056532574082372,2.2096405,131,1970-01-07 22:12:33.495462120,-0.57077026,-1.3307953,-0.117385864,7.776439186325657,1.4527815600666136,-72.59407806396484,-4.975576400756836,-35.510650634765625,20846572.0,50354.0,0.17632851430580002,0.0016523954173437213,0.1027452573798,0.006196602140615117,-0.004657141783358497,0.005071485918308625,20.846572497976013
1626,C,598353545816124.0,1.6022339,10.211500574082372,2.7794342,131,1970-01-07 22:12:33.545816124,0.9643707,-1.6306305,-0.3894348,7.236821950542092,1.9340698379323795,-72.41080474853516,-5.214043617248535,-35.45103454589844,20896926.0,50354.0,0.1630638733823,0.04199607057134371,0.1256099337219,0.008544882144823294,0.0010989374281971836,0.005749298646367501,20.896926501998678
1626,C,598353596170128.0,0.75183105,7.180174574082372,2.9557495,131,1970-01-07 22:12:33.596170128,1.2259827,-1.7767181,-0.31895447,9.994864796105217,2.182084494583077,-72.36528015136719,-5.233625411987305,-35.370086669921875,20947280.0,50354.0,0.05926829324615001,-0.055598994794656284,0.14439472001490003,0.005597656959204486,-0.00034248082317034064,0.006797907167131415,20.947280506021343
1626,C,598353646524132.0,0.38708496,8.171507574082373,2.4851227,131,1970-01-07 22:12:33.646524132,1.8372498,-0.4701233,-0.46806335,8.890032057642621,1.9533525141192902,-72.30957794189453,-5.194671154022217,-35.35152053833008,20997634.0,50354.0,0.02867448838377,-0.10695989855565627,0.13698483937939998,0.002214135413096496,-0.004092745257880819,0.007084293166870292,20.997634509927593
1626,C,598353696878136.0,0.730484,9.212278874082372,2.622223,131,1970-01-07 22:12:33.696878136,2.070465,-0.57151794,-0.748703,7.965606374727833,2.2746459623809248,-72.1671371459961,-5.240760326385498,-35.33930969238281,21047988.0,50354.0,0.028137033705920002,-0.05579760859455625,0.1285876426889,0.0014303436916521253,-0.004097745757520901,0.0066863183810335885,21.04798851395026
1626,C,598353747232140.0,1.936554,7.989180074082373,0.876297,131,1970-01-07 22:12:33.747232140,1.4222107,-0.5969391,-1.405365,8.964805428461972,2.086640924435323,-72.09667205810547,-5.316798686981201,-35.332435607910156,21098342.0,50354.0,0.06714801572600002,-0.06038806806205624,0.08808223804000001,0.0023989916895474504,-0.002925206781183533,0.0054550975871115156,21.098342517972924
1626,C,598353797586144.0,2.4332733,9.083036874082373,3.3420868,131,1970-01-07 22:12:33.797586144,0.6806183,-0.24449158,-1.4646149,8.665063195889665,1.633436319018221,-72.06163024902344,-5.390238285064697,-35.343387603759766,21148696.0,50354.0,0.11001914193210002,-0.06364199389605624,0.1062062489326,0.004460537528357985,-0.003122704869919398,0.004891601236509151,21.14869652199559
1626,C,598353847940147.0,1.3324432,9.287657274082374,3.590561,131,1970-01-07 22:12:33.847940147,0.57966614,0.14959717,-1.0945282,8.341814185083562,1.2475512525462626,-71.83479309082031,-5.536137104034424,-35.38612747192383,21199050.0,50354.0,0.09480944432050001,-0.030950233431656215,0.17454327366060002,0.005156969316081711,-0.0023815485074298167,0.0070684307303289975,21.199050524970517
1626,C,598353898294151.0,1.2553406,9.606932174082374,4.057373,131,1970-01-07 22:12:33.898294151,0.20440674,0.4222412,-0.4120636,8.265974114313117,0.6243926303055054,-71.82199096679688,-5.54912805557251,-35.4127311706543,21249404.0,50354.0,0.0651526327326,-0.01776012146355618,0.19255203431800003,0.0040273652139658995,-0.0012263806051967625,0.009242358568977213,21.249404528993182
1626,C,598353948648155.0,3.2577667,9.335188574082373,5.1870728,131,1970-01-07 22:12:33.948648155,-0.33761597,0.4368286,0.21360779,9.577832665243726,0.5919730204373211,-71.83718872070312,-5.532168865203857,-35.43023681640625,21299758.0,50354.0,0.1136265024921,-0.0165634259234562,0.23274741190660003,0.0045011222875522726,-0.0008641639525628107,0.010707764157596755,21.299758533015847
1626,C,598353999002159.0,5.2305603,7.856855574082372,5.332321,131,1970-01-07 22:12:33.999002159,-0.98553467,0.6581726,0.6730194,11.574298643332178,1.3628737542190503,-71.88445281982422,-5.489945411682129,-35.451133728027344,21350112.0,50354.0,0.213710608879,-0.06062510448165624,0.2648467777026,0.008241366452990185,-0.0019433756300095161,0.012527928911790831,21.350112536922097
1626,C,598354049356163.0,6.241043,4.419844574082372,6.510681,131,1970-01-07 22:12:34.049356163,-0.79138184,0.5600281,0.5161896,15.234868582715738,1.0983480289141305,-71.92223358154297,-5.456716060638428,-35.46981430053711,21400466.0,50354.0,0.2888205562841,-0.18437872036965627,0.298171261354,0.01265222714531137,-0.006168461298281495,0.014175105169328019,21.400466540944763
1626,C,598354099710167.0,0.07810974,6.200346574082372,3.3403168,131,1970-01-07 22:12:34.099710167,-0.94262695,0.48565674,0.25411987,11.016888964305945,1.0904058621919395,-71.97830200195312,-5.311017990112305,-35.488094329833984,21450820.0,50354.0,0.15909730853498003,-0.22608464746265627,0.2480185716106,0.01127722808254998,-0.010334236211914132,0.013751421424549735,21.450820544967428
1626,C,598354150064171.0,-0.100860596,8.027647574082373,2.328308,131,1970-01-07 22:12:34.150064171,-1.3015747,0.7980957,0.7988434,8.978431349221838,1.723137900390488,-72.11607360839844,-5.112292289733887,-35.507083892822266,21501174.0,50354.0,-0.0005727983015120001,-0.13525099133165625,0.1427189665896,0.003991171594148025,-0.009097347377924407,0.009837598999266436,21.501174548990093
1626,C,598354200418175.0,0.82347107,8.668699574082373,3.0399017,131,1970-01-07 22:12:34.200418175,-1.0241852,1.3014374,0.39019775,8.62521616846174,1.7014549403739325,-72.09105682373047,-5.083040714263916,-35.569580078125,21551528.0,50354.0,0.018193163903898,-0.07310526785065624,0.1351554156169,0.0004436279447712724,-0.005245785537433082,0.006996043320813051,21.55152855301276
1626,C,598354250772179.0,-0.49093628,8.245481574082373,1.3331451,131,1970-01-07 22:12:34.250772179,-0.89953613,1.4332733,-0.14463806,8.571419830029926,1.698339709854548,-72.12979125976562,-5.067910671234131,-35.64028549194336,21601882.0,50354.0,0.00837222840783,-0.06762086123265625,0.1101001992836,0.0006688368822323758,-0.003543061751930559,0.006174800616349889,21.60188255691901
1626,C,598354301126183.0,1.1116028,9.428450074082374,3.0100403,131,1970-01-07 22:12:34.301126183,-0.9019928,1.4917297,-0.02456665,7.946534656886496,1.7434024289894037,-72.05379486083984,-5.120843410491943,-35.72209548950195,21652236.0,50354.0,0.01562652097404,-0.04849262289415622,0.10934837881580002,0.000604216513187341,-0.0029233891898607575,0.005525056850808595,21.652236560941674
1626,C,598354351480187.0,1.6967163,10.368132074082371,2.8392487,131,1970-01-07 22:12:34.351480187,-0.53466797,1.6709442,-0.05088806,7.142255082225616,1.755139297123771,-72.0733642578125,-5.097537040710449,-35.80269241333008,21702590.0,50354.0,0.07070504998070001,0.004949348744343756,0.14726754915300003,0.0021735699619274892,-0.0010962890132698285,0.006460819218470479,21.70259056496434
1626,C,598354401834190.0,1.1985168,9.309187574082372,1.9660339,131,1970-01-07 22:12:34.401834190,-0.37660217,1.6547852,-0.26281738,7.739600591854302,1.7173282236712393,-72.15977478027344,-5.180005073547363,-35.87905502319336,21752944.0,50354.0,0.07289328375870001,0.001946676781843721,0.1209826000202,0.0036153752485568744,0.00017362123467282213,0.0067537340057336566,21.752944567939267
1626,C,598354452188194.0,1.4964142,8.211576574082374,2.4624481,131,1970-01-07 22:12:34.452188194,-0.32495117,1.5642548,-0.49954224,8.962599405841825,1.6739261607823765,-72.20957946777344,-5.2905755043029785,-35.957740783691406,21803298.0,50354.0,0.06785027778700001,-0.05234892104165623,0.111495891314,0.003543500649036089,-0.0012689773037292994,0.005853110976321154,21.803298571961932
1626,C,598354502542198.0,0.58903503,8.011396574082372,2.6399994,131,1970-01-07 22:12:34.502542198,-0.34884644,1.6102753,-0.64974976,9.098333736183152,1.771116916273689,-72.24125671386719,-5.257491588592529,-36.04267883300781,21853652.0,50354.0,0.05250535526371,-0.08502340504865623,0.12846432070750002,0.003030193773317726,-0.0034586230539757974,0.006041478258065306,21.853652575984597
1626,C,598354552896202.0,0.013183594,7.819929574082373,2.8747406,131,1970-01-07 22:12:34.552896202,-0.36286926,1.8480072,-0.65760803,9.33223518280391,1.994806514984666,-72.24589538574219,-5.131389141082764,-36.14152526855469,21904006.0,50354.0,0.015162058296448002,-0.09488390156765625,0.13884460898,0.001703662471204098,-0.0045295262586789,0.006730036922742188,21.904006580007263
1626,C,598354603250206.0,0.9604492,7.5448285740823735,2.7324982,131,1970-01-07 22:12:34.603250206,-0.50709534,2.0950165,-0.766037,9.600829087227044,2.2875866113638113,-72.28950500488281,-5.151237964630127,-36.25087356567383,21954360.0,50354.0,0.024513152854538003,-0.10663068410365623,0.1411734512676,0.0009989027911483748,-0.005073532723446635,0.007050014702853826,21.954360583913513
1626,C,598354653604210.0,2.0870972,7.343031574082373,2.450592,131,1970-01-07 22:12:34.653604210,-0.70961,2.2438202,-0.85188293,9.893599614526952,2.502794431920733,-72.38837432861328,-5.333189487457275,-36.3643798828125,22004714.0,50354.0,0.0767280757128,-0.11863754504965623,0.13049466196540002,0.0025489504116398692,-0.005671578205392948,0.006839788086867241,22.004714587936178
1626,C,598354703958214.0,1.4935455,7.580702574082373,2.1434937,131,1970-01-07 22:12:34.703958214,-0.74157715,2.0872345,-0.88053894,9.484550266013404,2.383659655288208,-72.52339172363281,-5.437192916870117,-36.46745681762695,22055068.0,50354.0,0.09014984125790002,-0.11773434535165624,0.1156652956689,0.004201485315571315,-0.005951135084633844,0.006197569253358772,22.055068591958843
1626,C,598354754312218.0,-0.12071228,7.669844574082372,2.966446,131,1970-01-07 22:12:34.754312218,-0.82173157,2.0760498,-0.8569031,9.504116989308782,2.391549386486575,-72.5361099243164,-5.293087482452393,-36.581546783447266,22105422.0,50354.0,0.03456382197994,-0.10950617445065625,0.1286529518269,0.003139915899339098,-0.005721234567062822,0.006151200517201757,22.10542259598151
1626,C,598354804666222.0,0.25402832,7.770704574082373,2.9503021,131,1970-01-07 22:12:34.804666222,-0.57725525,2.5051575,-0.7177582,9.4059354879818,2.6691224320225655,-72.53234100341797,-5.196167469024658,-36.71424102783203,22155776.0,50354.0,0.0033564979390799995,-0.10472249409665625,0.1489659669137,0.0009547198946011666,-0.005393635188015687,0.006989611517132087,22.155776600004174
1626,C,598354855020226.0,1.1638184,7.243071074082373,2.0683136,131,1970-01-07 22:12:34.855020226,-0.42674255,2.342865,-0.6013336,9.74857159319127,2.4561611735988467,-72.67031860351562,-5.2318339347839355,-36.82390594482422,22206130.0,50354.0,0.03569712686944,-0.11546737050615624,0.1263536874789,0.0009832531118041082,-0.00554372022110501,0.00693172293864249,22.206130603910424
1626,C,598354905374229.0,1.0807495,6.572981574082373,1.0101318,131,1970-01-07 22:12:34.905374229,-0.22259521,2.2361145,-0.43933105,10.232859931078773,2.289709251437679,-72.67108154296875,-5.219501495361328,-36.937660217285156,22256484.0,50354.0,0.0565114860183,-0.14562244247715625,0.07750601983580001,0.0023215362466746303,-0.006573458221480858,0.005132575851062202,22.256484607001767
1626,C,598354955728233.0,1.2651978,6.998564574082373,1.4185333,131,1970-01-07 22:12:34.955728233,-0.19128418,2.475937,-0.41078186,9.884267926529649,2.5170608657702997,-72.89264678955078,-5.257384777069092,-37.04207992553711,22306838.0,50354.0,0.059063915172099996,-0.15177838262765625,0.0611465012227,0.002909841875770701,-0.007487660573663864,0.0034908545226898548,22.306838611024432
1626,C,598355006082237.0,3.1187744,8.265379574082372,2.926941,131,1970-01-07 22:12:35.006082237,-0.31980896,2.8239288,-0.5961151,9.45561667288815,2.9038258988468524,-72.89543151855469,-5.244339942932129,-37.186397552490234,22357192.0,50354.0,0.1103752680794,-0.10916887818165626,0.10940600645109999,0.004265970316723015,-0.006569869185396062,0.004294000485703262,22.357192614930682
1626,C,598355056436241.0,3.6083984,8.027998574082373,2.6939697,131,1970-01-07 22:12:35.056436241,-0.18507385,2.6434326,-0.70028687,9.77000325176208,2.7408739374496927,-72.89215087890625,-5.238924503326416,-37.32359313964844,22407546.0,50354.0,0.16937002958560002,-0.08325081836365625,0.1415176686939,0.007043147359311706,-0.004844550699921333,0.006317505369125666,22.407546618953347
1626,C,598355106790245.0,3.0872192,7.923368574082373,2.8574066,131,1970-01-07 22:12:35.106790245,0.12879944,2.8587494,-0.68211365,9.73118447656878,2.941821962536312,-72.87227630615234,-5.229448318481445,-37.47085189819336,22457900.0,50354.0,0.16857556431520002,-0.09186162931065624,0.13976700110509999,0.008508456217640443,-0.004408806095096166,0.007081904131529424,22.457900622976013
1626,C,598355157144249.0,3.256363,8.653288574082373,2.3988953,131,1970-01-07 22:12:35.157144249,-0.10064697,2.9565277,-0.78038025,9.004530690802941,3.0594409927350346,-72.86333465576172,-5.223191261291504,-37.62425231933594,22508254.0,50354.0,0.1597123690494,-0.07611870298065625,0.1323379129363,0.008265305298320536,-0.004229240826098375,0.006850785420820329,22.508254626998678
1626,C,598355207498253.0,3.7763214,9.033644174082372,3.1368103,131,1970-01-07 22:12:35.207498253,-0.75154114,2.523941,-0.7500763,9.102080003178152,2.738194060400977,-72.88887786865234,-5.22187614440918,-37.75644302368164,22558608.0,50354.0,0.1770618951388,-0.048165294199456254,0.1393724598912,0.008478965649466312,-0.0031290981970036927,0.006840852056677968,22.558608631021343
1626,C,598355257850525.0,3.5971222,8.612837574082373,3.8179016,131,1970-01-07 22:12:35.257850525,-0.6333771,2.2227325,-0.5623932,9.63800460204888,2.3786534906889867,-72.91009521484375,-5.216072082519531,-37.87141799926758,22608960.0,50352.0,0.1856338160736,-0.0491817755082044,0.1750918267944,0.009131227225483382,-0.0024508098269600646,0.007916952881596665,22.60896090301685
1626,C,598355308204529.0,2.5116272,7.8240955740823726,2.7246704,131,1970-01-07 22:12:35.308204529,-0.22702026,2.1242523,-0.4403839,9.616883514939754,2.181266607245654,-72.9118881225586,-5.452754497528076,-37.97982406616211,22659314.0,50354.0,0.15379998364380001,-0.07963653412865623,0.164722335244,0.00854592477548498,-0.0032432585817272403,0.008555501157640796,22.6593149069231
1626,C,598355358558533.0,1.7401276,7.8471970740823735,1.9966278,131,1970-01-07 22:12:35.358558533,-0.44929504,1.742279,-0.21282959,9.238908583250774,1.8118218955485579,-73.03386688232422,-5.572689533233643,-38.056243896484375,22709668.0,50354.0,0.10704643059960002,-0.09891306499715623,0.11886812478139999,0.0065673301714060835,-0.004495343257190581,0.007139957012059496,22.709668910945766
1626,C,598355408912537.0,2.9916382,8.215376574082374,2.403778,131,1970-01-07 22:12:35.408912537,-0.5440216,1.2546844,-0.44125366,9.310684442071068,1.4369750301704325,-73.05459594726562,-5.575498104095459,-38.123008728027344,22760022.0,50354.0,0.1191316675466,-0.08906178326015621,0.1107890168266,0.005694485977026878,-0.004732642754574355,0.0057820778542646166,22.76002291496843
1626,C,598355459266540.0,2.0677795,7.359175574082373,1.709671,131,1970-01-07 22:12:35.459266540,-0.17060852,1.3694,-0.78034973,9.716934734495506,1.5853420224694932,-73.21646881103516,-5.7612409591674805,-38.18434524536133,22810376.0,50354.0,0.1273809594329,-0.10134870056565622,0.10356430547300001,0.006206448409462871,-0.00479396475128248,0.00539677359553703,22.81037691794336
1626,C,598355509620544.0,-0.2879486,6.398603574082372,1.5919647,131,1970-01-07 22:12:35.509620544,0.22149658,1.042572,-0.3413391,10.426024768233772,1.1191646399545094,-73.19986724853516,-5.7625203132629395,-38.23946762084961,22860730.0,50354.0,0.0448108025693,-0.14708959438665625,0.0831252820189,0.00433527199192939,-0.006254930952014371,0.004700283744283567,22.860730921966024
1626,C,598355559974548.0,0.79748535,6.737776574082373,2.5374908,131,1970-01-07 22:12:35.559974548,0.081222534,0.46195984,-0.07469177,10.309598299138054,0.4749556340416857,-73.25627899169922,-5.726418972015381,-38.25648498535156,22911084.0,50354.0,0.01282860675475,-0.16273455700965625,0.1039673011235,0.0014511874085516069,-0.007800442659704959,0.004710429965776206,22.91108492598869
1626,C,598355610328552.0,1.253479,6.924833574082372,2.444458,131,1970-01-07 22:12:35.610328552,-0.32255554,0.6949768,-0.18582153,10.152249032869564,0.7883936008964509,-73.33613586425781,-5.7596282958984375,-38.28588104248047,22961438.0,50354.0,0.051637129439950004,-0.14948566429965626,0.12543052493759999,0.001623053840173962,-0.007860768511904561,0.005775549066740314,22.961438930011354
1626,C,598355660682556.0,-0.06298828,7.037870574082373,2.8758392,131,1970-01-07 22:12:35.660682556,-0.31822205,0.8483734,-0.08039856,10.079644561947758,0.9096519264992715,-73.35005187988281,-5.598669528961182,-38.32767868041992,23011792.0,50354.0,0.029972984857440006,-0.14193019766165627,0.13394912260440003,0.0020546978476653883,-0.007336977156599966,0.006530401386164936,23.011792933917604
1626,C,598355711036560.0,0.22052002,7.573667574082373,2.579605,131,1970-01-07 22:12:35.711036560,-0.124938965,0.55682373,0.12210083,9.48487090780079,0.5835846330679664,-73.37557220458984,-5.478300094604492,-38.35063171386719,23062146.0,50354.0,0.003966176617980001,-0.12559450404365624,0.1373517186234,0.0008544862684666495,-0.006735469414834654,0.006830541279592323,23.06214693794027
1626,C,598355761390564.0,1.5437317,8.018660074082373,2.2054596,131,1970-01-07 22:12:35.761390564,-0.21391296,0.27386475,0.23294067,9.087581345246562,0.4183563212006877,-73.44390106201172,-5.570789337158203,-38.35480880737305,23112500.0,50354.0,0.04441856555444,-0.10090116680215623,0.12047357143420001,0.0012181826536750186,-0.005702481504885021,0.006491267327780196,23.112500941962935
1626,C,598355811744568.0,2.3939972,9.207411274082371,2.8219452,131,1970-01-07 22:12:35.811744568,-0.35420227,0.18093872,0.1531372,8.355161515857642,0.42620308597220563,-73.46098327636719,-5.560873508453369,-38.36133575439453,23162854.0,50354.0,0.0991402005153,-0.05976840166725627,0.12657497064960002,0.003614379053337844,-0.004045177725354399,0.006219941144043834,23.1628549459856
1626,C,598355862098572.0,2.1763306,10.130125574082374,2.730133,131,1970-01-07 22:12:35.862098572,-0.17443848,0.17532349,-0.0012969971,7.4385201027804815,0.24732325335877317,-73.46888732910156,-5.558441162109375,-38.36980056762695,23213208.0,50354.0,0.11506714302059999,-0.006608034773756236,0.13978467284140003,0.005393098288203354,-0.001671159540275372,0.006706136744172909,23.213208950008266
1626,C,598355912452576.0,1.8331757,9.858625874082373,2.6207123,131,1970-01-07 22:12:35.912452576,0.25424194,0.16178894,-0.122909546,7.550527070337056,0.32545565236943313,-73.34725189208984,-5.773952007293701,-38.39003372192383,23263562.0,50354.0,0.10094734011510001,0.009787595210443796,0.1347182321181,0.005438596641907519,8.00517931144827e-05,0.006911159638165332,23.263562953914516
1626,C,598355962806580.0,1.6391449,9.106260574082373,2.2978058,131,1970-01-07 22:12:35.962806580,0.5391998,-0.19264221,-0.19406128,8.099783485580257,0.6045719359918739,-73.31636810302734,-5.93328857421875,-38.38404846191406,23313916.0,50354.0,0.0874226157462,-0.015990253894556224,0.12383353020370001,0.004742590378719951,-0.00015616433768989862,0.006509557719975959,23.31391695793718
1626,C,598356013160583.0,1.2201691,9.799513574082372,0.8487854,131,1970-01-07 22:12:36.013160583,0.29936218,-0.5423279,-0.21403503,7.057135385367349,0.6553993133959352,-73.30378723144531,-5.9513258934021,-38.36103057861328,23364270.0,50354.0,0.071988948578,-0.01747852427165624,0.0792217266424,0.004013504954990384,-0.0008426434278907313,0.005112322201614261,23.36427096091211
1626,C,598356063514587.0,1.073822,9.566053874082373,1.9956512,131,1970-01-07 22:12:36.063514587,-0.04147339,-0.9001465,-0.2236023,7.483670945652617,0.928429723837853,-73.3365249633789,-6.0324225425720215,-38.31814193725586,23414624.0,50354.0,0.0577558139247,-0.005902308357556255,0.0716143802782,0.0032665838855304784,-0.0005886592231056831,0.003797600663939947,23.414624964934774
1626,C,598356113868591.0,-0.10498047,9.075758574082373,4.265732,131,1970-01-07 22:12:36.113868591,0.067489624,-0.9717102,-0.05130005,8.735636980657244,0.9754010750771724,-73.33799743652344,-6.048810005187988,-38.27207946777344,23464978.0,50354.0,0.024392523200810003,-0.024124287992556226,0.1576428448264,0.0020682486838089656,-0.0007559796163067819,0.005772009156458514,23.46497896895744
1626,C,598356164222595.0,0.67211914,9.291258574082374,5.761963,131,1970-01-07 22:12:36.164222595,0.6692505,-0.9536133,0.13235474,9.40834359521613,1.1725153879107972,-73.3095703125,-6.056153297424316,-38.22422790527344,23515332.0,50354.0,0.01427885029459,-0.031042809260656206,0.252467277015,0.0009736291704936858,-0.0013889420075441296,0.010325342537600929,23.515332972980104
1626,C,598356214576599.0,1.4313202,4.028074574082373,3.9493103,131,1970-01-07 22:12:36.214576599,1.274704,-0.79919434,-0.304245,13.348466101209649,1.5349745602872498,-73.2339096069336,-6.084715843200684,-38.191795349121094,23565686.0,50354.0,0.05295829226318,-0.15812834932865621,0.24450072787410002,0.0016928295381769753,-0.0047627622598031185,0.012512163459092871,23.56568697700277
1626,C,598356264930603.0,4.0930176,3.0008835740823727,1.5091248,131,1970-01-07 22:12:36.264930603,1.1185608,-1.1390839,-0.3300476,14.375352891918194,1.630221399933644,-73.18330383300781,-6.116970539093018,-38.141754150390625,23616040.0,50354.0,0.1390862527906,-0.31650112070365627,0.1374270205127,0.004835105510819019,-0.011949746167003531,0.009615794921134464,23.616040981025435
1626,C,598356315284607.0,3.7471313,4.070204574082373,3.173874,131,1970-01-07 22:12:36.315284607,0.602005,-1.233902,-0.27746582,13.54933447722672,1.4006824932500843,-73.15911102294922,-6.148110389709473,-38.08639907836914,23666394.0,50354.0,0.19739142885529998,-0.3154404136936563,0.11790386078760001,0.008471498590798824,-0.015910392011521137,0.006428465598497654,23.666394984931685
1626,C,598356365638611.0,1.9484863,4.964827074082374,3.1817017,131,1970-01-07 22:12:36.365638611,0.3162079,-0.76564026,-0.12104797,12.312405447068043,0.8371648910438125,-73.18852996826172,-6.238950252532959,-38.04684829711914,23716748.0,50354.0,0.1433985643152,-0.2659942081941562,0.1600143293989,0.008580069658053678,-0.014638779475269455,0.00699714627432551,23.71674898895435
1626,C,598356415992615.0,1.6104431,7.428846574082373,2.5325928,131,1970-01-07 22:12:36.415992615,-0.059951782,-0.60365295,0.029205322,9.743264445654262,0.6073253255396169,-73.23269653320312,-6.328152656555176,-38.013187408447266,23767102.0,50354.0,0.0896031655038,-0.18143367856015621,0.1438687926265,0.005866284551652964,-0.011264891904813326,0.007650865363233497,23.767102992977016
1626,C,598356466346619.0,1.6440125,9.328505074082372,2.59346,131,1970-01-07 22:12:36.466346619,-0.43873596,-0.349411,0.15312195,7.983945788052577,0.5813979885499468,-73.19229125976562,-6.464683532714844,-38.00129318237305,23817456.0,50354.0,0.0819374286412,-0.07156935755415626,0.1290586313456,0.004318877538788665,-0.006369857440250045,0.006871493753345562,23.81745699699968
1626,C,598356516700622.0,1.7137909,9.488005174082373,2.0494232,131,1970-01-07 22:12:36.516700622,-0.7385864,0.09579468,0.25534058,7.689359675997658,0.78732795122236,-73.25221252441406,-6.611102104187012,-37.999515533447266,23867811.0,50355.0,0.0845410951035,-0.019726313226832173,0.116896191768,0.004191513031582184,-0.002298596751088336,0.006192527558942664,23.86781099997461
1626,C,598356567054626.0,1.4103546,10.084776574082372,1.9607849,131,1970-01-07 22:12:36.567054626,-0.8590393,0.24545288,0.38745117,7.0408166354372685,0.9738141734330802,-73.30020904541016,-6.712464809417725,-38.00502395629883,23918165.0,50354.0,0.0786566112535,-0.0006852739264562446,0.1009650093337,0.004108828652950189,-0.0005139025297583426,0.005485091460137501,23.918165003997274
1626,C,598356617408630.0,1.8551483,11.338514574082373,2.3061829,131,1970-01-07 22:12:36.617408630,-0.66581726,0.37145996,0.41079712,6.122733423164387,0.8660539240702069,-73.33209991455078,-6.6874589920043945,-38.016998291015625,23968519.0,50354.0,0.0822155665133,0.04590500123734376,0.1074294483006,0.004050278819634724,0.001138497074506215,0.005246747259858771,23.96851900801994
1626,C,598356667762634.0,1.5584259,11.196150274082374,0.9269104,131,1970-01-07 22:12:36.667762634,-0.26281738,0.9246826,0.39952087,5.793274488883316,1.041022483685334,-73.34073638916016,-6.655064105987549,-38.05582809448242,24018873.0,50354.0,0.08594355763340002,0.0738860568822438,0.0813995900141,0.004233742268641467,0.003015979470276856,0.004754148697649202,24.01887301192619
1626,C,598356718116638.0,1.0075073,12.082502874082373,0.103012085,131,1970-01-07 22:12:36.718116638,-0.05052185,1.1438599,0.38035583,4.725643315330457,1.2064984399370027,-73.33750915527344,-6.620448112487793,-38.10549545288086,24069227.0,50354.0,0.0646025001764,0.09261745031134379,0.025930358404845,0.0037902980974773353,0.004192058800612955,0.0027022461113437785,24.069227015948854
1626,C,598356768470642.0,-0.44921875,12.832212974082372,2.287735,131,1970-01-07 22:12:36.768470642,0.09158325,0.6770935,0.36112976,4.514701059969942,0.7728245615794507,-73.32978057861328,-6.593441009521484,-38.1329345703125,24119581.0,50354.0,0.014056030823350003,0.13380860090924376,0.060191839359045006,0.001980385834980706,0.005700728691580733,0.0021682985731014586,24.11958101997152
1626,C,598356818824646.0,6.62204,11.198622274082373,5.3061066,131,1970-01-07 22:12:36.818824646,0.29489136,1.328186,-0.16908264,10.112030428535292,1.3709952238968666,-73.30741882324219,-6.582477569580078,-38.19942092895508,24169935.0,50354.0,0.15541312061125,0.11155513904304376,0.1911901499632,0.004266724825668924,0.006177522880778744,0.006329044345166162,24.169935023994185
1626,C,598356869178650.0,2.2366943,0.5813435740823714,3.240799,131,1970-01-07 22:12:36.869178650,0.44223022,1.8229065,-1.120285,16.591063784039573,2.18485563743889,-73.40587615966797,-6.639858722686768,-38.28825759887695,24220289.0,50354.0,0.2230363534711,-0.19688499984075628,0.21518544229119999,0.009528222408971327,-0.002148349905304008,0.01023131828618903,24.22028902801685
1626,C,598356919532654.0,2.242279,-0.765153425917628,5.763275,131,1970-01-07 22:12:36.919532654,0.70866394,0.5980072,-0.48980713,18.526117267697163,1.0486792720879918,-73.32459259033203,-6.662631034851074,-38.3289909362793,24270643.0,50354.0,0.1127671107741,-0.4980969806396563,0.22669557109799998,0.008454523819301401,-0.01749756132255535,0.011125238274099888,24.2706430319231
1626,C,598356969886658.0,-0.819046,3.289106574082373,4.284683,131,1970-01-07 22:12:36.969886658,0.26208496,0.43327332,-0.19136047,14.100960568581348,0.5413253416944794,-73.30873107910156,-6.665574073791504,-38.35264205932617,24320997.0,50354.0,0.035832737240999994,-0.4299236315886563,0.252977438566,0.0037412983734761724,-0.023364774954072225,0.012076727364310529,24.320997035945766
1626,C,598357020240662.0,-1.5621948,6.886412574082373,2.2512054,131,1970-01-07 22:12:37.020240662,-0.560791,0.79512024,0.061660767,10.18736701951791,0.9749383528847791,-73.33242797851562,-6.651208877563477,-38.390098571777344,24371351.0,50354.0,-0.05995249962160001,-0.23728015440665626,0.16455406224680003,-0.0006072632574563666,-0.016798189720003985,0.010512190595963868,24.37135103996843
1626,C,598357070594665.0,1.7549744,9.974150174082371,3.159439,131,1970-01-07 22:12:37.070594665,-0.7717438,0.9636688,-0.0032958984,7.633925635840522,1.2346079992767516,-73.36563110351562,-6.637562274932861,-38.436622619628906,24421705.0,50354.0,0.004853611989199999,-0.06897081168945628,0.1362237940588,-0.001387224693920935,-0.007710480573401826,0.007572684088206093,24.42170504294336
1626,C,598357120948669.0,3.0980988,11.798735174082374,3.4211273,131,1970-01-07 22:12:37.120948669,-1.0640869,0.75323486,-0.24879456,6.731161106941393,1.3272311095496605,-73.41422271728516,-6.638716220855713,-38.476531982421875,24472059.0,50354.0,0.1221858239564,0.054706734410743765,0.16567891773510002,0.003198471878802371,-0.0003591266736461449,0.007601004574835022,24.472059046966024
1626,C,598357171302673.0,2.1540527,10.841825974082372,3.511734,131,1970-01-07 22:12:37.171302673,-0.59098816,0.32855225,-0.49951172,7.160381552152081,0.8406697000948746,-73.44110870361328,-6.657970428466797,-38.49955749511719,24522413.0,50354.0,0.1322334183155,0.07655220802734378,0.17454864895010003,0.006405513262679626,0.0033047063937637305,0.008565909446433283,24.52241305098869
1626,C,598357221656677.0,2.3665924,9.466993774082372,3.315857,131,1970-01-07 22:12:37.221656677,-0.29467773,-0.1857605,-0.24858093,8.299888253040592,0.4279420599542277,-73.45646667480469,-6.672529220581055,-38.49415588378906,24572767.0,50354.0,0.11381628168269999,0.017845954799543727,0.171898258607,0.006194793296854681,0.002376662545492547,0.008722493791565108,24.572767055011354
1626,C,598357272010681.0,1.5737152,9.627241574082372,1.5723877,131,1970-01-07 22:12:37.272010681,0.3617401,-0.8737335,0.10118103,7.412794525215058,0.9510540099290475,-73.5419921875,-6.819866180419922,-38.43898010253906,24623121.0,50354.0,0.09920512444520001,-0.012733636639256266,0.1230713368119,0.0053632399420821385,0.00012871283432155744,0.007426449503861646,24.623121058917604
1626,C,598357322364685.0,0.070632935,10.424711574082373,1.4893646,131,1970-01-07 22:12:37.322364685,0.17759705,-1.4267578,0.046661377,6.448387750727765,1.4385255702048116,-73.61936950683594,-6.68353271484375,-38.36024856567383,24673475.0,50354.0,0.041399752994895005,0.011378824411343762,0.07708573765710001,0.0035400089993092724,-3.4110107462153105e-05,0.005039354663906013,24.67347506294027
1626,C,598357372718689.0,-0.37086487,12.674116574082372,4.677582,131,1970-01-07 22:12:37.372718689,0.059799194,-1.6581116,0.107681274,6.181565275873508,1.6626801491651582,-73.62590026855469,-6.701744079589844,-38.27863693237305,24723829.0,50354.0,-0.007558939427495001,0.08808999628634377,0.15526521454820003,0.00085201016318643,0.002504326498705679,0.00584989992367284,24.723829066962935
1626,C,598357423072693.0,-0.01184082,12.126936574082372,5.7249756,131,1970-01-07 22:12:37.423072693,1.3499908,-0.90467834,-0.14057922,7.326205317661704,1.6311592736595664,-73.56326293945312,-6.721262454986572,-38.236942291259766,24774183.0,50354.0,-0.00963538115713,0.13094691511134374,0.2619051926952,-0.00043290140935910366,0.005514692318259578,0.010503099343167083,24.7741830709856
1626,C,598357473426697.0,1.1412506,-0.8771834259176288,4.0362396,131,1970-01-07 22:12:37.473426697,1.6768036,-0.804657,-1.0078735,18.069116552077734,2.115408280362023,-73.57023620605469,-6.703829765319824,-38.202152252197266,24824537.0,50354.0,0.02843515003106,-0.21023416498865632,0.2457581150904,0.0004733217809389356,-0.001996215090161099,0.012781439100118051,24.824537075008266
1626,C,598357523780701.0,7.3579865,2.313826074082373,3.1054382,131,1970-01-07 22:12:37.523780701,1.287262,-1.0625916,0.21968079,16.452907661935132,1.6835688327269498,-73.51223754882812,-6.708346366882324,-38.147705078125,24874891.0,50354.0,0.2139852924667,-0.45729884804715637,0.1798060219706,0.0061034194807661046,-0.016806478669202658,0.010714428278784797,24.874891078914516
1626,C,598357574134705.0,4.9995575,2.066084574082373,5.372711,131,1970-01-07 22:12:37.574134705,0.7837219,-1.2316284,0.06401062,16.36962794893324,1.4612412161237973,-73.48011016845703,-6.722771644592285,-38.087337493896484,24925245.0,50354.0,0.31112588528800006,-0.38319618961115626,0.21345436240840002,0.013220724122330085,-0.02116114356312334,0.009901116697510084,24.92524508293718
1626,C,598357624488708.0,4.4713287,5.413847574082373,0.1162262,131,1970-01-07 22:12:37.624488708,0.46270752,-0.70806885,0.40829468,12.138625503862047,0.9392360145997252,-73.46165466308594,-6.713271141052246,-38.04730987548828,24975599.0,50354.0,0.2384485018574,-0.30514694830565625,0.1381949718844,0.013836634345159738,-0.01733041518333159,0.008853475289489826,24.97559908591211
1626,C,598357674842712.0,2.6070251,8.921537874082372,1.1745758,131,1970-01-07 22:12:37.674842712,-0.3522644,-1.2280579,0.43904114,8.28582990967047,1.3509158137620085,-73.4869384765625,-6.70969295501709,-37.98176193237305,25025953.0,50354.0,0.17821171362260002,-0.13254720057155625,0.032498521954,0.01049025424513996,-0.01101982558628158,0.004297550094369397,25.025953089934774
1626,C,598357725196716.0,0.9055939,11.544584574082373,2.991745,131,1970-01-07 22:12:37.725196716,-0.754303,-1.0074005,0.44203186,6.027595832246154,1.333874412553262,-73.53105926513672,-6.7027974128723145,-37.92680740356445,25076307.0,50354.0,0.088437208563,0.021806364877443744,0.10489545878159999,0.006713419913866851,-0.0027881220202706706,0.0034591682529802013,25.07630709395744
1626,C,598357775550720.0,0.5202484,10.568907274082374,3.685135,131,1970-01-07 22:12:37.775550720,-0.667511,-0.24705505,0.32385254,7.170837939682618,0.7819767263262725,-73.56637573242188,-6.69076681137085,-37.91026306152344,25126661.0,50354.0,0.0358984315871,0.06328218426124381,0.16810380776,0.003130398412059068,0.0021422744016647366,0.006873302533717864,25.126661097980104
1626,C,598357825904724.0,1.6785736,8.787550574082374,2.7879028,131,1970-01-07 22:12:37.825904724,-0.3163452,-0.29667664,0.4673767,8.55398857423096,0.6375988503656665,-73.51111602783203,-6.788298606872559,-37.89788818359375,25177015.0,50354.0,0.055359741494,-0.006131660756756176,0.1629716726906,0.002297607023662855,0.0014388787302724853,0.008335487371304757,25.17701510200277
1626,C,598357876258728.0,2.387558,9.202421574082372,1.4540253,131,1970-01-07 22:12:37.876258728,-0.5422516,0.09815979,0.6333008,8.000220582826456,0.8394891573784882,-73.53873443603516,-6.756542682647705,-37.893585205078125,25227369.0,50354.0,0.10237299529320001,-0.040535671225656225,0.1067990237737,0.003971237114091335,-0.001174943417321197,0.006792016824881682,25.227369106025435
1626,C,598357926612732.0,2.8438416,10.119245974082371,1.2137451,131,1970-01-07 22:12:37.926612732,-0.84765625,0.29293823,0.545578,7.269469724593888,1.049756771277802,-73.58037567138672,-6.726233005523682,-37.899959564208984,25277723.0,50354.0,0.1317109477292,-0.007007576139856289,0.06716645536080001,0.005893531433474966,-0.0011969963389215086,0.004379928868169306,25.277723109931685
1626,C,598357976966736.0,1.2579193,11.439878974082372,3.51091,131,1970-01-07 22:12:37.976966736,-0.3395691,0.7128601,0.35276794,6.446731110461987,0.8648247888090764,-73.59391021728516,-6.699240684509277,-37.92936706542969,25328077.0,50354.0,0.10327003417930002,0.04932488881994372,0.1189526414527,0.005916116181510306,0.0010654229813465614,0.0046859205004734904,25.32807711395435
1626,C,598358027320740.0,1.2147675,10.997816574082373,1.9789581,131,1970-01-07 22:12:38.027320740,0.5126953,0.7245941,0.52215576,6.155321999909741,1.0298250910218092,-73.49747467041016,-6.781063556671143,-37.96488571166992,25378431.0,50354.0,0.0622548355636,0.07144466081614376,0.1382184091537,0.0041674196455169935,0.0030406149511877745,0.0064747955411173334,25.378431117977016
1626,C,598358077674744.0,0.8542328,10.278685074082372,2.097641,131,1970-01-07 22:12:38.077674744,0.53996277,0.9342499,0.48794556,6.807486911877473,1.1842607559823117,-73.42622375488281,-6.75513219833374,-38.007694244384766,25428785.0,50354.0,0.052091220553100004,0.04220928199584374,0.10263653554070001,0.0028788906548501566,0.0028614653181774094,0.00606400494257091,25.42878512199968
1626,C,598358128028747.0,0.5889282,11.304426574082374,1.1257477,131,1970-01-07 22:12:38.128028747,0.4139099,1.0253296,0.40119934,5.541527592916192,1.1762580942848408,-73.52001953125,-6.705526828765869,-38.03736877441406,25479139.0,50354.0,0.036334464497,0.04992880196584377,0.0811552572999,0.002226293472506368,0.002319760539903407,0.004627325968347787,25.47913912497461
1626,C,598358178382751.0,6.468628,8.370802574082372,1.0118866,131,1970-01-07 22:12:38.178382751,-0.6523895,1.6008148,-0.3126068,10.593161398783112,1.756685257812432,-73.5431137084961,-6.697826385498047,-38.11912155151367,25529493.0,50354.0,0.1776880924474,0.001894044263343777,0.053819218771100005,0.00538844591618916,0.001304743799512255,0.003398252384039567,25.529493128997274
1626,C,598358228736755.0,-2.7286682,-2.573136425917628,1.8309937,131,1970-01-07 22:12:38.228736755,0.3869171,1.1592255,-1.079071,19.549635895263805,1.6303075860596552,-73.51541137695312,-6.733129978179932,-38.19048309326172,25579847.0,50354.0,0.0941609678846,-0.3475013593876563,0.07157519731310001,0.006844343791978765,-0.008701355372884818,0.003157055213751904,25.57984713301994
1626,C,598358279090759.0,6.245941,0.8545215740823728,13.619476,131,1970-01-07 22:12:38.279090759,0.5595398,-0.17033386,-0.19854736,21.806621191930056,0.6176726202524354,-73.4880599975586,-6.745064735412598,-38.18509292602539,25630201.0,50354.0,0.0885543772856,-0.5367387661246563,0.38899647563690004,0.004600224245350126,-0.022262513640023497,0.011595813009862153,25.63020113692619
1626,C,598358329444763.0,3.0770721,3.8145125740823733,1.5351563,131,1970-01-07 22:12:38.329444763,0.664505,0.94332886,-0.13938904,13.334852150708425,1.1622674122619208,-73.44925689697266,-6.738325119018555,-38.23262405395508,25680555.0,50354.0,0.23472550081870003,-0.37591692725165626,0.38154817741710007,0.008139217491031962,-0.022977932392135424,0.019400002729940562,25.680555140948854
1626,C,598358379798767.0,-0.44833374,5.991316574082372,1.3003082,131,1970-01-07 22:12:38.379798767,-0.36044312,0.13427734,0.4303131,10.795013542945217,0.5771646306076109,-73.46725463867188,-6.715789794921875,-38.232940673828125,25730909.0,50354.0,0.06618374568972,-0.24658783953665625,0.0713884897165,0.007575992099342492,-0.015672802513429347,0.011403586468422648,25.73090914497152
1626,C,598358430152771.0,1.0233765,9.980040074082373,3.048645,131,1970-01-07 22:12:38.430152771,-0.95321655,-0.038848877,0.057922363,7.448301246682595,0.9557646292752037,-73.31946563720703,-6.744640827178955,-38.25315856933594,25781263.0,50354.0,0.014477851568519998,-0.09135835366915625,0.10949359471640002,0.0020308170341707087,-0.008508471306342741,0.004554068239767124,25.781263148994185
1626,C,598358480506775.0,2.867691,11.807585274082374,4.250305,131,1970-01-07 22:12:38.480506775,-0.94467163,0.71961975,-0.16647339,7.085781547550509,1.1991540612844587,-73.36235809326172,-6.742300510406494,-38.290283203125,25831617.0,50354.0,0.09796540644750001,0.05507784339074381,0.18376566415,0.002830983907069336,-0.0009134344072795901,0.007383388360479354,25.83161715301685
1626,C,598358530860779.0,0.51660156,12.478788874082372,0.7822571,131,1970-01-07 22:12:38.530860779,0.2826233,-0.002822876,-0.06480408,4.322439006514786,0.28997149362730085,-73.50116729736328,-6.749427795410156,-38.273101806640625,25881971.0,50354.0,0.08520633378312002,0.1179888419283438,0.1267048159917,0.004611714903786321,0.004357299936278669,0.007816715278527581,25.8819711569231
1626,C,598358581214783.0,0.97021484,10.948957974082372,2.02919,131,1970-01-07 22:12:38.581214783,-0.21669006,-0.7589874,-0.17745972,6.17368687774529,0.8090169390587825,-73.44294738769531,-6.826236248016357,-38.24762725830078,25932325.0,50354.0,0.0374335765028,0.09637118239624375,0.07078380363669999,0.003087705021268609,0.005396942332420141,0.004972170976384227,25.932325160945766
1626,C,598358631568787.0,-1.2498322,10.685621574082372,3.8861084,131,1970-01-07 22:12:38.631568787,-0.25593567,0.16316223,-0.78019714,7.267516286585356,0.8371574270954666,-73.4534683227539,-6.861306190490723,-38.26669692993164,25982679.0,50354.0,-0.007039926272719999,0.051224609284143734,0.1489294678168,0.0007652209318427242,0.0037160192471371156,0.00553172103538477,25.98267916496843
1626,C,598358681922790.0,1.0342712,11.346128974082372,4.9104156,131,1970-01-07 22:12:38.681922790,0.6094208,-0.39949036,-0.41984558,7.336766469096502,0.8409854756481268,-73.42457580566406,-6.887120723724365,-38.25343322753906,26033033.0,50354.0,-0.005427179296999997,0.061224183551143736,0.221470084748,-0.0003138843169288404,0.0028311232572140327,0.00932554953492397,26.03303316794336
1626,C,598358732276794.0,2.5341034,8.831922974082373,3.4510956,131,1970-01-07 22:12:38.732276794,1.6453857,-0.5134125,-0.24497986,8.956136269045714,1.7409484853740962,-73.3448715209961,-6.906197547912598,-38.2321891784668,26083387.0,50354.0,0.0898409673042,0.014553613898943748,0.21051776748240003,0.002125285940657275,0.001907857606400853,0.010876158155604783,26.083387171966024
1626,C,598358782630798.0,1.1921692,-1.3754444259176282,2.6866302,131,1970-01-07 22:12:38.782630798,1.3454895,-0.6170502,-0.5861664,18.311231703308348,1.5920690915972364,-73.4854965209961,-6.865528583526611,-38.186241149902344,26133741.0,50354.0,0.0938163652502,-0.30573743959285626,0.1545295224666,0.004623940661722129,-0.007331135179495635,0.009190795619045974,26.13374117598869
1626,C,598358832984802.0,4.6699677,5.619688574082373,4.912201,131,1970-01-07 22:12:38.832984802,0.5039215,-1.1311035,0.00038146973,12.98749407013244,1.2382778974824897,-73.4668197631836,-6.881596088409424,-38.13161849975586,26184095.0,50354.0,0.14759102073129998,-0.3866118650816563,0.1913157731224,0.006077913756856225,-0.017431278443790204,0.008707347007044253,26.184095180011354
1626,C,598358883338806.0,3.9754333,3.4847095740823733,4.9572754,131,1970-01-07 22:12:38.883338806,-0.17521667,-0.25727844,-0.3168335,14.662158044068343,0.4441582419104395,-73.37887573242188,-7.121226787567139,-38.135616302490234,26234449.0,50354.0,0.217665260977,-0.2642477678236562,0.2484838073228,0.00919605740456987,-0.016386692977657054,0.011072834036868802,26.234449183917604
1626,C,598358933692810.0,2.9765625,7.481626574082373,0.97421265,131,1970-01-07 22:12:38.933692810,-0.03288269,-0.02760315,-0.16494751,9.734318702182874,0.17044320534054355,-73.38038635253906,-7.129523754119873,-38.136661529541016,26284803.0,50354.0,0.17503039825660002,-0.21736975479765622,0.14933707463485002,0.009886898612524349,-0.012125684367036784,0.010015936345047756,26.28480318794027
1626,C,598358984046814.0,1.8799896,9.727400274082374,2.0420227,131,1970-01-07 22:12:38.984046814,-0.8529358,-0.0897522,0.020370483,7.5032208992405875,0.857886876519354,-73.43075561523438,-7.313847064971924,-38.13106918334961,26335157.0,50354.0,0.1222734122217,-0.060197531043756206,0.07593975740695001,0.00748521803641216,-0.006988311555629241,0.0056717948003164,26.335157191962935
1626,C,598359034400818.0,-0.035095215,11.871672174082374,2.1889648,131,1970-01-07 22:12:39.034400818,-0.96803284,0.24337769,0.26742554,5.299961696721977,1.033361843089096,-73.47815704345703,-7.297563076019287,-38.13899230957031,26385511.0,50354.0,0.04644890593114501,0.05033064702744382,0.10652357228749999,0.0042479218041341785,-0.000248418538878697,0.004593879251717168,26.3855111959856
1626,C,598359084754822.0,-0.0887146,12.126432874082372,1.6450348,131,1970-01-07 22:12:39.084754822,-1.0827179,0.4069214,0.46820068,4.859672190337563,1.2478280945349935,-73.44841003417969,-7.061773777008057,-38.16233444213867,26435865.0,50354.0,-0.003117159712255,0.11073109079764377,0.0965286079292,0.0010909633745529938,0.0040550513732222305,0.005112244741315856,26.435865200008266
1626,C,598359135108826.0,1.9652863,12.142286574082373,2.8882446,131,1970-01-07 22:12:39.135108826,-0.97862244,0.6654358,0.428833,5.741254126592712,1.2587312762786955,-73.49414825439453,-7.031750679016113,-38.188331604003906,26486219.0,50354.0,0.0472464456909,0.11754434954644376,0.1141343754538,0.0011110430330843453,0.005747290761543092,0.005303861932633791,26.486219203914516
1626,C,598359185462830.0,2.4308777,10.994841074082373,2.5171967,131,1970-01-07 22:12:39.185462830,-0.20939636,1.2827606,0.116256714,6.691444688136518,1.3049280501405767,-73.49724578857422,-7.007955551147461,-38.248619079589844,26536573.0,50354.0,0.110682221028,0.08905426279784379,0.1360927956101,0.0039761700419817456,0.0052015332629921284,0.00629996948587581,26.53657320793718
1626,C,598359235816833.0,2.1889038,9.720091574082373,1.1433868,131,1970-01-07 22:12:39.235816833,0.120025635,1.1559906,0.19804382,7.40234354928253,1.1789579190902895,-73.48479461669922,-6.982034206390381,-38.3016242980957,26586927.0,50354.0,0.11631223882550001,0.028070659282843777,0.09216251077950001,0.00571503951573157,0.002948854163225471,0.00574678384897096,26.58692721091211
1626,C,598359286170837.0,4.411133,11.847090274082372,1.6285095,131,1970-01-07 22:12:39.286170837,0.19863892,0.7454071,0.25856018,6.756096130612897,0.8135985078346745,-73.47093963623047,-6.959040641784668,-38.33391571044922,26637281.0,50354.0,0.1661691265136,0.04952773739124376,0.0697880331451,0.007112033335142522,0.001953694833063502,0.004077428844389655,26.637281214934774
1626,C,598359336524841.0,4.512619,6.656843574082373,3.0190277,131,1970-01-07 22:12:39.336524841,-0.033935547,0.78289795,-0.6000061,11.415343230693692,0.9869590373980075,-73.46700286865234,-6.976661205291748,-38.38032150268555,26687635.0,50354.0,0.22467330410400002,-0.02759565750475624,0.11701104408440001,0.009840239875659317,0.0005521839753020964,0.004703040367407122,26.68763521895744
1626,C,598359386878845.0,-2.355835,-2.1350574259176263,2.7812958,131,1970-01-07 22:12:39.386878845,0.53738403,0.697052,-0.70703125,19.182875404077137,1.1289624771796463,-73.43479919433594,-7.000621318817139,-38.42412567138672,26737989.0,50354.0,0.054301350768,-0.37962419014765625,0.1460347447595,0.007023744885712345,-0.01025257410434479,0.006622703825722871,26.737989222980104
1626,C,598359437232849.0,4.3992157,0.753401574082373,6.0804443,131,1970-01-07 22:12:39.437232849,0.5819092,-0.06617737,0.08792114,17.62288865661487,0.5922228366110652,-73.30121612548828,-7.183669090270996,-38.43267822265625,26788343.0,50354.0,0.05144619588390001,-0.5282551493816563,0.22311203049770004,0.0026624059820548867,-0.022857678131329502,0.009294008360650526,26.78834322700277
1626,C,598359487586853.0,0.4568329,4.956266574082372,2.3253784,131,1970-01-07 22:12:39.487586853,-0.14154053,0.43974304,0.061660767,11.978837473322274,0.4660576284625655,-73.44392395019531,-7.050431251525879,-38.435890197753906,26838697.0,50354.0,0.12226073560220001,-0.3497168850336563,0.2116333981179,0.00437341941402554,-0.022104701910474325,0.010945585656254963,26.838697231025435
1626,C,598359537940857.0,-0.14805603,7.508009574082372,3.2684937,131,1970-01-07 22:12:39.537940857,-0.700531,0.32269287,0.31808472,9.755372069234625,0.8342974645816175,-73.40156555175781,-6.8334550857543945,-38.45615768432617,26889051.0,50354.0,0.00777407525599,-0.17965611941765627,0.14083691786170002,0.0032738864329766503,-0.013328024133070696,0.008874145145418389,26.889051234931685
1626,C,598359588294861.0,1.9111023,10.560240274082373,3.66362,131,1970-01-07 22:12:39.588294861,-0.45715332,0.13685608,0.3152771,7.399377320543843,0.5719426495763353,-73.42418670654297,-6.816395282745361,-38.45823669433594,26939405.0,50354.0,0.044388215939790004,-0.038564873572756245,0.17452982662490002,0.0013132900054361532,-0.0054941499405196164,0.007939988525939131,26.93940523895435
1626,C,598359638648865.0,2.4255219,12.028151074082373,2.922058,131,1970-01-07 22:12:39.638648865,-0.41401672,0.07978821,0.22746277,6.019328433584254,0.4790775664030152,-73.44483184814453,-6.80435848236084,-38.458824157714844,26989759.0,50354.0,0.10918318748340002,0.07523872897274379,0.165807615006,0.0038664672239856557,0.0009233376574054866,0.00856867576794117,26.989759242977016
1626,C,598359689002869.0,1.7587585,11.651640574082373,2.7226563,131,1970-01-07 22:12:39.689002869,-0.1405487,-0.20666504,-0.0038757324,5.99794467572859,0.24995879086667067,-73.45303344726562,-6.807486534118652,-38.44890213012695,27040113.0,50354.0,0.10534762763080002,0.10271691432584379,0.1421169719311,0.0054012423321302145,0.00448038923132854,0.007752617325315367,27.04011324699968
1626,C,598359739356872.0,-0.017837524,10.112333574082374,2.1070404,131,1970-01-07 22:12:39.739356872,0.03274536,-0.5839844,-0.16073608,6.914876559468766,0.6065856291230909,-73.42438507080078,-6.650097846984863,-38.426551818847656,27090467.0,50354.0,0.043831167412752,0.05448237712834381,0.12159727381589999,0.0037558745228115096,0.003957806560942081,0.0066395335651722185,27.09046724997461
1626,C,598359789710876.0,-0.7026367,10.081236574082372,2.100937,131,1970-01-07 22:12:39.789710876,0.15536499,-0.8799286,-0.06376648,6.97809376523968,0.8958118023263874,-73.42142486572266,-6.665705680847168,-38.385005950927734,27140821.0,50354.0,-0.018139379537648003,0.014944315620343766,0.1059442469998,0.0006468421433314935,0.0017479558433337074,0.005728812869576879,27.140821253997274
1626,C,598359840064880.0,1.2701416,11.195280574082373,3.8466492,131,1970-01-07 22:12:39.840064880,0.31617737,-1.0574341,-0.08543396,6.833280043902796,1.106993209854608,-73.41141510009766,-6.6848883628845215,-38.33522033691406,27191175.0,50354.0,0.014288070867300003,0.04220967223934374,0.1497423777574,-9.696439839335161e-05,0.0014389659523433523,0.006437422151512025,27.19117525801994
1626,C,598359890418884.0,2.5991669,7.074583574082373,4.6192474,131,1970-01-07 22:12:39.890418884,0.8317871,-0.5699768,-0.7464752,10.98680793698326,1.2545790355651931,-73.37178039550781,-6.7288007736206055,-38.318458557128906,27241529.0,50354.0,0.09741758010450001,-0.03348883034165622,0.21314587869820004,0.002812413174517009,0.00021956463645807873,0.009136437632782643,27.24152926192619
1626,C,598359940772888.0,2.7640839,1.1000965740823734,1.1205902,131,1970-01-07 22:12:39.940772888,1.3332367,-0.082458496,-0.95684814,15.880847473027886,1.643130507540692,-73.30396270751953,-6.77581787109375,-38.32830047607422,27291883.0,50354.0,0.13503056539160002,-0.2876552779096562,0.1445118912552,0.005852346959155311,-0.008085445213443294,0.009004749674116753,27.291883265948854
1626,C,598359991126892.0,4.387848,4.093718074082373,0.19197083,131,1970-01-07 22:12:39.991126892,1.0609741,-0.53266907,-0.21318054,13.34791173565907,1.2061709338398792,-73.25357818603516,-6.793690204620361,-38.30569839477539,27342237.0,50354.0,0.1800641894463,-0.3627045286031562,0.033046349052310006,0.00793314064255381,-0.016374108848573078,0.00447038381622218,27.34223726997152
1626,C,598360041480896.0,5.2677155,4.559751574082373,3.6380768,131,1970-01-07 22:12:40.041480896,0.18635559,-0.42158508,-0.26574707,13.723335682072872,0.5320562853838299,-73.2462158203125,-6.812488079071045,-38.28923034667969,27392591.0,50354.0,0.2430981222395,-0.27560079466815623,0.09642910918051,0.010653957521313387,-0.016070613124001838,0.0032598036119277094,27.392591273994185
1626,C,598360091834900.0,2.7506866,8.403120574082372,1.1285553,131,1970-01-07 22:12:40.091834900,-0.27095032,-0.09199524,-0.04067993,8.811963732228286,0.2890191287710295,-73.26021575927734,-6.815760612487793,-38.28538513183594,27442945.0,50354.0,0.2018793096717,-0.16710296792565627,0.1200094963817,0.011203196803228283,-0.011145952630824418,0.005449274772239761,27.44294527801685
1626,C,598360142188904.0,0.5130768,10.163130274082373,0.44421387,131,1970-01-07 22:12:40.142188904,-0.81321716,-0.30619812,0.24699402,6.570360638748676,0.9033744981599605,-73.30305480957031,-6.8083367347717285,-38.26704406738281,27493299.0,50354.0,0.0821717711218,-0.026026702395756236,0.039597609393090004,0.00715155406113795,-0.004862425709682203,0.004018428102091888,27.4932992819231
1626,C,598360192542908.0,-0.19560242,11.830610574082373,1.3733978,131,1970-01-07 22:12:40.192542908,-0.91773987,-0.2472992,0.6549072,5.061555623019833,1.1542559525166405,-73.37506866455078,-6.555885314941406,-38.24299240112305,27543653.0,50354.0,0.007993052465260001,0.060267213334243785,0.04576200901559,0.0022700797634514097,0.0008620733438983012,0.0021490991126753367,27.543653285945766
1626,C,598360242896912.0,0.49101257,12.552977074082373,2.8513184,131,1970-01-07 22:12:40.242896912,-0.8608551,0.1398468,0.72546387,5.055215776240102,1.1344278105466328,-73.41853332519531,-6.519125461578369,-38.23930740356445,27594007.0,50354.0,0.00743754134655,0.12043638621784376,0.1063656797674,0.0003884960603999404,0.004549574525922908,0.003830118820489339,27.59400728996843
1626,C,598360293250915.0,2.2987518,12.462599274082372,3.2276154,131,1970-01-07 22:12:40.293250915,-0.43026733,0.30412292,0.28303528,5.800286602338999,0.5981050873043413,-73.4388427734375,-6.501224994659424,-38.249916076660156,27644361.0,50354.0,0.07023789754349,0.13634796571774374,0.1530493162826,0.001955634524934537,0.006465059628682287,0.006531291355550849,27.64436129294336
1626,C,598360343604919.0,2.0843353,11.690382574082372,1.143158,131,1970-01-07 22:12:40.343604919,-0.08267212,0.79011536,0.054901123,5.543552768488372,0.7963234863043317,-73.43875885009766,-6.487332820892334,-38.287235260009766,27694715.0,50354.0,0.11035298391669998,0.11463042399124374,0.1100429618918,0.004546736622523203,0.006318882917703177,0.006623874287596869,27.694715296966024
1626,C,598360393958923.0,5.14032,10.680326974082373,1.9785919,131,1970-01-07 22:12:40.393958923,0.12043762,0.92037964,0.09056091,8.158081119428145,0.9326334652251238,-73.4278793334961,-6.469871997833252,-38.33032989501953,27745069.0,50354.0,0.1818951464881,0.06975815429414377,0.07859629723230001,0.007357931179201651,0.0046423512354912015,0.004749370626967466,27.74506930098869
1626,C,598360444312927.0,2.7931519,3.6371140740823726,2.1054993,131,1970-01-07 22:12:40.444312927,0.50102234,0.72869873,-0.24902344,13.521488282740783,0.9187153519736797,-73.58048248291016,-6.608841419219971,-38.34835433959961,27795423.0,50354.0,0.1997410220263,-0.13299898673035623,0.10282516414239999,0.00960845381468705,-0.0015922144382465213,0.004567648133030822,27.795423305011354
1626,C,598360494666931.0,1.1039581,-1.890229425917628,5.592758,131,1970-01-07 22:12:40.494666931,0.75009155,0.28463745,0.07879639,19.443067155622558,0.806141850049318,-73.5333480834961,-6.51723575592041,-38.36186981201172,27845777.0,50354.0,0.09811753847,-0.4494878852131563,0.1938190240421,0.007499184977615345,-0.014665271974921817,0.007468610725921157,27.845777308917604
1626,C,598360545020935.0,3.4206848,2.665739574082373,5.422333,131,1970-01-07 22:12:40.545020935,0.4565277,0.49075317,0.13238525,15.427795271700493,0.683214511811555,-73.3937759399414,-6.661423206329346,-38.39681625366211,27896131.0,50354.0,0.1139169342933,-0.4739441809996563,0.27732694610700004,0.005338391920761605,-0.023249249131039984,0.011862042090443892,27.89613131294027
1626,C,598360595374939.0,-0.3019104,5.856672574082372,2.3435822,131,1970-01-07 22:12:40.595374939,-0.114212036,0.6854248,-0.03024292,11.096190527537367,0.6955330185062616,-73.50642395019531,-6.4487810134887695,-38.41767501831055,27946485.0,50354.0,0.07852138306880001,-0.27890042934565623,0.19552244699040003,0.0048450195162255925,-0.018954368754663935,0.011904929170013241,27.946485316962935
1626,C,598360645728943.0,0.9727936,7.690138574082372,3.6013641,131,1970-01-07 22:12:40.645728943,-0.1485138,-0.092163086,0.39846802,9.750075905173805,0.435117393555123,-73.382568359375,-6.413599491119385,-38.42237091064453,27996839.0,50354.0,0.016890826326400002,-0.15240113572265626,0.1496759129951,0.0024021931959429506,-0.010858879503724906,0.008691059109354934,27.9968393209856
1626,C,598360696082947.0,3.6186523,11.112852574082373,2.5978546,131,1970-01-07 22:12:40.696082947,-0.2999115,-0.4957428,0.2680664,7.144315739527575,0.6384100769826945,-73.40067291259766,-6.407837867736816,-38.394615173339844,28047193.0,50354.0,0.11559883342430001,-0.020066291862656255,0.15607772920989998,0.0033356921635433745,-0.004342212424315413,0.007697959449795286,28.047193325008266
1626,C,598360746436951.0,2.9426117,12.766050774082373,3.5748138,131,1970-01-07 22:12:40.746436951,-0.4980011,-0.2579651,-0.06526184,6.074637062815981,0.5646327976476443,-73.42684173583984,-6.414646148681641,-38.38311004638672,28097547.0,50354.0,0.165192943728,0.10772994959674378,0.1554092723068,0.007069494573363458,0.002207107910771122,0.007842308237185956,28.097547328914516
1626,C,598360796790955.0,0.68273926,12.658171174082373,2.2623901,131,1970-01-07 22:12:40.796790955,0.13290405,-0.54022217,-0.06782532,4.680552019243064,0.5604495994280072,-73.42300415039062,-6.425602912902832,-38.3580322265625,28147901.0,50354.0,0.09127546111992,0.14663643598894377,0.14696328259030003,0.006457105028856082,0.006404182489890857,0.007612833814644288,28.14790133293718
1626,C,598360847144958.0,0.5364685,10.422667074082373,2.3991394,131,1970-01-07 22:12:40.847144958,-0.08558655,-1.1633911,-0.039382935,6.740017362752477,1.1671996078946079,-73.32464599609375,-6.398080825805664,-38.31465530395508,28198255.0,50354.0,0.030695993773520003,0.08763706457404377,0.11736332822150002,0.0030708753198521394,0.005898303923674337,0.00665495108040869,28.19825533591211
1626,C,598360897498962.0,0.47001648,9.199568274082374,4.821274,131,1970-01-07 22:12:40.897498962,0.015777588,-0.9957428,-0.12210083,8.927333838535226,1.0033251061952086,-73.32901763916016,-6.418212413787842,-38.26842498779297,28248609.0,50354.0,0.02534027234146,0.0005598193607437914,0.1817883481718,0.0014108250719768514,0.0022205329468261465,0.007531741756554115,28.248609339934774
1626,C,598360947852966.0,1.8447266,9.046293574082373,5.518921,131,1970-01-07 22:12:40.947852966,1.0440521,-0.81507874,-0.21429443,9.61329473447603,1.3417601285786602,-73.28086853027344,-6.440183162689209,-38.23223114013672,28298963.0,50354.0,0.058278286525160004,-0.034093136248756206,0.260335089515,0.002105264456584892,-0.0008442683192894886,0.011131341790640565,28.29896334395744
1626,C,598360998206970.0,1.8418274,1.9549085740823724,2.8591156,131,1970-01-07 22:12:40.998206970,1.076355,-0.87789917,-0.53930664,15.130626680090787,1.489999560624022,-73.37415313720703,-6.493187427520752,-38.18162155151367,28349317.0,50354.0,0.092816370058,-0.21649193351565624,0.2109338274782,0.00380411016879422,-0.006308980301458612,0.011865137523137797,28.349317347980104
1626,C,598361048560974.0,2.90831,1.4471575740823734,1.84375,131,1970-01-07 22:12:41.048560974,0.6200104,-0.9167328,-0.3370819,15.635104014195107,1.156908004126348,-73.34761810302734,-6.522459506988525,-38.14228439331055,28399671.0,50354.0,0.1195942093198,-0.40781538058765626,0.1184040472112,0.005347861156994871,-0.0157181852471791,0.008291739671055025,28.39967135200277
1626,C,598361098914978.0,3.3226776,4.541304574082373,5.2245636,131,1970-01-07 22:12:41.098914978,0.04336548,-0.66786194,-0.10343933,13.64294490745439,0.6772147596937347,-73.18812561035156,-6.726833343505859,-38.13011932373047,28450025.0,50354.0,0.15687757480520004,-0.34269768849565624,0.1779589315072,0.006960730108915127,-0.01889566754031056,0.007461530715193157,28.450025356025435
1626,C,598361149268982.0,2.7655334,6.115248574082372,2.9754486,131,1970-01-07 22:12:41.149268982,-0.048294067,-0.051879883,-0.036071777,11.33593638838709,0.0795299457024328,-73.21783447265625,-6.91366720199585,-38.12492370605469,28500379.0,50354.0,0.153282888347,-0.22516916138865625,0.2064517071594,0.00780890998078294,-0.014297183679537336,0.009678306649708987,28.500379359931685
1626,C,598361199622986.0,2.400467,8.294279574082372,1.383194,131,1970-01-07 22:12:41.199622986,-0.42807007,-0.12750244,0.13650513,8.848944931931095,0.46704872074771325,-73.24021911621094,-6.908971786499023,-38.11679458618164,28550733.0,50354.0,0.1300643920708,-0.13068050981365628,0.10973754474019999,0.007133834479078951,-0.008959227171860623,0.00796069679507623,28.55073336395435
1626,C,598361249976990.0,1.4255676,10.370436174082373,1.4590759,131,1970-01-07 22:12:41.249976990,-0.6199646,-0.23556519,0.38624573,6.648579408443621,0.7674847411747865,-73.36610412597656,-7.030808925628662,-38.08851623535156,28601087.0,50354.0,0.0963280731242,-0.023547651608456243,0.0715598292723,0.005699883096214516,-0.003883002420124527,0.004564523985512712,28.601087367977016
1626,C,598361300330994.0,0.38510132,10.808683874082373,2.2770844,131,1970-01-07 22:12:41.300330994,-0.95666504,0.011550903,0.45913696,6.326259154546769,1.0612012863525744,-73.30156707763672,-6.920716762542725,-38.09623718261719,28651441.0,50354.0,0.04558721139884,0.03975750545264378,0.0940653078731,0.0035730011184365784,0.0004081154902351097,0.004169944077909736,28.65144137199968
1626,C,598361350684997.0,0.6016998,11.729277174082373,3.1273499,131,1970-01-07 22:12:41.350684997,-0.8824158,0.15470886,0.5226135,5.902035300343959,1.037167944854829,-73.345703125,-6.893466949462891,-38.09615707397461,28701795.0,50354.0,0.02484469179824,0.07396904530964378,0.13606744237110002,0.001773264026792883,0.002863293368542114,0.005794052252898224,28.70179537497461
1626,C,598361401039001.0,1.9333801,11.555433574082372,2.5278015,131,1970-01-07 22:12:41.401039001,-0.45593262,0.8783722,0.3440857,6.047917281666,1.0477629716006358,-73.364013671875,-6.864402770996094,-38.13357162475586,28752149.0,50354.0,0.0638257066423,0.09276996250654375,0.1423797467978,0.002232454621537476,0.0041979879997881536,0.007010464881705395,28.752149378997274
1626,C,598361451393005.0,2.1166687,10.816328574082373,1.0522461,131,1970-01-07 22:12:41.451393005,-0.21257019,1.3255005,0.20906067,6.339215705186715,1.358618425061921,-73.36737823486328,-6.835416316986084,-38.19451904296875,28802503.0,50354.0,0.1019680786376,0.06978465560434374,0.0901348584252,0.004174190131992043,0.004092637620177815,0.005854020215699471,28.80250338301994
1626,C,598361501747009.0,2.1133728,11.218565574082373,1.27594,131,1970-01-07 22:12:41.501747009,0.25708008,0.7731018,0.30323792,6.010189534690553,0.8693272092957707,-73.3506088256836,-6.809818267822266,-38.22744369506836,28852857.0,50354.0,0.10649975484550002,0.06130332996834377,0.0586167414397,0.00524859464360401,0.003300402212763554,0.0037451190297985875,28.85285738692619
1626,C,598361552101013.0,4.6607666,9.809462074082372,3.3412933,131,1970-01-07 22:12:41.552101013,-0.059768677,0.965683,0.03955078,8.963466385746681,0.9683388949319028,-73.34813690185547,-6.794090270996094,-38.273460388183594,28903211.0,50354.0,0.17055250767379998,0.035953452097843744,0.1162480827941,0.006975344813448416,0.002448634002080403,0.0044025716797343835,28.903211390948854
1626,C,598361602455017.0,0.41955566,0.41122257408237317,1.4168701,131,1970-01-07 22:12:41.602455017,0.256485,1.8061218,-0.43795776,16.35402056369433,1.8760776932751102,-73.32427215576172,-6.789172172546387,-38.366912841796875,28953565.0,50354.0,0.12790727354002002,-0.23614302261315626,0.1197962799218,0.007514321911620346,-0.005040172816864023,0.005942888920098215,28.95356539497152
1626,C,598361652809021.0,4.507324,0.3505385740823712,9.729675,131,1970-01-07 22:12:41.652809021,0.6877136,-0.10662842,-0.16470337,19.550790376531637,0.7151550990281852,-73.29020690917969,-6.798592567443848,-38.3641471862793,29003919.0,50354.0,0.12404404919982001,-0.4742903395726563,0.28063656598270004,0.006343378452620952,-0.017886580759752205,0.010081697761337598,29.003919398994185
1626,C,598361703163025.0,4.022751,2.8660265740823725,4.1730804,131,1970-01-07 22:12:41.703163025,0.85520935,0.68118286,-0.29412842,14.997674149010779,1.1322122806863113,-73.2410659790039,-7.0210161209106445,-38.40158462524414,29054273.0,50354.0,0.21476169827500002,-0.4124857392646563,0.35002967270580004,0.008530112304173545,-0.02232636133688702,0.015878283891460367,29.05427340301685
1626,C,598361753517029.0,0.2952423,3.6180405740823733,1.6720581,131,1970-01-07 22:12:41.753517029,-0.13925171,0.19654846,0.28097534,13.190048427497675,0.3700938766778117,-73.24736785888672,-7.004729747772217,-38.406986236572266,29104627.0,50354.0,0.10871411731410001,-0.33021984141065625,0.1471630520145,0.008144150609086772,-0.018699098404662346,0.012517821230282996,29.1046274069231
1626,C,598361803871033.0,1.1005707,7.659666574082372,3.0014954,131,1970-01-07 22:12:41.803871033,-0.45570374,-0.8234253,0.3847351,9.587386751439658,1.0167183584956494,-73.23522186279297,-6.987926006317139,-38.36661911010742,29154981.0,50354.0,0.035142383901,-0.20953036713065623,0.11766605646950003,0.0036218751310925735,-0.013589291000444625,0.006667602464301669,29.154981410945766
1626,C,598361854225037.0,1.9188995,9.909620574082373,4.5463257,131,1970-01-07 22:12:41.854225037,-1.0986176,-0.13072205,0.12390137,8.392738941615528,1.1132836273267652,-73.2911376953125,-6.983874797821045,-38.358516693115234,29205335.0,50354.0,0.0760212012254,-0.051127257470656245,0.19003149183470003,0.0027987655827273732,-0.006562577014587245,0.007746901173654845,29.20533541496843
1626,C,598361904579040.0,1.1026764,12.240583874082372,3.3871918,131,1970-01-07 22:12:41.904579040,-0.438385,0.358963,-0.0014038086,5.706191438967141,0.5666019892945889,-73.31094360351562,-6.978784084320068,-38.3758544921875,29255689.0,50354.0,0.07607421643430001,0.06420649739144375,0.1997421700975,0.0038293063304182676,0.0003292960234856671,0.009813331486467,29.25568941794336
1626,C,598361954933044.0,0.7188568,11.928923174082373,1.1234741,131,1970-01-07 22:12:41.954933044,-0.08857727,-0.61128235,0.014526367,4.952409338856433,0.6178374054072755,-73.4045181274414,-7.021320343017578,-38.335716247558594,29306043.0,50354.0,0.045860741376400005,0.11504647895164374,0.11356503536430002,0.0030699564327999946,0.004513052185389914,0.00788813551191174,29.306043421966024
1626,C,598362005287048.0,1.2944946,10.075941574082373,2.6946564,131,1970-01-07 22:12:42.005287048,-0.18939209,-0.8922882,-0.022491455,7.265889526570447,0.9124436756106237,-73.28197479248047,-7.116964817047119,-38.309837341308594,29356397.0,50354.0,0.0506901481978,0.06054727976454377,0.0961290715985,0.0024308617468096335,0.004420924063197453,0.0052794685310024155,29.35639742598869
1626,C,598362055641052.0,-0.09031677,9.571638574082373,2.9160461,131,1970-01-07 22:12:42.055641052,0.073776245,-0.67796326,-0.009536743,7.700744324216292,0.6820323054688654,-73.14311218261719,-6.933894634246826,-38.294288635253906,29406751.0,50354.0,0.03031758522591,0.0011979253903437706,0.14126065684250003,0.002039531704408747,0.0015545590301846038,0.005976761192959058,29.406751430011354
1626,C,598362105995056.0,-0.40589905,8.783995174082373,3.641327,131,1970-01-07 22:12:42.105995056,0.104766846,-1.0007477,-0.01159668,8.721295217518191,1.0062835256840392,-73.14368438720703,-6.948959827423096,-38.246219635009766,29457105.0,50354.0,-0.01249322570014,-0.03132940912245624,0.1650949825387,0.0004487638997803114,-0.0007586203659233957,0.007713115932700474,29.457105433917604
1626,C,598362156349060.0,2.4360352,7.246687574082372,2.6175537,131,1970-01-07 22:12:42.156349060,0.8887024,0.1517334,-0.45674133,10.105430798517336,1.010657025390656,-73.13118743896484,-7.143233776092529,-38.25615692138672,29507459.0,50354.0,0.051112737848550006,-0.08986470044945626,0.15757983938390002,0.0009723234573605188,-0.003051304096692041,0.0081239839915453,29.50745943794027
1626,C,598362206703064.0,3.1250153,0.9581585740823719,1.725708,131,1970-01-07 22:12:42.206703064,1.5998993,-0.092041016,-0.46572876,16.139929940437135,1.6688476852780603,-73.0509033203125,-7.166852951049805,-38.25855255126953,29557813.0,50354.0,0.14001056843850002,-0.2868957885276563,0.10935029982090001,0.004811911482389059,-0.009485698830976764,0.006720500114759251,29.557813441962935
1626,C,598362257057068.0,4.268036,3.024504574082373,3.2911682,131,1970-01-07 22:12:42.257057068,0.6225281,-0.9997864,-0.3795929,14.697683552404992,1.237418623847637,-73.02509307861328,-7.199589252471924,-38.21593475341797,29608167.0,50354.0,0.1861348525801,-0.3931976899186563,0.1263098920874,0.008211363264985293,-0.017122713506842815,0.00593321665167527,29.6081674459856
1626,C,598362307411072.0,4.6836853,4.777754574082373,4.150833,131,1970-01-07 22:12:42.307411072,0.045532227,-0.44073486,-0.21913147,13.463538169997294,0.4943065867042033,-73.02507781982422,-7.216503620147705,-38.19791793823242,29658521.0,50354.0,0.22537748717009998,-0.29703172142665624,0.18736726421240002,0.010360646177890785,-0.017377905889440933,0.007897449764160066,29.658521450008266
1626,C,598362357765076.0,2.354065,7.604414574082373,2.3047028,131,1970-01-07 22:12:42.357765076,-0.330307,0.029190063,-0.008972168,9.672274522005765,0.3317156520659889,-73.10871124267578,-7.388035774230957,-38.19087219238281,29708875.0,50354.0,0.1771894393031,-0.18172332735665625,0.1625310248366,0.010135427507815755,-0.01205361586321746,0.008809389223386673,29.708875453914516
1626,C,598362408119080.0,-0.231781,10.459120274082373,1.1968536,131,1970-01-07 22:12:42.408119080,-0.7118988,-0.033599854,0.2746277,6.35721151707722,0.7637730194485476,-73.14503479003906,-7.3753838539123535,-38.18523406982422,29759229.0,50354.0,0.053432744268,-0.03868358312775622,0.08815868548280001,0.005806374715769585,-0.005549184785266053,0.006311614836711534,29.75922945793718
1626,C,598362458473083.0,0.040100098,11.688963574082372,2.0692596,131,1970-01-07 22:12:42.458473083,-0.85635376,-0.10270691,0.5733948,5.420089608992435,1.035698830884213,-73.0489273071289,-7.176945686340332,-38.189788818359375,29809583.0,50354.0,-0.004825950069654,0.06415310704524375,0.08223093203640001,0.0012237732575317573,0.0006412462036705836,0.0042898994002808985,29.80958346091211
1626,C,598362508827087.0,1.9034271,12.589613574082373,2.5167084,131,1970-01-07 22:12:42.508827087,-1.0595856,0.25827026,0.5048065,5.180593689761915,1.2017715146275008,-73.10127258300781,-7.149037837982178,-38.19483184814453,29859937.0,50354.0,0.048932184264046004,0.11779253685934375,0.11546091633600002,0.0011104626583122075,0.0045808454765857995,0.004977287666471916,29.859937464934774
1626,C,598362559181091.0,2.1700897,12.074659874082373,2.8462677,131,1970-01-07 22:12:42.559181091,-0.4343567,0.80815125,0.123184204,5.8471375110596355,0.9257151472383749,-73.11836242675781,-7.131402015686035,-38.231990814208984,29910291.0,50354.0,0.10255893247360001,0.12750321260444378,0.1350236492697,0.003814091846103714,0.006175811084249779,0.006306449908254711,29.91029146895744
1626,C,598362609535095.0,2.0730743,9.770979574082371,1.1631927,131,1970-01-07 22:12:42.609535095,-0.22157288,0.70606995,0.12246704,7.323870678683355,0.7500849894051063,-73.12543487548828,-7.115289688110352,-38.264244079589844,29960645.0,50354.0,0.10683014002800001,0.05653846438644374,0.1009461844908,0.005271788678372784,0.004633617301599576,0.005941012504588109,29.960645472980104
1626,C,598362659889099.0,1.7869873,8.251921574082372,1.8841248,131,1970-01-07 22:12:42.659889099,0.10076904,0.7203827,0.14335632,8.836592219052113,0.7413883384338831,-73.22233581542969,-7.212157726287842,-38.28367614746094,30010999.0,50354.0,0.0971847709032,-0.03970661779265629,0.0767223126975,0.0051364834125148225,0.00042377540169178675,0.00447315975370983,30.01099947700277
1626,C,598362710243103.0,5.9123077,10.544737574082372,0.7367401,131,1970-01-07 22:12:42.710243103,-0.13887024,0.55514526,0.13392639,8.565342044923092,0.587713774890939,-73.2261734008789,-7.197735786437988,-38.30851745605469,30061353.0,50354.0,0.193845150215,-0.020225712626656265,0.06598551558730001,0.007327260323992922,-0.001508916282967032,0.00359295499272641,30.061353481025435
1626,C,598362760597107.0,0.28204346,-1.8454914259176256,2.4011993,131,1970-01-07 22:12:42.760597107,0.4398346,1.5810547,-0.6795807,18.700782642701622,1.7762371371981107,-73.19335174560547,-7.207426071166992,-38.39468765258789,30111707.0,50354.0,0.15595517915532,-0.27444827972765623,0.07900390027380001,0.008806922892556548,-0.007419007105504527,0.0036503985231349156,30.111707484931685
1626,C,598362810951111.0,-1.0781555,4.422972574082372,3.100113,131,1970-01-07 22:12:42.810951111,0.36082458,-0.23643494,0.16242981,12.706610534897742,0.4609547717093469,-73.17704010009766,-7.203072547912598,-38.38090896606445,30162061.0,50354.0,-0.02004371283108,-0.4285759571326562,0.1385065397771,0.003421842987645391,-0.017700041211432087,0.005476260349161511,30.16206148895435
1626,C,598362861305115.0,2.7731018,2.9676495740823725,6.1865387,131,1970-01-07 22:12:42.861305115,0.43911743,0.1942749,0.32980347,15.3132433614491,0.5825265512608466,-72.97083282470703,-7.2666239738464355,-38.40861892700195,30212415.0,50354.0,0.042673662995100003,-0.30739550617565625,0.23381002985090002,0.0005697542552795316,-0.018529553531713386,0.009373814273524158,30.212415492977016
1626,C,598362911659119.0,0.5418396,4.903807574082373,-0.059890747,131,1970-01-07 22:12:42.911659119,0.10614014,0.40483093,-0.22058105,11.807131356316164,0.47308541599058723,-72.96265411376953,-7.271242141723633,-38.431392669677734,30262769.0,50354.0,0.0834602796278,-0.2952895233806562,0.15425061551268102,0.0031756742734167535,-0.015173800989139279,0.00977020286831888,30.26276949699968
1626,C,598362962013122.0,0.64349365,7.2373485740823735,4.387436,131,1970-01-07 22:12:42.962013122,-0.9799652,0.7622986,0.14759827,10.448644926960018,1.2502864464113788,-72.81069946289062,-7.161188125610352,-38.490684509277344,30313123.0,50354.0,0.029843135235250003,-0.18779131165765622,0.10895460683478102,0.00285264007600701,-0.012162526183759593,0.006626717883042052,30.31312349997461
1626,C,598363012367126.0,2.6242676,10.777189574082373,2.969864,131,1970-01-07 22:12:43.012367126,0.2508545,-0.3247223,0.31059265,7.125095415211628,0.5146264145198559,-72.80068969726562,-7.151152610778809,-38.470428466796875,30363477.0,50354.0,0.08227242499125001,-0.039917173043656225,0.18523474210000002,0.002822733459822591,-0.005733016519324944,0.007406805238130983,30.363477503997274
1626,C,598363062721130.0,2.8761902,11.377027974082374,2.0564117,131,1970-01-07 22:12:43.062721130,-0.34907532,-0.28816223,-0.009490967,6.388876382574411,0.4527484161057556,-72.8198471069336,-7.1558637619018555,-38.45669937133789,30413831.0,50354.0,0.1384850260306,0.06430753521014379,0.1265465432989,0.005558010344377118,0.0006140761482656574,0.007849717422488106,30.41383150801994
1626,C,598363113075134.0,1.3783875,11.888700974082372,2.8245087,131,1970-01-07 22:12:43.113075134,-0.38937378,0.08441162,-0.3101654,5.745476648061803,0.5049156736522177,-72.8382339477539,-7.169434070587158,-38.46537780761719,30464185.0,50354.0,0.10711750275290002,0.09229205772794379,0.12288693291080001,0.00618353486718218,0.003942707951402231,0.006279986630531618,30.46418551192619
1626,C,598363163429138.0,-1.1044006,10.132215974082373,1.9979401,131,1970-01-07 22:12:43.163429138,0.11540222,-0.88020325,-0.26623535,6.951658040855213,0.9267991666381198,-72.83727264404297,-7.1951375007629395,-38.42694854736328,30514539.0,50354.0,0.006898168181300004,0.060951426003943744,0.1214147934376,0.002870572547110354,0.003858211189917733,0.006150784564273668,30.514539515948854
1626,C,598363213783142.0,0.8935852,10.032743974082372,2.6879272,131,1970-01-07 22:12:43.213783142,0.22392273,-0.92596436,-0.06930542,7.242493941626174,0.9551725635937409,-72.7116470336914,-7.2100701332092285,-38.39841842651367,30564893.0,50354.0,-0.0053076993258,0.01422399661494374,0.11797608101210001,4.004323437492361e-05,0.0018926916152757305,0.006027144046020098,30.56489351997152
1626,C,598363264137146.0,1.8310394,10.649763574082373,4.6895294,131,1970-01-07 22:12:43.264137146,0.39900208,-0.78582764,-0.16798401,7.86954634543013,0.8971880333842934,-72.6961441040039,-7.229772090911865,-38.363128662109375,30615247.0,50354.0,0.06859787355420001,0.02725429254014375,0.1857422248182,0.0015934567165484272,0.0010442988860576378,0.007646715785889464,30.615247523994185
