Subject-id_accel,Activity_accel,Timestamp_accel,accel_x,accel_y,accel_z,Segment_accel,DateTime,gyro_x,gyro_y,gyro_z,accel_magnitude,gyro_magnitude,Roll,Pitch,Yaw,Time_Difference,Difference_Microseconds,vx,vy,vz,dx,dy,dz,Time_diff
1639,C,183754541953296.0,2.3349983142294604,8.570943,0.7398083,201,1970-01-03 03:02:34.541953296,0.3419102,-0.33389756,-1.8294522,9.230731920152046,1.8908425417053725,-74.78971862792969,-75.25357055664062,96.00299835205078,15037445.0,49897.0,0.07893814994915736,-0.06604506631600006,0.04181221778077499,0.004175721568544626,-0.0043400934101361106,0.0028448248798658444,15.037445460009621
1639,C,183754591850106.0,1.9423495142294604,8.681076,0.5746084,201,1970-01-03 03:02:34.591850106,-0.7116363,-0.2124574,-1.4150642,9.469495099822039,1.598114845814934,-75.04492950439453,-75.10894775390625,96.21318817138672,15087342.0,49897.0,0.10671341229830737,-0.05857860397850006,0.032792725039949996,0.004631728000730874,-0.003109173638342336,0.0018612814159628575,15.087342270009685
1639,C,183754641746916.0,1.7986973142294604,8.173506,1.1779473,201,1970-01-03 03:02:34.641746916,-0.7521164,-0.059059326,-1.0166553,9.12516892447599,1.2659996375017746,-75.0438461303711,-75.15878295898438,96.17315673828125,15137239.0,49897.0,0.09333350679980738,-0.06849406097300006,0.04372363588145,0.004990870561119316,-0.0031702723815425007,0.0019089684304475474,15.13723908000975
1639,C,183754691643726.0,2.1602218142294602,12.0449295,1.4221559,201,1970-01-03 03:02:34.691643726,-0.36116433,-0.18156473,-1.0219817,12.6293767749593,1.0990232115743561,-74.83940124511719,-75.14713287353516,95.95695495605469,15187135.0,49896.0,0.09876711441679316,0.015428728853999965,0.0648673746336,0.004792526298111751,-0.0013238739057048147,0.0027091285303294673,15.187135890009813
1639,C,183754741549186.0,1.9375611142294602,15.909171,1.5179238,201,1970-01-03 03:02:34.741549186,-0.3984486,0.17316832,-1.2403609,16.414071012958658,1.3142464442190407,-74.59994506835938,-75.22216796875,95.69989776611328,15237041.0,49906.0,0.10225197741383545,0.20845986977649994,0.07336380875410001,0.005016029398449675,0.0055866922016268635,0.0034492827190732785,15.23704134998843
1639,C,183754791454646.0,1.24084831422946,17.69764,2.2290018,201,1970-01-03 03:02:34.791454646,-1.2495948,-0.12510572,-0.6534002,18.381863760783865,1.4156519440610387,-74.35584259033203,-75.23977661132812,95.40277099609375,15286946.0,49905.0,0.0793092612636212,0.34950495147749994,0.09349516103399999,0.0045304068080992375,0.013922617202340429,0.004163548443637565,15.286946809996152
1639,C,183754841360106.0,0.5513183142294604,10.732907,2.1068976,201,1970-01-03 03:02:34.841360106,0.2012953,0.008052334,0.33409995,12.08103790773834,0.39013768656070646,-74.36138916015625,-75.22360229492188,95.4189224243164,15336852.0,49906.0,0.04471993387993544,0.220348639291,0.10819369772819999,0.003094900506417169,0.014219556650446379,0.005032742092693177,15.336852270003874
1639,C,183754891265566.0,2.2607783142294604,9.499893,2.5761611,201,1970-01-03 03:02:34.891265566,1.1408585,-0.034558244,1.3002948,10.420405212128664,1.7301788798149322,-74.37689971923828,-75.16142272949219,95.49396514892578,15386757.0,49905.0,0.07016884112162122,0.015789941999999987,0.11685402221175,0.0028667621582263427,0.0058922479496636765,0.005615503231801602,15.386757730011595
1639,C,183754941171026.0,3.0317111142294606,8.393772,2.111686,201,1970-01-03 03:02:34.941171026,1.2250144,0.14334092,1.5421098,9.051805468806887,1.9746669427551184,-74.36786651611328,-75.08526611328125,95.5479965209961,15436663.0,49906.0,0.13206348870833545,-0.04257817725500002,0.11697584868630002,0.005046303326246909,-0.0006684468343180159,0.005834756768519042,15.436663189990213
1639,C,183754991076486.0,3.8864413142294607,8.582913,1.508347,201,1970-01-03 03:02:34.991076486,0.70196956,0.35532853,1.4728676,8.897369443683171,1.669837894685683,-73.73908233642578,-75.03223419189453,94.97509002685547,15486568.0,49905.0,0.1726251984711212,-0.06545826753750003,0.0903288734325,0.007602744466845391,-0.0026957793886848574,0.005172771078669357,15.486568649997935
1639,C,183755040981946.0,3.9606614142294605,8.496722,0.545878,201,1970-01-03 03:02:35.040981946,-0.299379,0.5247056,1.5410446,8.686369620187735,1.6552227075235284,-73.71363830566406,-75.02532196044922,94.93511962890625,15536474.0,49906.0,0.19580875438323544,-0.06289066784500004,0.051259076425,0.009193532425574762,-0.0032026909845995245,0.0035330441127941975,15.536474110005656
1639,C,183755090887406.0,3.8337688142294604,7.706636,0.15083471,201,1970-01-03 03:02:35.090887406,-0.6466552,0.40006965,1.6550279,7.926444649048968,1.8213555452784536,-74.02122497558594,-74.98296356201172,95.20203399658203,15586379.0,49905.0,0.19449052027562122,-0.08475470950500004,0.017384723896275,0.00973894265092512,-0.003684121278325877,0.0017128344275166142,15.586379569984274
1639,C,183755140792866.0,4.022910714229461,7.098509,0.16998832,201,1970-01-03 03:02:35.140792866,0.12779205,0.09646928,1.4579539,7.2916478286890944,1.4667197089260546,-74.2941665649414,-74.9613037109375,95.4758071899414,15636285.0,49906.0,0.19604772427363545,-0.11964601681500005,0.00800549706759,0.009745100816237601,-0.005100411323862962,0.0006335621837113233,15.636285029991996
1639,C,183755190698326.0,4.6310380142294605,6.744167,0.47644615,201,1970-01-03 03:02:35.190698326,0.65722847,-0.061189853,1.0456966,6.842070796298334,1.2365980911922283,-74.18377685546875,-75.04762268066406,95.40534973144531,15686190.0,49905.0,0.21593765564687123,-0.14365962711000002,0.016130156112674997,0.010280065192466442,-0.0065701340800385635,0.0006022448859805623,15.686190489999717
1639,C,183755240603786.0,4.686104584229461,6.0713964,0.5506664,201,1970-01-03 03:02:35.240603786,0.5602894,-0.10273517,0.70800775,6.177021114598233,0.9087099102394293,-73.97702026367188,-75.13004302978516,95.23639678955078,15736095.0,49905.0,0.23248600068804623,-0.16928865426150003,0.025629025903875,0.011189291284697027,-0.007808841990922355,0.0010419959892679638,15.736095950007439
1639,C,183755290509246.0,4.35809891422946,9.10485,0.17717093,201,1970-01-03 03:02:35.290509246,0.329127,-0.2156532,0.31918624,9.202209596045845,0.5066663010350873,-74.13615417480469,-75.28260040283203,95.4099349975586,15786001.0,49906.0,0.22568000989704542,-0.1103859235808,0.018161724895490002,0.011432616462129792,-0.006978719740898913,0.0010927106046965548,15.786001409986056
1639,C,183755340414706.0,4.05882371422946,15.080777,-1.316811,201,1970-01-03 03:02:35.340414706,1.1323364,-0.17623842,-0.87817097,15.224861222056322,1.4437555042318617,-74.06596374511719,-75.32723236083984,95.39590454101562,15835906.0,49905.0,0.21002326188662118,0.11442285771749997,-0.028436868846674998,0.010871885889181941,0.00010073159904600582,-0.0002563905294419436,15.835906869993778
1639,C,183755390320166.0,3.7906732142294604,17.580324,-0.51235914,201,1970-01-03 03:02:35.390320166,0.9853299,-0.3264407,-2.2363832,17.68911928394664,2.4655320642191496,-74.28840637207031,-75.66829681396484,95.65512084960938,15885812.0,49906.0,0.19586849685583543,0.3259136532529999,-0.04564328250342,0.01012821705590052,0.010987716958246883,-0.0018485220166389203,15.8858123300015
1639,C,183755440225626.0,3.7356065142294606,10.902895,-0.92416185,201,1970-01-03 03:02:35.440225626,-0.95664716,-0.70887065,-2.0009596,11.11364432094033,2.328413775083726,-75.11504364013672,-75.9180908203125,96.41187286376953,15935717.0,49905.0,0.1877994949243712,0.2216585220975,-0.035844790002975,0.009573475564895606,0.01366329470543335,-0.0020333311292158214,15.935717790009221
1639,C,183755490131086.0,0.6614516142294606,11.721712,1.1468226,201,1970-01-03 03:02:35.490131086,-0.56462985,-1.000753,-1.3905631,12.802853471251167,1.8038789232101007,-75.34574127197266,-75.75867462158203,96.61559295654297,15985623.0,49906.0,0.10971979147943546,0.07547301847099995,0.005556053694749999,0.007423998753634187,0.007414323331805779,-0.0007557948370991383,15.985623249987839
1639,C,183755540036546.0,0.6925763142294601,7.852682,0.19871874,201,1970-01-03 03:02:35.540036546,3.995767,-0.86439925,-1.1828367,9.30547741325372,4.255871548878849,-75.25177764892578,-75.82681274414062,96.72476196289062,16035528.0,49905.0,0.033786381884871215,-0.0006389337150000392,0.03357462028635,0.0035808377908728623,0.0018672974998740876,0.0009764081425133977,16.03552870999556
1639,C,183755589942006.0,5.167339114229461,7.337929,1.7357962,201,1970-01-03 03:02:35.589942006,3.9030893,-0.8782477,-0.40093252,7.557935683941911,4.0207178453509185,-75.20475769042969,-75.85746002197266,96.8775405883789,16085434.0,49906.0,0.14622246968633545,-0.11002748371700004,0.048271951297820005,0.00449176087325632,-0.002761459114180698,0.002042317500739794,16.085434170003282
1639,C,183755639847466.0,4.18811061422946,7.419332,2.5354595,201,1970-01-03 03:02:35.639847466,0.8319318,-0.87079084,-0.104789,7.981527991880999,1.2088705230090382,-75.32502746582031,-75.87353515625,97.04446411132812,16135338.999999998,49904.99999999814,0.23344185934936254,-0.12083844489749554,0.10657850785424602,0.009473574170262901,-0.005760682083752986,0.0038639060819917834,16.135339630011003
1639,C,183755689752926.0,3.8672875142294605,7.802404,2.0398598,201,1970-01-03 03:02:35.689752926,0.5858558,-0.4936872,-0.37856194,8.266156195989662,0.8545543939703567,-75.3717269897461,-75.89812469482422,97.12281799316406,16185244.999999998,49906.0,0.20100634949943544,-0.10925082159200003,0.11416794249290001,0.010840786155404056,-0.005741417466712383,0.005508286175512334,16.18524508998962
1639,C,183755739658386.0,4.439501814229461,7.4624276,2.2625206,201,1970-01-03 03:02:35.739658386,-1.2495948,-0.1165836,-0.29121026,7.896138166564232,1.2883642014218135,-75.44210052490234,-75.91372680664062,97.13095092773438,16235150.0,49905.00000000186,0.20727516071837895,-0.10817328950100408,0.10735514693100402,0.010187644383710394,-0.005425275132048388,0.005527554888850172,16.235150549997343
1639,C,183755789564516.0,2.2440188142294604,7.8574705,2.0398598,201,1970-01-03 03:02:35.789564516,-1.2996622,0.1380146,-0.16657433,8.815672252016663,1.317541980863209,-75.47208404541016,-75.92000579833984,97.0948715209961,16285056.0,49906.0,0.16677389024193545,-0.10680138271070004,0.10735729812120001,0.009333645968612725,-0.005364262995698653,0.005357719641387647,16.285056680004345
1639,C,183755839470646.0,3.24000671422946,9.588478,2.0135236,201,1970-01-03 03:02:35.839470646,-0.16622093,0.35532853,0.017716413,10.097193517082593,0.392685157717493,-74.63733673095703,-75.84944152832031,96.27313995361328,16334962.0,49906.0,0.13684288901163544,-0.053750047079500034,0.10114407598019999,0.0075761494927143545,-0.004006239827554862,0.005202734787952234,16.334962810011348
1639,C,183755889376776.0,4.463443814229461,14.963461,1.9560628,201,1970-01-03 03:02:35.889376776,0.20875214,0.39154753,-0.061113156,15.139835811658102,0.44790818483251765,-73.93464660644531,-76.03704071044922,95.59679412841797,16384868.0,49906.0,0.19222420103663546,0.12356573386699998,0.09905308943919999,0.008211211097974503,0.001742110832408486,0.004995519868710287,16.384868939989246
1639,C,183755939282906.0,4.81060306422946,15.901988,2.1404164,201,1970-01-03 03:02:35.939282906,-1.6160458,0.667451,0.07737122,16.06900105924399,1.7501660409180977,-73.890869140625,-76.0240707397461,95.46841430664062,16434774.999999998,49906.99999999814,0.23141992878161607,0.28111238162148955,0.10222149371719619,0.010571403793419344,0.010098135354841647,0.005022505310792945,16.43477506999625
1639,C,183755989189036.0,2.5049868142294605,11.513416,2.0278888,201,1970-01-03 03:02:35.989189036,-1.7864882,0.7910217,0.5897634,12.114467711873587,2.0408518531705555,-73.3432846069336,-75.89807891845703,94.84330749511719,16484680.999999998,49906.0,0.18254591423718544,0.19501777601199993,0.1040117196556,0.010329689680848153,0.011880875823428463,0.005146137373291383,16.48468120000325
1639,C,183756039095166.0,3.5895603142294603,10.112808,1.9273324,201,1970-01-03 03:02:36.039095166,0.11926994,0.58009934,0.95408386,10.505191865340192,1.1229499431268246,-72.58638000488281,-75.8408432006836,94.11165618896484,16534586.999999998,49906.0,0.15207723449643543,0.050560367471999934,0.09869463460359999,0.00834985143035004,0.006127911414356249,0.005058131657829817,16.534587330010254
1639,C,183756089001296.0,4.65737421422946,8.843882,1.6232687,201,1970-01-03 03:02:36.089001296,0.070267774,0.50979185,0.92638695,9.049738386716918,1.0597254698834224,-71.7336654663086,-75.90543365478516,93.28556823730469,16584492.999999998,49906.0,0.20578575728863543,-0.016052514430000032,0.08859814924829999,0.008929755234012873,0.0008610744569570235,0.00467351683545646,16.584493459988153
1639,C,183756138907426.0,3.9175659142294603,8.252514,1.4173675,201,1970-01-03 03:02:36.138907426,-0.16409041,0.49274763,0.7676626,8.557092508238929,0.9268396608709324,-71.15351104736328,-75.85286712646484,92.71222686767578,16634398.999999998,49906.0,0.21397048102543542,-0.06247243061200002,0.07587299509859999,0.01047417741465101,-0.0019594329536330272,0.004104048464888195,16.634399589995155
1639,C,183756188813556.0,3.2591603142294603,6.880636,-0.1436521,201,1970-01-03 03:02:36.188813556,1.6117054,0.631232,0.22970404,7.29594154446062,1.7460847860872855,-71.70206451416016,-75.7337417602539,93.31575012207031,16684304.999999998,49906.0,0.17908084957873543,-0.11146130805000004,0.0317830203762,0.009807809852565874,-0.004340168580832888,0.002686340554142684,16.684305720002158
1639,C,183756238719686.0,7.60703071422946,6.3132105,0.9600749,201,1970-01-03 03:02:36.238719686,-1.8876883,0.21258311,0.765532,6.6698304882556965,2.0480717613497244,-71.8038558959961,-75.69402313232422,93.3233871459961,16734210.999999998,49906.0,0.27114406473313546,-0.15985274828550003,0.0203721981284,0.011234462286824114,-0.006770099647739734,0.0013014291673452837,16.73421185000916
1639,C,183756288625816.0,2.5097753142294605,6.3730655,0.79726917,201,1970-01-03 03:02:36.288625816,0.48039457,0.42989704,0.70161617,7.163131432445152,0.9528145978582168,-71.74286651611328,-75.65399932861328,93.28524017333984,16784117.0,49906.00000000186,0.2524446608281449,-0.17251815497200648,0.04385100657871163,0.013065109468931116,-0.00829365114898487,0.0016025616270566162,16.78411797998706
1639,C,183756338531946.0,4.98059141422946,6.3491235,0.79008657,201,1970-01-03 03:02:36.338531946,1.0577679,0.23708418,0.5780455,6.436354607478136,1.228502518819938,-71.20035552978516,-75.77555847167969,92.8101806640625,16834024.0,49907.0,0.18691086615859967,-0.17162545678850002,0.03961008145809,0.010963458142663729,-0.0085875876160658,0.0020826462603263296,16.83402410999406
1639,C,183756388438076.0,4.638220614229461,7.5821376,0.5363012,201,1970-01-03 03:02:36.388438076,0.021265607,-0.03349298,0.4736496,7.6723227653662285,0.47530826768584494,-71.10454559326172,-75.89147186279297,92.7205810546875,16883930.0,49906.0,0.24001821654613545,-0.1414520417717,0.033097354024810004,0.010653161400731255,-0.007812222821572672,0.001814268637604804,16.883930240001064
1639,C,183756438344206.0,4.12107301422946,13.969868,-0.17717093,201,1970-01-03 03:02:36.438344206,0.59224737,-0.022840334,-0.13142061,14.057846492456259,0.60708319434977,-71.35596466064453,-76.10468292236328,92.99299621582031,16933836.0,49906.0,0.21857065391093541,0.04870839573679999,0.00896137762731,0.011443168084515289,-0.00231423219950886,0.0010494915309153506,16.933836370008066
1639,C,183756488250336.0,4.482597414229461,19.511847,-0.4429273,201,1970-01-03 03:02:36.488250336,-0.17261252,-0.46279454,-1.1412913,19.553653164428223,1.2435914521136964,-71.37959289550781,-76.16618347167969,93.00845336914062,16983742.0,49906.0,0.21468738820133546,0.3463904343949999,-0.015473311133189999,0.010811087924827495,0.009858901108278802,-0.0001624922767722236,16.983742499985965
1639,C,183756538156466.0,3.2998617142294604,11.00824,-0.6919243,201,1970-01-03 03:02:36.538156466,-1.3752961,-0.5384283,-1.2510135,11.28412896543784,1.9355565540945452,-72.2313461303711,-76.31588745117188,93.77030944824219,17033648.0,49906.0,0.19419570263243546,0.27248893091099996,-0.028317951974800006,0.010202859765575086,0.015442896802480614,-0.0010927233883336746,17.033648629992967
1639,C,183756588062596.0,2.74201281422946,12.322657,0.8403648,201,1970-01-03 03:02:36.588062596,-1.2240285,-0.90274876,-0.8973457,12.69621038749832,1.7659078112410844,-72.45973205566406,-76.36626434326172,93.93970489501953,17083554.0,49906.0,0.15076289510863544,0.09309707284099997,0.0037040357964999993,0.008607751889432943,0.009122467551623653,-0.00061419105039712,17.08355475999997
1639,C,183756637968726.0,2.3038738142294606,7.9484506,2.0757728,201,1970-01-03 03:02:36.637968726,-0.0011049455,-0.91553193,-0.77164453,8.882229823430064,1.1973450699080044,-72.59222412109375,-76.41675567626953,94.07597351074219,17133460.0,49906.0,0.12591000903993546,0.01674614794279998,0.0727663815328,0.006903818977219291,0.00274091788821816,0.001908166323618023,17.133460890006972
1639,C,183756687874856.0,2.9957981142294603,6.80881,2.0709844,201,1970-01-03 03:02:36.687874856,0.6508369,-0.77172124,-0.4701747,7.6066437009681085,1.113645630884815,-72.68328857421875,-76.45073699951172,94.203125,17183367.0,49907.0,0.13224536346679966,-0.12084329761790003,0.10347610579019999,0.006441880087846815,-0.002597588224417609,0.004397866907414481,17.18336701998487
1639,C,183756737780986.0,3.4746385142294605,6.4855933,2.528277,201,1970-01-03 03:02:36.737780986,0.90863085,-0.44788083,-0.39347565,7.302373280618263,1.086752201100202,-72.70236206054688,-76.4762191772461,94.26947021484375,17233273.0,49906.0,0.16145680518993544,-0.15734355445510004,0.11476536971419998,0.007328750214491511,-0.006941596519777571,0.005445779538261293,17.233273149991874
1639,C,183756787694556.0,3.6063197142294605,7.0362597,1.412579,201,1970-01-03 03:02:36.787694556,0.5997042,-0.23695849,-0.42543358,7.470612899065928,0.7725206692848655,-72.0978012084961,-76.3671875,93.71212768554688,17283186.0,49913.0,0.17671593402853505,-0.15168927560550005,0.098349972764,0.008439607966305758,-0.007712377823407367,0.005318613044557197,17.28318671998568
1639,C,183756837608126.0,3.4746385142294605,7.103297,1.5466543,201,1970-01-03 03:02:36.837608126,0.19383845,-0.026036128,-0.42969465,7.597270449422683,0.4721109158855124,-71.43769073486328,-76.2309341430664,93.07894897460938,17333100.0,49914.0,0.1767194745076493,-0.13627628343810003,0.0738535854681,0.008820687490837554,-0.007186756457051128,0.00429768420279852,17.333100290008588
1639,C,183756887521696.0,3.1514213142294603,7.3331404,1.6280571,201,1970-01-03 03:02:36.887521696,-0.6104362,0.03361868,-0.21877229,7.926287178301172,0.6493257154827818,-70.89463806152344,-76.04365539550781,92.52086639404297,17383013.0,49913.0,0.16536326210893504,-0.12886445002690003,0.07922968505409998,0.008537187816371786,-0.006616984714719274,0.0038204226407872843,17.383013860002393
1639,C,183756937435266.0,3.3956299142294606,9.011476,1.7597382,201,1970-01-03 03:02:36.937435266,-0.46129918,0.19021255,0.027303793,9.461916748179652,0.4997231681224733,-70.31246948242188,-75.96560668945312,91.93153381347656,17432927.0,49914.0,0.1633947575086493,-0.08124460850520004,0.08454920730209999,0.008204813895596052,-0.0052436917737856215,0.004087429816533683,17.432927429996198
1639,C,183756987348836.0,4.09234251422946,14.477438,1.5227122,201,1970-01-03 03:02:36.987348836,-0.6530468,0.23601893,0.013455355,14.643762843213354,0.6945186137799051,-69.93508911132812,-76.1134262084961,91.5309829711914,17482841.0,49914.0,0.18687732789704928,0.09705562669799996,0.08192011463280001,0.008741740435470019,0.0003945955810377074,0.0041545748675292996,17.482840999990003
1639,C,183757037262406.0,4.446684414229461,16.373646,1.1085154,201,1970-01-03 03:02:37.037262406,-1.7406818,0.50126976,0.061392255,16.457505120583168,1.812460623052452,-69.70325469970703,-76.31371307373047,91.2159423828125,17532754.0,49913.0,0.21310422554008504,0.28078767784599995,0.0656662315994,0.009982139638353843,0.009429646429852332,0.0036832386497438994,17.532754570012912
1639,C,183757087175976.0,2.4547086142294603,12.44955,2.1739352,201,1970-01-03 03:02:37.087175976,-1.9505389,0.60033935,0.46086642,13.043330379807664,2.0922254163104053,-69.29483032226562,-76.20136260986328,90.71968078613281,17582668.0,49914.0,0.17223806581124929,0.23018330257199995,0.0819201196242,0.009616987565255251,0.012752302758292025,0.0036833125674873846,17.582668140006717
1639,C,183757137089546.0,2.2990853142294605,8.77445,1.5969325,201,1970-01-03 03:02:37.137089546,-0.80964065,0.10286087,1.2225305,9.538387817400656,1.4699248838426504,-69.21807861328125,-75.91288757324219,90.60987854003906,17632581.0,49913.0,0.11863805817558504,0.04052935599999997,0.09410765975505,0.007259249988277431,0.006756040463652116,0.004393037276078253,17.632581710000522
1639,C,183757187003116.0,3.2663429142294604,9.351453,1.8387469,201,1970-01-03 03:02:37.187003116,1.3517809,0.16464621,1.1863115,9.831729000306638,1.806032931899201,-68.69227600097656,-75.77437591552734,90.1688461303711,17682495.0,49914.0,0.1388963922976493,-0.03678903882900005,0.0857442507858,0.006427287280460508,9.33470956366449e-05,0.004488564131367993,17.682495279994328
1639,C,183757236916686.0,5.24634779422946,7.5581956,1.5466543,201,1970-01-03 03:02:37.236916686,0.96295935,0.42137492,0.9455617,7.727074622648598,1.4138367874207824,-68.63456726074219,-75.72262573242188,90.15898895263672,17732408.0,49913.0,0.21244696566565505,-0.06714175471410004,0.08448776504779999,0.008768300513011204,-0.0025937488490583773,0.004248395303151238,17.732408849988133
1639,C,183757286830256.0,4.506539514229461,6.2772975,1.2042835,201,1970-01-03 03:02:37.286830256,-0.62108886,0.48635605,0.82731736,6.498840586595546,1.1431306108862065,-68.01757049560547,-75.6882553100586,89.52912902832031,17782322.0,49914.0,0.24340280855720928,-0.14386479870330002,0.0686551546746,0.011376642815280025,-0.005266090553638053,0.0038219878475119367,17.78232242001104
1639,C,183757336743826.0,3.0939606142294602,6.4185553,1.1827357,201,1970-01-03 03:02:37.336743826,0.14270575,0.3116527,0.63663507,7.020774194220911,0.7230467127746709,-67.89688873291016,-75.41477966308594,89.41856384277344,17832235.0,49913.0,0.18968188145588505,-0.17230334959680002,0.0595716446648,0.010808278066311789,-0.007890450393051446,0.003200092117713736,17.832235990004847
1639,C,183757386657396.0,4.49696271422946,6.234202,0.59615624,201,1970-01-03 03:02:37.386657396,0.46335036,0.25306314,0.6174603,6.373651748700544,0.8123987512391186,-67.77786254882812,-75.44673156738281,89.32575225830078,17882149.0,49914.0,0.1894466735083493,-0.17338233606390002,0.04439580614658,0.009461911346242398,-0.00862727765703409,0.0025947156698996107,17.882149559998652
1639,C,183757436570966.0,4.04206431422946,6.1480107,1.0462662,201,1970-01-03 03:02:37.436570966,0.035114046,0.057054497,0.50773805,6.448251503080268,0.5121387890720792,-67.49647521972656,-75.35376739501953,89.05689239501953,17932063.0,49914.0,0.2131084975492493,-0.18013431764610002,0.04098993683508,0.010046569404084488,-0.008822715126640472,0.0021309719875932886,17.932063129992457
1639,C,183757486484536.0,3.9582673142294604,6.1336455,-0.01436521,201,1970-01-03 03:02:37.486484536,0.04576669,-0.04840668,0.53010863,6.371091572631616,0.5342779765090971,-68.13887786865234,-75.33295440673828,89.6837387084961,17981976.0,49913.0,0.199660276285635,-0.18264024704470003,0.025752637056935,0.01030126390421029,-0.009053583423705951,0.0016656610453360725,17.981976699986262
1639,C,183757536398106.0,4.43471341422946,12.693758,-0.7230489,201,1970-01-03 03:02:37.536398106,0.5432452,-0.36905128,-0.013176256,12.775303537497262,0.6568773160300604,-68.17623138427734,-75.34040832519531,89.75041961669922,18031890.0,49914.0,0.20946362004014926,-0.019281690850500015,-0.01840364394327,0.010210505080602597,-0.005039365804050507,0.00018340882113773737,18.03189027000917
1639,C,183757586311676.0,4.805814664229461,19.511847,-0.8714894,201,1970-01-03 03:02:37.586311676,0.14803207,-0.4372282,-1.5258517,19.55091351558158,1.5941472337951144,-68.13778686523438,-75.41935729980469,89.71834564208984,18081803.0,49913.0,0.23061123899006006,0.31459178118250003,-0.03979409508395,0.010982728219387419,0.007369906269370558,-0.001452411874032816,18.081803840002976
1639,C,183757636225246.0,3.5297051142294604,12.277167,-1.163582,201,1970-01-03 03:02:37.636225246,-1.5595868,-0.2635901,-1.7421005,12.51847849635049,2.3530203738286035,-68.13790130615234,-75.50514221191406,89.63790893554688,18131717.0,49914.0,0.20802956711099926,0.3042012223979999,-0.05078927692979999,0.010947158597864137,0.015443216990358537,-0.0022606892153471587,18.13171740999678
1639,C,183757686138816.0,2.5217463142294605,11.896489,0.14844051,201,1970-01-03 03:02:37.686138816,-1.6735702,-0.6737169,-1.0102638,12.309814971547464,2.0676954856226026,-68.75535583496094,-75.5737533569336,90.15790557861328,18181630.0,49913.0,0.15102304757433505,0.11414244596399999,-0.025334378595185,0.008960696578394546,0.01044039375947625,-0.0018997800091092878,18.181630979990587
1639,C,183757736052386.0,0.9056599142294601,8.599673,1.7788919,201,1970-01-03 03:02:37.736052386,0.8958477,-0.87505186,-0.8206467,9.996298994488809,1.4972374112029259,-68.81157684326172,-75.62781524658203,90.26219177246094,18231544.0,49914.0,0.08553777724364928,0.022365515033999965,0.04810043495637,0.005903848504982435,0.0034068291826270846,0.0005681724686060941,18.231544549984392
1639,C,183757785966546.0,3.5273109142294605,5.559037,1.4508862,201,1970-01-03 03:02:37.785966546,1.8204973,-0.72698015,-0.4488694,6.135782184940646,2.0110182237010368,-68.8212890625,-75.66188049316406,90.36618041992188,18281458.0,49914.0,0.11063365296584927,-0.13579827453000007,0.08060557204169999,0.004895850383738455,-0.0028309413787416743,0.003212115816650833,18.28145871000015
1639,C,183757835880706.0,3.6589921142294606,5.252579,2.5234885,201,1970-01-03 03:02:37.835880706,1.1557722,-0.45959875,-0.26564392,6.168264649130911,1.2718518315933538,-68.82862854003906,-75.68258666992188,90.43340301513672,18331372.0,49914.0,0.1793485646812493,-0.21933169948800002,0.0991884693879,0.007237086205818639,-0.008862978761567228,0.0044871198919585265,18.331372869986808
1639,C,183757885794866.0,3.7092703142294603,5.867889,1.8986019,201,1970-01-03 03:02:37.885794866,0.5592241,-0.10273517,-0.27097026,6.475020181627284,0.6298499749783328,-68.80022430419922,-75.69705200195312,90.43293762207031,18381287.0,49915.0,0.18389340955826353,-0.21162791989000007,0.110364321158,0.009065611572082641,-0.010755674700626437,0.0052299137700493,18.381287030002568
1639,C,183757935709026.0,3.9606614142294605,7.6036854,0.9624691,201,1970-01-03 03:02:37.935709026,-0.4154928,0.35532853,-0.31890714,7.855133867285801,0.6329252681215851,-68.5302734375,-75.70293426513672,90.14570617675781,18431201.0,49914.0,0.1914184861471493,-0.15294711769920005,0.071403748947,0.009366658981119987,-0.009098699213113667,0.004536385725610485,18.431201189989224
1639,C,183757985623186.0,3.5799835142294603,7.8790183,0.8834604,201,1970-01-03 03:02:37.985623186,-1.6362859,0.595013,-0.020633107,8.202142943272795,1.7412345453190055,-68.46487426757812,-75.64710998535156,89.99612426757812,18481115.0,49914.0,0.1881918754795493,-0.10275536375910004,0.0460688625315,0.009473935795117516,-0.006381566829754795,0.002931763964668924,18.481115350004984
1639,C,183758035537346.0,3.2016995142294604,12.796709,0.10295067,201,1970-01-03 03:02:38.035537346,-1.7609218,0.40859175,-0.022763636,13.03514474048146,1.8078470585221647,-68.84010314941406,-75.73946380615234,90.26960754394531,18531029.0,49914.0,0.1692504633412493,0.02684692622609997,0.024617861073990003,0.00892068844995067,-0.0018944468755110828,0.001764128561022214,18.53102950999164
1639,C,183758085451506.0,3.49139791422946,16.225206,0.25857377,201,1970-01-03 03:02:38.085451506,-1.8930146,0.57583827,-0.14739957,16.37437129699461,1.9841422888104416,-69.01519775390625,-75.90450286865234,90.34037017822266,18580943.0,49914.0,0.1670396325220493,0.23514273265499996,0.009022565449079999,0.008392791922460343,0.006538475916695611,0.0008395641247362581,18.5809436700074
1639,C,183758135365666.0,1.7101119142294605,17.125425,1.2378023,201,1970-01-03 03:02:38.135365666,-2.1912887,0.021900771,-0.19320594,17.623365817553697,2.199898712615962,-69.19597625732422,-75.9248275756836,90.40834045410156,18630857.0,49914.0,0.1298140807888493,0.34317449786699994,0.037345057578989996,0.007408578123100097,0.014433063122137551,0.0011571967679115428,18.630857829994056
1639,C,183758185279826.0,1.7244771142294604,9.234137,1.472434,201,1970-01-03 03:02:38.185279826,-0.32601058,-0.25613326,0.32557783,10.15352874903897,0.5271508973127835,-69.2830581665039,-75.9141616821289,90.4813232421875,18680771.0,49914.0,0.08571703838324929,0.16869838883399998,0.0676393673391,0.005379010141178064,0.012774811633396856,0.002620096292680772,18.680771990009816
1639,C,183758235193986.0,2.8521462142294602,9.76565,2.6144683,201,1970-01-03 03:02:38.235193986,1.8545856,-0.27956906,0.7474225,10.497986773817564,2.0189816741473643,-68.49442291259766,-75.73469543457031,89.81304168701172,18730686.0,49915.0,0.1142210767200135,-0.014979815947500003,0.10199886415225001,0.004989955507689681,0.0038364312828148236,0.004233746162445368,18.730686149996473
1639,C,183758285108146.0,4.89440016422946,7.5103116,2.2577322,201,1970-01-03 03:02:38.285108146,1.2761471,0.16464621,0.8124037,7.881714033840013,1.5217291372249742,-68.45905303955078,-75.69388580322266,89.8423843383789,18780600.0,49914.0,0.19333055796719928,-0.05800102634880002,0.1215955078785,0.00767556614688877,-0.0018213828811887598,0.0055802447427714275,18.780600310012233
1639,C,183758335022306.0,4.554423514229461,5.630863,1.4437037,201,1970-01-03 03:02:38.335022306,-0.49219185,0.27117264,0.9338438,5.9212202279289805,1.089886076931636,-67.5968246459961,-75.61050415039062,88.98431396484375,18830514.0,49914.0,0.2358142925432993,-0.16119290550780005,0.0923767357563,0.010710168034190512,-0.005470422957345168,0.005340105284393703,18.83051446999889
1639,C,183758384936466.0,3.2639487142294605,6.0139356,1.1731589,201,1970-01-03 03:02:38.384936466,-0.04371552,0.084751375,0.72611725,6.586920729179601,0.7323524445243721,-67.49667358398438,-75.33538818359375,88.8877182006836,18880428.0,49914.0,0.1951231157056493,-0.19853796133980003,0.0653090399082,0.010754904897669011,-0.008977803243915556,0.003935363903258926,18.880428629985545
1639,C,183758434850626.0,4.23599461422946,5.9253497,-0.1388637,201,1970-01-03 03:02:38.434850626,1.0045047,0.09646928,0.66539717,6.100662910680926,1.2087553135973457,-68.11125183105469,-75.36283874511719,89.53299713134766,18930342.0,49914.0,0.18717608564834928,-0.19118845676790003,0.025812905306400003,0.009541041168191742,-0.00972640221671387,0.0022741303867207722,18.930342790001305
1639,C,183758484764786.0,4.54484671422946,5.5374894,-0.50278234,201,1970-01-03 03:02:38.484764786,0.7616244,0.04107553,0.6643319,5.675227372655125,1.0114819816475975,-68.11327362060547,-75.33129119873047,89.57444763183594,18980256.0,49914.0,0.21914345703434926,-0.20307912458130004,-0.016013560220280002,0.010140516826732107,-0.009839736027731985,0.00024456225531429687,18.98025694998796
1639,C,183758534678946.0,4.954255214229461,9.985916,-1.541866,201,1970-01-03 03:02:38.534678946,0.5251357,-0.24974166,0.3415568,10.130376482656052,0.6743882025808915,-68.155517578125,-75.320068359375,89.645263671875,19030171.0,49915.0,0.23707383637951351,-0.10174160972950004,-0.05102931094555001,0.01138604310037648,-0.007607563476561793,-0.0016732224571212025,19.03017111000372
1639,C,183758584593106.0,3.9654498142294603,19.511847,-1.3910311,201,1970-01-03 03:02:38.584593106,0.03830984,-0.11551834,-0.45419574,19.636482241168004,0.470218992546376,-68.14180755615234,-75.34331512451172,89.63307189941406,19080085.0,49914.0,0.2226090783952493,0.24701847119099993,-0.0731963129247,0.011472306504033756,0.0036256746314946523,-0.0031002988949298295,19.080085269990377
1639,C,183758634507266.0,3.4291487142294605,19.057547,-1.8291701,201,1970-01-03 03:02:38.634507266,-1.7705091,0.16251567,-0.6470086,19.27714568945834,1.8920184842258594,-68.15536499023438,-75.37030029296875,89.55558776855469,19129999.0,49914.0,0.1845469954747493,0.47341916605799994,-0.0803665613484,0.010161394135573555,0.01797996211282329,-0.003832468653233757,19.129999430006137
1639,C,183758684421426.0,1.0708603142294608,10.862194,0.7206547,201,1970-01-03 03:02:38.684421426,-3.3992984,0.16038515,-0.06004789,11.82214719941027,3.4036096658807007,-68.78729248046875,-75.16878509521484,90.00012969970703,19179913.0,49914.0,0.11230672532324928,0.2575497761369999,-0.027665218837799998,0.0074085783099556496,0.018242791890360613,-0.0026961491381069934,19.179913589992793
1639,C,183758734335586.0,0.8122863142294605,7.2493434,1.8100165,201,1970-01-03 03:02:38.734335586,-2.2552044,0.07516399,-0.24753442,8.918344312077204,2.2699933480644425,-68.86993408203125,-75.17897033691406,89.96897888183594,19229827.0,49914.0,0.0469976904064493,-0.03714756110820005,0.0631579611384,0.0039757603033660875,0.005500578080473759,0.0008857923695960742,19.229827750008553
1639,C,183758784249746.0,1.7579959142294603,4.2853217,0.50757074,201,1970-01-03 03:02:38.784249746,0.44524086,0.0016607472,-0.4882842,5.832175648621841,0.660805297697016,-68.81402587890625,-75.2016830444336,89.93415832519531,19279741.0,49914.0,0.06414653357564928,-0.20128656309930004,0.05784002474868,0.0027738263979212342,-0.00595060043784658,0.0030197467337838555,19.27974190999521
1639,C,183758834171956.0,2.9886155142294606,3.3491888,-0.36391866,201,1970-01-03 03:02:38.834171956,1.6713603,-0.16238998,-0.40519357,4.3128054441965125,1.7274251321518497,-68.73133850097656,-75.22350311279297,89.9350814819336,19329664.0,49923.0,0.11848254117147737,-0.2986765661542501,0.0035857713949200005,0.004558695649300401,-0.012479829650862492,0.0015332800104384714,19.329664119984955
1639,C,183758884094166.0,3.9510846142294604,5.0131593,0.08140286,201,1970-01-03 03:02:38.884094166,1.5168968,-0.1943479,-0.25073022,5.303978810500355,1.549713732050503,-69.2542724609375,-75.15457916259766,90.51512908935547,19379586.0,49922.0,0.17322185490646314,-0.2805030290759,-0.0070518768838,0.007281233430501474,-0.01445690187653978,-8.651745910793366e-05,19.379586330003804
1639,C,183758934016376.0,3.7571544142294604,7.70903,0.641646,201,1970-01-03 03:02:38.934016376,0.32806176,0.08155558,-0.30186293,7.971408903166241,0.4532075236705795,-69.26051330566406,-75.17013549804688,90.53466796875,19429508.0,49922.0,0.19240535438936313,-0.17167703288270003,0.018048022594460002,0.009126420771233119,-0.011286866526548617,0.00027447479308378433,19.42950853999355
1639,C,183758983938586.0,4.44907861422946,7.4265146,-0.019153614,201,1970-01-03 03:02:38.983938586,-1.2293549,0.574773,-0.11118058,7.5280784215056435,1.3616308578510352,-69.55326080322266,-75.31597900390625,90.7509536743164,19479430.0,49922.0,0.20483578262336313,-0.11143727123940003,0.015538032446946001,0.00991553602097466,-0.007066816145191739,0.0008383415198885354,19.479430750012398
1639,C,183759033860796.0,3.6039255142294606,14.0512705,-0.38067806,201,1970-01-03 03:02:39.033860796,-1.2666391,0.5321624,-0.4371515,14.20910930776905,1.441760334998442,-69.9271240234375,-75.50914764404297,91.04325103759766,19529352.0,49922.0,0.20101103605046314,0.046871393881099926,-0.009980198414714,0.010130342440917378,-0.001611628864740529,0.00013872909527854298,19.529352960002143
1639,C,183759083783006.0,3.4554849142294604,16.988956,-0.11971009,201,1970-01-03 03:02:39.083783006,-0.907645,0.48742133,-1.1199859,17.134567591396994,1.5217645728439004,-70.10472106933594,-75.74280548095703,91.16081237792969,19579275.0,49923.0,0.17621347340997737,0.28556521377974997,-0.012490438806225001,0.009416089592896786,0.008298116382126306,-0.0005609008109904689,19.579275169991888
1639,C,183759133705216.0,1.7484191142294603,17.297808,1.1468226,201,1970-01-03 03:02:39.133705216,-0.72228897,-0.31472278,-1.2669924,17.77631188715842,1.4919857660488418,-70.19976806640625,-75.83170318603516,91.2162857055664,19629197.0,49922.0,0.1298946484543631,0.366596316204,0.025637755362109996,0.007640764829855802,0.016278603949924385,0.0003281701685514454,19.629197380010737
1639,C,183759183627426.0,0.4579443142294606,9.669882,1.5107412,201,1970-01-03 03:02:39.183627426,1.3645641,-0.7504159,-0.47443575,11.093821002130033,1.6279583799531494,-70.23974609375,-75.86671447753906,91.32787322998047,19679119.0,49922.0,0.055073037537763124,0.18390491008999998,0.06633545001180001,0.004616978410049463,0.013741061109524534,0.0022957431793381674,19.679119590000482
1639,C,183759233549636.0,3.5943487142294606,9.061754,1.2593501,201,1970-01-03 03:02:39.233549636,2.75793,-0.53949356,0.42038637,9.383863749293537,2.8414707259205136,-69.9314956665039,-75.83993530273438,91.1706314086914,19729041.0,49922.0,0.10114928628336313,-0.02167523380400004,0.06914424893929999,0.0038994654248991323,0.004049414949774844,0.0033817087655184075,19.729041799990227
1639,C,183759283471846.0,5.26550139422946,6.911761,1.7525556,201,1970-01-03 03:02:39.283471846,1.6649686,-0.022840334,0.709073,7.1426057280467665,1.8098139791625523,-69.90071868896484,-75.80704498291016,91.2247543334961,19778964.0,49923.0,0.2211551484822974,-0.09052250532750002,0.07518168413055,0.008045202148403036,-0.0028006238653309388,0.0036025917783230606,19.778964010009076
1639,C,183759333394056.0,5.753918549229461,5.71466,1.4341269,201,1970-01-03 03:02:39.333394056,-0.26955158,0.055989232,0.52265173,5.89231074371417,0.5907263996576073,-69.93928527832031,-75.78154754638672,91.25062561035156,19828886.0,49922.0,0.27505574120867815,-0.174067505419,0.0795427818825,0.01238592001757644,-0.006604431258243387,0.0038620773961517414,19.82888621999882
1639,C,183759383316266.0,4.65976841422946,6.878242,1.0175357,201,1970-01-03 03:02:39.383316266,-0.45064652,0.010182863,0.13276497,7.0277456720344755,0.46990692051308214,-69.46389770507812,-75.86042022705078,90.76831817626953,19878808.0,49922.0,0.25993604029489814,-0.17490417317800003,0.06119595015860001,0.013353929858110769,-0.008710682069459718,0.003512979490477897,19.878808429988567
1639,C,183759433238476.0,4.748353814229461,7.8670473,0.18674773,201,1970-01-03 03:02:39.433238476,-0.2301368,0.08581664,0.07950175,7.924378790049584,0.2581626825631313,-69.57911682128906,-76.03794860839844,90.86830139160156,19928730.0,49922.0,0.23483613894456315,-0.12117843378270003,0.03006011869623,0.012350008365996193,-0.007390517952346034,0.002277842734685412,19.928730640007416
1639,C,183759483160686.0,4.96383201422946,7.445668,-0.15322891,201,1970-01-03 03:02:39.483160686,-0.41442755,0.10605666,0.20520295,7.481729410085284,0.4744538544664387,-69.91178131103516,-76.25523376464844,91.17084503173828,19978652.0,49922.0,0.24242587046416314,-0.10701491339670002,0.0008366632660200002,0.011912937016851219,-0.0056959341389450045,0.0007712145745597223,19.97865284999716
1639,C,183759533082896.0,4.82496831422946,7.457639,-0.5793968,201,1970-01-03 03:02:39.533082896,-0.29724845,0.0240313,0.25100932,7.528974695106051,0.38979459095009883,-69.9395980834961,-76.24299621582031,91.18417358398438,20028575.0,49923.0,0.24434313939882735,-0.11723650231950002,-0.018287436660165,0.012150484639695038,-0.005597651713399928,-0.00043559748007795045,20.028575059986906
1639,C,183759583005106.0,5.16494491422946,9.756073,-0.7062895,201,1970-01-03 03:02:39.583005106,0.06600671,-0.17517315,0.19881137,9.7952270815668,0.2730722964477054,-69.9837875366211,-76.23664093017578,91.23307037353516,20078497.0,49922.0,0.24935822409556313,-0.05956413476800001,-0.032092015734300004,0.01232327973418348,-0.004413120702341088,-0.001257521511218241,20.078497270005755
1639,C,183759632927316.0,4.88721756422946,15.384841,-1.2162545,201,1970-01-03 03:02:39.632927316,0.005286641,-0.079299346,-0.13035534,15.453260008785097,0.15267236002500975,-69.98963928222656,-76.244140625,91.23937225341797,20128419.0,49922.0,0.2509120276248131,0.13830675435399997,-0.047988620784,0.012487245753192313,0.001965494527486145,-0.001998892768133286,20.1284194799955
1639,C,183759682849526.0,4.446684414229461,18.875587,-1.8914193,201,1970-01-03 03:02:39.682849526,-0.48260447,-0.0004697816,-0.4968063,19.010250830319137,0.6926209604671393,-69.9791259765625,-76.26750183105469,91.2037124633789,20178341.0,49922.0,0.23298352728431315,0.365938943308,-0.07757064572179999,0.012078516946086701,0.012586476859341183,-0.0031340848512512736,20.178341689985245
1639,C,183759732771736.0,3.4171777142294606,11.884518,-1.340753,201,1970-01-03 03:02:39.732771736,-0.62748045,-0.08782146,-0.33382085,12.172339014827372,0.7161568849515143,-70.00402069091797,-76.28469848632812,91.19702911376953,20228263.0,49922.0,0.19628986258846312,0.27856738090499994,-0.08067825278030001,0.01071509308461437,0.016087522358680693,-0.003950050755510918,20.228263900004094
1639,C,183759782693946.0,3.3238039142294604,9.631575,0.15322891,201,1970-01-03 03:02:39.782693946,0.17572895,-0.4755777,-0.16124801,9.917091953648356,0.5320298237264078,-70.47978210449219,-76.31153106689453,91.67243194580078,20278186.0,49923.0,0.16826501291877735,0.04782855541949996,-0.029642382572535004,0.009099836524973983,0.008147332164564005,-0.0027537685393597914,20.27818610999384
1639,C,183759832624506.0,3.2376125142294603,7.3977838,1.4748282,201,1970-01-03 03:02:39.832624506,0.97254676,-0.5032746,-0.26883972,7.92932206947031,1.127566990666779,-70.07642364501953,-76.1578369140625,91.33246612548828,20328116.0,49930.0,0.16380576113647696,-0.06417605755800004,0.04064444575115,0.008290146874289424,-0.0004081153908876547,0.0002746665072541233,20.328116669988958
1639,C,183759882555066.0,4.46823221422946,5.38426,1.2354081,201,1970-01-03 03:02:39.882555066,0.71794856,-0.22097951,-0.09200583,5.655804972619904,0.756800602140288,-69.28717041015625,-76.10697937011719,90.60317993164062,20378047.0,49931.0,0.1923802665683412,-0.17021368551110003,0.06766240434765,0.008892362274664639,-0.005851657130591618,0.002703934666141592,20.37804723001318
1639,C,183759932485626.0,3.8505282142294606,5.252579,0.7541735,201,1970-01-03 03:02:39.932485626,0.020200344,0.07303347,0.04541329,5.613399274179813,0.08834199763749594,-69.21495056152344,-75.93509674072266,90.533447265625,20427977.0,49930.0,0.20767785409647696,-0.22376531436500005,0.049669904644,0.009987450982397186,-0.00983568573190684,0.0029292010939765425,20.4279777900083
1639,C,183759982416186.0,4.20726421422946,6.600515,0.47884035,201,1970-01-03 03:02:39.982416186,0.0063519054,0.39687386,-0.06004789,6.7800441360826795,0.4014410997231876,-69.20188903808594,-75.95250701904297,90.51631927490234,20477908.0,49931.0,0.2011668168726912,-0.19340538174300007,0.030782807272175004,0.010207011633080769,-0.010414875013684278,0.002008542179343267,20.477908350003418
1639,C,183760032346746.0,4.276696114229461,7.1200566,-0.22984336,201,1970-01-03 03:02:40.032346746,-1.097262,0.5875562,-0.011045727,7.260927662709696,1.2447201263285648,-69.72950744628906,-76.04734802246094,90.96833038330078,20527838.0,49930.0,0.21180206959997697,-0.14677993000600006,0.006216209855350001,0.010309768250790162,-0.00849272630781379,0.0009236804625886618,20.527838909998536
1639,C,183760082277306.0,3.12029671422946,8.587702,-0.17956513,201,1970-01-03 03:02:40.082277306,-1.2197675,0.445876,0.12956917,8.963249080895928,1.3051537577031829,-70.41291046142578,-76.0006332397461,91.56780242919922,20577769.0,49931.0,0.1846696244588912,-0.09717175267170004,-0.010221087657095,0.009898114078026673,-0.006090375733890123,-9.998377675946478e-05,20.577769469993655
1639,C,183760132207866.0,4.01812231422946,13.593978,-0.5363012,201,1970-01-03 03:02:40.132207866,-0.3079011,0.24773683,0.11359021,13.705844164548546,0.4111926070924707,-70.85413360595703,-76.19376373291016,91.97879791259766,20627700.0,49931.0,0.17821420025499118,0.06445293203999997,-0.017871960861615,0.00905957612589443,-0.0008168417164807083,-0.0007013570027938546,20.627700029988773
1639,C,183760182138426.0,4.724411814229461,16.783054,-0.62488663,201,1970-01-03 03:02:40.182138426,-0.70204896,0.26052,0.055000667,16.82192333464949,0.7508451811176033,-70.84283447265625,-76.18687438964844,91.93102264404297,20677630.0,49930.0,0.21825736451697697,0.26904860387999996,-0.02898905417595,0.009897912614532186,0.008325865844242799,-0.0011698852404128102,20.677630590012996
1639,C,183760232068986.0,3.5967429142294605,15.935507,-0.37110126,201,1970-01-03 03:02:40.232068986,-1.0780873,-0.07503829,-0.08881003,16.07556103186152,1.0843385969410178,-71.2969741821289,-76.37112426757812,92.32035827636719,20727561.0,49931.0,0.20774178837334123,0.3275114346454999,-0.024865335667795002,0.01063528185148324,0.014893419641808368,-0.001344501769644016,20.727561150008114
1639,C,183760281999546.0,3.1322677142294606,10.54137,0.6584055,201,1970-01-03 03:02:40.281999546,0.5720073,-0.2902217,0.092284925,10.86516317374009,0.6480258434556724,-71.4394760131836,-76.3624496459961,92.49021911621094,20777491.0,49930.0,0.16798975033947697,0.17168123430499993,0.0071725503516,0.009380137863965505,0.012462344980349229,-0.00044170038541880825,20.777491710003233
1639,C,183760331930106.0,4.755536414229461,8.4225025,1.1348516,201,1970-01-03 03:02:40.331930106,1.7597772,-0.48623037,0.20626822,8.548892137828808,1.837330222070095,-70.90035247802734,-76.4909439086914,92.05787658691406,20827422.0,49931.0,0.1969229739690412,-0.015881241101250016,0.04476956013005,0.009110228618724311,0.0038896247303282184,0.001296760759229633,20.82742226999835
1639,C,183760381860666.0,5.3636636842294605,7.9747868,1.328782,201,1970-01-03 03:02:40.381860666,1.3208882,-0.26145956,0.010259561,8.090970713805325,1.3465556048699014,-70.8863754272461,-76.49467468261719,92.11141967773438,20877352.0,49930.0,0.252625830458027,-0.07995567262550002,0.06150461282399999,0.011222985902521758,-0.0023925685511883145,0.002653134727797858,20.87735282999347
1639,C,183760431791226.0,5.294231814229461,7.041048,0.8643068,201,1970-01-03 03:02:40.431791226,-0.09804401,0.055989232,-0.022763636,7.104452073910168,0.11517640869887556,-70.27398681640625,-76.6984634399414,91.51024627685547,20927283.0,49931.0,0.2660796900667762,-0.11444597630060004,0.054751558436400005,0.012949742672661977,-0.004853334366264552,0.0029023934436015163,20.927283389988588
1639,C,183760481721786.0,4.06600631422946,6.1336455,0.7134721,201,1970-01-03 03:02:40.481721786,-0.53480244,0.10605666,0.008129033,6.3827867277070025,0.5452776780116937,-70.1575927734375,-76.6282730102539,91.3698501586914,20977213.0,49930.0,0.23367834487697697,-0.16040777677250004,0.039389250238500005,0.012476459342370797,-0.006861723945469943,0.002350225288568879,20.97721395001281
1639,C,183760531652346.0,3.9654498142294603,7.3235636,0.32321724,201,1970-01-03 03:02:40.531652346,0.13737942,0.058119763,0.04647855,7.5288343800756055,0.15624105574660926,-70.37158966064453,-76.62820434570312,91.58428192138672,21027144.0,49931.0,0.20050931797504118,-0.15335784621395004,0.025881467717770005,0.01083971209693206,-0.007833315660668218,0.001629516109137259,21.02714451000793
1639,C,183760581582906.0,4.41077141422946,7.7233953,-0.031124622,201,1970-01-03 03:02:40.581582906,0.022330873,0.08155558,0.1380913,7.827270226354214,0.16192340057498955,-70.72779083251953,-76.7357406616211,91.93163299560547,21077075.0,49931.0,0.2091165510790912,-0.11366894758205004,0.007292238254679001,0.010226514633870941,-0.006666457420514041,0.0008281981564551758,21.077075070003048
1639,C,183760631513466.0,4.04206431422946,7.211036,-0.49081135,201,1970-01-03 03:02:40.631513466,-0.066086076,0.046401855,0.22011666,7.411286993025221,0.2344607549208916,-71.58623504638672,-76.78230285644531,92.76436614990234,21127005.0,49930.0,0.21102504396097696,-0.11647592259550005,-0.013030131540979999,0.010488834920175301,-0.005745566683982538,-0.0001432465058925044,21.127005629998166
1639,C,183760681444026.0,4.63343221422946,6.4353147,-0.82360536,201,1970-01-03 03:02:40.681444026,0.19916476,-0.046276152,0.45021376,6.571888681831368,0.49446993191004274,-71.61583709716797,-76.76166534423828,92.80500793457031,21176936.0,49931.0,0.2165881085812412,-0.14863583159915003,-0.032815070373505,0.010675576159792748,-0.006618647499346536,-0.0011445483883960753,21.176936189993285
1639,C,183760731374586.0,4.40598301422946,14.477438,-1.1013328,201,1970-01-03 03:02:40.731374586,0.2545585,-0.19328265,0.08589333,14.575173804306333,0.3309620474491923,-71.6478500366211,-76.76065063476562,92.85096740722656,21226866.0,49930.0,0.22566900117847696,0.032772871155499934,-0.0480560811644,0.011040948745151364,-0.002892518807475725,-0.0020189482981437983,21.226866749988403
1639,C,183760781305146.0,4.63582641422946,17.2595,-2.2601264,201,1970-01-03 03:02:40.781305146,-0.55078137,0.13055775,-0.30079764,17.438222939084053,0.6410028579138388,-71.62892150878906,-76.77288818359375,92.80323791503906,21276797.0,49931.0,0.22573329328619118,0.30300472563899994,-0.08392050965759999,0.011269483982457675,0.008382855592773087,-0.0032948615781666414,21.276797310012626
1639,C,183760831235706.0,2.8377810142294604,14.716859,-1.1875241,201,1970-01-03 03:02:40.831235706,-0.9332113,0.12523142,-0.38495353,15.03602356193514,1.0172293051531534,-72.4742202758789,-76.89313507080078,93.57814025878906,21326727.0,49930.0,0.18657860945147697,0.30897580243499995,-0.0860705947325,0.010293366651845886,0.015278093883367407,-0.004243827921098847,21.326727870007744
1639,C,183760881169996.0,2.7707432142294603,10.780791,-0.32321724,201,1970-01-03 03:02:40.881169996,-0.06715134,-0.34241965,-0.072831064,11.171460188052206,0.3564616151190619,-73.2120361328125,-76.8796615600586,94.2968978881836,21376662.0,49935.0,0.1400308286740481,0.14724957637499997,-0.03771943440645,0.008154621146399046,0.011390807145438673,-0.0030907275525267346,21.37666216000798
1639,C,183760931104286.0,2.9024243142294606,8.807969,1.1180922,201,1970-01-03 03:02:40.931104286,0.92674035,-0.41166186,-0.032351017,9.30337811975101,1.0145736797284446,-73.06781005859375,-76.74766540527344,94.20597076416016,21426596.0,49934.0,0.14164197368303386,-0.0002806290800000201,0.01984564312632,0.007032524856449264,0.003669373707114264,-0.00044625494689100575,21.42659645000822
1639,C,183760981038576.0,4.29584971422946,6.447286,1.091756,201,1970-01-03 03:02:40.981038576,1.0684205,-0.19328265,0.0017374463,6.684236920992639,1.0857640472639154,-72.4555892944336,-76.7236328125,93.6642074584961,21476530.0,49934.0,0.17971930766853386,-0.10847524841500003,0.05517328000939999,0.008023427111504592,-0.0027153079934176664,0.001872997453929521,21.476530740008457
1639,C,183761030972866.0,4.29824391422946,5.2094836,1.0726024,201,1970-01-03 03:02:41.030972866,0.28651646,0.050662912,0.11039442,5.49564937051436,0.3111998400873428,-71.75628662109375,-76.61195373535156,92.99751281738281,21526465.0,49935.0,0.21457303266854813,-0.19832260501200003,0.05403861835200001,0.009844494007366094,-0.007659975405438624,0.0027267480723382545,21.526465030008694
1639,C,183761080907156.0,4.391617814229461,6.1575875,0.22266077,201,1970-01-03 03:02:41.080907156,0.00741717,0.29247794,0.09654598,6.295145437831877,0.30809006159175745,-71.89315795898438,-76.6406021118164,93.12818145751953,21576399.0,49934.0,0.2169597777744339,-0.2055515358463,0.03233883556539,0.010774079678329933,-0.010083525674809177,0.0021565858919554764,21.57639932000893
1639,C,183761130841446.0,4.61667281422946,7.2637086,-0.44771573,201,1970-01-03 03:02:41.130841446,-0.6349373,0.55346775,-0.053656302,7.3549600545152956,0.8440088411655815,-72.454345703125,-76.79542541503906,93.63719177246094,21626333.0,49934.0,0.22490999212073387,-0.15426370027130004,-0.005618947186319999,0.011032162544972654,-0.00898350700014812,0.0006671154531602407,21.62633361000917
1639,C,183761180775736.0,4.32697431422946,6.930915,-1.0821792,201,1970-01-03 03:02:41.180775736,-1.5276289,0.54601085,0.013455355,7.144439282059694,1.622331332068486,-72.42070007324219,-76.78655242919922,93.52417755126953,21676267.0,49934.0,0.22329603785623386,-0.13495603257880004,-0.038196886717309995,0.011190359950434953,-0.0072209490700684475,-0.0010939499250719302,21.676267900009407
1639,C,183761230710026.0,4.015728114229461,8.458415,-1.2976574,201,1970-01-03 03:02:41.230710026,-1.0226935,0.20193046,0.118916534,8.717968591690509,1.0491992411723499,-72.43855285644531,-76.77788543701172,93.489990234375,21726202.0,49935.0,0.2082964228825481,-0.10512990322500003,-0.0594185703105,0.01077578476349554,-0.0059943456021813776,-0.002437213923341846,21.726202190009644
1639,C,183761280644316.0,4.89200596422946,14.659398,-1.1659763,201,1970-01-03 03:02:41.280644316,0.12459626,-0.014318219,-0.18894489,14.726863396030616,0.22678053456686192,-72.423095703125,-76.78710174560547,93.48050689697266,21776136.0,49934.0,0.22239939673688386,0.08782923717099997,-0.0615095425879,0.010753182528438357,-0.00043194572937021953,-0.0030192121947343526,21.776136480009882
1639,C,183761330578606.0,4.70046977422946,15.901988,-0.19632454,201,1970-01-03 03:02:41.330578606,-0.23333259,-0.1016699,-0.44460836,15.933420239872241,0.5123060217331119,-72.4267807006836,-76.80980682373047,93.4723129272461,21826070.0,49934.0,0.23949534176210382,0.2736729242619999,-0.03401256507228,0.011532125936104224,0.009025624464497707,-0.002384900461951714,21.82607077001012
1639,C,183761380512896.0,3.3860531142294605,15.65778,0.17477672,201,1970-01-03 03:02:41.380512896,-0.44425493,-0.4521419,-0.584158,15.826085527478089,0.8619949591087611,-72.71540832519531,-76.97021484375,93.73468780517578,21876005.0,49935.0,0.2019002602175981,0.29860550754000004,-0.0005379951958499998,0.011020544692428209,0.014288361746016436,-0.000862641113494536,21.876005060010357
1639,C,183761430447186.0,3.73321231422946,10.776003,1.1085154,201,1970-01-03 03:02:41.430447186,0.9075656,-0.35839862,-0.36471352,11.00664641648264,1.0417009363498022,-72.44259643554688,-77.03143310546875,93.5157241821289,21925939.0,49934.0,0.17774669995233386,0.170619060161,0.03203995436004,0.009478645654562691,0.01171512978179087,0.0007865094144523316,21.925939350010594
1639,C,183761480381476.0,5.105089914229461,9.131186,1.532289,201,1970-01-03 03:02:41.480381476,0.99278677,-0.34774598,-0.17509645,9.276774034093767,1.0664012397291163,-72.45349884033203,-77.04500579833984,93.57785034179688,21975873.0,49934.0,0.22066589173793388,0.007669587762999937,0.0659329634548,0.009947167176730914,0.0044513326727185065,0.00244608983908311,21.975873640010832
1639,C,183761530315766.0,5.10987831422946,7.3929954,1.0510546,201,1970-01-03 03:02:41.530315766,0.16933736,0.020835508,-0.18894489,7.489170190732637,0.25457696545936703,-71.71109771728516,-77.20903778076172,92.86148834228516,22025807.0,49934.0,0.2550371117599339,-0.07679396298620005,0.0644983396612,0.011876876888331264,-0.0017258282761976372,0.0032564783448971717,22.02580793001107
1639,C,183761580250056.0,4.7746900742294605,6.4185553,0.59136784,201,1970-01-03 03:02:41.580250056,-0.32707587,0.17742938,-0.2123807,6.509192728154109,0.42844529563986494,-71.39804077148438,-77.3043212890625,92.53759765625,22075742.0,49935.0,0.24679296123884809,-0.14452310789775002,0.0410071822707,0.012529442347597087,-0.005525733967295024,0.002634209118834713,22.075742220011307
1639,C,183761630184346.0,4.03488171422946,6.7130423,0.35913026,201,1970-01-03 03:02:41.630184346,-0.35477275,0.14121039,-0.16657433,6.921325780400436,0.41659463006796366,-71.54806518554688,-77.27709197998047,92.66458129882812,22125676.0,49934.0,0.2199485788424539,-0.16149660272080002,0.023731086062699996,0.011653136031209866,-0.007640394115013339,0.0016163203454799976,22.125676510011544
1639,C,183761680118636.0,4.070794714229461,7.6898766,0.05267244,201,1970-01-03 03:02:41.680118636,0.071333036,0.08581664,-0.00465414,7.856898021689175,0.11168956417233661,-71.90766143798828,-77.30982208251953,93.01793670654297,22175610.0,49934.0,0.20237442338933387,-0.12975552382370004,0.0102814780109,0.010544138396721045,-0.007271691843436533,0.0008491916872255711,22.175610800011782
1639,C,183761730052926.0,4.27909031422946,7.9221144,0.045489833,201,1970-01-03 03:02:41.730052926,0.050027747,0.066641875,0.18070187,8.045388876375693,0.19899015250737542,-72.22305297851562,-77.3758773803711,93.3280258178711,22225545.0,49935.0,0.2084757544480481,-0.09957061470750005,0.0024508665511275,0.010257901815154834,-0.005725700363777738,0.00031789481285242165,22.22554509001202
1639,C,183761779987216.0,4.585548114229461,6.6053033,-0.12689269,201,1970-01-03 03:02:41.779987216,-0.028801821,0.12310089,0.47258434,6.6967830151275445,0.48920275185749285,-72.67882537841797,-77.45015716552734,93.77173614501953,22275479.0,49934.0,0.22132342764333388,-0.12664716228410003,-0.0020323851307189997,0.010730796179275534,-0.005647979238149279,1.0448225623339023e-05,22.275479380012257
1639,C,183761829921506.0,5.34690426422946,8.693048,-0.7326257,201,1970-01-03 03:02:41.829921506,0.011678227,-0.146411,0.47791064,8.730273426053074,0.49997114089922545,-72.74149322509766,-77.42951965332031,93.83653259277344,22325413.0,49934.0,0.24798353853298388,-0.10739926309290006,-0.021459595643130002,0.011717187024524124,-0.005843437102387561,-0.000586524283980688,22.325413670012495
1639,C,183761879861906.0,6.239941514229461,15.906776,-1.7812861,201,1970-01-03 03:02:41.879861906,0.08624674,0.11883984,0.20200716,16.01594623230476,0.24973646194162116,-72.72518920898438,-77.41813659667969,93.82424926757812,22375354.0,49941.0,0.28932933251100845,0.12484810519199996,-0.0627736346019,0.013416971046404009,0.00043570631163557407,-0.0021033458758335215,22.37535407001269
1639,C,183761929802306.0,5.047629014229461,19.511847,-3.4213142,201,1970-01-03 03:02:41.929802306,-1.3689045,0.43309283,-0.00039308256,19.81966597316879,1.4357816979024207,-72.7009506225586,-77.41168975830078,93.72928619384766,22425294.0,49940.0,0.2818506360956193,0.39499101630999994,-0.129908929491,0.014262363816107492,0.01298038286390494,-0.0048112836253997125,22.425294470012886
1639,C,183761979742706.0,4.039670114229461,11.192594,-1.4030021,201,1970-01-03 03:02:41.979742706,-1.407254,-0.022840334,0.06991437,11.399020550923927,1.4091747657780878,-72.78082275390625,-77.40864562988281,93.73902893066406,22475234.0,49940.0,0.22690985923761925,0.27727789176999995,-0.12046317801099998,0.012703749568470965,0.0167865546347576,-0.00625179152432494,22.475234870013082
1639,C,183762029683106.0,3.4985805142294604,10.704177,0.29927522,201,1970-01-03 03:02:42.029683106,0.5954431,-0.6193884,-0.3167766,10.928560230479835,0.9157193291067575,-73.08043670654297,-77.46060943603516,94.06595611572266,22525175.0,49941.0,0.18823388731793347,0.057351520255499944,-0.02756061205704,0.01036634692336543,0.008355863732982746,-0.0036962280498939923,22.52517527001328
1639,C,183762079623506.0,3.9678440142294606,7.610868,1.1444284,201,1970-01-03 03:02:42.079623506,1.6596423,-0.61619264,-0.54687375,7.884865969326977,1.852883383264722,-72.59586334228516,-77.44581604003906,93.67863464355469,22575115.0,49940.0,0.18643662047561926,-0.03208532635000005,0.0360492793914,0.009355522579605011,0.0006308968618203324,0.00021196202333896919,22.57511566998437
1639,C,183762129563906.0,4.470626414229461,5.8271875,1.5753847,201,1970-01-03 03:02:42.129563906,0.9192835,-0.3594639,-0.24114284,6.1566053102769835,1.0160936561453011,-72.61076354980469,-77.46268463134766,93.74097442626953,22625056.0,49941.0,0.21071282583383347,-0.15386683513725002,0.06791509301355,0.009917020249070188,-0.004643318448417378,0.002596042361137804,22.625056069984566
1639,C,183762179504306.0,4.113890314229461,5.487211,1.0821792,201,1970-01-03 03:02:42.179504306,0.72647065,0.029357621,0.04860908,5.808399815917431,0.7286867076327443,-71.93799591064453,-77.3149642944336,93.1197509765625,22674996.0,49940.0,0.2143553827096193,-0.20689146945500003,0.066359370583,0.010613953167330015,-0.009008134865668484,0.003352833356005853,22.674996469984762
1639,C,183762229444706.0,5.67490989722946,6.140828,0.47405192,201,1970-01-03 03:02:42.229444706,0.12140046,0.47570342,0.18070187,6.159101813589528,0.5231491004574172,-71.843994140625,-77.29895782470703,93.02962493896484,22724936.0,49940.0,0.24442634128012922,-0.19905986617000002,0.038859091066399995,0.011455779648024019,-0.010136604850556251,0.0026273049873855175,22.72493686998496
1639,C,183762279385106.0,5.19128115422946,7.172729,-1.0630256,201,1970-01-03 03:02:42.279385106,-1.3156413,0.7867606,0.16685343,7.267614920624617,1.541993624850899,-71.7556381225586,-77.27872467041016,92.8716049194336,22774877.0,49941.0,0.27133422365045495,-0.15697562493150002,-0.01470696727644,0.012878799186599153,-0.008890384230550006,0.000603090607097196,22.774877269985154
1639,C,183762329325506.0,4.224023614229461,7.574955,-0.4381389,201,1970-01-03 03:02:42.329325506,-1.1228284,0.6280362,0.12956917,7.726298762691403,1.2930434076903563,-72.42643737792969,-77.34577178955078,93.46514892578125,22824817.0,49940.0,0.23510016006841924,-0.12116233052000001,-0.037484077564999996,0.012645666561460288,-0.006945104747623956,-0.0013032103896907566,22.82481766998535
1639,C,183762379265906.0,5.18409855422946,12.727277,-1.5586253,201,1970-01-03 03:02:42.379265906,-0.19285254,0.15399356,-0.07922265,12.831996960970926,0.2591955766963389,-72.39806365966797,-77.34721374511719,93.42618560791016,22874758.0,49941.0,0.23492551460750347,0.017535084155999966,-0.0498602004561,0.011736776109495127,-0.0025876241553322633,-0.0021810302943258775,22.874758069985546
1639,C,183762429206306.0,4.74117121422946,16.943466,-0.91219085,201,1970-01-03 03:02:42.429206306,-0.3984486,0.04107553,-0.2720355,16.99403006052253,0.48420222972120947,-72.39092254638672,-77.35953521728516,93.3984375,22924698.0,49940.0,0.24783398611841925,0.25146645271,-0.061696279265500004,0.01205450473312629,0.006716968375544019,-0.002785565298648352,22.924698469985742
1639,C,183762479146706.0,3.2471893142294603,18.391958,0.5506664,201,1970-01-03 03:02:42.479146706,-0.32707587,-0.4638598,-0.5213074,18.560508159042357,0.7706529336134762,-72.54710388183594,-77.51472473144531,93.53804016113281,22974638.0,49940.0,0.19946936239561924,0.39291353727999995,-0.0090272655165,0.011169164612395541,0.0160901683500503,-0.00176596691320654,22.974638869985938
1639,C,183762529087106.0,3.3477459142294603,9.878177,1.0271125,201,1970-01-03 03:02:42.529087106,0.6604243,-0.4638598,-0.0717658,10.201912684564,0.8102323741595185,-72.4276351928711,-77.4775390625,93.45819854736328,23024579.0,49941.0,0.16467883012223347,0.21649760601749996,0.039397928022450006,0.00909296244126704,0.015217300953710221,0.0007583706281048245,23.024579269986134
1639,C,183762579027506.0,5.516892584229461,8.599673,1.3120226,201,1970-01-03 03:02:42.579027506,1.5605727,-0.5054051,0.1679187,8.700736944727138,1.648944558467928,-72.46949005126953,-77.4771499633789,93.58100128173828,23074519.0,49940.0,0.22135002330651926,-0.02802008550000003,0.058408203447,0.009639140470115954,0.004706283687321972,0.0024422191027921665,23.07451966998633
1639,C,183762628967906.0,6.132202434229461,7.536648,0.79966336,201,1970-01-03 03:02:42.628967906,0.9491109,-0.14321521,-0.13994272,7.592351256995452,0.9700031246110254,-72.44328308105469,-77.48597717285156,93.60277557373047,23124460.0,49941.0,0.29088372715842853,-0.08648979646950006,0.05272985426418,0.012790732865984979,-0.002859369007719402,0.0027751728700770198,23.124460069986526
1639,C,183762678908306.0,5.703640318229461,6.804022,-0.074220255,201,1970-01-03 03:02:42.678908306,-0.2951179,0.040010266,-0.14420378,6.80446332450478,0.330892922940472,-72.43962860107422,-77.49223327636719,93.58390808105469,23174400.0,49940.0,0.29554099352889923,-0.13132547010000004,0.018114314331850002,0.014643025275562573,-0.005438847206240417,0.0017689788898428691,23.174400469986722
1639,C,183762728848706.0,4.95664941422946,6.6172743,-0.56982,201,1970-01-03 03:02:42.728848706,-0.3377285,-0.10486569,-0.117572166,6.681182282495105,0.37266683092188074,-72.47105407714844,-77.4994125366211,93.59880065917969,23224340.0,49940.0,0.26618743461949923,-0.15428223138900005,-0.016081685167349997,0.014026358850865511,-0.007131624306180331,5.075475023756512e-05,23.224340869986918
1639,C,183762778789106.0,5.48097956422946,7.0123177,-0.9959879,201,1970-01-03 03:02:42.778789106,0.3269965,-0.19541317,-0.16337854,7.085530146412634,0.4144943490015642,-72.48567199707031,-77.51017761230469,93.63053131103516,23274281.0,49941.0,0.26063281440660846,-0.14908407296400003,-0.03909900616695,0.013154965028306423,-0.007575208302846588,-0.001377889452963138,23.274281269987114
1639,C,183762828729506.0,5.543228804229461,7.014712,-0.8858546,201,1970-01-03 03:02:42.828729506,0.13098784,-0.275308,-0.102658466,7.071774792043913,0.3217002793491774,-72.53146362304688,-77.51921081542969,93.68412780761719,23324221.0,49940.0,0.2752744829604193,-0.13915706839100003,-0.046989607225,0.013381605215254683,-0.007197381299634351,-0.0021496326763969916,23.32422166998731
1639,C,183762878669906.0,5.136214514229461,6.6891003,-0.6727707,201,1970-01-03 03:02:42.878669906,0.10329097,-0.34987652,0.020912206,6.744912878391137,0.3654037822609911,-72.60307312011719,-77.52342224121094,93.76276397705078,23374162.0,49941.0,0.2666710393835785,-0.14723075496285004,-0.03891965305365,0.013532650665690794,-0.007151247143057313,-0.00214519718378803,23.374162069987506
1639,C,183762928614946.0,5.117060884229461,12.406454,-0.37588966,201,1970-01-03 03:02:42.928614946,0.19064265,-0.51712304,0.0155858835,12.42496719029807,0.5513653763724555,-72.70620727539062,-77.53040313720703,93.87814331054688,23424107.0,49945.0,0.25604991988801545,-0.012597270243250039,-0.0261876708401,0.013053649155409882,-0.003991305359459334,-0.0016258926459366719,23.42410711001139
1639,C,183762978559986.0,5.93827207422946,17.374422,-3.1794999,201,1970-01-03 03:02:42.978559986,-0.5134971,0.009117599,-0.049395245,17.664817330559707,0.5159479552712123,-72.72654724121094,-77.53260040283203,93.8726806640625,23474052.0,49945.0,0.2760793023051154,0.25424192590999994,-0.0887869657871,0.01328859700121796,0.006034471163637913,-0.0028712041131727524,23.474052150006173
1639,C,183763028505026.0,4.18811061422946,15.717635,-3.0119057,201,1970-01-03 03:02:43.028505026,-0.84799016,0.2839558,-0.062178418,16.073125794994986,0.8964286717165222,-72.7034912109375,-77.53138732910156,93.80564880371094,23523997.0,49945.0,0.2528810916875404,0.3369303934325,-0.154614876346,0.013209463438981599,0.01476305074478058,-0.00607835250266884,23.523997190000955
1639,C,183763078450066.0,3.7787022142294604,12.7296715,-1.5658079,201,1970-01-03 03:02:43.078450066,0.009547698,-0.44788083,-0.022763636,12.965968449688093,0.44856056396269234,-72.79822540283203,-77.53910064697266,93.90316009521484,23573942.0,49945.0,0.1989512333586904,0.22093936157124996,-0.11431695287600001,0.011283382737217,0.013931402456831145,-0.006715900105246395,23.573942229995737
1639,C,183763128395106.0,3.6278675142294605,9.13358,0.6344634,201,1970-01-03 03:02:43.128395106,1.1419238,-0.57571256,-0.15166064,9.383048246197918,1.287802728088974,-72.85627746582031,-77.53536224365234,94.02104949951172,23623887.0,49945.0,0.18496056254394042,0.05651904808374998,-0.023258000526250003,0.009587237323178448,0.006928830135109487,-0.0034355905238376886,23.62388726999052
1639,C,183763178340146.0,5.02608124422946,6.104915,0.4381389,201,1970-01-03 03:02:43.178340146,1.4029136,-0.40953133,-0.085614234,6.155592785737539,1.4639714055882156,-72.62349700927734,-77.68036651611328,93.86612701416016,23673832.0,49945.0,0.2161107353706154,-0.10891768361250004,0.02678556093675,0.010015752987171245,-0.0013085249257417109,8.80920023512112e-05,23.6738323099853
1639,C,183763228285186.0,4.420348214229461,4.8527474,0.33997664,201,1970-01-03 03:02:43.228285186,1.1504459,-0.12936677,0.030499585,5.025420639923355,1.1580983355018757,-72.66557312011719,-77.6125717163086,93.96484375,23723777.0,49945.0,0.23590095965136543,-0.21582077571600006,0.01943149032265,0.011287862053936417,-0.00810953117558097,0.0011541553125753664,23.723777350009186
1639,C,183763278230226.0,4.95186101422946,5.3866544,-0.5243302,201,1970-01-03 03:02:43.278230226,1.1110312,0.12736195,0.03582591,5.461054263477913,1.1188810881897013,-72.5848159790039,-77.60899353027344,93.93903350830078,23773722.0,49945.0,0.23404749495769042,-0.23375753854950007,-0.0046037692771,0.011735787782724648,-0.011227094452995202,0.0003702852638099974,23.773722390003968
1639,C,183763328175266.0,4.62385541422946,6.892607,-1.7190368,201,1970-01-03 03:02:43.328175266,0.22047006,0.3627854,-0.05259104,7.1820193225740105,0.42776875914195184,-72.49146270751953,-77.60604095458984,93.85474395751953,23823667.0,49945.0,0.23912957850969044,-0.18281714468850005,-0.056022482407500004,0.01181641446716417,-0.010402911277160958,-0.0015139890701936739,23.82366742999875
1639,C,183763378120306.0,3.5536471142294603,7.038654,-1.8602947,201,1970-01-03 03:02:43.378120306,0.13737942,0.28608635,-0.054721568,7.584882456403127,0.3220449575761706,-72.41876983642578,-77.6043472290039,93.787353515625,23873612.0,49945.0,0.2042126818919404,-0.14156258467750005,-0.08938485588375002,0.011071364597879727,-0.00810057279159244,-0.0036311847554782416,23.87361246999353
1639,C,183763428065346.0,3.5680125142294603,7.565378,-1.1899183,201,1970-01-03 03:02:43.428065346,0.5400494,-0.03136245,0.09548072,7.94462215215111,0.5493209677429771,-72.40514373779297,-77.60027313232422,93.8010482788086,23923557.0,49945.0,0.1778456450716904,-0.12476181088000005,-0.07617144414250002,0.00954095157009927,-0.006650785968059672,-0.004134354702405529,23.923557509988314
1639,C,183763478010386.0,3.77391381422946,13.352163,-1.3192052,201,1970-01-03 03:02:43.478010386,0.5752031,-0.2838301,-0.08028791,13.552079185520068,0.6464242263465905,-72.432373046875,-77.60836791992188,93.85836791992188,23973502.0,49945.0,0.18334625523744041,0.03290229262249997,-0.06265908660375001,0.00901986473046977,-0.002293961819685421,-0.0034669454290607287,23.9735025500122
1639,C,183763527955426.0,2.9862213142294602,17.039234,0.06943185,201,1970-01-03 03:02:43.527955426,-0.8170975,0.10605666,-0.0717658,17.25120297468207,0.8270711394349616,-72.73666381835938,-77.70362854003906,94.11441040039062,24023447.0,49945.0,0.16881747449544038,0.2694881615825,-0.031209964982875003,0.008794408740754366,0.0075514456176343624,-0.0023441448907469934,24.02344759000698
1639,C,183763577900466.0,1.7125061142294604,16.270695,-0.6512229,201,1970-01-03 03:02:43.577900466,-1.0823483,-0.0057961037,0.34475258,16.76040822015647,1.1359426828619688,-73.53636932373047,-77.68193817138672,94.84400177001953,24073392.0,49945.0,0.1173389707071904,0.3423712019525,-0.014528776996125004,0.007146041827822698,0.015279657955877789,-0.0011422107340705778,24.073392630001763
1639,C,183763627845506.0,1.60476731422946,11.127951,-0.7757214,201,1970-01-03 03:02:43.627845506,1.8652383,0.32443586,0.6387656,11.876511153775251,1.9980976039183345,-73.41353607177734,-77.64672088623047,94.81372833251953,24123337.0,49945.0,0.0828406106921904,0.19475168723499997,-0.035634366531750006,0.004998984596496037,0.013413301350234844,-0.0012526991017498587,24.123337669996545
1639,C,183763677790546.0,4.38204101422946,8.44405,-0.1436521,201,1970-01-03 03:02:43.677790546,2.9241111,0.3713075,0.5940245,8.544636059758503,3.0068521897991114,-73.6249008178711,-77.7184066772461,95.16106414794922,24173282.0,49945.0,0.1495055709824404,-0.0006992050275000304,-0.022959054728750004,0.005802265021869718,0.004845975611926792,-0.0014632242124278366,24.173282709991327
1639,C,183763727735586.0,4.0755831142294605,8.65474,-0.36870706,201,1970-01-03 03:02:43.727735586,2.3371506,0.5321624,0.11359021,8.810161087921111,2.3996609099749833,-74.01658630371094,-77.77616882324219,95.65291595458984,24223227.0,49945.0,0.2112080185479404,-0.06246146672500001,-0.0127948891231,0.009007920114547435,-0.0015772798753393073,-0.0008928653628403243,24.22322774998611
1639,C,183763777680626.0,3.6111081142294603,8.290821,-0.93373865,201,1970-01-03 03:02:43.777680626,2.097466,0.71964896,-0.26883972,8.596246776607524,2.2337262683316323,-74.89096069335938,-77.78797149658203,96.60189056396484,24273172.0,49945.0,0.19195589670269042,-0.06628797792750005,-0.032525325492975,0.01006801087359638,-0.0032151955065845574,-0.001131759059499933,24.273172790009994
1639,C,183763827625666.0,3.1322677142294606,8.74572,-0.9504981,201,1970-01-03 03:02:43.827625666,1.7906698,0.71751845,-0.31997243,9.159086006211055,1.9554317719323648,-74.62200927734375,-77.79397583007812,96.41830444335938,24323117.0,49945.0,0.16839895287619042,-0.06401597987750005,-0.047054102239375,0.008998961481108602,-0.003254015586285365,-0.0019872972590461104,24.323117830004776
1639,C,183763877570706.0,2.9239722142294604,8.2237835,-0.46208093,201,1970-01-03 03:02:43.877570706,1.5669643,0.482095,0.011324826,8.686036768204492,1.6394880170905246,-75.34675598144531,-77.66390228271484,97.19819641113281,24373062.0,49945.0,0.1512394516134404,-0.06569007384625004,-0.035275629826675,0.007982170056117305,-0.0032390844266163496,-0.002055979234019434,24.373062869999558
1639,C,183763927515746.0,3.5153399142294606,7.0793552,-0.45489833,201,1970-01-03 03:02:43.927515746,1.6521854,0.42989704,0.4342348,7.417262136342708,1.7615583789658977,-76.08055114746094,-77.55481719970703,97.9923324584961,24423007.0,49945.0,0.16080572212794042,-0.10730336881425005,-0.02289926457035,0.007792548101256634,-0.004320078746839339,-0.001452772550329707,24.42300790999434
1639,C,183763977461986.0,4.76750747422946,6.200683,-0.38067806,201,1970-01-03 03:02:43.977461986,1.5531158,0.4011349,0.6408961,6.279210397971671,1.7273753810920371,-76.57730102539062,-77.64602661132812,98.55079650878906,24472954.0,49947.0,0.20685168925567884,-0.15783156601230003,-0.020867266975665,0.009181692363188816,-0.006621347294890848,-0.0010930034755644055,24.47295414999826
1639,C,183764027408226.0,4.312609114229461,6.504747,-0.20829555,201,1970-01-03 03:02:44.027408226,0.9256751,0.2701074,0.6462224,6.650455369211784,1.1607910184682382,-77.02896118164062,-77.64090728759766,99.03599548339844,24522900.0,49946.0,0.22675775156358463,-0.17217809661000003,-0.01470843796253,0.010828528565579466,-0.008241331304666697,-0.0008884320794215436,24.522900390002178
1639,C,183764077354466.0,3.30465011422946,16.134226,-0.90021986,201,1970-01-03 03:02:44.077354466,0.8361929,-0.038819302,0.22331245,16.333166249558843,0.8663682557337726,-77.59030151367188,-77.75153350830078,99.626220703125,24572846.0,49946.0,0.19022581471230463,0.07589227272900001,-0.027682955333929997,0.010413330600607782,-0.002404545879780213,-0.0010586402647924955,24.572846630006097
1639,C,183764127300706.0,2.8880592142294605,18.952202,-0.82360536,201,1970-01-03 03:02:44.127300706,0.7850602,0.036814738,-0.007849934,19.174637625981532,0.7859621263278869,-78.04127502441406,-77.86524963378906,100.10498046875,24622792.0,49946.0,0.15465053005960464,0.38674256644399996,-0.04304908721906,0.00861259695798889,0.011553379838667327,-0.001766391298675819,24.622792870010016
1639,C,183764177246946.0,3.2926791142294602,13.186964,-1.8579005,201,1970-01-03 03:02:44.177246946,0.12566152,-0.11551807,0.30746832,13.529727833289451,0.3516703142274845,-78.07610321044922,-77.85144805908203,100.14703369140625,24672739.0,49947.0,0.15435466864576886,0.31314686210099996,-0.06696658659470998,0.007716941329868644,0.017478688643768555,-0.0027474764299881844,24.672739109984832
1639,C,183764227193186.0,1.1307153142294606,12.277167,-0.82121116,201,1970-01-03 03:02:44.227193186,1.1824038,-0.52671015,0.30107674,13.11912503221303,1.3289655871152155,-78.1510238647461,-77.84210205078125,100.28414916992188,24722685.0,49946.0,0.11046542906190462,0.14644494346299997,-0.06690545548518,0.006613352300053729,0.011477386160349769,-0.0033431865068610923,24.72268534998875
1639,C,183764277139426.0,2.4594970142294605,7.5318594,-0.6751649,201,1970-01-03 03:02:44.277139426,2.5672476,-0.78343886,0.5024117,8.219796450525868,2.730742427136025,-78.22443389892578,-77.82559204101562,100.49055480957031,24772631.0,49946.0,0.08965837247860463,0.0052200162871999765,-0.03736899934638,0.004997691695871137,0.003787529039841743,-0.002604045960508548,24.77263158999267
1639,C,183764327085666.0,2.21528841422946,7.1894884,-0.0023942017,201,1970-01-03 03:02:44.327085666,2.387218,-1.0678644,0.80494684,7.981371604421207,2.736253564919988,-78.38481903076172,-77.79691314697266,100.7767562866211,24822577.0,49946.0,0.11674341650490462,-0.12183458139060002,-0.016920683446754098,0.005154471876285176,-0.002912215534327209,-0.0013557762483929377,24.82257782999659
1639,C,183764377031906.0,2.2033174142294603,7.160758,-0.6727707,201,1970-01-03 03:02:44.377031906,3.2511473,-1.0007528,0.88803744,7.98910174340433,3.515689893583745,-78.48978424072266,-77.76351928710938,101.05048370361328,24872524.0,49947.0,0.11034805265701884,-0.1311047215296,-0.016861230672604952,0.005671268805115296,-0.006316779681477616,-0.0008436526322598132,24.87252407000051
1639,C,183764426978146.0,2.2248653142294605,8.98514,-0.30406362,201,1970-01-03 03:02:44.426978146,2.8559341,-0.87398636,0.7186604,9.631845232459277,3.0719187019739014,-79.25503540039062,-77.5354995727539,101.94817352294922,24922470.0,49946.0,0.11058500727780464,-0.08625928924600003,-0.02439448347336,0.005517361305752346,-0.0054282314410990596,-0.0010302789493671827,24.922470310004428
1639,C,183764476924386.0,1.9279843142294606,9.655517,-0.11971009,201,1970-01-03 03:02:44.476924386,2.077226,-0.5607986,0.4640622,10.36006999650759,2.201071704944389,-79.80814361572266,-77.31053924560547,102.59630584716797,24972416.0,49946.0,0.10370911377150463,-0.023957672739000055,-0.010582900859829998,0.005351567084964401,-0.0027524481916514068,-0.0008734902189527537,24.972416550008347
1639,C,183764526870626.0,1.28633831422946,9.950003,-0.40222588,201,1970-01-03 03:02:44.526870626,1.3347367,-0.20713082,0.44701797,10.88487129453476,1.422761505110285,-79.80424499511719,-77.2904281616211,102.66071319580078,25022362.0,49946.0,0.08027127900050463,0.00013785095999997152,-0.01303430697881,0.004594542348695387,-0.0005948524092869691,-0.0005897925313543567,25.022362790012266
1639,C,183764576816866.0,0.6231443142294602,9.964368,-0.16280572,201,1970-01-03 03:02:44.576816866,1.4327409,-0.11125702,0.6707235,11.175890236660734,1.5858734579039844,-79.78311920166016,-77.25835418701172,102.71249389648438,25072309.0,49947.0,0.04768646442181884,0.007850944168499987,-0.0141108166626,0.003195552705357395,0.0001995081751415937,-0.0006779087452587527,25.072309029987082
1639,C,183764626763106.0,-0.40636228577053934,10.39293,-0.40222588,201,1970-01-03 03:02:44.626763106,1.3464545,-0.19328238,1.2342484,12.051346451377345,1.836754450625144,-79.80599975585938,-77.19935607910156,102.80499267578125,25122255.0,49946.0,0.005413697596704629,0.018912002953999967,-0.014110534146799998,0.0013260703460885865,0.0006683510784901913,-0.0007047717937631461,25.122255269991
1639,C,183764676709346.0,-0.8468953857705399,11.760019,0.10295067,201,1970-01-03 03:02:44.676709346,1.9611121,-0.2550677,1.6987036,13.450894368088337,2.607031668584534,-79.82886505126953,-77.11799621582031,102.92900848388672,25172201.0,49946.0,-0.03129760383139537,0.06375479537699995,-0.00747379981933,-0.0006463987903989318,0.0020644379547200605,-0.0005390255721361645,25.17220150999492
1639,C,183764726655586.0,-0.40157368577053987,10.948385,0.15322891,201,1970-01-03 03:02:44.726655586,1.9025226,-0.37331206,2.1972475,12.525673818274559,2.9303328674245277,-79.8979263305664,-77.01311492919922,103.09747314453125,25222147.0,49946.0,-0.031178018123595382,0.07762617309199996,0.006397572651339999,-0.001560203707081984,0.003530706925576334,-2.6876621066214297e-05,25.22214774999884
1639,C,183764776601826.0,0.1706403142294608,10.634745,0.0023942017,201,1970-01-03 03:02:44.776601826,1.6756213,-0.32963622,2.6489196,11.97771537159081,3.151688726034622,-79.9839859008789,-76.88557434082031,103.27181243896484,25272093.0,49946.0,-0.005767099087495367,0.04952470548999997,0.0038863759684840994,-0.0009226304121125692,0.0031753388908282837,0.0002568210488828672,25.27209399000276
1639,C,183764826548066.0,1.2432423142294606,9.782409,0.36870706,201,1970-01-03 03:02:44.826548066,1.2750819,-0.22417505,2.5146961,10.748405467871914,2.8283890786285615,-80.06048583984375,-76.76372528076172,103.41586303710938,25322040.0,49947.0,0.035309597821818875,0.020407195418999966,0.009267697359064948,0.0007377795921416281,0.0017464443273509098,0.00032850325024554614,25.322040230006678
1639,C,183764876494306.0,1.1929643142294601,7.673117,0.8403648,201,1970-01-03 03:02:44.876494306,0.7637549,-0.2433498,2.038523,8.92908128068997,2.1904603840204575,-80.1472396850586,-76.66542053222656,103.54423522949219,25371986.0,49946.0,0.060839388132504627,-0.05355394920200004,0.030194151559779996,0.002401128626237321,-0.0008277738822228607,0.0009854807530503148,25.371986470010597
1639,C,183764926440546.0,0.18739971422946056,6.878242,1.1540052,201,1970-01-03 03:02:44.926440546,0.6220747,-0.46172902,1.7626195,8.878365180598296,1.9253566220496658,-80.27482604980469,-76.58248138427734,103.70735168457031,25421932.0,49946.0,0.03447183088270463,-0.126079711693,0.04980540201,0.0023802070724668204,-0.004485991413530836,0.001997828851298116,25.421932709985413
1639,C,183764976384606.0,0.4459733142294606,5.7170544,1.7980455,201,1970-01-03 03:02:44.976384606,0.8063655,-0.590626,1.6252004,7.95781302496299,1.9079676966936339,-80.41315460205078,-76.50732421875,103.89104461669922,25471876.0,49944.0,0.01581659126667618,-0.17492145829920003,0.07371861008040001,0.0012558024779143375,-0.00751660121704522,0.003084641629921469,25.471876769996015
1639,C,183765026328666.0,-0.04244398577053943,4.618116,1.7381904,201,1970-01-03 03:02:45.026328666,0.80103916,-0.78343886,1.2278568,7.557119408830658,1.6622492305661765,-80.57596588134766,-76.45323944091797,104.09969329833984,25521820.0,49944.0,0.01007693439027618,-0.23136132477120006,0.0883068828948,0.0006466131227054144,-0.010145693658834032,0.0040461006105766955,25.521820830006618
1639,C,183765076272726.0,0.06290131422946033,4.3763013,2.3175871,201,1970-01-03 03:02:45.076272726,0.26308063,-1.0486897,0.89762485,7.48933406777379,1.4052373024172142,-80.80732727050781,-76.41741180419922,104.3512191772461,25571764.0,49944.0,0.0005108604062761727,-0.2648426111844001,0.10128087573,0.00026439841165950536,-0.012391204688683249,0.004734385508378506,25.571764889988117
1639,C,183765126216786.0,-2.965763685770539,4.4529157,2.7246015,201,1970-01-03 03:02:45.126216786,0.21833953,-1.1743909,0.8305132,10.10071226838844,1.4548602378708653,-81.063232421875,-76.38570404052734,104.625732421875,25621708.0,49944.0,-0.07249027914212382,-0.26896799307600006,0.1259135337192,-0.0017974700446715876,-0.013330318409590713,0.005673498792765423,25.62170894999872
1639,C,183765176160846.0,-4.3256706857705405,3.954922,2.882619,201,1970-01-03 03:02:45.176160846,0.2012953,-1.1786519,1.0819156,11.1396251972618,1.6125388257958506,-81.32734680175781,-76.34124755859375,104.90786743164062,25671653.0,49945.0,-0.18208534484330963,-0.27949627303675006,0.14002631393625,-0.006357389769976237,-0.013696523885500654,0.006641182845575725,25.671653010009322
1639,C,183765226104906.0,-5.577837685770539,4.2589855,3.4500446,201,1970-01-03 03:02:45.226104906,0.24497114,-1.2042183,1.3482317,12.522417679518735,1.8242481438589102,-81.60067749023438,-76.28351593017578,105.2017822265625,25721597.0,49944.0,-0.24731041105412385,-0.28433350191000006,0.1581392754192,-0.01072287081627071,-0.014079957139970244,0.007445791097384298,25.72159706999082
1639,C,183765276048966.0,-5.898661685770539,3.9453452,2.80361,201,1970-01-03 03:02:45.276048966,0.32486597,-0.94322854,1.2353137,12.550797454317356,1.5878343473241354,-81.81166076660156,-76.22919464111328,105.43571472167969,25771541.0,49944.0,-0.2865911423061238,-0.28457265375960006,0.1561662626712,-0.013332589590512107,-0.014206724519381255,0.00784883789719347,25.771541130001424
1639,C,183765325993026.0,-4.31609368577054,5.8295817,1.7956513,201,1970-01-03 03:02:45.325993026,-0.19072202,-0.5842344,0.44701797,11.711411228029293,0.7599538068587861,-81.9520034790039,-76.21121978759766,105.57039642333984,25821485.0,49944.0,-0.25508287113812383,-0.24535172545320003,0.11485275318360001,-0.013526683463729754,-0.013233271597702045,0.006767886863926067,25.821485190012027
1639,C,183765375937086.0,-3.05195468577054,5.618892,0.9744401,201,1970-01-03 03:02:45.375937086,-0.3164232,-0.08036435,-0.6512697,10.430339986767114,0.7285151284546206,-81.96546936035156,-76.24402618408203,105.5679702758789,25871429.0,49944.0,-0.18399490393412388,-0.20355991476360003,0.0691747224408,-0.01096465019910417,-0.011210221479493932,0.004595534121292518,25.871429249993525
1639,C,183765425881146.0,0.9176309142294601,3.1121628,0.4405331,201,1970-01-03 03:02:45.425881146,-0.9427987,-0.49049115,-0.7428824,5.70724031938721,1.2966592525331289,-82.0908432006836,-76.28414916992188,105.64851379394531,25921373.0,49944.0,-0.053298333222923856,-0.2714192995344001,0.0353347107504,-0.005925686718285796,-0.01186118093944966,0.0026098095656506464,25.921373310004128
1639,C,183765475825206.0,0.9008715142294603,3.3803136,0.19153613,201,1970-01-03 03:02:45.475825206,-0.03625867,-1.2521552,-1.1178554,5.857996783455943,1.6789306213618145,-82.31626892089844,-76.34803009033203,105.87865447998047,25971317.0,49944.0,0.04541164264347616,-0.3273210793392,0.015784032811560003,-0.0001969464371499678,-0.014951744741231543,0.001276537264229265,25.971317369985627
1639,C,183765525769266.0,3.0676241142294605,4.407426,0.44532153,201,1970-01-03 03:02:45.525769266,1.7320802,-1.7176758,-1.7623404,5.143466583389609,3.009377952104029,-82.5335464477539,-76.44676971435547,106.1913070678711,26021261.0,49944.0,0.09910127283387618,-0.29497576670880005,0.015903609485520002,0.003608776525300443,-0.015539996839510658,0.0007913038034426818,26.02126142999623
1639,C,183765575713326.0,3.8074326142294606,6.3850365,0.36631286,201,1970-01-03 03:02:45.575713326,0.8766729,-1.7805264,-2.3258653,6.664414548715477,3.057528254723979,-82.68405151367188,-76.49697875976562,106.39739227294922,26071205.0,49944.0,0.17168391662307617,-0.21994182645000007,0.020268133987080002,0.006762047751119014,-0.012858522136361558,0.0009032807779977675,26.071205490006832
1639,C,183765625657386.0,2.9718561142294604,7.30441,-0.06703765,201,1970-01-03 03:02:45.625657386,1.4636337,-1.472665,-2.759428,7.791034963376609,3.453318505030298,-83.16517639160156,-76.47734832763672,106.94931030273438,26121149.0,49944.0,0.1692923981270762,-0.14759834200200003,0.007473500544120001,0.008514860531940805,-0.009178213086583347,0.0006927640975131265,26.12114954998833
1639,C,183765675601446.0,4.21444681422946,9.590873,0.11252748,201,1970-01-03 03:02:45.675601446,1.2740166,-1.3373764,-2.9234786,9.70305599341725,3.4580950040463723,-83.34930419921875,-76.75045776367188,107.20182800292969,26171093.0,49944.0,0.17945635672947619,-0.06754219292400004,0.0011359720347599998,0.008708953906277826,-0.005372489438172074,0.0002149957492397914,26.171093609998934
1639,C,183765725545506.0,4.48020321422946,14.2978735,-0.7015011,201,1970-01-03 03:02:45.725545506,-0.24078944,-1.0231234,-2.960763,14.365376095230248,3.141795440223961,-83.8825912475586,-77.1216812133789,107.71731567382812,26221037.0,49944.0,0.21712280051067614,0.10709857759799997,-0.01470784923864,0.009903374714601084,0.000987802038079126,-0.0003389169175352914,26.221037670009537
1639,C,183765775489566.0,3.5105515142294603,17.158945,-1.3335704,201,1970-01-03 03:02:45.775489566,-1.6053929,-0.48409957,-2.7189481,17.347050034669092,3.194419748176217,-84.59667205810547,-77.41206359863281,108.33771514892578,26270981.0,49944.0,0.19954512707907618,0.29608847158199997,-0.050819805498,0.010405031487771296,0.010068386992122959,-0.0016363565940833743,26.270981729991036
1639,C,183765825433626.0,2.5361113142294602,16.771084,-1.0486604,201,1970-01-03 03:02:45.825433626,-1.6330898,-0.12190966,-2.3471708,17.095655523959095,2.862001926001797,-85.17863464355469,-77.58721923828125,108.82511138916016,26320925.0,49944.0,0.15099726415227618,0.35784948418799994,-0.0594890675376,0.00875374459382933,0.01633013863148844,-0.0027546331774450034,26.32092579000164
1639,C,183765875377686.0,2.8449636142294605,17.328932,-1.7046716,201,1970-01-03 03:02:45.875377686,-1.2389419,0.1454717,-1.9828504,17.642075983279376,2.3426128053642707,-85.91188049316406,-77.77420806884766,109.47762298583984,26370869.0,49944.0,0.13437620311347617,0.3620943995519999,-0.068756206704,0.007126346224560368,0.017978438664755278,-0.003202540988361235,26.37086985001224
1639,C,183765925321746.0,1.7364481142294603,10.855011,0.16519992,201,1970-01-03 03:02:45.925321746,-1.0482596,0.13481906,-1.433174,11.550790486043084,1.7807335797944182,-85.97749328613281,-77.6519546508789,109.48799896240234,26420813.0,49944.0,0.11440701368307618,0.21435822459599987,-0.03844368679296,0.006212614489843506,0.014395174930223851,-0.002676995740406085,26.42081390999374
1639,C,183765975265806.0,0.77397901422946,9.322722,2.1930888,201,1970-01-03 03:02:45.975265806,-0.17048173,-0.3392236,-0.7663185,10.761274002719823,0.8552079948778559,-86.05128479003906,-77.69136047363281,109.5548095703125,26470757.0,49944.0,0.06269038625187616,0.014427148475999962,0.05889118591584,0.0044224762711756295,0.00571322833635398,0.0005106149480965593,26.470757970004342
1639,C,183766025212706.0,2.0309348142294605,7.9963346,1.9680338,201,1970-01-03 03:02:46.025212706,0.79145205,-0.12723598,0.070979364,9.007775174303022,0.8047505279088715,-86.0418930053711,-77.68826293945312,109.58570861816406,26520704.0,49947.0,0.07004851549501885,-0.05696313999990002,0.1039177952511,0.0033149549627760825,-0.001062272584322118,0.004065910091172575,26.520704869995825
1639,C,183766075159606.0,3.2424009142294605,6.5933323,2.552219,201,1970-01-03 03:02:46.075159606,-0.044780523,0.38089514,0.8102729,7.478923555605302,0.8964533314067069,-85.97016906738281,-77.6465072631836,109.50999450683594,26570651.0,49947.0,0.13169364981466886,-0.12512555367285003,0.1128865333008,0.0050382079653614855,-0.004547391991436423,0.0054143628990908745,26.570651769987307
1639,C,183766125106506.0,2.8617230142294603,4.6612115,2.348712,201,1970-01-03 03:02:46.125106506,-0.92681944,0.50020474,1.3982989,5.932419825171676,1.7505538752125256,-85.92545318603516,-77.57500457763672,109.41676330566406,26620598.0,49947.0,0.15244133892736886,-0.20841525041070003,0.12239340032849999,0.007095845141349278,-0.008329681270780537,0.005875763422491323,26.620598670007894
1639,C,183766175053406.0,2.9838271142294603,4.917391,1.9752164,201,1970-01-03 03:02:46.175053406,-0.4527768,0.51192266,1.765815,5.946327700186544,1.8934556384200596,-85.86122131347656,-77.48509216308594,109.32779693603516,26670545.0,49947.0,0.14598384613306886,-0.25026937046625003,0.10798362589739999,0.0074527213591068404,-0.011454960379470512,0.005753320664452513,26.670545569999376
1639,C,183766225000306.0,2.3421813142294603,8.659529,2.9281087,201,1970-01-03 03:02:46.225000306,-0.7755519,0.43841943,2.140788,9.731971670808834,2.318763810123648,-85.8366928100586,-77.37676239013672,109.26293182373047,26720492.0,49947.0,0.13300907148811886,-0.15041738838000004,0.12245318938484999,0.006967429628212732,-0.010006550772046825,0.00575481380645127,26.72049246999086
1639,C,183766274947206.0,0.5106170142294602,13.45272,2.0135236,201,1970-01-03 03:02:46.274947206,-0.7499856,0.5204448,2.1770072,14.552194799999148,2.360657014245449,-85.79408264160156,-77.26627349853516,109.18082427978516,26770439.0,49947.0,0.07124435905576884,0.06273965040149992,0.12340985424405,0.005100923047687779,-0.0021896199894060725,0.006140060720066334,26.770439370011445
1639,C,183766324894106.0,0.8122863142294605,13.831004,1.0773908,201,1970-01-03 03:02:46.324894106,-0.40270936,0.6791692,1.6731371,14.702556525696632,1.8500901021995277,-85.38292694091797,-77.00807189941406,108.75423431396484,26820386.0,49947.0,0.03303752627326886,0.19188948131399994,0.07719095076839999,0.002604283663264723,0.0063589806208970345,0.0050097042039784195,26.820386270002928
1639,C,183766374841006.0,0.24725461422946005,11.781568,-0.4381389,201,1970-01-03 03:02:46.374841006,-1.3167063,0.17849492,1.3844504,12.981781122094276,1.9189264777436517,-85.43424987792969,-76.9383316040039,108.73933410644531,26870333.0,49947.0,0.02646044537686885,0.15015496684199997,0.015964357324650003,0.001485872595004714,0.008542047026023862,0.002326414086661784,26.87033316999441
1639,C,183766424787906.0,-0.5236786857705393,11.197382,-0.8834604,201,1970-01-03 03:02:46.424787906,-0.10443533,-0.3424194,0.59828526,12.832154003238161,0.6972108977790268,-85.52312469482422,-76.9098892211914,108.8252182006836,26920280.0,49947.0,-0.006903276550631143,0.08438420782499995,-0.033004960118549996,0.0004884109556820474,0.005857264078546322,-0.00042556349387346145,26.920280069985893
1639,C,183766474734806.0,1.3270393142294603,7.6922708,-0.7062895,201,1970-01-03 03:02:46.474734806,1.262299,-0.87079054,0.53223884,8.867347233043708,1.6232538657767113,-85.65532684326172,-76.88672637939453,109.0257568359375,26970226.0,49946.0,0.020062324974504633,-0.017739500625600025,-0.0397008242527,0.0003286209162893926,0.0016643182728906143,-0.0018156815531032262,26.97022697000648
1639,C,183766524681706.0,1.9591089142294602,8.396166,-0.045489833,201,1970-01-03 03:02:46.524681706,2.297736,-1.0380371,0.58443683,9.184373097684759,2.588180471862976,-85.77178192138672,-76.86148071289062,109.2633056640625,27020173.0,49947.0,0.08206662278341885,-0.08769602357520005,-0.018774561172675498,0.002550517276832502,-0.0026330940636286808,-0.001460335037920615,27.02017386999796
1639,C,183766574628606.0,3.2567661142294604,7.364265,0.21068975,201,1970-01-03 03:02:46.574628606,2.7046669,-0.7344367,0.35860077,7.755989208920762,2.825458337775854,-85.7728500366211,-76.71778869628906,109.4046630859375,27070120.0,49947.0,0.13025865502321887,-0.09588747642150007,0.0041256201271995,0.005302505325304067,-0.00458472253716759,-0.00036583532919919477,27.070120769989444
1639,C,183766624575506.0,4.20008161422946,5.650017,0.5530606,201,1970-01-03 03:02:46.624575506,1.9664388,-0.4137921,0.46725774,5.867086782549978,2.0631130002396274,-85.30120849609375,-76.65188598632812,109.0465316772461,27120067.0,49947.0,0.18622358674666883,-0.16446842847300003,0.019073519365725,0.00790366926484029,-0.0065019981908827984,0.00057936371012655,27.12006767001003
1639,C,183766674522406.0,4.46104961422946,4.168006,0.6488287,201,1970-01-03 03:02:46.674522406,0.8489763,-0.3179183,0.520521,4.391169759053706,1.045358749366733,-84.56802368164062,-76.53727722167969,108.37876892089844,27170014.0,49947.0,0.21629876073391885,-0.24429020260950002,0.030015382433549998,0.010052391844806456,-0.010208133673338815,0.001225921689084194,27.170014570001513
1639,C,183766724469306.0,4.185716414229461,5.0730143,0.5530606,201,1970-01-03 03:02:46.724469306,0.7243404,-0.38929102,0.21905112,5.317730054312203,0.8509993575191787,-84.14663696289062,-76.44224548339844,108.00901794433594,27219961.0,49947.0,0.21594001141171884,-0.25869997953795004,0.030015382433549998,0.010794514976179082,-0.012561425313859344,0.0014991783064085217,27.219961469992995
1639,C,183766774416206.0,4.9135537542294605,9.303569,0.19871874,201,1970-01-03 03:02:46.774416206,0.72540563,-0.3871605,-0.42223805,9.33731158414526,0.9243330307111985,-84.102783203125,-76.68286895751953,108.00563049316406,27269908.0,49947.0,0.22724062355200889,-0.13044699695745005,0.01877456134749,0.011067771587266654,-0.009718362017507873,0.0012184556610158024,27.269908369984478
1639,C,183766824363106.0,5.136214514229461,13.895647,-0.40940848,201,1970-01-03 03:02:46.824363106,0.006352172,-0.109126486,-1.3990855,13.91236095531427,1.4033492709750042,-84.09504699707031,-76.75308227539062,107.99800109863281,27319855.0,49947.0,0.25097788785235886,0.08988502077599995,-0.00526166022189,0.011942789994556979,-0.001012974512167444,0.0003374644362601716,27.319855270005064
1639,C,183766874310006.0,4.12825561422946,13.493422,-0.5243302,201,1970-01-03 03:02:46.874310006,-1.3454684,-0.14321496,-2.0105474,13.592624615532637,2.423447252946332,-84.46883392333984,-77.02647399902344,108.29582977294922,27369802.0,49947.0,0.23136624475306886,0.19452031467150002,-0.02331872292498,0.012045821195621649,0.00710259664479814,-0.0007137521985183579,27.369802169996547
1639,C,183766924256906.0,3.5225225142294603,17.170916,-1.2808979,201,1970-01-03 03:02:46.924256906,-1.5201718,-0.27104667,-2.3695414,17.3534309942857,2.8282706810252956,-85.11160278320312,-77.30025482177734,108.84893798828125,27419749.0,49947.0,0.19106670759106886,0.27631524504299987,-0.045082863955349994,0.010549629335366323,0.011758411850530061,-0.0017082270299559209,27.41974906998803
1639,C,183766974203806.0,1.9734741142294605,13.23006,0.1604115,201,1970-01-03 03:02:46.974203806,-0.82348883,-0.1986087,-2.343975,13.740761291609003,2.492347902977323,-85.22677612304688,-77.34400939941406,108.92111206054688,27469695.0,49946.0,0.1372515238025046,0.26973277364799986,-0.0279819068672,0.00819909119259171,0.013636457170770335,-0.0018246465217515411,27.469695970008615
1639,C,183767024155466.0,2.2727493142294604,8.640374,1.1061212,201,1970-01-03 03:02:47.024155466,-0.29724818,-0.39461735,-1.7729933,9.354041203832194,1.840539207753865,-85.29681396484375,-77.43399047851562,108.97765350341797,27519647.0,49952.0,0.10605367634919001,0.05670635958399996,0.0316329207152,0.006076790678988725,0.008153143791602428,9.118772186764797e-05,27.519647629989777
1639,C,183767074107126.0,2.2200768142294605,8.822334,1.6304513,201,1970-01-03 03:02:47.074107126,0.036179576,-0.3157878,-1.0752451,9.616252978982194,1.12124168733703,-85.34606170654297,-77.48886108398438,109.02995300292969,27569599.0,49952.0,0.11221282538439001,-0.05338100499200006,0.06834863476000001,0.005451424147297895,8.305405628978941e-05,0.0024971393295485957,27.569599290000042
1639,C,183767124058786.0,3.3860531142294605,9.15034,1.5753847,201,1970-01-03 03:02:47.124058786,-0.72441924,-0.029231654,-0.417977,9.564461341936173,0.8368646828530604,-84.42713928222656,-77.4518814086914,108.09750366210938,27619550.0,49951.0,0.1400158980282258,-0.04064328051300005,0.08006735701800001,0.006299538481591787,-0.0023483035426301304,0.0037067636026514397,27.619550950010307
1639,C,183767174010446.0,3.0795953142294605,7.7233953,2.0494366,201,1970-01-03 03:02:47.174010446,-1.8876879,0.20938757,0.013455088,8.403577999666728,1.899312981493572,-84.47501373291016,-77.45020294189453,108.04985809326172,27669502.0,49952.0,0.16148603514919002,-0.06809118714720004,0.0905335367888,0.007530312283039137,-0.0027157520642811578,0.004260927923718637,27.66950260999147
1639,C,183767223962106.0,2.0237523142294602,5.8631005,2.0925324,201,1970-01-03 03:02:47.223962106,-2.068783,0.23388866,0.28403226,7.220292137899547,2.1012475653968767,-84.53225708007812,-77.43490600585938,108.00252532958984,27719454.0,49952.0,0.12746121036839,-0.15019328089920006,0.103449817744,0.007216746404047078,-0.00545187287392689,0.004844928262811213,27.719454270001734
1639,C,183767273913766.0,1.59040191422946,6.368277,1.6687586,201,1970-01-03 03:02:47.273913766,-1.3252283,0.12097063,0.5908284,7.750839756692221,1.4560021080651109,-84.58407592773438,-77.4049072265625,107.98772430419922,27769405.0,49951.0,0.09026530893287577,-0.18403503124875004,0.0939401233705,0.005437828682808763,-0.008347519210051129,0.004929912474305195,27.769405930012
1639,C,183767323865426.0,1.7364481142294603,10.081684,1.1013328,201,1970-01-03 03:02:47.323865426,-0.9225584,-0.07503802,0.6515485,10.881888266334398,1.131927627416316,-84.23124694824219,-77.14409637451172,107.60003662109375,27819357.0,49952.0,0.08309140631079,-0.07867537406400006,0.0691858028064,0.004329757319925796,-0.0065614550830912464,0.0040742331321942556,27.81935758999316
1639,C,183767373817086.0,1.0133993142294608,12.368147,0.85473,201,1970-01-03 03:02:47.373817086,-0.77129084,-0.10486543,0.40440714,13.247314222495593,0.8771724192882322,-84.1185531616211,-76.92340087890625,107.45423126220703,27869309.0,49952.0,0.06868018937319002,0.07117737905599995,0.0488546244928,0.003790647373803085,-0.00018726992331981072,0.0029481777122248192,27.869309250003425
1639,C,183767423768746.0,1.09240801422946,12.21013,-0.5746084,201,1970-01-03 03:02:47.423768746,-0.9864743,-0.23802349,0.41719058,13.056637614474418,1.0971940149276274,-84.72447967529297,-76.72474670410156,107.99932098388672,27919260.0,49951.0,0.05259359093192578,0.12433495721349996,0.0069961770208,0.00302887330001042,0.004883018354498896,0.001394901693202917,27.919260909984587
1639,C,183767473720406.0,0.1945823142294607,14.589966,0.48362875,201,1970-01-03 03:02:47.473720406,-0.6807434,-0.42231423,0.31066412,15.595049275126597,0.8592281891089394,-84.86106872558594,-76.52652740478516,108.10423278808594,27969212.0,49952.0,0.03214387044359001,0.179829597696,-0.0022723077384000008,0.0021164028353148827,0.0075968139234196715,0.00011798335919722239,27.969212569994852
1639,C,183767523672066.0,0.5249823142294607,10.184635,-0.62728083,201,1970-01-03 03:02:47.523672066,0.24177562,-0.30833092,0.539696,11.432774833694333,0.6669296657597642,-84.92303466796875,-76.50102996826172,108.1803970336914,28019164.0,49952.0,0.017971846160390024,0.129240834576,-0.0035878543500800007,0.0012516901379010055,0.007719343116425472,-0.00014636340832187652,28.019164230005117
1639,C,183767573623726.0,1.5999787142294606,10.546159,-0.9911995,201,1970-01-03 03:02:47.573623726,1.7320806,-0.32324463,1.095764,11.351717546827201,2.0749190440632126,-85.6397705078125,-76.26927947998047,108.9660873413086,28069115.0,49951.0,0.05307196416627579,0.028242145546999952,-0.04042235548191501,0.0017743546848136423,0.003933216170061985,-0.0010991769956589913,28.06911588998628
1639,C,183767623575386.0,3.3118327142294604,9.770438,-1.3120226,201,1970-01-03 03:02:47.623575386,2.5555298,-0.18582553,1.5474361,10.138907595855153,2.993296204833566,-86.4560775756836,-76.20838928222656,109.88668823242188,28119067.0,49952.0,0.12267740223719002,0.017897726671999962,-0.05752527516960001,0.004389516175292962,0.001152389448541742,-0.002446340023152239,28.119067549996544
1639,C,183767673527046.0,3.9822092142294605,7.134422,-0.60573304,201,1970-01-03 03:02:47.673527046,1.9579166,-0.14960654,1.9596934,7.358936735553829,2.7742057874948447,-86.9893569946289,-76.12796020507812,110.50279998779297,28169019.0,49952.0,0.18217599120519,-0.06731381664000004,-0.04789786486464,0.007614018354616885,-0.0012342162630407702,-0.0026330483454951783,28.16901921000681
1639,C,183767723478706.0,4.903976964229461,4.8790836,-0.3184288,201,1970-01-03 03:02:47.723478706,1.3858696,-0.16345498,2.0491757,4.950874031249879,2.479208165556384,-87.40866088867188,-76.15074157714844,110.98040771484375,28218970.0,49951.0,0.2219369429001008,-0.18947649088720003,-0.02308140403492,0.010092922585746691,-0.006413466325645586,-0.0017727427304009607,28.21897086998797
1639,C,183767773430366.0,6.07713578422946,3.8759134,-0.21787235,201,1970-01-03 03:02:47.773430366,1.4806781,-0.16025917,1.6571584,3.9021563183602526,2.2280629704026005,-87.38219451904297,-76.06832885742188,111.02941131591797,28268922.0,49952.0,0.27426427200551,-0.2708647949280001,-0.0133946575224,0.012393121543482537,-0.01149748395452044,-0.0009110261134556243,28.268922529998235
1639,C,183767823382026.0,6.31655596422946,8.099285,-0.62967503,201,1970-01-03 03:02:47.823382026,1.5115708,-0.2550677,0.6941593,8.148521460665501,1.6827842846819139,-87.3642807006836,-76.03421020507812,111.08883666992188,28318874.0,49952.0,0.30954484510951,-0.19043704476160006,-0.02116834336288,0.014581216509064741,-0.011521474748087453,-0.0008632455101107533,28.3188741900085
1639,C,183767873333686.0,6.08431838422946,15.6912985,-1.0941502,201,1970-01-03 03:02:47.873333686,0.932067,-0.08888646,-0.5990717,15.734560730358972,1.1115469387305341,-87.32998657226562,-76.0643310546875,111.10150909423828,28368825.0,49951.0,0.3097180372899358,0.10466191820424997,-0.043053397031865004,0.01546640011936736,-0.0021422766733330974,-0.0016039700772289538,28.368825849989662
1639,C,183767923285346.0,5.478585364229461,16.73996,-1.6591818,201,1970-01-03 03:02:47.923285346,-0.6423939,0.07622952,-1.6622056,16.82320588469559,1.7836502793843867,-87.33106994628906,-76.14715576171875,111.06954193115234,28418777.0,49952.0,0.28879508402151005,0.320473512296,-0.06876722003200002,0.014948463717874673,0.010618182512174244,-0.002792831731787093,28.418777509999927
1639,C,183767973237006.0,4.16416861422946,15.28189,-1.9632454,201,1970-01-03 03:02:47.973237006,-1.7204415,0.0101831285,-2.2662108,15.481999760282639,2.8453003428574877,-87.39383697509766,-76.2603759765625,111.04559326171875,28468729.0,49952.0,0.24083742336599,0.3102481256,-0.09047374174719999,0.013228101504510204,0.0157529036280905,-0.0039772022613973,28.468729170010192
1639,C,183768023194666.0,2.2488073142294605,9.772832,-0.4237737,201,1970-01-03 03:02:48.023194666,-1.747073,-0.23695822,-2.3077562,10.366780585379662,2.9041611429108074,-87.84461212158203,-76.23893737792969,111.40016174316406,28518686.0,49957.0,0.16018651922901114,0.13625077347699996,-0.05962415658935,0.010016976550109238,0.011152872750594843,-0.003749220353599514,28.518686830007937
1639,C,183768073152326.0,1.3126743142294606,10.220548,0.6703765,201,1970-01-03 03:02:48.073152326,-0.5475853,-0.52884066,-2.0425053,11.135272050603714,2.1797591621492076,-87.69226837158203,-76.10601806640625,111.23101043701172,28568644.0,49958.0,0.08896224959727539,0.00982623901999997,0.006159891341200002,0.006223487096511811,0.0036488576951625613,-0.001335483881633539,28.56864449000568
1639,C,183768123109986.0,2.5145636142294605,9.34427,0.1604115,201,1970-01-03 03:02:48.123109986,0.14164075,-0.2284361,-1.6270522,9.867604252508546,1.6491040038058886,-87.69822692871094,-76.06668090820312,111.24562072753906,28618602.0,49958.0,0.09560057621497539,-0.0008788111780000179,0.020752253452,0.004610194825964213,0.0002234978000653168,0.000672238464789343,28.618602150003426
1639,C,183768173067646.0,2.5121693142294603,8.163929,1.1707647,201,1970-01-03 03:02:48.173067646,-1.0695649,0.12736222,-1.1476831,8.835388892427547,1.5739652818346879,-87.71672821044922,-76.12376403808594,111.20958709716797,28668559.0,49957.0,0.12556024845351116,-0.052250051278500055,0.0332507847117,0.0055242656589817914,-0.0013270792908696872,0.0013489148887719806,28.66855981000117
1639,C,183768223025306.0,1.3174627142294604,5.542278,1.1755531,201,1970-01-03 03:02:48.223025306,-1.6884835,0.1039264,-0.6715099,7.1513798066542495,1.820083177271638,-87.7747802734375,-76.15714263916016,111.18241119384766,28718517.0,49958.0,0.09566037843887538,-0.14722105534700006,0.058608672326200005,0.005525870039144923,-0.004982588772398367,0.0022945573773497045,28.718517469998915
1639,C,183768272982966.0,0.8577760142294606,6.5239005,1.4748282,201,1970-01-03 03:02:48.272982966,-0.8298804,-0.094212785,-0.27097052,8.246405707832983,0.8780675087205349,-87.833251953125,-76.17083740234375,111.19990539550781,28768475.0,49958.0,0.05433528819817539,-0.18818732724850007,0.0662038744927,0.0037467417569268914,-0.008378165988852998,0.003117692606989303,28.76847512999666
1639,C,183768322940626.0,0.3214748142294601,11.130344,1.6472107,201,1970-01-03 03:02:48.322940626,-0.44425467,-0.28702566,-0.16018301,12.462987671724655,0.5526341809985197,-87.91255187988281,-76.17938995361328,111.25869750976562,28818432.0,49957.0,0.02945591681866115,-0.048602053756750065,0.07798384866364999,0.0020929786145130517,-0.00591464355343964,0.003601593042860888,28.818432789994404
1639,C,183768372898286.0,0.8697470142294605,13.136685,0.7158663,201,1970-01-03 03:02:48.372898286,-0.21096177,0.045336854,-0.1548567,14.008441238270159,0.2655953619079976,-87.68401336669922,-76.02776336669922,111.0260009765625,28868390.0,49958.0,0.02975553005307538,0.11657771739099995,0.059027300383000005,0.001479042731409107,0.0016979641019199282,0.00342240149203627,28.868390449992148
1639,C,183768422855946.0,-0.25792168577053953,14.736012,0.033518825,201,1970-01-03 03:02:48.422855946,-0.9822132,-0.1986087,0.091219395,15.887921632313315,1.0062351434898782,-87.84883880615234,-75.82503509521484,111.14065551757812,28918348.0,49958.0,0.015282784879575389,0.20664369836299995,0.018718891037375,0.0011250120687026836,0.008073747744119163,0.0019420221154895472,28.918348109989893
1639,C,183768472813606.0,-0.48297708577054,8.585308,-0.34955344,201,1970-01-03 03:02:48.472813606,0.6231403,-0.20393503,0.710138,10.574902334526678,0.9665346910427948,-87.86327362060547,-75.78997039794922,111.18768310546875,28968305.0,49957.0,-0.018506539964938857,0.09295299161999997,-0.0078940706307775,-8.052456639975139e-05,0.007483475920740364,0.0002703877765261957,28.968305769987637
1639,C,183768522771266.0,0.5680778142294605,11.05373,0.46208093,201,1970-01-03 03:02:48.522771266,3.0487473,-0.3509415,1.1394398,12.187861174085958,3.273582608321284,-87.78849029541016,-75.73372650146484,111.26779174804688,29018263.0,49958.0,0.0021257310961753746,0.0009751302019999477,0.0028108241727100003,-0.00040917622473284304,0.002346230554991736,-0.00012697441327606804,29.01826342998538
1639,C,183768572728926.0,3.6757515142294603,10.641928,-0.7398083,201,1970-01-03 03:02:48.572728926,3.0711179,0.0890127,1.5303919,10.854508296433549,3.432460893301963,-88.06674194335938,-75.7502212524414,111.68592071533203,29068221.0,49958.0,0.10600661279557538,0.052347441181999965,-0.00693735197523,0.0027010378180720423,0.001331944510600934,-0.00010307653797914708,29.06822109001223
1639,C,183768622686586.0,3.9534788142294603,8.412926,-0.46686932,201,1970-01-03 03:02:48.622686586,1.4828087,0.42563626,1.9714113,8.60120980034341,2.5032679401914146,-88.27654266357422,-75.71951293945312,111.95669555664062,29118178.0,49957.0,0.19056672975941114,-0.01361692936100002,-0.030140996931170002,0.007407957237009731,0.0009674300895208471,-0.0009261615381585124,29.118178750009974
1639,C,183768672644246.0,4.01333391422946,7.1439986,-0.63206923,201,1970-01-03 03:02:48.672644246,0.8404542,0.5065963,2.2025738,7.363320324610556,2.4112931007900658,-88.6835708618164,-75.64036560058594,112.3863754272461,29168136.0,49958.0,0.1990030151441754,-0.10099198041660003,-0.02745038604045,0.009731062657946689,-0.002862815957334672,-0.0014385751552480962,29.16813641000772
1639,C,183768722601906.0,6.55118771422946,6.1001267,-1.2617443,201,1970-01-03 03:02:48.722601906,0.82554054,0.69514817,2.0768726,6.289687748621463,2.3405443721640062,-88.51696014404297,-75.53575134277344,112.25696563720703,29218094.0,49958.0,0.2638911857572754,-0.15876339413130006,-0.047305568165870004,0.01156263424431734,-0.006488429500831997,-0.0018673289801196674,29.218094070005463
1639,C,183768772559566.0,8.13614931422946,9.935637,-2.2649148,201,1970-01-03 03:02:48.772559566,0.4548285,0.61099225,1.1234609,10.482022192070241,1.357330058534446,-88.38191223144531,-75.4787368774414,112.14097595214844,29268051.0,49957.0,0.36686764796536114,-0.08902927641955005,-0.08809065432935,0.015755409528140876,-0.00618948922135441,-0.0033819945435968526,29.268051730003208
1639,C,183768822517226.0,8.33486801422946,15.339351,-2.8179753,201,1970-01-03 03:02:48.822517226,-0.39631778,0.40220043,-0.20492385,15.820172626083219,0.6006885656770368,-88.3229751586914,-75.48839569091797,112.05962371826172,29318009.0,49958.0,0.4114295418475754,0.14175552525199997,-0.1269655118079,0.019441085504337343,0.0013170489695857666,-0.005371887973942367,29.318009390000952
1639,C,183768872474886.0,6.26148931422946,16.40477,-2.2984335,201,1970-01-03 03:02:48.872474886,-1.1324155,0.20938757,-1.3319737,16.575157420906965,1.7607844719335883,-88.33155059814453,-75.55467987060547,112.01000213623047,29367967.0,49958.0,0.3646024097075754,0.30334799845899996,-0.12780277541520002,0.019384502117896114,0.011118240918777068,-0.0063638570465458155,29.367967049998697
1639,C,183768922432546.0,5.53125779422946,12.85417,-1.8339585,201,1970-01-03 03:02:48.922432546,-1.5137801,0.085816905,-1.784711,12.985207589103378,2.3418129912229944,-88.38053131103516,-75.6436996459961,111.98242950439453,29417924.0,49957.0,0.2945651336486412,0.24126583278999994,-0.103220953572,0.016465016481723254,0.013603636583853143,-0.005770626214506776,29.41792470999644
1639,C,183768972390206.0,3.6254733142294606,9.880571,0.076614454,201,1970-01-03 03:02:48.972390206,-1.5713044,-0.3573331,-1.986046,10.09248030115708,2.5575502294052743,-88.50838470458984,-75.808349609375,112.0339584350586,29467882.0,49958.0,0.22872598635819538,0.07830269543899995,-0.04389669692503401,0.01307128888665077,0.00798250226663219,-0.0036748517917654126,29.467882369994186
1639,C,183769022347866.0,2.7731373142294604,10.227731,1.3814543,201,1970-01-03 03:02:49.022347866,-0.8629036,-0.28169933,-2.0190692,10.72252607113634,2.2137293352630194,-87.88314056396484,-75.86256408691406,111.38870239257812,29517840.0,49958.0,0.1598308948882754,0.012696875657999969,0.036421099406166,0.009705762336655595,0.002273078286431961,-0.0001867329504238039,29.51784002999193
1639,C,183769072307496.0,2.9455200142294604,9.095273,1.4532804,201,1970-01-03 03:02:49.072307496,-1.3721,0.051728442,-1.712273,9.608368720340808,2.194815041920559,-87.1034927368164,-75.87484741210938,110.56471252441406,29567799.0,49959.0,0.14284920073623963,-0.006919221582000012,0.07081025543865,0.007560797448652574,0.00014432290999144093,0.002678585628346081,29.567799659998855
1639,C,183769122267126.0,1.8441871142294604,7.503129,1.5849615,201,1970-01-03 03:02:49.122267126,-1.7119193,0.14334118,-1.5535486,8.575128169574791,2.316188169419368,-87.14501953125,-75.95209503173828,110.51927947998047,29617759.0,49960.0,0.11964688406890384,-0.07497991804000001,0.07589528266199999,0.006557152198432483,-0.00204584050775756,0.0036647043417542364,29.61775929000578
1639,C,183769172226756.0,0.5441358142294606,7.6898766,2.2888567,201,1970-01-03 03:02:49.172226756,-0.84585935,0.030423153,-1.3394305,9.527013083271939,1.5844486967242373,-87.16790771484375,-76.0188980102539,110.49928283691406,29667718.0,49959.0,0.05965911259143962,-0.11008451661480004,0.09676604172690001,0.00447897414357705,-0.004622817045459578,0.004312993552572528,29.667718920012703
1639,C,183769222186386.0,-1.1030751857705399,8.501511,2.078167,201,1970-01-03 03:02:49.222186386,-0.18965648,0.06451161,-0.9016068,11.073518651042688,0.9235941479010261,-87.15542602539062,-76.06375885009766,110.47665405273438,29717678.0,49960.0,-0.01396230550109616,-0.08514713775200002,0.10908825202600002,0.0011415062411167796,-0.004876886726082666,0.005142240257947443,29.717678549990524
1639,C,183769272146016.0,-0.4326984857705396,10.440814,1.532289,201,1970-01-03 03:02:49.272146016,0.7839952,0.059185293,-0.5564611,12.195902013477676,0.9632239242999241,-87.09870147705078,-76.09140014648438,110.4585952758789,29767638.0,49960.0,-0.03836362631509616,-0.016428721500000028,0.09018919087999999,-0.0013071017767684841,-0.0025373649641149613,0.004977950523791881,29.767638179997448
1639,C,183769322105646.0,-0.6194466857705399,11.063307,1.0821792,201,1970-01-03 03:02:49.322105646,0.021265874,-0.094212785,-0.015306785,12.777630485455534,0.09778846517599263,-87.11647033691406,-76.09237670898438,110.47799682617188,29817597.0,49959.0,-0.026282060312510395,0.04756399051949996,0.0653081084019,-0.0016148169291142981,0.0007777434524725986,0.0038842447874122207,29.817597810004372
1639,C,183769372065276.0,-1.2874286857705393,12.406454,0.5267244,201,1970-01-03 03:02:49.372065276,0.66788137,0.036814738,0.6078729,14.239428941260263,0.9038419728478512,-87.08187103271484,-76.06194305419922,110.47674560546875,29867557.0,49960.0,-0.04763374678109615,0.09666662977999996,0.04019041192799999,-0.0018464168611982913,0.0036028808950815073,0.002635353037840902,29.867557440011296
1639,C,183769422024906.0,0.18261131422946075,13.079225,0.6631939,201,1970-01-03 03:02:49.422024906,1.7342111,-0.01112216,1.4334528,14.203591706146414,2.2499775046951282,-86.85579681396484,-75.76724243164062,110.34264373779297,29917517.0,49960.0,-0.02759833794109614,0.14702426141999994,0.029724159134,-0.001879297476360363,0.006087398462175997,0.0017464659851287598,29.917517069989117
1639,C,183769471984536.0,2.5816012142294604,13.084013,-0.51475334,201,1970-01-03 03:02:49.471984536,2.0580513,0.21577917,2.3953867,13.456031155998701,3.165440450581004,-87.03096008300781,-75.67292022705078,110.6111068725586,29967476.0,49959.0,0.06904864685463963,0.16394640362099996,0.0037079709685200017,0.0010354079915058597,0.007767891727391658,0.0008351178938958983,29.96747669999604
1639,C,183769521944166.0,3.9726324142294605,10.378565,-0.18914193,201,1970-01-03 03:02:49.521944166,1.3368675,0.46398577,3.0356104,10.519984909024858,3.3492429007026203,-87.0567398071289,-75.64604949951172,110.69705200195312,30017436.0,49960.0,0.16372475603890382,0.09648719843999998,-0.0175833038446,0.005814679604280715,0.006505631379483779,-0.0003466058152444783,30.017436330002965
1639,C,183769571903796.0,4.46104961422946,8.956409,-0.5722142,201,1970-01-03 03:02:49.571903796,0.52513593,0.40539622,3.2614467,9.057251813922958,3.3282350303288593,-87.38871765136719,-75.65081787109375,111.0411605834961,30067395.0,49959.0,0.21066916022988966,-0.0066202169670000165,-0.019018295449335,0.009352172831436327,0.0022448322637048028,-0.0009142896495628494,30.06739596000989
1639,C,183769621863426.0,6.35486315422946,5.958869,-0.8690952,201,1970-01-03 03:02:49.621863426,0.6050308,0.5598596,2.9802165,6.059461515156193,3.092118275152658,-87.27674102783203,-75.50070190429688,110.95677185058594,30117355.0,49960.0,0.2701815009561038,-0.11702435556000002,-0.036003908811999996,0.012011649516426118,-0.0030886414217244605,-0.0013744546624481482,30.11735558998771
1639,C,183769671823056.0,7.91588261422946,8.333917,-1.283292,201,1970-01-03 03:02:49.671823056,0.6231403,0.4480068,2.0704806,8.723197368758768,2.2081448868465787,-87.17863464355469,-75.39619445800781,110.88761901855469,30167315.0,49960.0,0.35648322929610377,-0.13257420572000003,-0.053766632256,0.015654084961700145,-0.006234972060774401,-0.00224246811587864,30.167315219994634
1639,C,183769721782686.0,8.11460131422946,14.168587,-1.6017209,201,1970-01-03 03:02:49.721782686,0.06600698,0.36917725,0.63237375,14.464961356537211,0.7352178745211146,-87.1106948852539,-75.36367797851562,110.82080078125,30217274.0,49959.0,0.40043347329093965,0.07250309866799998,-0.07206617973555,0.018907400772273052,-0.0015005462186054356,-0.0031432407271429234,30.21727485000156
1639,C,183769771742316.0,7.609424914229461,14.566024,-2.0518308,201,1970-01-03 03:02:49.771742316,-1.0184323,0.50020474,-0.52343816,14.835651640575179,1.2495585776368963,-87.06079864501953,-75.38858032226562,110.71661376953125,30267234.0,49960.0,0.39278617518690384,0.22818258277999998,-0.09126572146599998,0.01981462681897653,0.007511128322571038,-0.004080030892014719,30.267234480008483
1639,C,183769821701946.0,5.9143300642294605,13.368923,-1.6256629,201,1970-01-03 03:02:49.821701946,-1.3422726,0.18275596,-1.63877,13.469415889490847,2.1261849840797677,-87.07665252685547,-75.46992492675781,110.66365814208984,30317194.0,49960.0,0.3378233993619038,0.20820697606,-0.09186379262599999,0.018250627172229215,0.010901011179823198,-0.004574575262018159,30.317194109986303
1639,C,183769871661576.0,4.221629414229461,10.297162,-0.770933,201,1970-01-03 03:02:49.871661576,-1.1185671,-0.23589295,-2.452632,10.428645671131752,2.7059640737611637,-87.62631225585938,-75.75863647460938,111.14332580566406,30367153.0,49959.0,0.25319119979216465,0.10156877025749998,-0.05986576728405,0.014763249179569055,0.0077380432551379915,-0.003790128541773094,30.367153739993228
1639,C,183769921621206.0,3.57040671422946,11.659463,0.6392518,201,1970-01-03 03:02:49.921621206,-0.4527768,-0.6513461,-3.185534,11.866245314473572,3.282816692683198,-87.47794342041016,-76.01549530029297,110.98387145996094,30417113.0,49960.0,0.19464506248890384,0.05886849249999998,-0.0032893963759999985,0.01118694983178109,0.004007722823682349,-0.001577615988228049,30.417113370000152
1639,C,183769971580836.0,3.1322677142294606,11.597214,0.8762778,201,1970-01-03 03:02:49.971580836,-0.4048399,-0.63217133,-3.4912648,11.906343975261105,3.5710594840782224,-87.21012115478516,-76.22647094726562,110.71000671386719,30467073.0,49960.0,0.16743280722290382,0.09134379145999996,0.037857929408,0.009044705185400955,0.0037523028533207985,0.0008635219551393599,30.467073000007076
