Subject-id_accel,Activity_accel,Timestamp_accel,accel_x,accel_y,accel_z,Segment_accel,DateTime,gyro_x,gyro_y,gyro_z,accel_magnitude,gyro_magnitude,Roll,Pitch,Yaw,Time_Difference,Difference_Microseconds,vx,vy,vz,dx,dy,dz,Time_diff
1648,C,459281597571000.0,-0.6825806,12.049873250947368,0.4766089,245,1970-01-06 07:34:41.597571,-1.1845741,0.3749731,0.69987875,5.379358519183103,1.4260613201458003,63.77989196777344,-69.42308044433594,123.78585052490234,17288992.0,3224058.0,5.829870154311299,-1.0779734614196326,3.0191778190566,29.369590532071918,-27.84719369747069,19.498786844664515,17.288992000045255
1648,C,459284821655000.0,7.3694754,1.0016477509473667,0.16525635,245,1970-01-06 07:34:44.821655,0.27803403,-0.7041398,-0.79255676,17.946499667274857,1.0960209841074113,62.15278625488281,-70.69400024414062,125.31124877929688,20513076.0,3224084.0,10.7795552671816,-10.55642318106361,1.0347137413404999,26.775091375314258,-18.755136032341973,6.535043458805661,20.513076000032015
1648,C,459288045645000.0,-0.06945557,11.683435350947368,-0.7161109,245,1970-01-06 07:34:48.045645,0.21624869,0.20772657,0.6178534,5.726364062325045,0.6867726317364728,58.36315155029297,-73.34021759033203,128.93484497070312,23737066.0,3223990.0,11.76759546586085,-11.1468114651612,-0.88797478032725,36.34589424591076,-34.98550573354117,0.23654247145855378,23.737066000001505
1648,C,459291269763000.0,-0.122146,11.11581575094737,0.9580079,245,1970-01-06 07:34:51.269763,1.5744609,-1.4306501,-0.6114618,6.322798093013441,2.213497767588226,51.16453170776367,-75.37687683105469,135.92202758789062,26961184.0,3224118.0,-0.30887303533263,5.157381532069326,0.38995223592300005,18.472136622634892,-9.655314428510152,-0.8028417249097707,26.961184000014327
1648,C,459294493779000.0,-0.366438,-0.8688622490526328,1.5184424,245,1970-01-06 07:34:54.493779,-0.022370555,1.6543556,-1.1100056,18.300070752721634,1.9923617455205587,41.9274787902832,-77.15556335449219,144.90347290039062,30185200.0,3224016.0,-0.7876013166720001,-15.077185779317672,3.9920576952024005,-1.76752542722628,-15.990803804998311,7.0638350650535955,30.18520000000717
1648,C,459297717804000.0,9.319021,-5.955885249052631,5.1780324,245,1970-01-06 07:34:57.717804,-0.15446335,0.608266,2.8858013,25.641624178435727,2.953251698777284,35.760250091552734,-77.91594696044922,150.94667053222656,33409225.0,3224025.0,14.4316757032875,-42.59702327628941,10.794801083535,21.99441846215402,-92.97154592525182,23.836601187059426,33.40922500001034
1648,C,459300941905000.0,-0.15088624,12.409126150947369,1.1639795,245,1970-01-06 07:35:00.941905,0.32490566,-1.5542208,-2.2466428,5.092403108280112,2.7511033884324516,22.783912658691406,-78.69452667236328,163.64341735839844,36633326.0,3224101.0,14.77949622392538,-21.19323957748014,10.22364345440095,47.08988431084949,-102.83312512855063,33.882794026601914,36.63332600001013
1648,C,459304165930000.0,2.9889846,6.917345750947369,-0.11496094,245,1970-01-06 07:35:04.165930,0.479369,-0.06711166,-0.16085494,10.866859799709335,0.5100714898828979,16.07321548461914,-79.23612976074219,170.25216674804688,39857351.0,3224025.0,4.5750500325495,-0.4409307132469107,1.691031031452,31.199770497265714,-34.874552935780635,19.20660420462603,39.857351000013296
1648,C,459310613955000.0,2.5051906,-2.454365249052632,4.749324,245,1970-01-06 07:35:10.613955,-0.20026971,0.69135666,-2.1742048,20.533299212515104,2.290250750553939,8.971907615661621,-79.18817138671875,177.2007598876953,46305376.0,6448025.0,17.713289521990003,-48.8019400746351,14.941244434978252,71.8578853280798,-158.75963095601645,53.62266400721446,46.30537600000389
1648,C,459313838082000.0,1.6310084,10.416469750947368,3.3482375,245,1970-01-06 07:35:13.838082,0.9331717,2.1560953,0.3110572,7.883204916249533,2.369876145716231,2.0158579349517822,-78.6607437133789,-175.9204864501953,49529503.0,3224127.0,6.667815436636501,-18.76102654930982,13.05378333315525,39.303889393470804,-108.91579244617984,45.12976244649449,49.529503000027034
1648,C,459317062164000.0,7.9826,3.2984717509473676,-2.5962012,245,1970-01-06 07:35:17.062164,2.0197413,1.7491642,-1.5393071,16.38026595734579,3.0835688196629794,-3.867238759994507,-78.9150619506836,-170.0649871826172,52753585.0,3224082.0,15.497530898744401,-9.486955586344111,1.2123133490883005,35.73144707183377,-45.53690536994169,22.997532761740576,52.753584999998566
1648,C,459320286195000.0,2.7590625,10.291928750947369,1.2765454,245,1970-01-06 07:35:20.286195,-1.051416,-0.4857606,1.3305153,7.698191428654941,1.7640039481538723,-10.85361385345459,-78.63200378417969,-163.2504425048828,55977616.0,3224031.0,17.31572644576875,-9.687567539737909,-2.1273056042648997,52.895479444844035,-30.909628484352673,-1.4749816977246333,55.97761600004742
1648,C,459323510194000.0,1.4585669,16.808777150947368,3.5829494,245,1970-01-06 07:35:23.510194,-0.58269966,0.5933523,1.5776566,3.9081561798686,1.7834254100474642,-10.986947059631348,-77.39146423339844,-163.1344451904297,59201615.0,3223999.0,6.7988164839853,12.091134163501364,7.8335031878526005,38.872631145492065,3.8745481957233774,9.198387651644582,59.20161500002723
1648,C,459326733966000.0,1.7627344,8.557934750947368,0.6777906,245,1970-01-06 07:35:26.733966,-1.2016183,-2.5023062,-0.28549087,9.006711161326354,2.790506745074573,-17.186668395996094,-77.1423568725586,-157.14337158203125,62425387.0,3223772.0,5.1923704672518,9.295282180697495,6.86782715564,19.328426370081765,34.47246509538532,23.696868562050913,62.425387000024784
1648,C,459329958249000.0,2.3471193,-6.154671249052633,-3.04886,245,1970-01-06 07:35:29.958249,0.93423694,-0.8628642,-1.5222629,23.831748820652706,1.9835870599544185,-23.104429244995117,-76.93323516845703,-151.3439178466797,65649670.0,3224283.0,6.62566570869855,-27.72357257316017,-3.8224993791200994,19.05234656775086,-29.709011715740363,4.909499289630457,65.64967000001343
1648,C,459333182390000.0,2.2656887,10.04284675094737,-0.026345216,245,1970-01-06 07:35:33.182390,-0.3323625,-1.3475596,0.099069595,7.664169872617568,1.3914727778910638,-28.66141128540039,-76.5093002319336,-145.9444122314453,68873811.0,3224141.0,7.436171698964,-25.328568774572805,-4.957447610159728,22.66867326068927,-85.52379202851056,-14.153893532981828,68.87381100002676
1648,C,459336406415000.0,-0.21555176,12.624678050947368,-1.3004956,245,1970-01-06 07:35:36.406415,-0.04474111,-0.314253,1.160073,4.9196465023971125,1.2027161262168358,-34.70073318481445,-76.08565521240234,-140.06520080566406,72097836.0,3224025.0,3.3048463739917504,4.944888324714339,-2.1388839809022,17.314655396330583,-32.858747681177476,-11.439375228936717,72.09783600002993
1648,C,459339630388000.0,1.8776954,10.497900350947369,0.43589357,245,1970-01-06 07:35:39.630388,-0.922519,-0.25885928,1.5723304,7.131960414655038,1.84126921414748,-39.285850524902344,-75.26536560058594,-135.64981079101562,75321809.0,3223973.0,2.6793531087408597,5.678348829045888,-1.393726800232595,9.64644877947195,17.124514878159907,-5.694520888943744,75.3218090000446
1648,C,459342854514000.0,7.913145,0.5394097509473674,3.671565,245,1970-01-06 07:35:42.854514,0.95660746,0.44421527,2.4639566,18.95202580571254,2.6802065527329018,-42.52100372314453,-74.31155395507812,-132.4609375,78545935.0,3224126.0,15.783451547745202,-13.80359556520927,6.621481984729911,29.76320426294889,-13.09840962923975,8.427470705986297,78.54593500000192
1648,C,459346078551000.0,-0.55324954,23.23700975094737,12.015814,245,1970-01-06 07:35:46.078551,0.18855181,0.90654004,0.05965481,13.385557924638414,0.9278606175140822,-37.66241455078125,-73.70109558105469,-137.13031005859375,81769972.0,3224037.0,11.86428763958601,6.732465500815097,25.2883451645115,44.56866705315288,-11.398792479709597,51.439231696379416,81.76997200003825
1648,C,459349302540000.0,2.663262,20.051633750947367,10.722503,245,1970-01-06 07:35:49.302540,-3.0381343,-2.6961844,2.5523736,11.370406474642717,4.797320224627162,-34.676265716552734,-72.97371673583984,-140.08560180664062,84993961.0,3223989.0,3.40132848045147,38.18596303751505,36.6540419432565,24.608089224611756,72.40825975243123,99.85078733459292,84.99396100000013
1648,C,459352526612000.0,9.09868,14.806540850947368,2.9410841,245,1970-01-06 07:35:52.526612,-1.9686087,0.40266997,-2.59818,9.898419476070794,3.284524719172546,-34.60178756713867,-72.88050842285156,-140.2854766845703,88218033.0,3224072.0,18.960673933912,24.59672675253998,22.0261942943356,36.04835292404083,101.20795611840116,94.59465330350302,88.21803300001193
1648,C,459352566886000.0,14.944922,14.387412450947368,1.9375709,245,1970-01-06 07:35:52.566886,-0.96086854,-1.5020229,-1.8578212,15.361232338289051,2.575041893728252,-34.97223663330078,-73.11223602294922,-139.9871063232422,88258307.0,40274.0,0.48416601347399996,0.1931934376402542,0.098241475735,0.3915607420205118,0.4991946228696593,0.44551976310191166,88.25830700004008
1648,C,459352607139000.0,12.743899,15.731018350947368,-2.203418,245,1970-01-06 07:35:52.607139,-0.23329292,-2.1571605,-1.2580773,13.035720895756269,2.508092004304799,-36.03974151611328,-73.73224639892578,-138.97216796875,88298560.0,40253.0,0.5572790558565,0.21169919753433436,-0.00535057165815,0.020960644187880306,0.008149071621841357,0.0018695687809027212,88.29856000002474
1648,C,459352647431000.0,10.2387085,16.15493685094737,-0.20357667,245,1970-01-06 07:35:52.647431,0.06178534,-0.9193232,-0.70627034,10.311908113044284,1.1609437400067548,-36.588409423828125,-74.11492156982422,-138.4423828125,88338852.0,40292.0,0.463007610695,0.24751285349737132,-0.04849131462182,0.02055469518434652,0.009251285980084744,-0.0010846986409962756,88.33885200001532
1648,C,459352687697000.0,7.6257424,16.01602565094737,-0.5460645,245,1970-01-06 07:35:52.687697,0.25566345,-0.70200926,-0.3291667,7.763266427980765,0.8164138149128419,-37.57369613647461,-74.47100830078125,-137.47950744628906,88379118.0,40266.0,0.35966498996970003,0.2530911880506468,-0.015092525675610001,0.016562867469182407,0.010078661168486248,-0.0012801334567081582,88.37911800004076
1648,C,459352727971000.0,5.3384986,14.646074450947369,-1.7363893,245,1970-01-06 07:35:52.727971,-0.058589544,-0.52624065,0.2727077,6.23730928740701,0.5955933562573045,-40.47808074951172,-74.73077392578125,-134.6749267578125,88419392.0,40274.0,0.261060921017,0.22275750975185435,-0.0459617721706,0.012499557669539177,0.009582165227648966,-0.0012294503957291307,88.4193920000107
1648,C,459352768303000.0,5.4342995,15.149028750947368,-1.719624,245,1970-01-06 07:35:52.768303,-0.9736517,0.75420725,0.77231675,6.11528281451686,1.4537191514168115,-43.07622528076172,-74.96836853027344,-132.21273803710938,88459724.0,40332.0,0.21724424648459997,0.20559445116940922,-0.0696939642078,0.009645502007837266,0.008638145643938201,-0.002332313579806814,88.45972400001483
1648,C,459352808613000.0,3.65959,17.479382690947368,-0.8143067,245,1970-01-06 07:35:52.808613,-1.5180018,1.2953615,1.3092101,3.7508546209484814,2.386696873594864,-43.88675308227539,-75.48587036132812,-131.50135803222656,88500034.0,40310.0,0.18328734287249998,0.2625876326113884,-0.051071373258499995,0.00807271418349235,0.009436209898601975,-0.0024340253766332765,88.50003400002606
1648,C,459352848906000.0,4.140989,17.74043983094737,-2.3423293,245,1970-01-06 07:35:52.848906,-1.5478293,0.5070659,2.6045716,4.772387876550519,3.0719187144857627,-45.98551940917969,-76.2464370727539,-129.52186584472656,88540327.0,40293.0,0.15715436482350004,0.31468475443735233,-0.063595167174,0.006858708864097464,0.011630018145677455,-0.0023101294568233614,88.54032700002426
1648,C,459352889224000.0,13.40253,12.847414750947369,3.9924977,245,1970-01-06 07:35:52.889224,-2.1230721,-0.6870956,4.2035336,14.695958645949379,4.759120741446547,-46.87521743774414,-75.85807037353516,-128.7209930419922,88580645.0,40318.0,0.353659799521,0.221504160516416,0.0332657447756,0.010297502739020777,0.010809032336553014,-0.0006114108261293457,88.5806450000382
1648,C,459352929535000.0,9.259146,12.859389750947368,-0.28979737,245,1970-01-06 07:35:52.929535,-0.7041398,-1.9142802,3.0658312,10.301023273733483,3.6823365529171173,-49.44845199584961,-75.69564819335938,-126.21804809570312,88620956.0,40311.0,0.456757410618,0.12308569813793935,0.074629776501315,0.016334364078956616,0.006945380896107858,0.0021746881790968603,88.62095599999884
1648,C,459352969841000.0,8.813672,13.11565675094737,-6.327642,245,1970-01-06 07:35:52.969841,1.4093449,-2.3627565,0.9715212,11.652118752783675,2.9176574109202233,-53.73534393310547,-76.07038116455078,-121.96221160888672,88661262.0,40306.0,0.364221501154,0.12847631215268462,-0.13336125562361,0.016545188008941118,0.005069729193386945,-0.0011836154987516115,88.66126200003782
1648,C,459353010153000.0,6.346802,14.025764350947368,-3.8823268,245,1970-01-06 07:35:53.010153,0.9235843,-0.58696073,0.67005134,8.154813930665554,1.283160027433998,-57.63653564453125,-76.23051452636719,-118.11897277832031,88701574.0,40312.0,0.30557451394400004,0.15200488372979035,-0.2057921311328,0.013500408480315288,0.005653378984207166,-0.006835975663462201,88.70157400000608
1648,C,459353050486000.0,10.928474,9.949440750947367,-2.189048,245,1970-01-06 07:35:53.050486,-0.05752428,0.28868666,1.6799221,13.386762803058138,1.7055167230255714,-60.32371520996094,-75.8861312866211,-115.50598907470703,88741907.0,40333.0,0.34838185345399997,0.08823257368736015,-0.1224383799042,0.013188011083131767,0.004844748685002965,-0.006619260600827661,88.74190700001782
1648,C,459353090788000.0,5.206773,13.369528950947368,-1.4058765,245,1970-01-06 07:35:53.090788,-0.0053263223,0.36218992,1.3997575,6.711642294570912,1.4458668564792194,-63.12456512451172,-75.49638366699219,-112.78765869140625,88782209.0,40302.0,0.32514136229699997,0.07494095846288078,-0.07244132359950001,0.013572166320598399,0.003288109846359505,-0.003927020905303059,88.78220900002634
1648,C,459353131106000.0,8.387359,9.800949750947368,-4.87626,245,1970-01-06 07:35:53.131106,0.33449304,-0.056459017,1.2069446,12.301699528002828,1.2537098874453403,-66.7516098022461,-75.147705078125,-109.25517272949219,88822527.0,40318.0,0.274044106988,0.07197728015149595,-0.1266415897035,0.012078979875316316,0.0029617247722272203,-0.004013312449275178,88.82252700004028
1648,C,459353171430000.0,6.7611403,8.95311275094737,-3.151846,245,1970-01-06 07:35:53.171430,0.43675843,-0.10013486,0.95234644,11.242654066432939,1.052496393411378,-69.78083038330078,-74.50736999511719,-106.30435180664062,88862851.0,40324.0,0.3054240428866,-0.017055791836798347,-0.161862673172,0.011683236837771685,0.001107327047400933,-0.005816822948095831,88.8628510000417
1648,C,459353211737000.0,7.31918,9.441697050947369,-2.2489235,245,1970-01-06 07:35:53.211737,0.26312032,0.3717773,0.15020229,11.018058787882843,0.47959502865796727,-71.99015045166016,-73.90264129638672,-104.16968536376953,88903158.0,40307.0,0.28376773516605003,-0.024288800657514435,-0.10884440811825001,0.011874276498984085,-0.0008332382448341327,-0.0054556951627830535,88.90315800003009
1648,C,459353252101000.0,7.2640944,8.531589750947369,-0.035925295,245,1970-01-06 07:35:53.252101,-0.099069595,-0.31318775,0.958738,11.436226616290716,1.0134495073991237,-73.28443908691406,-73.10054779052734,-102.92518615722656,88943522.0,40364.0,0.2943196439408,-0.032830325764160444,-0.04611281838069,0.011666959485134448,-0.0011527782094422423,-0.003127346745201607,88.94352200004505
1648,C,459353292432000.0,4.009263,12.009158050947368,0.69216067,245,1970-01-06 07:35:53.292432,0.572047,-1.7491642,2.5747442,6.725483290649196,3.164825566157522,-74.24293518066406,-72.16239166259766,-101.94788360595703,88983853.0,40331.0,0.2273328886497,0.01897064979910829,0.013233314454562502,0.010519384145953728,-0.00027948729567325923,-0.000663031636422324,88.98385300004156
1648,C,459353332746000.0,1.6525636,11.934912150947369,0.60594,245,1970-01-06 07:35:53.332746,1.7150757,-1.675661,3.0850058,5.7076881687892795,3.907247781966883,-75.1971664428711,-70.8733139038086,-100.92359924316406,89024167.0,40314.0,0.1141254387762,0.0875634230595922,0.026165815205190006,0.006882775505923867,0.002147407306612826,0.0007941682565516313,89.02416700002505
1648,C,459353373068000.0,-0.4981641,10.409284450947368,-5.2355127,245,1970-01-06 07:35:53.373068,1.8482338,-0.86179894,2.812298,8.71967290465883,3.4738574572442613,-78.58211517333984,-69.85197448730469,-97.62254333496094,89064489.0,40322.0,0.023273848319499996,0.05532574769079976,-0.09333681520469998,0.0027701070271364072,0.002880788571498652,-0.0013542345309901207,89.06448900001124
1648,C,459353413373000.0,10.777588,-11.12194224905263,-1.0825489,245,1970-01-06 07:35:53.413373,1.4562165,1.1068097,2.702576,30.476240732070796,3.2633588896507137,-79.3059310913086,-68.65882873535156,-96.88681030273438,89104794.0,40305.0,0.20715609014474998,-0.4093508362763163,-0.127324736394,0.004643739334900797,-0.0071344905977196215,-0.004446881918592801,89.1047940000426
1648,C,459353453683000.0,-4.054768,16.65789095094737,-7.0221977,245,1970-01-06 07:35:53.453683,-0.38136467,1.7225326,-1.5446335,8.13950796074664,2.344877442193775,-86.73941802978516,-68.1864013671875,-90.02662658691406,89145104.0,40310.0,0.13549843709999998,-0.28346095391331155,-0.163351167723,0.006906201996617936,-0.013963621631271947,-0.005858572847478135,89.14510399999563
1648,C,459353494002000.0,1.6022681,14.586198950947368,4.88105,245,1970-01-06 07:35:53.494002,-1.6010925,4.2962117,-1.0439591,5.840413863179342,4.702210412906461,-83.2476577758789,-67.63825225830078,-93.41742706298828,89185423.0,40319.0,-0.04944117173405001,0.2347390303772469,-0.04316446705815001,0.0017348714411448685,-0.0009822096175252956,-0.004163251939370594,89.18542300001718
1648,C,459353534314000.0,6.615044,8.883657750947368,1.1903248,245,1970-01-06 07:35:53.534314,-0.1949434,3.4024546,1.2538162,10.821230903881824,3.6313572252874216,-82.81617736816406,-66.84033203125,-93.88578796386719,89225735.0,40312.0,0.1656281426876,0.07800083168339028,0.1223746304688,0.0023418645865397538,0.006303584659694203,0.0015965600537050611,89.22573500004364
1648,C,459353574609000.0,4.6894484,12.380385750947369,0.71371585,245,1970-01-06 07:35:53.574609,0.23009712,-0.034088463,0.5635249,6.880474653692126,0.609644995765574,-82.77285766601562,-66.23297119140625,-93.91288757324219,89266030.0,40295.0,0.227757260629,0.03352631645442417,0.038361658995875,0.007925732413321198,0.0022469932171066166,0.0032384343919895395,89.26602999999886
1648,C,459353614898000.0,6.05461,10.998459750947369,-0.59156984,245,1970-01-06 07:35:53.614898,-0.19068234,-1.1930962,0.15765914,8.805323918694963,1.2184804888334713,-83.46441650390625,-65.69889068603516,-93.26579284667969,89306319.0,40289.0,0.21643368443879998,0.07612295321291851,0.0024605702984450005,0.008948004492918297,0.0022088297128137844,0.0008223433980194292,89.30631900002481
1648,C,459353655216000.0,3.8727467,10.840388250947369,-0.88376224,245,1970-01-06 07:35:53.655216,0.20879184,-0.47191215,-0.22796659,7.638207630611579,0.564148806543483,-84.21851348876953,-64.9192123413086,-92.56197357177734,89346637.0,40318.0,0.2001255837153,0.04513293687019598,-0.02974121940072,0.008397418286718502,0.002444397488185505,-0.0005499506052527618,89.34663700003875
1648,C,459353695515000.0,7.7790236,5.516259750947368,-0.9053174,245,1970-01-06 07:35:53.695515,0.38775626,0.76485986,-0.2972088,14.202526202839541,0.9075784227304257,-84.60250854492188,-64.19375610351562,-92.21440887451172,89386936.0,40299.0,0.23477734565985003,-0.06535192108582204,-0.036049060206180004,0.008763076575444586,-0.0004074024224527572,-0.0013256412389392317,89.38693600002443
1648,C,459353735809000.0,9.285491,0.5298287509473667,-5.3145485,245,1970-01-06 07:35:53.735809,-0.10972224,1.406149,-0.79894835,19.946636065903,1.620991192486665,-85.5647201538086,-63.462890625,-91.38786315917969,89427230.0,40294.0,0.3437987756462001,-0.27307065495232685,-0.12531163828730002,0.011656573115952992,-0.006818199639440587,-0.0032509339925481423,89.42723000003025
1648,C,459353776109000.0,8.006551,-1.4580382490526311,1.0178833,245,1970-01-06 07:35:53.776109,-0.30786142,2.521481,-1.9206718,20.47989125409654,3.184591849923732,-85.3889389038086,-62.61977767944336,-91.61782836914062,89467530.0,40300.0,0.34843464630000004,-0.41364342138682114,-0.08657780378,0.013948503452215932,-0.013837288638233832,-0.004269572257656096,89.46753000002354
1648,C,459353816407000.0,0.43110353,3.978656750947369,3.5637891,245,1970-01-06 07:35:53.816407,-0.36218992,0.44528055,-1.8535602,13.85875707406989,1.9403973101872587,-84.81590270996094,-61.478759765625,-92.1537094116211,89507828.0,40298.0,0.17001030112496998,-0.344132457805323,0.09231611718760001,0.010446147245665722,-0.015268426189842511,0.00011562127684973248,89.50782800000161
1648,C,459353856706000.0,3.187771,7.853798750947368,0.9699829,245,1970-01-06 07:35:53.856706,0.4314321,-1.1707256,-0.5390238,10.077435220474623,1.3591463292715062,-84.8631591796875,-60.533390045166016,-92.06675720214844,89548127.0,40299.0,0.07291851234223501,-0.15651213786457205,0.091353238914,0.0048948941269574475,-0.01008773828045055,0.0037008456907691896,89.5481270000455
1648,C,459353897013000.0,-0.6945557,11.719360250947368,-1.583108,245,1970-01-06 07:35:53.897013,1.2548815,0.34514567,0.17896444,5.903842638388047,1.313728047712506,-85.76262664794922,-59.27907943725586,-91.24192810058594,89588434.0,40307.0,0.050247014548550004,-0.0005409400553144777,-0.01235661670285,0.0024822164461934357,-0.003165169205858433,0.0015920584257324117,89.58843400003389
1648,C,459353937307000.0,-1.3292359,12.859389750947368,-1.2669654,245,1970-01-06 07:35:53.937307,0.5571333,1.4711303,1.0066749,4.864913434344949,1.8676231493095683,-86.50804901123047,-57.9079475402832,-90.61731719970703,89628728.0,40294.0,-0.040773329365200006,0.10030687628817322,-0.0574204287898,0.0001908663353889524,0.0020099843172834055,-0.0014057981355404196,89.6287280000397
1648,C,459353977564000.0,-1.3268409,14.670024750947368,-0.6825806,245,1970-01-06 07:35:53.977564,-0.19600865,0.46232477,1.4807175,3.0799672470690607,1.563549774914961,-87.200927734375,-56.459747314453125,-90.05313110351562,89668985.0,40257.0,-0.0534628418688,0.15960721980138823,-0.039241436660999995,-0.0018968327726835692,0.005231680883138738,-0.0019456583587264278,89.66898499999661
1648,C,459354017879000.0,0.51732427,14.523928550947367,-0.60594,245,1970-01-06 07:35:54.017879,-0.28229508,-1.0333065,1.530785,2.9501168287336137,1.8683456723421008,-87.93138122558594,-55.386199951171875,-89.42927551269531,89709300.0,40315.0,-0.016317831469225,0.19339011368294304,-0.025973353994499997,-0.0014066039228112389,0.007115543749710407,-0.001314567142638241,89.70930000004591
1648,C,459354058193000.0,2.3519094,12.818674450947368,0.5292993,245,1970-01-06 07:35:54.058193,-0.386691,-1.7246631,1.4849787,5.145430408648643,2.3084961506219366,-87.90081024169922,-54.6418571472168,-89.41973114013672,89749614.0,40314.0,0.05783514308619,0.15606764870919212,-0.0015448465899000003,0.0008368644502631634,0.007044020116538269,-0.0005546843691797507,89.7496140000294
1648,C,459354098486000.0,6.231841,8.177126750947368,3.1901662,245,1970-01-06 07:35:54.098486,-0.5837649,-2.396845,1.3134711,11.55073123442531,2.7947904649601587,-87.49622344970703,-54.086883544921875,-89.70167541503906,89789907.0,40293.0,0.1729325274336,0.02812050891397227,0.07493421169575,0.004649160874126949,0.0037107467175550818,0.001478538844105007,89.7899070000276
1648,C,459354138809000.0,6.715635,4.364254750947369,-3.7386258,245,1970-01-06 07:35:54.138809,-0.18002969,-3.2724924,0.53263223,15.102364660990663,3.3204388700552867,-88.41350555419922,-53.451969146728516,-88.8724594116211,89830230.0,40323.0,0.26104053737399996,-0.14231233684954928,-0.011057768225399993,0.008749547946118427,-0.0023022785389231358,0.0012878449150274618,89.8302300000214
1648,C,459354179105000.0,5.9947343,10.083562250947368,1.3220508,245,1970-01-06 07:35:54.179105,0.60933125,0.47723848,-0.060720075,9.52342232099981,0.7763556314777903,-88.07059478759766,-53.10695266723633,-89.1370849609375,89870526.0,40296.0,0.2560885206564,-0.10380618304582485,-0.04868915309999999,0.0104191162611965,-0.004958795938851998,-0.0012037809708641588,89.87052600004245
1648,C,459354219399000.0,3.894302,5.995263750947368,-6.8880763,245,1970-01-06 07:35:54.219399,0.65726817,3.4993937,-0.46019423,13.851676317716556,3.590200056294932,-89.04132843017578,-52.441707611083984,-88.44329833984375,89910820.0,40294.0,0.19923441433610004,-0.07094109253982678,-0.11213871574850001,0.009173391171293899,-0.0035206333612241235,-0.0032401990736907298,89.91082000004826
1648,C,459354259699000.0,8.863968,-1.6400582490526325,6.100115,245,1970-01-06 07:35:54.259699,0.15339808,6.6664248,-1.3156016,21.83922140985454,6.796731431719609,-87.99225616455078,-51.85719680786133,-89.46942138671875,89951120.0,40300.0,0.2570791405,-0.3071826091368211,-0.015877420195000002,0.009194718129947417,-0.0076191925887844555,-0.002579525139261525,89.95112000004156
1648,C,459354299999000.0,-1.6238233,7.281388750947368,-2.6967921,245,1970-01-06 07:35:54.299999,0.34408042,3.0786142,-1.9579561,10.563003560509403,3.664675813410543,-88.43455505371094,-50.74843215942383,-89.20782470703125,89991420.0,40300.0,0.145888915705,-0.28126719038682113,0.068576956435,0.008119806332530751,-0.01185726346040139,0.001061895655236,89.99142000003485
1648,C,459354340285000.0,2.3590944,3.6170087509473685,1.8202149,245,1970-01-06 07:35:54.340285,-0.053263225,-2.8218856,-0.9193232,14.066622653034464,2.968337995694392,-88.3759536743164,-49.86270523071289,-89.1665267944336,90031706.0,40286.0,0.014810565767300003,-0.17527637911933436,-0.017656894539600003,0.0032369696552965394,-0.00919615712056249,0.0010256828067590421,90.03170600003796
1648,C,459354380580000.0,-0.70174074,6.732928750947368,2.2752686,245,1970-01-06 07:35:54.380580,-1.2346416,-2.6599653,-0.3834952,10.894857992528895,2.957502974821444,-88.19584655761719,-48.75144958496094,-89.26492309570312,90072001.0,40295.0,0.03339153286485,-0.1863656341805758,0.08251375381625001,0.0009711517821912421,-0.00728618246295994,0.0013067035722763058,90.07200100005139
1648,C,459354420874000.0,-0.09340577,9.348291750947368,0.7927515,245,1970-01-06 07:35:54.420874,-0.50387007,-0.3920173,-0.054328486,8.055775552702642,0.6407138170292155,-88.09979248046875,-47.66935348510742,-89.34261322021484,90112295.0,40294.0,-0.016019816736969998,-0.0708928505483268,0.06181140095470001,0.0003499879648283984,-0.0051829866918332015,0.00290771889317033,90.112294999999
1648,C,459354461120000.0,1.5495777,11.187666350947367,2.703977,245,1970-01-06 07:35:54.461120,0.04474111,0.5965481,0.45593318,6.918452857127485,0.7521611975916828,-87.30953979492188,-46.90021514892578,-89.94119262695312,90152541.0,40246.0,0.02930254774739,0.01883428488442773,0.0703646676055,0.00026728839612268166,-0.0010475745168546408,0.0026597790276369046,90.15254100004677
1648,C,459354501428000.0,3.4536183,12.847414750947369,0.9436377,245,1970-01-06 07:35:54.501428,0.49747851,0.21518342,0.660464,5.7637907412574565,0.8544012332918981,-87.01060485839844,-46.626014709472656,-90.1470947265625,90192849.0,40308.0,0.100834412184,0.08938462452758647,0.0735140266638,0.0026227802904572337,0.002181043900289734,0.002899731204303472,90.19284900004277
1648,C,459354541722000.0,9.072334,12.169624250947368,-1.7675245,245,1970-01-06 07:35:54.541722,1.2783173,1.4977618,0.8692558,10.602702869158529,2.152438425333503,-87.2718505859375,-46.91974639892578,-89.9600830078125,90233143.0,40294.0,0.25236036098810005,0.10913708477117326,-0.0165988473596,0.0071158150950983,0.003999616877242112,0.0011466701174417174,90.23314300004859
1648,C,459354581975000.0,7.2329593,13.388689150947368,2.2321582,245,1970-01-06 07:35:54.581975,0.44208476,3.2799492,0.16298546,8.550127494487231,3.313618860064674,-86.570068359375,-47.2299690246582,-90.56941986083984,90273396.0,40253.0,0.32816848560244993,0.11991999468323437,0.009351450163050005,0.011684013830904704,0.004610117309639135,-0.00014586473967636345,90.27339600003324
1648,C,459354622226000.0,5.5708156,12.404335750947368,3.3218923,245,1970-01-06 07:35:54.622226,-0.5592638,1.0077401,-0.5571333,8.165256152099495,1.28012250238301,-85.76153564453125,-47.25208282470703,-91.21890258789062,90313647.0,40251.0,0.25768237174995,0.12463772266308248,0.11177804333775002,0.011790541429645725,0.004921846340453301,0.0024377916214503507,90.31364700000267
1648,C,459354662495000.0,7.2545147,8.977062750947368,-0.9053174,245,1970-01-06 07:35:54.662495,0.11717909,-0.084155895,-0.7190535,11.12633695886206,0.733383317003277,-86.04552459716797,-47.13738250732422,-91.00520324707031,90353916.0,40269.0,0.25823161292535,0.03586756813639954,0.04865652732405,0.010387670124444828,0.003231693777602171,0.003230269862990012,90.35391600005096
1648,C,459354702740000.0,5.944439,1.578847750947368,2.3303542,245,1970-01-06 07:35:54.702740,0.16618125,-0.31638354,-1.3145363,17.027955022011735,1.3622483019817586,-85.89796447753906,-46.56321716308594,-91.09912872314453,90394161.0,40245.0,0.26559594582825,-0.1819896909256232,0.028675303008000003,0.010540720051019319,-0.0029403424158261533,0.0015561097558566763,90.39416100003291
1648,C,459354743034000.0,5.384004,-5.012247249052631,3.0967603,245,1970-01-06 07:35:54.743034,0.02876214,0.1257012,-1.442368,23.222677256579033,1.448120678604798,-85.75289916992188,-45.85335922241211,-91.21064758300781,90434455.0,40294.0,0.22823414112100002,-0.46405389968832683,0.10934007583150002,0.00994919476176654,-0.013015840220099252,0.0027805958374794073,90.43445500003872
1648,C,459354783320000.0,4.4691067,3.252965750947368,1.7483643,245,1970-01-06 07:35:54.783320,0.36112466,0.39840892,-0.8117315,14.905129414447744,0.9736779322178007,-85.6164779663086,-45.2120475769043,-91.31095886230469,90474741.0,40286.0,0.19847120883010003,-0.4302400072163344,0.09759534481780001,0.008595125864065009,-0.018013762166780592,0.004168300178138851,90.47474100004183
1648,C,459354823596000.0,2.0309765,5.231252750947368,0.24908204,245,1970-01-06 07:35:54.823596,0.30253512,0.4825648,0.20453078,12.304499071021294,0.605168674833606,-85.68909454345703,-44.36549758911133,-91.26547241210938,90515017.0,40276.0,0.1308986754816,-0.22384960780884383,0.04022457439492,0.0066328507302690146,-0.013172056667377039,0.002775417533105756,90.515017000027
1648,C,459354863863000.0,2.2058132,9.64048325094737,-1.0825489,245,1970-01-06 07:35:54.863863,0.128897,0.014913702,0.45806372,8.105353166023532,0.4760874149739554,-86.08927154541016,-43.67888259887695,-90.982177734375,90555284.0,40267.0,0.08530140542495,-0.09519650320585234,-0.016780605025809997,0.0043528643289320245,-0.006423514876114385,0.0004720091572929762,90.55528400000185
1648,C,459354904142000.0,0.5364844,12.686948250947369,-0.07424561,245,1970-01-06 07:35:54.904142,-0.02130529,-0.31957933,0.82344943,4.708724483896874,0.8835461659203542,-86.27072143554688,-42.7774658203125,-90.8450698852539,90595563.0,40279.0,0.055228502515200006,0.05492910673240905,-0.023297263034144998,0.0028302020809606514,-0.0008109652312769111,-0.0008071482237934636,90.59556300000986
1648,C,459354944455000.0,-0.4742139,15.149028750947368,-0.08861572,245,1970-01-06 07:35:54.944455,-0.4261058,-0.38242993,1.0322412,2.26731067858671,1.1803985340260656,-86.50823974609375,-41.5610466003418,-90.68359375,90635876.0,40313.0,0.001255155333249999,0.16600847043869124,-0.003282714398145,0.0011385128494222825,0.004453328274249283,-0.0005357593151139533,90.63587600004394
1648,C,459354984743000.0,0.6466553,14.686789850947369,0.3879932,245,1970-01-06 07:35:54.984743,-0.6146576,-0.28229508,1.1195929,2.7818005665687,1.3080453887997834,-86.40147399902344,-40.83407974243164,-90.76123809814453,90676164.0,40288.0,0.0034736595616,0.20619032991656752,0.006030659957119999,9.525724724185837e-05,0.007497572634356332,5.5354615339992386e-05,90.67616400000406
1648,C,459355025058000.0,0.7592212,12.469001750947369,0.5891748,245,1970-01-06 07:35:55.025058,-0.70840085,-0.23648871,0.9076053,4.988855655547119,1.1753748571525071,-86.34384155273438,-40.030269622802734,-90.81070709228516,90716479.0,40315.0,0.028338955548750003,0.15230586921519312,0.01969726396,0.0006412627890868801,0.007226387133998465,0.0005186106263593463,90.71647900005337
1648,C,459355065392000.0,2.4860303,10.33264375094737,1.4370118,245,1970-01-06 07:35:55.065392,-0.8863,-0.46978164,0.7392935,7.595475719607122,1.246104874568485,-86.1684799194336,-39.49140548706055,-90.93159484863281,90756813.0,40334.0,0.0654469870005,0.06456758483671116,0.0408621051622,0.001891381103390725,0.004373686947864754,0.0012213007970874074,90.75681300001452
1648,C,459355105748000.0,5.989944,9.535102750947368,1.9926564,245,1970-01-06 07:35:55.105748,-0.8511463,-0.95234644,1.0833739,10.05725333554634,1.6748470894340097,-85.98307800292969,-39.3791389465332,-91.0369644165039,90797169.0,40356.0,0.17102820942540004,0.005402588915231989,0.06920384493960001,0.004771596513481811,0.001411858165966709,0.0022209107411541207,90.79716900002677
1648,C,459355146068000.0,6.701265,9.448882050947368,1.3172607,245,1970-01-06 07:35:55.146068,-0.31638354,-1.0066749,1.0215886,10.454563457852537,1.4687192265109426,-85.908447265625,-39.34701156616211,-91.05277252197266,90837489.0,40320.0,0.25585477344,-0.012418866393802136,0.066727928736,0.008605960934566465,-0.00014144815396797416,0.002740384557300096,90.83748899999773
1648,C,459355186384000.0,4.1721244,10.912238750947369,-0.9532178,245,1970-01-06 07:35:55.186384,0.32170987,-0.9033443,0.2790993,7.742474517155429,0.9987114618639343,-86.26677703857422,-39.18563461303711,-90.7801513671875,90877805.0,40316.0,0.2191857835252,0.015342673124594077,0.007338376778200001,0.0095758675473045,5.893809607930396e-05,0.0014930285865552436,90.87780499999644
1648,C,459355226716000.0,3.8535867,6.8263357509473686,-1.2334352,245,1970-01-06 07:35:55.226716,0.37390783,0.55287224,-0.32810146,11.288168557849051,0.7437239724199148,-86.53691101074219,-38.74226379394531,-90.62067413330078,90918137.0,40332.0,0.16184649004260002,-0.03753750659479076,-0.044096044397999995,0.0076838968287682545,-0.00044758101175998617,-0.0007412551252208867,90.91813700000057
1648,C,459355267020000.0,7.407796,5.147426750947368,3.283572,245,1970-01-06 07:35:55.267020,0.2727077,2.8144288,-0.6018744,14.659885861998552,2.8909568923254616,-86.09225463867188,-38.56939697265625,-91.0008773803711,90958441.0,40304.0,0.2269393841704,-0.1536839380618173,0.041314356793599995,0.007834812937140377,-0.0038534945527199656,-5.60565686038688e-05,90.95844100002432
1648,C,459355307321000.0,8.241262,2.903293750947368,-2.699187,245,1970-01-06 07:35:55.307321,0.19707392,1.506284,-1.1579424,16.862035252187,1.9101204727236254,-86.41838073730469,-38.4146842956543,-90.85356140136719,90998742.0,40301.0,0.31533634322899995,-0.23272375652657012,0.011775649942500003,0.010927127044961606,-0.0077863082498033,0.0010697901807357828,90.99874200002523
1648,C,459355347632000.0,0.25387207,2.8529977509473685,0.5508545,245,1970-01-06 07:35:55.347632,0.38456047,2.5683527,-2.1869879,14.524094402608114,3.3951787024294204,-86.33866119384766,-37.64573287963867,-90.99650573730469,91039053.0,40311.0,0.17122367474788502,-0.2790268666335607,-0.04330071570374999,0.009806860442333105,-0.010314589685104016,-0.0006354034629508742,91.03905300004408
1648,C,459355387931000.0,3.6308498,-0.27729224905263195,2.9889846,245,1970-01-06 07:35:55.387931,-0.11930962,1.1004182,-1.0844392,18.25779756890171,1.549568771888626,-86.11771392822266,-37.06882858276367,-91.18045806884766,91079352.0,40299.0,0.078275203319565,-0.343031021989572,0.07132598794545,0.0050272776436200844,-0.012534155426811813,0.0005646952230341344,91.07935200002976
1648,C,459355428231000.0,1.2933106,3.952311750947368,0.61552006,245,1970-01-06 07:35:55.428231,-0.7669904,-3.432282,-0.011717909,13.488373211934595,3.516954834883083,-86.32160186767578,-36.33106231689453,-90.94512176513672,91119652.0,40300.0,0.09922183206,-0.3208883570368211,0.07263076889900001,0.003576565262898235,-0.013377975487381821,0.0029007286504156684,91.11965200002305
1648,C,459355468525000.0,1.3555812,9.721914150947368,0.0023950196,245,1970-01-06 07:35:55.468525,-0.77125144,-4.0139165,0.29188246,7.761799310853771,4.097749360701552,-86.61656951904297,-35.696388244628906,-90.6324462890625,91159946.0,40294.0,0.053367223094600014,-0.11938657075452679,0.012449135108701201,0.003074211694199727,-0.008870218970212286,0.0017141048260431566,91.15994600002887
1648,C,459355508840000.0,0.7592212,11.340947750947368,-0.44307864,245,1970-01-06 07:35:55.508840,0.06924219,-1.0897655,0.386691,6.087279732395226,1.1584097959475506,-86.88150787353516,-35.00301742553711,-90.43201446533203,91200261.0,40315.0,0.042629129378,0.02948763878744312,-0.008883080078213,0.0019350464749664348,-0.0018121377211264887,7.18827542770659e-05,91.20026100001996
1648,C,459355549137000.0,-0.12693603,11.683435350947368,-0.8669971,245,1970-01-06 07:35:55.549137,0.1587244,0.6679208,0.15446335,5.748165203271869,0.7036835629181788,-87.20480346679688,-34.163116455078125,-90.27092742919922,91240558.0,40297.0,0.012739597747745001,0.06899618292852606,-0.02639606104739,0.0011155967984930733,0.001984301281844205,-0.000710821774969212,91.24055800004862
1648,C,459355589443000.0,0.9867481,11.578054350947369,0.7951465,245,1970-01-06 07:35:55.589443,-0.2514024,1.5169365,0.1470065,5.923510568666068,1.5446392532886957,-87.01836395263672,-33.55921936035156,-90.44428253173828,91280864.0,40306.0,0.017327792646710003,0.07379000196228461,-0.0014480051417999997,0.0006059481186194516,0.002877569984104508,-0.0005611414659107461,91.2808640000294
1648,C,459355629708000.0,2.4644752,11.915752350947368,3.5661843,245,1970-01-06 07:35:55.629708,-0.27164245,1.4551512,0.47404268,6.9627082879780255,1.5543394410375826,-86.17789459228516,-33.31110382080078,-90.9743881225586,91321129.0,40265.0,0.06948175308724999,0.07839206342589577,0.087804492331,0.0017476931794889496,0.003063805431427542,0.001738571978336569,91.32112900004722
1648,C,459355669957000.0,4.766089,10.531430750947369,3.5566041,245,1970-01-06 07:35:55.669957,0.39627838,-0.67005134,0.73822826,9.058410626933338,1.0728403033787683,-85.59649658203125,-33.292503356933594,-91.25273895263672,91361378.0,40249.0,0.1455114892429,0.0572981363340806,0.1433425551558,0.004326631505273104,0.0027306974250696447,0.004651718757148106,91.36137800000142
1648,C,459355710213000.0,9.3453665,10.299113750947368,-2.4453151,245,1970-01-06 07:35:55.710213,1.4263891,-2.509763,0.9054748,11.968041531197754,3.0254554688844535,-86.03935241699219,-33.74020004272461,-90.86154174804688,91401634.0,40256.0,0.28403537630400005,0.02476839973413724,0.022368024991999996,0.008645919309728004,0.0016518352379810888,0.003335422557214918,91.40163400000893
1648,C,459355750501000.0,6.1935205,12.133698750947367,-3.7003052,245,1970-01-06 07:35:55.750501,1.9078887,0.5763081,0.20133498,8.911364534110154,2.00317400439525,-86.71163177490234,-34.110992431640625,-90.45668029785156,91441922.0,40288.0,0.313015339728,0.057064175038167526,-0.1237973753232,0.012026989623748607,0.0016484353862133072,-0.0020431928330716925,91.44192200002726
1648,C,459359015002000.0,1.590293,1.5908217509473683,2.304009,245,1970-01-06 07:35:59.015002,-1.5446335,-2.3489082,-0.7701862,16.020110681825205,2.914866920464797,-86.71571350097656,-33.477664947509766,-90.4024658203125,94706423.0,3264501.0,12.70513347728175,-9.59025434852207,-2.2791051705980996,21.248879915638575,-15.560554427264186,-3.922138882031314,94.7064230000251
1648,C,459359055304000.0,0.3305127,10.627231550947368,0.488584,245,1970-01-06 07:35:59.055304,-1.0226538,-1.9813919,-0.39947417,6.762964199291116,2.2652404438684295,-86.80455017089844,-32.77252960205078,-90.30059814453125,94746725.0,40302.0,0.038706155660699994,-0.1487536079135192,0.056273541542999996,0.2568011124434233,-0.19625074933013356,-0.04479228015708931,94.74672500003362
1648,C,459359095567000.0,-1.7555494,13.199482750947368,3.9254372,245,1970-01-06 07:35:59.095567,-0.3685815,-0.036218993,-0.22370553,5.986462042033274,0.4326757466611284,-85.78497314453125,-31.8594913482666,-90.85465240478516,94786988.0,40263.0,-0.028688126326050004,0.08509009896859385,0.08886086778780002,0.00020167795755050627,-0.0012816419303247645,0.0029217733614430004,94.78698800003622
1648,C,459359135869000.0,-0.67539555,13.280913250947368,1.1208692,245,1970-01-06 07:35:59.135869,0.101200126,1.0407634,-0.19920446,4.2880704963935345,1.0644774949081204,-85.42953491210938,-30.940820693969727,-91.08189392089844,94827290.0,40302.0,-0.04898597168744999,0.1386468598341808,0.1016881202664,-0.0015652107490700382,0.004508523456834711,0.003839752658280184,94.82729000004474
1648,C,459359176192000.0,1.1256592,11.499018750947368,-1.8537452,245,1970-01-06 07:35:59.176192,1.9153455,1.9387813,0.008522116,6.253513592651468,2.7253429032070544,-85.89209747314453,-30.481937408447266,-90.8792495727539,94867613.0,40323.0,0.009077990579475002,0.10443519905620068,-0.014775879474000001,-0.0008046047611084377,0.004900898930318426,0.0017522811427359726,94.86761300003855
1648,C,459359216493000.0,2.7255323,12.739638750947368,0.14130616,245,1970-01-06 07:35:59.216493,1.0982877,2.2434468,0.37923414,5.370019697011011,2.5264813376201833,-85.83106994628906,-30.455934524536133,-90.97757720947266,94907914.0,40301.0,0.07760343432074998,0.09347126799192983,-0.03450650287552,0.0017466740524519834,0.003987914264253353,-0.0009930646455340027,94.90791400003945
1648,C,459359256792000.0,6.478528,11.853481750947369,0.60594,245,1970-01-06 07:35:59.256792,0.4527374,1.1313108,0.87351686,8.526954204989257,1.4992888261638115,-85.73688507080078,-30.874588012695312,-91.06004333496094,94948213.0,40299.0,0.18545721301485002,0.10060888155292796,0.01505663650092,0.005300540513488672,0.003910617973254113,-0.0003919050825150027,94.94821300002513
1648,C,459359297039000.0,11.464959,9.25728025094737,-0.62031007,245,1970-01-06 07:35:59.297039,-0.2514024,-1.2655342,0.88949585,14.055454911017526,1.567157568741134,-85.93558502197266,-31.417146682739258,-90.90673065185547,94988460.0,40247.0,0.3610857606445,0.03040181914512873,-0.0002891761036450002,0.01099835753043393,0.002636393835497344,0.0002971729893045634,94.98846000002231
1648,C,459359337342000.0,3.6859353,10.203313250947367,0.6346802,245,1970-01-06 07:35:59.337342,-0.5752428,-1.4210628,-0.036218993,8.079010641212845,1.5335043449399204,-85.98137664794922,-31.31734848022461,-90.8375015258789,95028763.0,40303.0,0.30531324648645003,-0.002809250046568242,0.0002895796746949996,0.013428939592199339,0.0005560316561896416,8.132562014062719e-09,95.02876300003845
1648,C,459359377734000.0,4.615203,8.526798750947368,2.4644752,245,1970-01-06 07:35:59.377734,-0.7819041,-1.506284,-0.65513766,10.270215043160151,1.81919511427529,-85.76465606689453,-31.253469467163086,-90.90814971923828,95069155.0,40392.0,0.16764978910679998,-0.017568258009733956,0.0625905424584,0.009551961466841277,-0.0004115441527050792,0.0012699269465999865,95.06915500003379
1648,C,459359418009000.0,5.3097587,9.95902095094737,2.3016138,245,1970-01-06 07:35:59.418009,-0.6487461,-1.8844528,-0.45486793,9.398453306008216,2.0442452620552984,-85.54119873046875,-31.377426147460938,-90.96223449707031,95109430.0,40275.0,0.19986391623375,-0.022436805753094757,0.09597711723749999,0.0074008072412953246,-0.0008056019715239631,0.0031931562471261858,95.10943000001134
1648,C,459359458334000.0,5.740862,5.655170750947368,-0.7232959,245,1970-01-06 07:35:59.458334,0.10333065,-1.0460896,-0.66365975,13.060903967298811,1.2431512129373663,-85.77556610107422,-31.28841781616211,-90.79535675048828,95149755.0,40325.0,0.22280813986375,-0.08036385981054738,0.03182283465875,0.008522125331065845,-0.0020727184194269345,0.0025767665301081404,95.14975500002038
1648,C,459359498637000.0,7.4916215,-1.3358922490526304,0.9268726,245,1970-01-06 07:35:59.498637,0.12357068,1.3241237,-1.1504856,20.166438188596643,1.7584625107362148,-85.76448059082031,-31.105161666870117,-90.8579330444336,95190058.0,40303.0,0.26665439125025,-0.30792945926906823,0.004102375870050001,0.00986340419574377,-0.007824692819432873,0.0007239468799711133,95.19005800003652
1648,C,459359538912000.0,6.207891,-7.253984249052632,3.300337,245,1970-01-06 07:35:59.538912,0.24714136,2.9742184,-1.555286,25.60265706840378,3.365407625313345,-85.56410217285156,-30.752119064331055,-91.08641052246094,95230333.0,40275.0,0.27587393296875,-0.5676736379805947,0.08512543332,0.010925164128960111,-0.017632457370865086,0.0017968250075646316,95.23033300001407
1648,C,459359579209000.0,2.1100123,8.759115750947368,-4.248765,245,1970-01-06 07:35:59.579209,1.1984226,2.7260118,-0.531567,9.826263139414307,3.0248835576628403,-86.2514419555664,-30.416059494018555,-90.82461547851562,95270630.0,40297.0,0.16759327464005003,-0.3645844579340739,-0.019109401557999995,0.008935199032505907,-0.0187836022455367,0.0013301240159566572,95.27063000004273
1648,C,459359619533000.0,0.38559815,9.762629450947369,-0.87178713,245,1970-01-06 07:35:59.619533,1.2346416,2.8346686,0.1768339,7.6613278813568835,3.0969268929804805,-86.40296173095703,-29.7475528717041,-90.8388900756836,95310954.0,40324.0,0.0503164978929,-0.02173977323939835,-0.10324057204506,0.004393496833809338,-0.007789069148919548,-0.0024668201677848956,95.31095400004415
1648,C,459359659836000.0,0.42870852,11.281072050947369,-0.95561284,245,1970-01-06 07:35:59.659836,-0.13315806,-0.099069595,0.3334278,6.17285432094291,0.37245127387252636,-86.76768493652344,-29.12495994567871,-90.65774536132812,95351257.0,40303.0,0.016409500860504998,0.029092750815431778,-0.036824850495455,0.0013446289638792408,0.00014817352762343765,-0.0028225283623251884,95.35125700000208
1648,C,459359700135000.0,-0.6011499,14.016184250947369,0.25147706,245,1970-01-06 07:35:59.700135,-0.9757822,-2.2327943,0.6466155,3.4110579400506382,2.521038058576185,-86.84820556640625,-28.19225311279297,-90.54389190673828,95391556.0,40299.0,-0.0034746075863100008,0.11479686585502799,-0.014187983899110003,0.00026063163202839207,0.002899303831101429,-0.0010278831066332875,95.39155600004597
1648,C,459359740434000.0,-0.81191164,15.479541350947368,0.57959473,245,1970-01-06 07:35:59.740434,-1.1345067,-0.94595486,0.84155893,2.1325816946873153,1.7000463176529206,-86.57212829589844,-27.06467628479004,-90.6550521850586,95431855.0,40299.0,-0.028472483500230003,0.19939392301537798,0.016745681032605,-0.0006437179118482378,0.006330787300344245,5.153631839135745e-05,95.43185500003165
1648,C,459359780723000.0,1.5136524,12.263029750947368,1.9663111,245,1970-01-06 07:35:59.780723,-0.8809737,0.37071204,1.0599382,5.672893729629789,1.4272389654545912,-86.13959503173828,-26.75170135498047,-90.88450622558594,95472144.0,40289.0,0.014136216739819999,0.16402802356211849,0.051285999992434994,-0.00028879692575507933,0.007320953402830377,0.001370464198408918,95.47214399999939
1648,C,459359821021000.0,3.0776002,9.297995750947369,0.728086,245,1970-01-06 07:35:59.821021,-0.6402239,-0.3888215,1.2197278,8.664234566764224,1.4313646310728445,-86.14949798583984,-26.543954849243164,-90.8735122680664,95512442.0,40298.0,0.0925091486374,0.039512702837677015,0.0542894071679,0.0021487974669856056,0.00410114209622948,0.00212723887887359,95.51244200003566
1648,C,459359861347000.0,7.436536,10.64399675094737,0.8310718,245,1970-01-06 07:35:59.861347,-0.31638354,-1.0524813,1.6767262,10.057676679863807,2.004800783369525,-86.13431549072266,-26.980995178222656,-90.83538818359375,95552768.0,40326.0,0.2119965282006,0.006895594815703577,0.0314372987214,0.006139747962084594,0.0009357305055851129,0.0017285075708459558,95.55276800005231
1648,C,459359901631000.0,6.303692,10.62483635094737,0.7424561,245,1970-01-06 07:35:59.901631,-0.18216023,-1.716141,1.2751216,9.257957941964543,2.145753335325664,-86.13973236083984,-27.316787719726562,-90.75692749023438,95593052.0,40284.0,0.276755672376,0.0336136363383638,0.0316939989618,0.009844446824013878,0.0008159369339052251,0.0012715905979350144,95.59305200004019
1648,C,459359941894000.0,3.3578174,8.778276750947368,-1.5423926,245,1970-01-06 07:35:59.941894,0.03834952,-1.7449032,0.1736381,9.347502264525135,1.7539407210125662,-86.54756927490234,-27.175199508666992,-90.49148559570312,95633315.0,40263.0,0.1945006764861,-0.003963628589206123,-0.01610392164975,0.009487097187117367,0.0005968991310021677,0.0003138516414075346,95.63331500004278
1648,C,459359982209000.0,3.4919386,9.911120750947369,2.2369483,245,1970-01-06 07:35:59.982209,0.099069595,0.43675843,-0.350472,8.529318183749734,0.5686856193131042,-86.19425201416016,-27.131620407104492,-90.6707992553711,95673630.0,40315.0,0.13807395657,-0.018355469855556868,0.014000506522749999,0.006703873165828335,-0.00044989722690031,-4.239959042250253e-05,95.67363000003388
1648,C,459360022503000.0,4.641548,3.2673357509473693,-2.3519094,245,1970-01-06 07:36:00.022503,-0.10013486,0.4282363,-0.5784386,15.026752122581524,0.7266392040035203,-86.53837585449219,-26.94778823852539,-90.53736114501953,95713924.0,40294.0,0.16386535453020004,-0.12937483685632675,-0.002316121281699999,0.00608317130073573,-0.0029763224893243193,0.00023540530945143437,95.7139240000397
1648,C,459360062826000.0,8.145462,-8.216783249052632,0.6490503,245,1970-01-06 07:36:00.062826,0.16937704,1.6053536,-1.406149,26.854568824268977,2.140818482009421,-86.540771484375,-26.78223991394043,-90.60762786865234,95754247.0,40323.0,0.25780530211499997,-0.4949536857330493,-0.03433219374465,0.008501512943952199,-0.012587399508185706,-0.0007388850034037555,95.7542470000335
1648,C,459360103127000.0,1.2957057,7.104157750947369,0.83586186,245,1970-01-06 07:36:00.103127,0.03089267,2.8272119,-1.3496901,10.375477611161385,3.1330089132652255,-86.43360137939453,-26.360376358032227,-90.78447723388672,95794548.0,40301.0,0.19024424973885,-0.4173697600995701,0.029921722480079994,0.009028422494631004,-0.0183837735952502,-8.887320121671786e-05,95.79454800003441
1648,C,459360143425000.0,0.51013917,1.3800607509473686,1.4729371,245,1970-01-06 07:36:00.143425,0.010652645,1.973935,-0.8426242,16.060186245857974,2.1462871209360914,-86.3365707397461,-25.801549911499023,-90.91753387451172,95834846.0,40298.0,0.03638596828563,-0.22397188140532295,0.04651999024504,0.004566372262975248,-0.01292239273468209,0.0015402240696984427,95.83484600001248
1648,C,459360183745000.0,-0.028740235,6.110224750947369,-0.14130616,245,1970-01-06 07:36:00.183745,-0.43356264,-1.2665994,-0.03195793,11.25512076997714,1.3391310287548468,-86.5091552734375,-25.18210792541504,-90.79586791992188,95875166.0,40320.0,0.0097050025296,-0.24413184428180212,0.0268456797504,0.0009291939716350369,-0.009436971109852442,0.0014790519071080706,95.87516600004165
1648,C,459360224048000.0,0.3305127,11.386452750947369,-0.31135255,245,1970-01-06 07:36:00.224048,-0.8628642,-2.492719,0.23861924,5.995189106292961,2.648607517602564,-86.78756713867188,-24.644113540649414,-90.58370971679688,95915469.0,40303.0,0.0060811678284475,-0.042385103320568225,-0.009121751994565,0.0003181150119701942,-0.0057737462696091655,0.000357163730171709,95.91546899999958
1648,C,459360264350000.0,-0.0023950196,12.82585945094737,0.42152345,245,1970-01-06 07:36:00.264350,-0.6348976,-0.8479505,0.3888215,4.558095600796463,1.1284047021340615,-86.78150939941406,-24.029510498046875,-90.5599594116211,95955771.0,40302.0,0.0066118993777404,0.09294270318038084,0.0022200538059,0.00025577799727189235,0.001018786194775084,-0.00013907612019978843,95.9557710000081
1648,C,459360304649000.0,1.4178516,11.781630750947368,1.1879297,245,1970-01-06 07:36:00.304649,-0.16724652,0.9491506,0.47191215,5.881244382054333,1.0731073279267516,-86.53729248046875,-23.758983612060547,-90.7043685913086,95996070.0,40299.0,0.028520742366769804,0.100898423823078,0.032429676245925,0.0007079051648310083,0.0039058017885561943,0.0006981747356792479,95.99607000005199
1648,C,459360344953000.0,1.9782863,12.143278750947369,2.8836036,245,1970-01-06 07:36:00.344953,-0.014913702,0.7840346,0.551807,6.284036969428939,0.9588658080010493,-85.88383483886719,-23.6456298828125,-91.00164031982422,96036374.0,40304.0,0.06843897096080001,0.0871555762821827,0.0820495390616,0.0019539321429771868,0.0037896642101212133,0.002306985146877244,96.03637400001753
1648,C,459360385264000.0,4.1864944,12.380385750947369,2.7494826,245,1970-01-06 07:36:00.385264,0.4825648,-0.9555422,0.8511463,7.065904385018956,1.36761826040148,-85.35306549072266,-23.9631404876709,-91.15972900390625,96076685.0,40311.0,0.12425423739885,0.09923891986793935,0.11353766890409998,0.0038838279610929256,0.0037568742671537847,0.003942157970152666,96.07668500003638
1648,C,459360425569000.0,10.487791,10.864338350947367,-6.9240017,245,1970-01-06 07:36:00.425569,1.9856529,-0.6221144,1.0663297,14.148732940028216,2.338140884349756,-86.09676361083984,-24.63719940185547,-90.78106689453125,96116990.0,40305.0,0.2957235365235,0.07345030246343363,-0.08412699616274999,0.008463602088970158,0.0034801195530329942,0.0005926985824200558,96.11699000000954
1648,C,459360465894000.0,6.200706,12.600727450947367,2.6369166,245,1970-01-06 07:36:00.465894,1.1408982,2.2594259,-0.12783173,8.251961429723485,2.5343628492283505,-85.54414367675781,-25.255977630615234,-91.0932388305664,96157315.0,40325.0,0.33648182076249994,0.07792938923070256,-0.08643835332875,0.012746840516278973,0.0030521930337830206,-0.0034390238591223686,96.15731500001857
1648,C,459360506193000.0,3.8104763,8.052585750947369,0.021555176,245,1970-01-06 07:36:00.506193,-0.80533993,1.0492855,-1.2048141,10.061336091661488,1.7891756422781597,-85.66801452636719,-25.238590240478516,-91.10911560058594,96197614.0,40299.0,0.20172031775385,0.02122373436157796,0.05356687705051201,0.010844503990035193,0.0019978858638226562,-0.0006623438112683563,96.19761400000425
1648,C,459360546508000.0,1.3507911,11.281072050947369,2.1627028,245,1970-01-06 07:36:00.546508,-0.43782368,0.7488809,-1.0258497,6.59614005077645,1.3434581438004096,-85.2640609741211,-24.974746704101562,-91.3271255493164,96237929.0,40315.0,0.10403824761549998,-0.005368792858306851,0.044029180151219996,0.0061633282814326715,0.0003195959833521874,0.0019672925230439127,96.23792900005355
1648,C,459360586816000.0,3.535049,9.55426275094737,2.6417067,245,1970-01-06 07:36:00.586816,-0.0053263223,-0.74675035,-0.2790993,8.970717325080916,0.7972207186186621,-84.9310073852539,-24.963685989379883,-91.4351577758789,96278237.0,40308.0,0.09846922137539998,0.02489693759738653,0.096828069063,0.004081335530042598,0.00039357022907141184,0.0028388370006633894,96.27823700004956
1648,C,459360627120000.0,7.9730206,2.517695750947368,0.07903565,245,1970-01-06 07:36:00.627120,-0.023435818,-2.8815403,-0.33662358,16.852316666888008,2.901230630732661,-85.11420440673828,-25.076494216918945,-91.22940826416016,96318541.0,40304.0,0.23191061857919998,-0.15170509226981727,0.05482839983719999,0.006657814534765098,-0.002555437932958824,0.0030561811612768303,96.3185410000151
1648,C,459360667417000.0,9.733359,-1.869982249052633,0.6011499,245,1970-01-06 07:36:00.667417,0.30040458,-1.5808525,-0.9129316,21.565295172113156,1.8500761186285786,-85.2105712890625,-25.173242568969727,-91.11431884765625,96358838.0,40297.0,0.35675698937059996,-0.38186014450707395,0.013704718554175,0.011860769298776544,-0.010750539173199194,0.001380839535908619,96.35883800004376
1648,C,459360707740000.0,2.5459058,-1.6185032490526332,2.9698243,245,1970-01-06 07:36:00.707740,-0.029827405,0.6711166,-1.5318503,19.381768089391876,1.6726782435646983,-85.08161163330078,-24.81450653076172,-91.20549011230469,96399161.0,40323.0,0.2475683972652,-0.4654985003700493,0.0719961963333,0.01218410628265768,-0.01708402131869012,0.001727858995503827,96.39916100003757
1648,C,459360748036000.0,1.6741188,6.491032750947369,2.430945,245,1970-01-06 07:36:00.748036,0.4346279,1.0780476,-0.8767126,11.266887577980862,1.4559234259819196,-84.82552337646484,-24.457298278808594,-91.35527038574219,96439457.0,40296.0,0.0850250556408,-0.2967290755958249,0.10881469985640001,0.006701092889150088,-0.015357361200560433,0.0036429779364300753,96.4394570000004
1648,C,459360788328000.0,-0.84544194,8.644155750947368,-2.3016138,245,1970-01-06 07:36:00.788328,1.4572818,0.73290193,-0.08841695,9.0584345926334,1.63359512751975,-85.26835632324219,-23.78110694885254,-91.17772674560547,96479749.0,40292.0,0.016694524021560003,-0.08994809244082866,0.0026055063551999953,0.0020492426518779047,-0.007789998227266422,0.002244671474338894,96.4797490000492
1648,C,459360828634000.0,0.51732427,11.954072350947367,-2.3016138,245,1970-01-06 07:36:00.828634,1.3699301,1.8077538,0.66365975,5.902281856601042,2.363287232663544,-85.88619995117188,-23.345428466796875,-90.98304748535156,96520055.0,40306.0,-0.006612555403509999,0.02011729093748457,-0.09276884582280001,0.00020318191355956174,-0.0014073001426968934,-0.0018170617802905431,96.52005500002997
1648,C,459360868949000.0,-1.1472144,14.238921050947368,-1.9399658,245,1970-01-06 07:36:00.868949,0.53263223,0.9832391,1.087635,3.853352152404123,1.5599378556303398,-86.70906066894531,-22.45549964904785,-90.69369506835938,96560370.0,40315.0,-0.012697010295474999,0.1328982644986931,-0.08549964078699998,-0.00038923257057729,0.003084411058704751,-0.003593447018837043,96.56037000002107
1648,C,459360909242000.0,-0.12933107,13.668906350947369,-0.23471193,245,1970-01-06 07:36:00.909242,-0.6412892,-1.0972224,1.164334,3.7052193305375094,1.7236074079251342,-86.95054626464844,-21.811264038085938,-90.56127166748047,96600663.0,40293.0,-0.025717923311354998,0.16737364475227234,-0.043812144887445004,-0.0007739264599100006,0.006049428019724576,-0.002605179890090206,96.60066300001927
1648,C,459360949543000.0,1.0729688,11.793606150947369,0.7927515,245,1970-01-06 07:36:00.949543,-1.1046792,-0.5070659,1.1547467,5.728324662213993,1.6765655081196023,-86.88388061523438,-21.4832820892334,-90.58003234863281,96640964.0,40301.0,0.019014772078364998,0.11813255816942987,0.011244776355284999,-0.00013507184892036497,0.00575309274197376,-0.0006562487596072901,96.64096400002018
1648,C,459360989871000.0,4.414021,10.785303050947368,0.07185059,245,1970-01-06 07:36:00.989871,-0.72970617,-1.2442288,1.3283848,7.922975878065895,1.9609137100230976,-87.00208282470703,-21.72759246826172,-90.48870086669922,96681292.0,40328.0,0.1106396623272,0.06006672514700545,0.017433836542760005,0.002614352015353813,0.003593210348792602,0.0005782755504761796,96.68129200005205
1648,C,459361030176000.0,6.564749,9.40577175094737,1.1711646,245,1970-01-06 07:36:01.030176,-0.65726817,-1.8258632,1.3283848,10.383047037156008,2.3516768590264325,-86.96094512939453,-22.09834098815918,-90.42829895019531,96721597.0,40305.0,0.22124966242500002,0.011911634945183673,0.025049863616474998,0.006688399617068711,0.0014505439017578412,0.0008561527674589833,96.72159700002521
1648,C,459361070484000.0,3.8224514,11.345737350947369,1.8561403,245,1970-01-06 07:36:01.070484,-1.0077401,-2.3467777,0.7765778,7.367560887121966,2.6694528955982983,-86.73762512207031,-22.30758285522461,-90.42118835449219,96761905.0,40308.0,0.20934363686159996,0.02320751443958653,0.061012302954599994,0.008678177353822135,0.0007077913367006586,0.001734496905073445,96.76190500002122
1648,C,459361110773000.0,3.5733693,11.467883450947369,0.19160157,245,1970-01-06 07:36:01.110773,-0.6785734,-2.4991105,0.3536678,6.897451938156281,2.613636559117325,-86.85591125488281,-22.518526077270508,-90.2726058959961,96802194.0,40289.0,0.14898511009114998,0.06473678424376851,0.041250736100215006,0.007218353442989671,0.0017715939248268457,0.0020600377902397207,96.80219400004717
1648,C,459361151063000.0,5.3241286,5.322262750947369,0.3879932,245,1970-01-06 07:36:01.151063,-0.041545313,-1.1739215,-0.32597092,13.172337585025112,1.219046652872713,-86.91410827636719,-22.5711612701416,-90.19776916503906,96842484.0,40290.0,0.1792400951955,-0.05660450476283054,0.011675936641649998,0.006612096760499564,0.00016382477014349539,0.0010662078223848705,96.84248400002252
1648,C,459361191351000.0,3.6380348,-1.5682082490526312,-0.23710695,245,1970-01-06 07:36:01.191351,0.23116238,0.47191215,-1.470065,19.280456312770436,1.5611624603063856,-86.99208068847656,-22.354127883911133,-90.18895721435547,96882772.0,40288.0,0.1805338195296,-0.31920072611383243,0.003039452619999999,0.007247285738222414,-0.007570220570779498,0.00029642680128667755,96.88277200004086
1648,C,459361231674000.0,9.649534,-5.335575249052631,0.22992188,245,1970-01-06 07:36:01.231674,0.36964676,2.466087,-1.361408,24.666905648825672,2.8410659198989903,-86.9817886352539,-22.432947158813477,-90.30304718017578,96923095.0,40323.0,0.26789731836119995,-0.5343560309970492,-0.0001448617888050003,0.009041044386585362,-0.017208984558491038,5.835929304313797e-05,96.92309500003466
1648,C,459361271949000.0,-3.5566041,10.059611750947369,0.2562671,245,1970-01-06 07:36:01.271949,0.78083885,3.52496,-1.2825783,8.128674841988651,3.8314565646631324,-86.89529418945312,-21.416866302490234,-90.48623657226562,96963370.0,40275.0,0.12269637586124998,-0.2995647149430947,0.00979063058475,0.007865580517404585,-0.016793079021369648,0.00019424166912834241,96.96337000001222
1648,C,459362239141000.0,2.3566992,8.416628750947368,0.2682422,245,1970-01-06 07:36:02.239141,0.45593318,-1.0950918,0.49960902,9.256834478804862,1.2871325836593186,-86.93035888671875,-21.22870635986328,-90.41300964355469,97930562.0,967192.0,-0.5802692100204,-0.5434455982457138,0.25365059944280005,-0.22128039230802832,-0.40767641541685506,0.1273991250764031,97.9305620000232
1648,C,459365463212000.0,3.7290456,11.247541750947368,2.3423293,245,1970-01-06 07:36:05.463212,-0.7637946,-0.17257284,0.7552725,7.5371419364980685,1.0879338791264273,-86.5621109008789,-21.42268943786621,-90.55084228515625,101154633.0,3224071.0,9.8104366615404,0.10344512710712928,4.20833393328825,14.879357602794768,-0.7092963794921237,7.192877467213364,101.15463300002739
1648,C,459368687215000.0,0.6658155,12.116933750947368,-0.17004639,245,1970-01-06 07:36:08.687215,0.8245147,-0.5581986,-2.6493127,5.292292165492782,2.8302416769490444,-86.66930389404297,-21.207481384277344,-90.47827911376953,104378636.0,3224003.0,7.084522685491651,6.068340155767565,3.501723309344365,27.234699809854686,9.948927133671932,12.42862384020964,104.37863600003766
1648,C,459371911357000.0,1.8896705,6.816754750947368,2.1219873,245,1970-01-06 07:36:11.911357,-0.22050974,1.0950918,0.33768883,10.923688197803,1.1669980041837589,-86.44832611083984,-20.912879943847656,-90.61173248291016,107602778.0,3224142.0,4.119624871506001,-1.074141443062054,3.1466673347246097,18.06188135635676,8.051002912989887,10.717677753974916,107.6027780000004
1648,C,459375135377000.0,1.0442286,16.45670929094737,0.60354495,245,1970-01-06 07:36:15.135377,0.4495416,1.7789917,-0.018109497,1.5095104457299109,1.83500056476314,-85.83422088623047,-21.512868881225586,-90.90890502929688,110826798.0,3224020.0,4.729474688191,5.921660770174733,4.3935852423225,14.26483698122716,7.81424963049891,12.15496255672571,110.8267980000237
1648,C,459378359509000.0,8.701106,-2.98605924905263,1.3651612,245,1970-01-06 07:36:18.359509,0.37923414,1.4572818,-0.9108011,22.17464740771727,1.7598430104171197,-85.7933349609375,-21.59272575378418,-90.98764038085938,114050930.0,3224132.0,15.7101225672836,-9.880916669562918,3.1736842484059,32.94997978924391,-6.3825818207031135,12.19893785884057,114.05093000002671
1648,C,459381583399000.0,4.9792457,13.683276550947369,3.8440065,245,1970-01-06 07:36:21.583399,-0.10333065,-0.22264028,0.70627034,7.288353977167532,0.7477056310284259,-85.04772186279297,-22.180702209472656,-91.25476837158203,117274820.0,3223890.0,22.051974521056497,-14.350796056297288,8.3968918281765,60.87042359106438,-39.06018816988673,18.651132253766615,117.27482000004966
1648,C,459384807657000.0,4.29427,2.441054250947369,-0.5292993,245,1970-01-06 07:36:24.807657,0.2514024,1.3262542,-0.9768475,15.537947423065145,1.6662486033001347,-85.18721008300781,-22.074377059936523,-91.2625732421875,120499078.0,3224258.0,14.9501035919253,-5.6032271086722405,5.3437356036288,59.652123186203234,-32.168459410919155,22.151663961008847,120.49907800002256
1648,C,459384847974000.0,6.2270513,-4.0638182490526304,0.79035646,245,1970-01-06 07:36:24.847974,-0.026631612,1.3060142,-1.4104102,22.32868784152565,1.9224045530593705,-85.22969055175781,-21.992990493774414,-91.31289672851562,120539395.0,40317.0,0.21209405542605,-0.427819088055805,0.00526252075986,0.30564716127413216,-0.1215768447567423,0.1078277786904888,120.53939500002889
1648,C,459388031733000.0,3.9781277,1.5548967509473677,-2.8812087,245,1970-01-06 07:36:28.031733,-0.6040049,0.12144015,-0.47617322,16.554997562551556,0.7786594664557807,-85.6468276977539,-21.83217430114746,-91.17598724365234,123723154.0,3183759.0,16.245415243930502,-35.194738899943054,-3.3283848183850804,26.198371674705058,-56.706819798656625,-5.290010261582487,123.72315400000662
1648,C,459391255870000.0,2.7662477,7.700517750947368,4.2439747,245,1970-01-06 07:36:31.255870,-0.9576728,0.15339808,1.1984226,10.91120928738934,1.5417149188479322,-85.19945526123047,-21.62210464477539,-91.3622817993164,126947291.0,3224137.0,10.8723951345149,-16.67618042705231,2.1968721414709993,43.71576790006491,-83.61947511309042,-1.8240759438038672,126.9472910000477
1648,C,459394479938000.0,5.630691,11.815161150947368,-0.78556645,245,1970-01-06 07:36:34.479938,-0.3153183,-0.10226539,-1.28897,7.944563486533351,1.3309122815598111,-85.45812225341797,-22.26732063293457,-91.27171325683594,130171359.0,3224068.0,13.5361506803158,-0.1359284770630233,5.575071684880499,39.34740574406479,-27.101691165136653,12.528637694168712,130.17135900002904
1648,C,459397703954000.0,-3.8775368,4.934269750947369,-7.2449346,245,1970-01-06 07:36:37.703954,-0.551807,-3.8211036,-1.2516857,14.90077339391266,4.058576200931362,-86.40830993652344,-21.56545639038086,-90.75582885742188,133395375.0,3224016.0,2.8260985956335993,-4.595140190698472,-12.945231936608401,26.37607673082464,-7.626520540980874,-11.880757287067393,133.3953750000219
1648,C,459400928050000.0,1.4394068,10.50269075094737,-6.9216065,245,1970-01-06 07:36:40.928050,-0.17150758,-0.97897804,-0.18216023,9.852100323945624,1.0104430722180002,-87.58190155029297,-21.424943923950195,-90.28401184082031,136619471.0,3224096.0,-3.93038259024,-6.711019496841593,-22.837144247172798,-1.7801588049372585,-18.226072111979587,-57.68290796231211,136.6194710000418
1648,C,459404152185000.0,-1.0705738,16.11182645094737,-1.3507911,245,1970-01-06 07:36:44.152185,-1.2442288,-1.9867182,1.0045444,2.130671218810575,2.5503458519447983,-88.68840026855469,-20.411439895629883,-89.8172836303711,139843606.0,3224135.0,0.5945836922275,11.307875209365443,-13.335663318038,-5.377532990021765,7.410441696349042,-58.313007459630455,139.84360600000946
1648,C,459410600226000.0,5.1684523,-2.2124682490526304,-2.574646,245,1970-01-06 07:36:50.600226,0.61572284,-2.279666,-0.7595336,20.41069139629501,2.4805005496436854,-88.92573547363281,-20.313982009887695,-89.61798858642578,146291647.0,6448041.0,13.21164429050925,-18.378986020248227,-12.655689681860549,44.51156204401693,-22.79740621205772,-83.79665489440941,146.29164700000547
1648,C,459413824307000.0,1.456172,9.077653750947368,0.119750984,245,1970-01-06 07:36:53.824307,-0.8926916,-1.325189,1.707619,8.414588586352691,2.338586502054726,-89.00164794921875,-19.972511291503906,-89.5437240600586,149515728.0,3224081.0,10.679162668884151,-20.52903673093286,-3.957390189040148,38.51294839622402,-62.72130844982534,-26.780957581626698,149.5157280000276
1648,C,459417048459000.0,-1.6381935,9.659643750947367,3.420088,245,1970-01-06 07:36:57.048459,-0.34408042,0.9214538,0.9054748,8.587449208028554,1.336919240042889,-88.42237854003906,-19.226173400878906,-89.78646087646484,152739880.0,3224152.0,-0.2934324916340001,-1.3907419923355449,5.7064894699707835,16.742586361220717,-35.336349205091636,2.819680972405535,152.73988000000827
1648,C,459420272596000.0,-0.9316626,12.533666950947367,-0.10538086,245,1970-01-06 07:37:00.272596,0.5368933,-0.92784536,-2.2764702,4.920903602349485,2.516240846808282,-88.48359680175781,-18.622543334960938,-89.7169418334961,155964017.0,3224137.0,-4.142784068342849,4.18059449323739,5.34353496711909,-7.1514849755170395,4.497433336350086,17.813396319262818,155.96401700004935
1648,C,459423496608000.0,1.099314,8.399862750947369,0.7232959,245,1970-01-06 07:37:03.496608,0.6306366,1.6255935,-0.73822826,9.060627257206523,1.893472395458787,-88.34367370605469,-18.36848258972168,-89.82917785644531,159188029.0,3224012.0,0.27025506270839983,2.1496578806325237,0.99608275197024,-6.242539992256766,10.204404808192544,10.219501800878314,159.18802900001174
1648,C,459426720742000.0,-2.320774,13.704831750947369,0.5125342,245,1970-01-06 07:37:06.720742,-0.4346279,-1.0748519,-0.49002165,4.363631771053286,1.2587014085400645,-88.2425765991211,-17.291641235351562,-89.81665802001953,162412163.0,3224134.0,-1.9690753578200002,4.037735351585941,1.9922409218166999,-2.7386121366796723,9.974492445682724,4.817377979830691,162.41216300002998
1648,C,459429944755000.0,0.58677983,3.4757027509473684,0.48379397,245,1970-01-06 07:37:09.944755,-0.10333065,1.5723304,-1.8695391,13.909524888912065,2.445010543212931,-88.21642303466797,-17.01496696472168,-89.9036865234375,165636176.0,3224013.0,-2.795209873002105,-3.9001941094714234,1.606087486173105,-7.680058759939234,0.2217173763066766,5.800528782814217,165.63617599999998
1648,C,459433168922000.0,3.779341,3.193090750947368,-0.5604346,245,1970-01-06 07:37:13.168922,-0.23648871,-2.7281423,-0.28442562,14.677333805794538,2.7531046569862068,-88.37195587158203,-16.981884002685547,-89.73171997070312,168860343.0,3224167.0,7.038551349049305,-20.846184630688278,-0.12355109505260498,6.840620778401337,-39.893228851762245,2.3899724542749046,168.86034300003666
1648,C,459436393006000.0,0.45744875,5.303102750947369,2.2177882,245,1970-01-06 07:37:16.393006,-1.2058793,-0.8245147,1.4828482,12.272051983213597,2.081539853312403,-88.2170181274414,-16.54683494567871,-89.75260162353516,172084427.0,3224084.0,6.8298830221695,-17.899802434818607,2.6717236120512005,22.356498680648304,-62.460158481053845,4.10776112064745,172.08442700002342
1648,C,459442841090000.0,4.567302,2.429078750947369,-0.07903565,245,1970-01-06 07:37:22.841090,1.9036276,0.12357068,-2.0847225,15.618289430050396,2.8257982331446936,-88.1710433959961,-16.662504196166992,-89.7476577758789,178532511.0,6448084.0,16.2000074575315,-38.262345286268285,6.895428048807101,74.24933416195617,-181.06912306298844,30.844898774976922,178.5325109999976
