Subject-id_accel,Activity_accel,Timestamp_accel,accel_x,accel_y,accel_z,Segment_accel,DateTime,gyro_x,gyro_y,gyro_z,accel_magnitude,gyro_magnitude,Roll,Pitch,Yaw,Time_Difference,Difference_Microseconds,vx,vy,vz,dx,dy,dz,Time_diff
1600,C,246194081049325.0,2.5122270539204155,8.085129,1.7369139374940215,3,1970-01-03 20:23:14.081049325,0.76438904,-0.54670715,-0.3065796,8.170484197240617,0.9885192782487371,99.28275299072266,11.881911277770996,20.06603240966797,15005491.0,50354.0,0.1021573318263086,-0.12392826118390003,0.10462146214804395,0.0045753496743422195,-0.00707854969492449,0.005802066294088159,15.00549118599156
1600,C,246194131403329.0,-0.42484574607958425,13.55275,1.1654570274940212,3,1970-01-03 20:23:14.131403329,0.5264435,-0.45500183,-0.629364,14.178145022567747,0.9382262352394538,99.17417907714844,12.036627769470215,20.0211124420166,15055845.0,50354.0,0.05255399918750861,0.05130767958299996,0.07307299378550396,0.003895167180934876,-0.0018283683829658612,0.004473813317038936,15.055845190014224
1600,C,246194181757333.0,0.7408189539204155,18.276947,3.3906614774940214,3,1970-01-03 20:23:14.181757333,-0.24378967,-0.15150452,-0.38549805,18.550089757102132,0.4806201923899388,99.16104888916016,12.056863784790039,20.01660919189453,15106199.0,50354.0,0.007955257453808609,0.30790708136899997,0.11470939560008395,0.0015234415544584437,0.009043950036488503,0.004727797217560946,15.106199194007786
1600,C,246194232111337.0,3.3257341539204153,13.685394,4.5000822774940215,3,1970-01-03 20:23:14.232111337,-0.46466064,0.11099243,0.27134705,13.898854347295904,0.5494161004432042,99.1385269165039,12.042586326599121,20.020004272460938,15156553.0,50354.0,0.1023836075961086,0.31124665935699997,0.19866525551933395,0.0027780016053617655,0.015588433730258502,0.007889833591233584,15.156553198001347
1600,C,246194282465341.0,2.9521074539204153,11.233139,3.111746077494021,3,1970-01-03 20:23:14.282465341,0.03791809,0.45942688,0.33042908,11.299861709573811,0.567180938083632,99.14469146728516,12.022623062133789,20.04050636291504,15206907.0,50354.0,0.1580572181606086,0.13390470534099996,0.19164300249353397,0.0065571186700768705,0.011207575909001545,0.009826791011989976,15.206907201994909
1600,C,246194332819344.0,1.5483141539204155,9.834747,1.1535093774940215,3,1970-01-03 20:23:14.332819344,0.33184814,0.46580505,0.220047,10.097498721717503,0.6127954102601961,99.07369995117188,12.006250381469727,20.043054580688477,15257261.0,50354.0,0.11330711482060861,0.036956965821999956,0.10738633659023396,0.006832139811468106,0.004301784294870849,0.007528661670112026,15.25726120499894
1600,C,246194383173348.0,1.3872575539204153,5.733261,0.33548567749402136,3,1970-01-03 20:23:14.383173348,0.27095032,0.06971741,0.24758911,6.404085320928067,0.37359732407473506,99.08755493164062,11.993474006652832,20.044570922851562,15307615.0,50354.0,0.0739088888883086,-0.10151346258400004,0.03748842849943396,0.0047135373253794095,-0.0016253389189768764,0.003647511960662569,15.307615208992502
1600,C,246194433527352.0,2.1229143539204154,5.725891,0.46486497749402145,3,1970-01-03 20:23:14.433527352,-0.23686218,-0.25486755,0.095336914,6.141977575276912,0.36076347865103847,99.24066925048828,12.049211502075195,20.06587791442871,15357969.0,50354.0,0.0883755981237086,-0.20496213009600006,0.020150428440633954,0.004085836529501557,-0.007716135996904364,0.0014511735011800899,15.357969213015167
1600,C,246194483881356.0,3.0578050539204154,5.772705,2.102957032494021,3,1970-01-03 20:23:14.483881356,-0.4903717,-0.5836487,-0.03236389,5.801491079517427,0.7629925494711676,99.2100601196289,12.0554838180542,20.036684036254883,15408323.0,50354.0,0.13043497253120862,-0.20396904850800007,0.06465005474546896,0.005508993737378851,-0.010295660283712912,0.0021350217651765133,15.408323217008729
1600,C,246194534235360.0,4.675740253920416,6.3407745,2.8481505174940214,3,1970-01-03 20:23:14.534235360,-0.4389038,-0.3193817,-0.06678772,6.46981213174001,0.5469020163540527,99.18484497070312,12.06132984161377,20.021106719970703,15458677.0,50354.0,0.19470747021550863,-0.18848812662850004,0.12465403478604897,0.0081861112810341,-0.009880894298411665,0.004766109062135027,15.45867722100229
1600,C,246194584589364.0,4.592793453920415,7.5066376,1.9562895474940214,3,1970-01-03 20:23:14.584589364,-0.37495422,0.14212036,-0.1773529,7.56874297352562,0.43845514589379375,99.16790771484375,12.068949699401855,20.029726028442383,15509031.0,50354.0,0.23335387316230863,-0.14483290555830003,0.12096138751620397,0.010777300442223307,-0.008392023627367066,0.006183859487303823,15.509031224995852
1600,C,246194634943368.0,2.7337083939204154,8.482849,0.7866423774940214,3,1970-01-03 20:23:14.634943368,-0.417099,0.6173248,-0.071517944,8.630082953305363,0.7484492640186288,99.14320373535156,11.915994644165039,20.059310913085938,15559385.0,50354.0,0.18445933702308862,-0.09090189587180003,0.06905879707542396,0.010519283192837747,-0.00593509509560563,0.0047841381874634175,15.559385229018517
1600,C,246194685297372.0,0.9907426539204152,15.048859,2.2380888674940214,3,1970-01-03 20:23:14.685297372,-0.59085083,0.7834015,0.12663269,15.28008139659243,0.9893727566951573,98.87883758544922,11.85888957977295,20.047807693481445,15609739.0,50354.0,0.0937705040314886,0.09898861231599997,0.07615365855506395,0.007004992708231091,0.00020359925991562177,0.003656013995408794,15.609739233012078
1600,C,246194735651376.0,-1.2018842460795849,18.06282,4.297888077494021,3,1970-01-03 20:23:14.735651376,-0.45191956,0.707428,0.15545654,18.828713907643063,0.853728528118491,98.86332702636719,11.845757484436035,20.08229637145996,15660093.0,50354.0,-0.005315911865791416,0.34018354218299995,0.16455629154396398,0.002227021266955758,0.011057037333821322,0.006060354413643227,15.66009323700564
1600,C,246194786005380.0,-0.04085824607958477,13.653809,4.217153777494021,3,1970-01-03 20:23:14.786005380,-0.25350952,0.4267578,0.040374756,14.298555092658747,0.49801547919068734,98.85501861572266,11.840476036071777,20.1035213470459,15710447.0,50354.0,-0.031288527725091414,0.305060368333,0.21438320878303394,-0.0009215899755796571,0.016245305935061332,0.009540559799732827,15.710447240999201
1600,C,246194836359383.0,1.2790117539204156,11.626175,3.9026091774940213,3,1970-01-03 20:23:14.836359383,-0.21543884,0.18937683,-0.049331665,11.99966190082311,0.29105169762959077,98.8462905883789,11.841455459594727,20.11347007751465,15760801.0,50354.0,0.031172990866908598,0.143004957168,0.20443127191773394,-2.908871478468756e-06,0.011280940700138678,0.010544492180603233,15.760801244003233
1600,C,246194886713387.0,1.3815202539204154,7.613983,3.420553477494021,3,1970-01-03 20:23:14.886713387,-0.0011138916,-0.097213745,0.05871582,8.050602202606523,0.11357508745184383,98.84513092041016,11.839303016662598,20.108102798461914,15811155.0,50354.0,0.06698421436140861,-0.009059742034000012,0.18437526616463396,0.0024713039560333426,0.0033723386814287176,0.009788982209299777,15.811155247996794
1600,C,246194937067391.0,2.0850114539204156,4.154892,2.6904509274940214,3,1970-01-03 20:23:14.937067391,0.061157227,-0.055267334,0.15939331,4.474592020644423,0.1794461253261078,98.84735870361328,11.831851959228516,20.104061126708984,15861509.0,50354.0,0.08727686880830861,-0.19716423412500003,0.15385675790438397,0.0038838312909639703,-0.005192101047755145,0.008515667669985665,15.861509251990356
1600,C,246194987421395.0,2.9540605539204154,3.7549896,2.8179381074940215,3,1970-01-03 20:23:14.987421395,0.14736938,0.036880493,0.25958252,3.884407572959883,0.3007673346875585,98.85469055175781,11.818745613098145,20.103883743286133,15911863.0,50354.0,0.1268687159414086,-0.29432211095680005,0.13868471073389396,0.005391543387243631,-0.012374151710124482,0.007365316555905923,15.91186325601302
1600,C,246195037775399.0,2.8532152539204154,5.564728,3.4735624774940215,3,1970-01-03 20:23:15.037775399,0.47029114,-0.08706665,0.30075073,5.786395757698742,0.5649826187594226,98.87681579589844,11.804559707641602,20.097118377685547,15962217.0,50354.0,0.1462097830140086,-0.25882666998480003,0.15840111022824396,0.00687529736820054,-0.013926626857766664,0.007479729714363747,15.962217260006582
1600,C,246195088129403.0,1.7590227539204153,6.271866,2.0959990243940214,3,1970-01-03 20:23:15.088129403,0.56137085,-0.06448364,0.07385254,6.54640124780466,0.56986802746059,98.68707275390625,11.925747871398926,20.048686981201172,16012571.000000002,50354.00000000186,0.1161223163234129,-0.19545927286200726,0.14022484993304044,0.006604735265018506,-0.011437557183054491,0.007518505798980935,16.012571264000144
1600,C,246195138483407.0,1.3219804539204154,7.5227203,2.2968962374940216,3,1970-01-03 20:23:15.138483407,0.5388031,-0.39990234,-0.09602356,7.872899112574868,0.6778282866494723,98.70999908447266,11.93351936340332,20.02923011779785,16062925.0,50353.99999999814,0.07757041776380573,-0.14616290072489463,0.11059992400855116,0.004876601966113723,-0.008601021464397111,0.006315015333527217,16.062925267993705
1600,C,246195188837411.0,2.211400053920415,9.306778,0.6368467774940214,3,1970-01-03 20:23:15.188837411,0.5296631,-0.55067444,-0.022125244,9.527007557273802,0.7643787443361982,98.73544311523438,11.85533332824707,20.002532958984375,16113278.999999998,50353.99999999814,0.08895992104590529,-0.06975292130089747,0.07386284788835122,0.004192734340211939,-0.005436112651143166,0.004644219208048139,16.11327927201637
1600,C,246195239191415.0,-0.5887557460795847,17.057343,0.4229948774940213,3,1970-01-03 20:23:15.239191415,-0.036087036,-0.5900574,-0.69155884,17.651699789277828,0.9097931845448013,98.65067291259766,11.944101333618164,19.962024688720703,16163633.0,50354.00000000186,0.040853315738510095,0.1703002744170063,0.02668363334763494,0.003268307862521347,0.0025314807094043656,0.0025314587580785174,16.163633276009932
1600,C,246195289545419.0,0.8475542539204155,19.443436,6.232839877494022,3,1970-01-03 20:23:15.289545419,-0.8560028,-0.641922,-0.44570923,20.07367409982161,1.1590778081729598,98.60186004638672,11.970947265625,19.933006286621094,16213987.0,50354.0,0.006515770031908598,0.4255109128829999,0.16757395162633398,0.0011926114724418314,0.015000738262652259,0.0048908232168896155,16.213987280003494
1600,C,246195339899423.0,3.9989671839204153,8.522293,5.849859477494022,3,1970-01-03 20:23:15.339899423,-0.39137268,-0.059036255,0.45983887,9.32060260336433,0.6067203972322707,98.58094024658203,11.948654174804688,19.926509857177734,16264341.000000002,50354.00000000186,0.12202087024052312,0.21062395903300773,0.3042061216605452,0.0032361669921391334,0.016015967670229916,0.011878006905144197,16.264341283997055
1600,C,246195390253426.0,2.7420396939204155,14.233841,3.8102781774940215,3,1970-01-03 20:23:15.390253426,0.24868774,0.33758545,0.04248047,14.36479951940775,0.42144290053271866,98.5968246459961,11.944029808044434,19.943239212036133,16314695.0,50353.99999999814,0.16971833016339233,0.07946198571799701,0.24321328573962497,0.007345117848569107,0.007303493830995776,0.013782378420113574,16.314695287001086
1600,C,246195440607430.0,0.8601427539204152,10.280182,1.6649840074940214,3,1970-01-03 20:23:15.440607430,0.2590332,0.055923462,0.108932495,10.656692646164416,0.286516876939615,98.45720672607422,12.018547058105469,19.913484573364258,16365049.0,50354.0,0.0906921474892886,0.12372035707099997,0.13785067603144396,0.006556354595861548,0.005115521844398578,0.009594047365510203,16.365049290994648
1600,C,246195490961434.0,3.1654710939204156,5.870743,2.7010100074940215,3,1970-01-03 20:23:15.490961434,0.34706116,0.115493774,0.4034729,5.920753149637426,0.5445921792017571,98.47515106201172,11.997742652893066,19.916288375854492,16415403.000000002,50354.00000000186,0.10135287984709233,-0.08683736127500324,0.10992263131535804,0.004835117653248242,0.000928603185155844,0.006238188559070665,16.415403295017313
1600,C,246195541315438.0,3.313664453920415,5.7997894,1.6383879374940213,3,1970-01-03 20:23:15.541315438,0.13148499,0.16723633,-0.12709045,5.826468157113973,0.2478069311951776,98.38200378417969,11.783461570739746,19.904735565185547,16465757.0,50353.99999999814,0.16312519568798256,-0.19964020576519265,0.10925302206095992,0.006658764507746335,-0.007212645705370745,0.005518185425055353,16.465757299010875
1600,C,246195591669442.0,2.9339494839204154,6.8745117,2.0682280274940212,3,1970-01-03 20:23:15.591669442,-0.11735535,-0.0016021729,-0.24635315,6.91020445782212,0.2728822450188845,98.37650299072266,11.795659065246582,19.906490325927734,16516110.999999998,50353.99999999814,0.15729617611301275,-0.17436832120529358,0.09332147015050049,0.008067248877833359,-0.009416412683535585,0.0051002179904077495,16.516111303004436
1600,C,246195642023446.0,3.1865587339204153,6.212784,2.3284208974940213,3,1970-01-03 20:23:15.642023446,-0.12545776,0.08413696,-0.13511658,6.2333782753456,0.2026700959025667,98.37129211425781,11.801732063293457,19.911745071411133,16566465.0,50354.00000000186,0.1540960354005843,-0.16397035616110608,0.11069442998442804,0.007839921709278124,-0.00851835288005416,0.005136508317697286,16.566465306997998
1600,C,246195692377450.0,3.7110948699204154,7.0734253,2.9691679774940214,3,1970-01-03 20:23:15.692377450,-0.31303406,0.28883362,-0.22219849,7.127851458189271,0.4804033219292599,98.35897064208984,11.810623168945312,19.927993774414062,16616819.0,50354.0,0.17366222478390062,-0.15896230845390003,0.13337739510557395,0.008251969716664777,-0.00813047569701201,0.00614499634029098,16.61681931099156
1600,C,246195742731454.0,2.403035153920415,7.631851,0.9979154774940213,3,1970-01-03 20:23:15.742731454,-0.28511047,0.33872986,-0.052261353,7.807857049946203,0.4458218783063827,98.34346008300781,11.742457389831543,19.944520950317383,16667172.999999998,50353.99999999814,0.1539354516102349,-0.12323445859489547,0.09987926014623025,0.008247926698574845,-0.007104868003987261,0.005872702809274457,16.667173315014224
1600,C,246195793085458.0,0.16394525392041537,10.849609,0.46503287749402133,3,1970-01-03 20:23:15.793085458,-0.6216736,0.31878662,0.2947998,11.507089361400926,0.7582940696774731,98.31988525390625,11.870655059814453,19.959367752075195,16717527.0,50354.00000000186,0.06462886572821099,-0.028161481580001115,0.03683265073353531,0.005502793817630256,-0.003811695585783512,0.0034419957802199848,16.717527319007786
1600,C,246195843439462.0,-0.9005537460795843,18.345764,4.932348477494021,3,1970-01-03 20:23:15.843439462,-0.34111023,0.42131042,0.65960693,19.110150814605962,0.853779808331899,98.30622100830078,11.834975242614746,19.975797653198242,16767881.0,50354.0,-0.018545592007091397,0.241582706021,0.13588987037453396,0.001160238582476628,0.005373306167751029,0.00434863491393786,16.767881323001347
1600,C,246195893793466.0,0.38902765392041516,16.86728,4.544576877494022,3,1970-01-03 20:23:15.893793466,0.14292908,0.1421051,-0.28897095,17.350785644395817,0.3523163227833177,98.31526947021484,11.848245620727539,19.985111236572266,16818235.0,50354.0,-0.012878692422291402,0.393089608788,0.238600549662534,-0.0007911692090785707,0.015979144869946192,0.00942854530527326,16.81823532699491
1600,C,246195944147469.0,0.7425127539204155,11.554459,4.094213777494021,3,1970-01-03 20:23:15.944147469,-0.4684906,-0.27134705,-0.16795349,12.077882681425223,0.5668518665711904,98.28927612304688,11.858511924743652,19.97262954711914,16868589.0,50354.0,0.028488792848208596,0.22210492280299995,0.21749883232063397,0.0003930154984233172,0.015488752721866606,0.01148321414019022,16.86858932999894
1600,C,246195994501473.0,1.9938097539204154,8.911697,6.054998677494021,3,1970-01-03 20:23:15.994501473,0.0801239,0.08187866,-0.18310547,9.889721724963767,0.21598973924361892,98.29441833496094,11.866982460021973,19.978120803833008,16918943.0,50354.0,0.06889239177990861,0.02180720961199996,0.25552672197923393,0.002451766085382107,0.006140975757812453,0.011909364380607775,16.9189433339925
1600,C,246196044855477.0,3.5858202119204154,5.6908264,3.2364256774940214,3,1970-01-03 20:23:16.044855477,0.6555939,-0.06336975,0.05229187,5.804706986470179,0.660721973753234,98.32645416259766,11.864853858947754,19.974533081054688,16969297.0,50354.0,0.1404783436499746,-0.12582146835820004,0.23393019098553394,0.00527132700591817,-0.0026187669924530796,0.012323056697713962,16.969297338015167
1600,C,246196095209481.0,1.6204424539204152,3.2652283,1.4355833774940214,3,1970-01-03 20:23:16.095209481,0.41186523,0.32003784,-0.06669617,3.892623545089422,0.5258379653538602,98.35047912597656,11.86583423614502,19.991207122802734,17019651.0,50354.0,0.1310780751378746,-0.2679826108181001,0.11762717197743396,0.00683697595582168,-0.00991480530142171,0.008851159727318644,17.01965134200873
1600,C,246196145563485.0,2.1701555539204156,5.444641,3.8068449774940216,3,1970-01-03 20:23:16.145563485,0.17529297,-0.036010742,0.22885132,5.8928680774808235,0.29051217794879763,98.3585205078125,11.854775428771973,19.987689971923828,17070005.0,50354.0,0.09543588604340861,-0.27418082063390004,0.13198861869353395,0.005702942000661167,-0.013650048713667007,0.006284576761722959,17.07000534600229
1600,C,246196195917489.0,2.243763953920415,6.514023,2.5424254174940213,3,1970-01-03 20:23:16.195917489,0.4118805,-0.065200806,0.17237854,6.676043971706601,0.4512328140060641,98.378173828125,11.846722602844238,19.983110427856445,17120359.0,50354.0,0.1111292514489086,-0.19238591647200004,0.15985558073461398,0.005200690466644071,-0.011746750740115247,0.007347761409002481,17.12035934999585
1600,C,246196246271493.0,1.8777208539204153,6.3926544,1.8886320774940213,3,1970-01-03 20:23:16.246271493,0.21638489,-0.26583862,0.024307251,6.632928293311188,0.34363270355860126,98.22528839111328,11.937080383300781,19.93634033203125,17170713.0,50354.0,0.10376662300700859,-0.16851778310020005,0.11156073455131395,0.0054104334311766275,-0.009086472444129282,0.006833448569953807,17.170713354018517
1600,C,246196296625497.0,1.2558031539204153,9.221832,2.1226103524940214,3,1970-01-03 20:23:16.296625497,0.32843018,-0.68066406,-0.05632019,9.523829459159838,0.757853488157277,98.0273208618164,12.010896682739258,19.859315872192383,17221067.0,50354.0,0.07889273394540859,-0.10034327590720007,0.10099105065980896,0.004598814629991008,-0.006769114882629312,0.005351416296260441,17.22106735801208
1600,C,246196346979501.0,3.1360368839204154,8.594635,0.27841787749402136,3,1970-01-03 20:23:16.346979501,0.09169006,-0.5737915,0.040100098,8.798323669831216,0.5824532345473439,98.12513732910156,11.795458793640137,19.85047721862793,17271421.0,50354.0,0.11057335663271861,-0.044904010341000056,0.060450687746408965,0.004770187762485508,-0.003656890925870935,0.004064618647853349,17.27142136200564
1600,C,246196397333505.0,0.34988885392041524,13.671646,0.19981977749402136,3,1970-01-03 20:23:16.397333505,-0.6837616,-0.25845337,-0.8662262,14.187697921146196,1.1334354413310697,98.08358001708984,11.87996768951416,19.842409133911133,17321775.0,50354.0,0.08776515230161859,0.06712895673699999,0.012040589439633952,0.004993568639439808,0.0005595574754120905,0.0018251128857130028,17.3217753659992
1600,C,246196447687508.0,-0.9883222460795844,18.386566,1.6033842774940215,3,1970-01-03 20:23:16.447687508,-1.1673431,-0.60365295,-0.70085144,18.96524129939371,1.4893889814656835,97.85775756835938,11.976386070251465,19.783329010009766,17372129.0,50354.0,-0.0160738375143914,0.313660403524,0.045399268492433954,0.0018049722323980192,0.009587133723291197,0.0014461633031556738,17.372129369003233
1600,C,246196498041512.0,5.795598053920415,11.762238,3.642141577494021,3,1970-01-03 20:23:16.498041512,-0.3684082,-0.6079712,0.7213898,12.058920433576533,1.0127965370205014,97.83192443847656,11.944805145263672,19.74751853942871,17422483.0,50354.0,0.12103278301400859,0.26558723830799996,0.13206660445103396,0.002642551370843862,0.014583717878404264,0.004468058283097692,17.422483372996794
1600,C,246196548395516.0,2.4673814539204155,14.054123,5.239919877494021,3,1970-01-03 20:23:16.548395516,0.10223389,0.59150696,-0.26190186,14.44931465561174,0.6549235346698371,97.8436050415039,11.953742027282715,19.779285430908203,17472837.0,50354.0,0.2080370350689086,0.15650932089699998,0.22362366125223396,0.008284990809873606,0.010627125071104283,0.008955213819611176,17.472837376990356
1600,C,246196598749520.0,0.9196977539204152,10.494415,2.8035032774940216,3,1970-01-03 20:23:16.598749520,0.4210968,0.3426056,0.3030243,10.863224508270521,0.62171121793972,97.86782836914062,11.936392784118652,19.794517517089844,17523191.0,50354.0,0.0852764932158086,0.12458934122599999,0.20250926477313397,0.007384754701624327,0.00707722101627077,0.010728748678540689,17.52319138101302
1600,C,246196649103524.0,3.7733507339204153,6.6124725,1.3682768774940213,3,1970-01-03 20:23:16.649103524,0.5155945,0.42103577,0.8728485,6.653542563868932,1.0977127638877089,97.8967514038086,11.890273094177246,19.80971336364746,17573545.0,50354.0,0.11815688177836858,-0.06276909341250003,0.10503290896213396,0.005121842082228399,0.0015564483792004885,0.007742989308132841,17.573545385006582
1600,C,246196699457528.0,1.8570451539204154,5.5101624,1.2510893774940213,3,1970-01-03 20:23:16.699457528,0.08000183,0.16766357,-0.07260132,5.850823444953896,0.19945505051072587,97.92192840576172,12.03748893737793,19.82271957397461,17623899.0,50354.0,0.1417564772681686,-0.18825762112270006,0.06594778420183395,0.006543838640714667,-0.006320099591852733,0.004304780911789221,17.623899389000144
1600,C,246196749811532.0,2.577748253920415,5.4806366,2.0450041514940214,3,1970-01-03 20:23:16.749811532,0.12782288,-0.5956726,-0.16308594,5.581878001921767,0.6306834062094372,97.73664855957031,12.024022102355957,19.75501251220703,17674253.0,50354.0,0.11165479362920859,-0.21675385357700008,0.08298574677933196,0.006380135567383266,-0.01019697389851435,0.0037496995095128143,17.674253392993705
1600,C,246196800165536.0,4.456349383920415,6.0632324,2.3787596474940216,3,1970-01-03 20:23:16.800165536,0.0009918213,-0.34562683,0.011184692,6.125274107896341,0.3458091766574087,97.7330322265625,12.025796890258789,19.73743438720703,17724607.0,50354.0,0.17709747622791858,-0.20282921018700004,0.11137710116712196,0.007269915898192891,-0.010563842796386232,0.00489347342274787,17.72460739701637
1600,C,246196850519540.0,4.464222923920415,7.7454834,3.1003019774940217,3,1970-01-03 20:23:16.850519540,-0.35983276,0.4030609,-0.14256287,7.854568861669291,0.5588039693673126,97.71949768066406,12.030149459838867,19.758827209472656,17774961.0,50354.0,0.22459324899450858,-0.14580716230340002,0.13794633453232397,0.01011336738892505,-0.008777617950190802,0.006277216140604951,17.774961401009932
1600,C,246196900873544.0,2.8218584239204154,9.783676,1.3830168474940214,3,1970-01-03 20:23:16.900873544,-0.341568,0.9584961,0.14941406,9.84306538561632,1.0284493345152659,97.62149810791016,11.835103034973145,19.7875919342041,17825315.0,50354.0,0.18344167009458862,-0.05213755378620003,0.11287651805672397,0.0102730951579062,-0.004983654116987861,0.0063149669596344596,17.825315405003494
1600,C,246196951227548.0,-0.1594647460795846,16.039642,1.9417174074940213,3,1970-01-03 20:23:16.951227548,-0.57362366,1.1504822,0.15927124,16.483039494674898,1.2953843922634596,97.42899322509766,11.858634948730469,19.8087215423584,17875669.0,50354.0,0.0670310856269986,0.156684477286,0.08370683433783395,0.006306152570802402,0.0026321778929544637,0.004949379063237785,17.875669408997055
1600,C,246197001581551.0,-2.5513563460795847,15.137009,3.5071928774940213,3,1970-01-03 20:23:17.001581551,-0.29241943,0.59695435,0.2788391,16.41335850159298,0.7208431609679441,97.42021179199219,11.840954780578613,19.837125778198242,17926023.0,50354.0,-0.0682503426372914,0.29146534222700005,0.13718721424514396,-3.069723374814207e-05,0.011283068005878803,0.005561449461173634,17.926023412001086
1600,C,246197051935555.0,1.6341752539204153,15.137222,4.246023477494021,3,1970-01-03 20:23:17.051935555,-0.10336304,0.2277832,0.09410095,15.419880116380703,0.2672528634667627,97.41728973388672,11.834817886352539,19.848045349121094,17976377.0,50354.0,-0.02309186835729141,0.268745113887,0.19520272816953396,-0.0022997228462106117,0.014104418653582178,0.008368581580174346,17.976377415994648
1600,C,246197102289559.0,2.7847032539204153,12.644211,3.8575193774940217,3,1970-01-03 20:23:17.102289559,-0.15740967,0.037750244,-0.1859436,12.794975335081379,0.24653175761456866,97.4100570678711,11.843792915344238,19.85118293762207,18026731.0,50354.0,0.11125410419190859,0.20598393864099998,0.20402289846003394,0.002219660611608157,0.011952253355497457,0.010051303601652632,18.026731420017313
1600,C,246197152643563.0,1.2029772539204155,7.123581,3.3604490774940214,3,1970-01-03 20:23:17.152643563,0.09870911,-0.042251587,-0.19953918,7.633182376824843,0.2265934009544035,97.41482543945312,11.853959083557129,19.850357055664062,18077085.0,50354.0,0.1003978321459086,0.004224499183999965,0.18172679179123397,0.005328760801177224,0.005292417839120024,0.009712019951456173,18.077085424010875
1600,C,246197202997567.0,2.1037798539204156,3.6831512,2.8592589074940213,3,1970-01-03 20:23:17.202997567,0.1831665,-0.12915039,0.004333496,4.061615591078246,0.22416192617611075,97.42263793945312,11.85457992553711,19.843782424926758,18127439.0,50354.0,0.08325422370410861,-0.22138810340060008,0.15659358793804395,0.0046238078101358835,-0.0054675280633613415,0.00851789220044403,18.127439428004436
1600,C,246197253351571.0,2.7414751239204156,3.47995,3.0256407774940213,3,1970-01-03 20:23:17.253351571,0.13668823,-0.15661621,0.06468201,3.711813917950991,0.2177063891412861,97.42774963378906,11.852383613586426,19.83542251586914,18177793.0,50354.0,0.12198898457709861,-0.3131238010876001,0.14816411936894394,0.005167408254895955,-0.013457406219299417,0.007672884796868036,18.177793431997998
1600,C,246197303705575.0,1.9229784539204153,5.4014587,2.9718382774940215,3,1970-01-03 20:23:17.303705575,0.25868225,-0.21240234,0.08049011,5.733966190067463,0.3442526954293172,97.43836975097656,11.849767684936523,19.82413101196289,18228147.0,50354.0,0.11743694772929861,-0.2698619731601,0.15099853016743398,0.006028026697678163,-0.014677832838234345,0.007532018027377388,18.22814743599156
1600,C,246197354059579.0,0.5877885539204155,7.347824,1.9372923574940213,3,1970-01-03 20:23:17.354059579,0.06750488,-0.38490295,-0.09983826,7.956128544654878,0.40332972603360706,97.4378662109375,11.857206344604492,19.805288314819336,18278501.0,50354.0,0.0632135809564086,-0.17248050946210003,0.12359718199709396,0.00454823836072005,-0.011136856684979131,0.00691349624516632,18.278501440014224
1600,C,246197404413583.0,1.2120714539204154,7.433502,1.4850981474940212,3,1970-01-03 20:23:17.404413583,0.07688904,-0.5997162,-0.26550293,7.84201258620472,0.6603508543593675,97.36873626708984,12.027741432189941,19.762773513793945,18328855.0,50354.0,0.045315075417408604,-0.12131975529800004,0.08616552574408395,0.0027324259815235956,-0.00739700926586504,0.005281195692799637,18.328855444007786
1600,C,246197454767587.0,2.3088121539204156,10.648483,0.9410459774940214,3,1970-01-03 20:23:17.454767587,0.19770813,-0.7175598,-0.47357178,10.792428875185903,0.8821852424839725,97.3414535522461,11.931795120239258,19.723224639892578,18379209.0,50354.0,0.0886452865946086,-0.03821906365500005,0.06108303063482396,0.0033727200343765576,-0.004016708844779684,0.003707276903951765,18.379209448001347
1600,C,246197505121591.0,1.8378038539204153,17.988342,-0.8240449225059785,3,1970-01-03 20:23:17.505121591,-0.032974243,-0.6406555,-1.0594482,18.311775446271668,1.2385302817714685,97.382080078125,11.831417083740234,19.707469940185547,18429563.0,50354.0,0.1043993512294086,0.22752014302499993,0.0029457355614339567,0.004860284846495281,0.004766033275298487,0.0016120522465231856,18.42956345199491
1600,C,246197555475594.0,1.7074327539204153,15.551987,2.7705595774940215,3,1970-01-03 20:23:17.555475594,-0.35725403,-0.81266785,-0.30937195,15.685606120920685,0.9400906763826913,97.35618591308594,11.851967811584473,19.668319702148438,18479917.0,50354.0,0.08925842207560859,0.350975663233,0.04900739946863396,0.004875721758500418,0.014564788914157665,0.00130802408065202,18.47991745499894
1600,C,246197605829598.0,3.3103380339204156,12.215103,6.101965177494021,3,1970-01-03 20:23:17.605829598,0.07055664,-0.7492676,0.4119568,12.860147551849703,0.8579560483638365,97.35137176513672,11.836333274841309,19.627662658691406,18530271.0,50354.0,0.1263324151254686,0.20562282492999998,0.22338355575633395,0.005427930508211521,0.01401348013647985,0.006857987079699018,18.5302714589925
1600,C,246197656183602.0,3.985692033920415,12.008759,4.336431777494021,3,1970-01-03 20:23:17.656183602,0.2835083,-0.26223755,0.09182739,12.221493388373624,0.3969606508875969,97.3626937866211,11.833455085754395,19.613773345947266,18580625.0,50354.0,0.1836921490180286,0.11641497357399994,0.262807520135734,0.00780548845144083,0.008107945652935208,0.012240832717734596,18.580625463015167
1600,C,246197706537606.0,2.9494371539204156,8.186935,2.6708738774940213,3,1970-01-03 20:23:17.706537606,0.48895264,-0.1533966,0.17015076,8.235860153497896,0.5399597042216273,97.38531494140625,11.826004981994629,19.60488510131836,18630979.0,50354.0,0.1746057475622686,0.014997787837999954,0.17642293447563398,0.009020866142202143,0.0033085790940699214,0.011058505155750412,18.63097946700873
1600,C,246197756891610.0,2.7002458539204155,6.593292,1.4084837774940215,3,1970-01-03 20:23:17.756891610,0.36236572,-0.08479309,0.36816406,6.694336486753848,0.5234916983282066,97.36528015136719,11.713459968566895,19.590652465820312,18681333.0,50354.0,0.1422420690884086,-0.12134742482100004,0.10270598767963394,0.0079772774798141,-0.0026775648103209934,0.00702762887310318,18.68133347100229
1600,C,246197807245614.0,2.2517442539204153,5.8079376,1.4225828774940215,3,1970-01-03 20:23:17.807245614,0.09120178,-0.28198242,-0.0574646,6.007931785973116,0.3018841335966248,97.3476791381836,11.758058547973633,19.572818756103516,18731687.0,50354.0,0.1246762549451086,-0.18124344236080006,0.07127776517263397,0.006720202644191864,-0.007618330263036182,0.00438038894556155,18.73168747499585
1600,C,246197857599618.0,3.2271318539204152,5.979294,2.6855375774940216,3,1970-01-03 20:23:17.857599618,0.0077819824,-0.46710205,-0.20259094,6.022374297811269,0.509203273098632,97.34351348876953,11.77109146118164,19.550479888916016,18782041.0,50354.0,0.13794166376710862,-0.19670207000680004,0.10343014869523397,0.006611931339417494,-0.009515534164879068,0.004398621147451312,18.782041479018517
1600,C,246197907953622.0,4.562459003920416,6.9040985,2.340048097494021,3,1970-01-03 20:23:17.907953622,0.051086426,-0.094573975,-0.20005798,6.970491289148087,0.22710626374108334,97.3453598022461,11.7816162109375,19.546995162963867,18832395.0,50354.0,0.19611852902785862,-0.16910402702750005,0.12652917053917395,0.008410633473998891,-0.009209900105032575,0.005789685780364689,18.83239548301208
1600,C,246197958307626.0,3.606724752920415,7.2216034,2.2445738574940215,3,1970-01-03 20:23:17.958307626,-0.052581787,0.31507874,-0.05290222,7.223242441666207,0.32378712390246367,97.34606170654297,11.782225608825684,19.56330108642578,18882749.0,50354.0,0.2056755394459816,-0.13782640326370005,0.11542702696073395,0.010115969261965877,-0.007727587443441545,0.006091731184455182,18.88274948700564
1600,C,246198008661630.0,2.9706468539204156,12.640533,2.6097624774940216,3,1970-01-03 20:23:18.008661630,-0.1600647,1.1533661,0.2606964,12.668507297933878,1.193246278765729,97.34961700439453,11.761919975280762,19.620019912719727,18933103.0,50354.0,0.1655984849454316,0.006599808142799982,0.12221762590599396,0.009347566112102612,-0.0033038919853589015,0.005983179425225609,18.9331034909992
1600,C,246198059015633.0,-0.508128146079585,18.092682,3.1570951774940212,3,1970-01-03 20:23:18.059015633,-0.13482666,1.5603485,0.22897339,18.59144353333511,1.5828122071260056,97.35868835449219,11.740581512451172,19.69755744934082,18983457.0,50354.0,0.061998833507308594,0.28030095405499994,0.14519217517963395,0.005730217686684641,0.007223300489854009,0.006732576561932854,18.983457494003233
1600,C,246198109369637.0,-2.8331403460795848,15.044495,3.5474607774940212,3,1970-01-03 20:23:18.109369637,-0.1993103,0.9337311,0.09109497,16.440420157371292,0.9591020051864144,97.35820770263672,11.73007869720459,19.744247436523438,19033811.0,50354.0,-0.08412311682709142,0.3408255053289999,0.16880060527873395,-0.0005570230811421722,0.015638100867910964,0.007905396233600329,19.033811497996794
1600,C,246198159723641.0,1.0274095539204153,11.651794,3.7049925774940213,3,1970-01-03 20:23:18.159723641,-0.27020264,0.32313538,0.06706238,12.048278667973136,0.4265246807418985,97.34793853759766,11.724691390991211,19.76017951965332,19084165.0,50354.0,-0.04546288415419141,0.178663268153,0.18259501811853396,-0.003262586746705758,0.013079168849956314,0.008847087610273014,19.084165501990356
1600,C,246198210077645.0,2.8383684539204155,8.440994,3.471975577494021,3,1970-01-03 20:23:18.210077645,-0.045944214,0.21231079,-0.068618774,8.589855199028936,0.22780535221053297,97.3479232788086,11.726737022399902,19.771379470825195,19134519.0,50354.0,0.0973286929034086,0.01240692347599998,0.18069452723813395,0.0013058254668790413,0.004810574214643332,0.00914654088344483,19.13451950601302
1600,C,246198260431649.0,2.0657549539204156,4.9963074,2.7367918774940216,3,1970-01-03 20:23:18.260431649,0.1399231,0.29423523,-0.07255554,5.276313894714776,0.33379207730480137,97.35804748535156,11.728450775146484,19.786758422851562,19184873.0,50354.0,0.12347111503920863,-0.15515826265220004,0.15631813821423396,0.005559076764571274,-0.003594050466439189,0.008484967878094267,19.184873510006582
1600,C,246198310785653.0,2.467244153920415,3.8458862,2.7872374274940213,3,1970-01-03 20:23:18.310785653,0.107940674,0.386734,0.18930054,4.078710656924422,0.44390209540377923,97.36717224121094,11.716586112976074,19.805103302001953,19235227.0,50354.0,0.1141273185381086,-0.27084929173280003,0.13907848581168394,0.005982015762176117,-0.010725592196751147,0.007437200803100536,19.235227514000144
1600,C,246198361139657.0,2.9189806139204153,4.7298126,2.3641264774940214,3,1970-01-03 20:23:18.361139657,0.26268005,0.28775024,0.38694763,4.791352862643507,0.5491169981439993,97.38274383544922,11.695548057556152,19.817134857177734,19285581.0,50354.0,0.1356089809799286,-0.27755883131240006,0.12969588903588394,0.0062876108129656235,-0.013807271313909002,0.006766932435537217,19.285581517993705
1600,C,246198411493661.0,0.7781725539204154,6.409897,1.4718840374940214,3,1970-01-03 20:23:18.411493661,0.36946106,0.18159485,0.013366699,7.045144736923735,0.41189420127625337,97.40306091308594,11.693718910217285,19.826244354248047,19335935.0,50354.0,0.0930832253067286,-0.21300473140080006,0.09657923673585396,0.005757783677679169,-0.012350918818430241,0.005696928841555046,19.33593552201637
1600,C,246198461847665.0,-1.0602217460795842,7.77771,2.3068144574940215,3,1970-01-03 20:23:18.461847665,0.4878235,-0.7915497,-0.1668396,9.08751247251749,0.9446471017530832,97.41954803466797,11.7070951461792,19.787261962890625,19386289.0,50354.0,-0.007101152510991393,-0.13626781856100004,0.09513629200831396,0.0021647706467782762,-0.008793634990388242,0.004826821867191916,19.386289526009932
1600,C,246198512201669.0,2.3746996539204153,7.49942,2.7911894774940214,3,1970-01-03 20:23:18.512201669,0.33570862,-1.4385071,0.124053955,7.6365262113546075,1.4823603941160381,97.42137908935547,11.710232734680176,19.713605880737305,19436643.0,50354.0,0.033094610285708606,-0.10883689799000006,0.12835244507119395,0.0006544372863940553,-0.006171001448604529,0.00562677593345077,19.436643530003494
1600,C,246198562555673.0,3.037480353920415,12.387833,1.7117064174940215,3,1970-01-03 20:23:18.562555673,-0.296875,-1.1012115,-0.37483215,12.408101640718586,1.2005418251901399,97.39572143554688,11.735918998718262,19.660308837890625,19486997.0,50354.0,0.13626245605740858,0.0072321687809999945,0.11336940994811397,0.004263902859320662,-0.0025581022672949948,0.006085831143821116,19.486997533997055
1600,C,246198612909676.0,0.34164905392041556,16.54689,3.0358488774940215,3,1970-01-03 20:23:18.612909676,-0.5938721,-0.84091187,-0.35513306,16.897742316865585,1.089007040643113,97.35782623291016,11.75892448425293,19.62004852294922,19537351.0,50354.0,0.0850763411012086,0.23502032097100004,0.11952919966191397,0.005572646896062505,0.006099190934486105,0.005863688294151674,19.537351537001086
1600,C,246198663263680.0,3.737217913920415,15.710251,3.826208377494021,3,1970-01-03 20:23:18.663263680,-0.2602539,-1.0213928,0.102874756,15.805865124892618,1.05903661871491,97.3341293334961,11.760351181030273,19.567636489868164,19587705.0,50354.0,0.10269363364932861,0.318668838957,0.17276601550883397,0.0047274846542942756,0.013940231979507257,0.0073591166323539224,19.587705540994648
1600,C,246198713617684.0,3.3797807839204155,12.620071,5.439871077494022,3,1970-01-03 20:23:18.713617684,-0.15776062,-0.14195251,0.09403992,13.058742096758612,0.2321259030605824,97.32464599609375,11.756589889526367,19.559829711914062,19638059.0,50354.0,0.1791846762155386,0.21980331699399994,0.233292082438234,0.007096850207467763,0.013557113470378327,0.010223324732013329,19.638059545017313
1600,C,246198763971688.0,0.9754992539204155,12.151611,2.6888182374940213,3,1970-01-03 20:23:18.763971688,0.18902588,-0.06121826,0.00642395,12.453469059231034,0.19879568858706292,97.08203887939453,11.775341033935547,19.505420684814453,19688413.0,50354.0,0.10965288551271862,0.13020743771399998,0.204656010883454,0.007272063291632333,0.008812220771283314,0.011026219145560139,19.688413549010875
1600,C,246198814325692.0,1.5444536539204154,9.154739,1.6423552274940214,3,1970-01-03 20:23:18.814325692,0.096450806,-0.3282013,0.33773804,9.401209250101884,0.48071388055971637,96.97701263427734,11.78817081451416,19.46501350402832,19738767.0,50354.0,0.06344485436070861,0.04296077394999997,0.10904595432800396,0.004358081796793278,0.004359856065064527,0.007898074378128879,19.738767553004436
1600,C,246198864679696.0,3.7803392539204155,5.5687714,2.0241301274940215,3,1970-01-03 20:23:18.864679696,0.07469177,-0.16893005,0.19845581,5.571098876539186,0.27111055092248165,96.97875213623047,11.77934741973877,19.455219268798828,19789121.0,50354.0,0.1340623110407086,-0.12277537865920006,0.09231110178253397,0.004972637903311481,-0.002009492302763531,0.005069566601695014,19.789121556997998
1600,C,246198915033700.0,3.4766588339204154,4.3217773,3.5142118774940214,3,1970-01-03 20:23:18.915033700,0.047576904,0.115478516,-0.13867188,4.552116394460206,0.18662459579198523,96.98249816894531,11.785524368286133,19.46192741394043,19839475.0,50354.0,0.1827094408575686,-0.24445485538010006,0.13943883665958395,0.007975362397542925,-0.009245755602407459,0.005834768200157204,19.83947556099156
1600,C,246198965387704.0,4.236882223920415,5.905197,3.4823515774940215,3,1970-01-03 20:23:18.965387704,0.072387695,0.22865295,-0.20706177,6.09615575548066,0.31685442481784665,96.98875427246094,11.794414520263672,19.474811553955078,19889829.0,50354.0,0.1942038232132586,-0.23598466804890003,0.17615247810623397,0.009489545249511218,-0.012096025881371935,0.007945642531858999,19.889829565014224
1600,C,246199015741708.0,6.026707653920415,7.7902985,3.337957677494021,3,1970-01-03 20:23:19.015741708,-0.067733765,1.069458,-0.27993774,8.243691573953518,1.1075619237592915,96.9968032836914,11.801794052124023,19.53076934814453,19940183.0,50354.0,0.25840640235439855,-0.14865770979650006,0.17171492611283398,0.011395367649116906,-0.00968414114701364,0.008758257636023474,19.940183569007786
1600,C,246199066095712.0,4.115269673920415,7.2235107,3.5551817774940213,3,1970-01-03 20:23:19.066095712,-0.19894409,1.7787476,-0.27552795,7.3855862348630525,1.810921706392325,97.00566101074219,11.804627418518066,19.62266731262207,19990537.0,50354.0,0.2553445631830486,-0.11546652577160005,0.17354857205823396,0.012934708059336308,-0.006649855878898056,0.008692699093452978,19.990537573001347
1600,C,246199116449716.0,0.8345384539204153,8.177307,4.3180906774940215,3,1970-01-03 20:23:19.116449716,-0.16946411,2.284378,0.11312866,8.925257553803638,2.2934469745724417,97.02071380615234,11.785069465637207,19.737773895263672,20040891.0,50354.0,0.12462131923464859,-0.10572281276710002,0.19822538059923397,0.009566401021630363,-0.005568883976388852,0.00936015280605707,20.04089157699491
1600,C,246199166803719.0,2.638188353920415,15.653168,-1.6054780225059786,3,1970-01-03 20:23:19.166803719,0.08808899,1.7898407,0.57388306,16.115093464198285,1.8816564957745805,97.04289245605469,11.745634078979492,19.824909210205078,20091245.0,50354.0,0.08743284284100859,0.10651066907500001,0.06829544881463397,0.005338887638578821,1.9835858263997967e-05,0.006710194922152954,20.09124557999894
1600,C,246199217157723.0,-2.1110334460795848,19.267105,1.0053923774940214,3,1970-01-03 20:23:19.217157723,-0.54637146,1.3053284,0.48745728,20.13507134772686,1.4966691698481966,96.93522644042969,11.834842681884766,19.86896324157715,20141599.0,50354.0,0.013272179114708588,0.38571851332100004,-0.015108356284466046,0.0025354503377790914,0.012392854125184094,0.0013390914286320378,20.1415995839925
1600,C,246199267511727.0,3.0280199239204153,13.728317,2.7226927774940215,3,1970-01-03 20:23:19.267511727,-0.903656,1.3444214,0.59513855,13.756131571595537,1.725761559662882,96.90325927734375,11.797204971313477,19.93347930908203,20191953.0,50354.0,0.02308696855259859,0.337256539694,0.09386199994713396,0.0009154142608197929,0.018202342909758657,0.00198278048649499,20.191953588015167
1600,C,246199317865731.0,5.6328935539204155,11.251404,3.0337278774940213,3,1970-01-03 20:23:19.317865731,-0.6111603,2.7858276,0.44966125,11.4660497380633,2.887308014218333,96.90097045898438,11.758142471313477,20.071975708007812,20242307.0,50354.0,0.21805581863159862,0.135445235617,0.14492940283063396,0.006071251952936533,0.011901212597005047,0.0060120511477358635,20.24230759200873
1600,C,246199368219735.0,3.6232805389204152,10.037888,2.7335875274940213,3,1970-01-03 20:23:19.368219735,-0.30615234,3.6642761,0.055908203,10.058294202396668,3.6774684661437105,96.92342376708984,11.733322143554688,20.25740623474121,20292661.0,50354.0,0.2330426951354536,0.042531304684,0.14520369995138396,0.011357307281113074,0.004480915355158278,0.007304681128742866,20.29266159600229
1600,C,246199418573739.0,3.4269762139204154,7.7560577,0.30463247749402145,3,1970-01-03 20:23:19.418573739,-0.32919312,4.052704,-0.020492554,7.962352603067215,4.06610351155019,96.94872283935547,11.709867477416992,20.462968826293945,20343015.0,50354.0,0.1775043142662736,-0.045471029111100014,0.07649326506558396,0.010336342055707286,-7.401344190109702e-05,0.005581664488232202,20.34301559999585
1600,C,246199468927743.0,4.180897753920416,6.9707794,0.6616270774940214,3,1970-01-03 20:23:19.468927743,-0.4414215,4.0678406,0.14912415,7.137195749525829,4.094437458282131,96.96825408935547,11.677824974060059,20.6682186126709,20393369.0,50354.0,0.1915434428883286,-0.12269162233330004,0.024327516815933956,0.00929151538188142,-0.004233831075415661,0.0025383648254309766,20.393369604018517
1600,C,246199519281747.0,2.8185930539204156,7.00119,-0.6816499225059784,3,1970-01-03 20:23:19.519281747,-0.4398346,3.8289795,0.24461365,7.575189949631798,3.8619132984239473,96.98516845703125,11.642430305480957,20.860733032226562,20443723.0,50354.0,0.17622618006900861,-0.14169692641620005,-0.0005041151688660429,0.00925933579719688,-0.006656510491866164,0.0005998017832682289,20.44372360801208
1600,C,246199569635751.0,0.8238267539204154,9.15065,0.4402830774940214,3,1970-01-03 20:23:19.569635751,-0.5310974,3.4873962,0.2864685,9.714383809138717,3.5392175555556697,97.07356262207031,11.736587524414062,21.05181121826172,20494077.0,50354.0,0.0917052035020086,-0.08681432432000002,-0.006076893056866043,0.0067457084441675,-0.00575322775978531,-0.00016569004409925674,20.49407761200564
1600,C,246199619989755.0,-0.2731427460795848,9.9470825,-0.3049409225059785,3,1970-01-03 20:23:19.619989755,-0.29109192,2.5793915,0.31896973,10.953043939083171,2.615289028925447,97.08515930175781,11.704865455627441,21.180519104003906,20544431.0,50354.0,0.013864571265408594,-0.012645588847500009,0.0034075094361339566,0.0026579302193192626,-0.0025041022338181487,-6.720707141917175e-05,20.5444316159992
1600,C,246199670343758.0,-0.10772224607958458,8.405777,3.8933012774940217,3,1970-01-03 20:23:19.670343758,-0.025894165,1.9889526,0.10534668,9.37574267309732,1.9919088522858743,97.10416412353516,11.687355995178223,21.2806339263916,20594785.0,50354.0,-0.009589037907591408,-0.031399256368500016,0.09034414865753397,0.00010764510334976328,-0.0011089170680032327,0.0023603854958242775,20.594785619003233
1600,C,246199720697762.0,3.7685289539204154,15.483734,-0.5443513225059786,3,1970-01-03 20:23:19.720697762,0.065582275,1.6875,-0.3221588,15.707359442472868,1.719227610647181,97.12519073486328,11.692889213562012,21.36817169189453,20645139.0,50354.0,0.0921681304833086,0.10799701844699998,0.08431651301673397,0.002079093813778832,0.0019285018558503938,0.004397431478973045,20.645139622996794
1600,C,246199771051766.0,4.183445953920415,10.590073,1.6201536774940215,3,1970-01-03 20:23:19.771051766,-0.44241333,2.2089539,-0.42385864,10.614819218367515,2.2923488027762158,97.12628936767578,11.700215339660645,21.482770919799805,20695493.0,50354.0,0.20020687225470862,0.16299103883899993,0.02708547589153396,0.007361125443935059,0.00682266631828962,0.002804767874743462,20.695493626990356
1600,C,246199821405770.0,4.720067053920415,6.9790344,2.4461424574940214,3,1970-01-03 20:23:19.821405770,0.10092163,2.6605377,0.043930054,7.071698095797122,2.662813526735883,97.1585922241211,11.68149471282959,21.617280960083008,20745847.0,50354.0,0.2241637469984086,-0.05113178299020004,0.10237713779059397,0.010684379080935733,0.002816280484505235,0.0032594802246749353,20.74584763101302
1600,C,246199871759774.0,3.7937669939204155,12.509781,-0.5498139225059786,3,1970-01-03 20:23:19.871759774,0.31947327,2.9484406,0.08822632,12.786945283735353,2.9670101155057758,97.20465850830078,11.658692359924316,21.76607322692871,20796201.0,50354.0,0.21435279982248862,-0.0027992946742000356,0.047743863525393955,0.01104053109930973,-0.0013578227423566007,0.0037795964501326283,20.796201635006582
1600,C,246199922113778.0,1.7916307539204153,9.529938,-0.14104622250597876,3,1970-01-03 20:23:19.922113778,-0.14405823,2.50148,-0.23313904,9.960414855435708,2.516447650161404,97.37330627441406,11.63105297088623,21.924530029296875,20846555.0,50354.0,0.1406235590973886,0.06142480526299996,-0.01739378587096605,0.00893723978852575,0.0014760144800942158,0.0007641239051055313,20.846555639000144
1600,C,246199972467782.0,1.5066118539204152,7.4471436,0.5118162774940214,3,1970-01-03 20:23:19.972467782,-0.072006226,1.9337921,-0.16195679,7.90511571436913,1.9418977275933658,97.50313568115234,11.727052688598633,22.046476364135742,20896909.0,50354.0,0.08303985413760859,-0.06603721655680005,0.00933487767443395,0.005631173755017525,-0.00011612667914400475,-0.00020289913166408874,20.896909642993705
1600,C,246200022821786.0,2.6273241539204153,10.37088,0.4998686774940213,3,1970-01-03 20:23:20.022821786,-0.0018157959,1.6191254,-0.08369446,10.54084932439345,1.6212881053886141,97.55097198486328,11.564925193786621,22.135272979736328,20947263.0,50354.0,0.10408010686940859,-0.04486481982280004,0.025471192111733952,0.004711119258273671,-0.0027921805699291915,0.0008763124190063493,20.94726364701637
1600,C,246200073175790.0,3.4875078339204153,9.857834,0.9187834774940213,3,1970-01-03 20:23:20.073175790,-0.17352295,1.444931,-0.14608765,9.928652860343007,1.4626268869469838,97.55714416503906,11.562666893005371,22.2093563079834,20997617.0,50354.0,0.1539531249578686,0.015829132377999967,0.03571740530613395,0.006496502677715357,-0.0007310315027977313,0.0015405453171896603,20.997617651009932
1600,C,246200123529794.0,2.9868059539204155,9.589676,1.1969206774940213,3,1970-01-03 20:23:20.123529794,-0.24353027,1.503067,-0.2668457,9.653262729003657,1.5458732245898312,97.5040512084961,11.374016761779785,22.27594566345215,21047971.0,50354.0,0.16300379823646863,-0.003839240730000006,0.053267083510133956,0.007980024455263829,0.00030186950202169507,0.0022403624749271775,21.047971655003494
1600,C,246200173883798.0,2.3655290539204152,9.727005,0.8986875774940215,3,1970-01-03 20:23:20.173883798,-0.16506958,1.5531769,-0.2574005,9.881961193407939,1.5829913033037282,97.49885559082031,11.27688980102539,22.353683471679688,21098325.0,50354.0,0.1347557384924086,-0.007133122463000014,0.05276112903583395,0.007496691856222942,-0.0002762511881101615,0.002669472307269834,21.098325658997055
1600,C,246200224237801.0,2.444920553920415,10.314697,1.5818846474940216,3,1970-01-03 20:23:20.224237801,-0.22721863,1.2857819,0.053146362,10.395704679158477,1.3067853442629824,97.38223266601562,11.149367332458496,22.395397186279297,21148679.0,50354.0,0.12111268977660859,0.011120731253999984,0.06245336690852396,0.006441999418529046,0.00010039602653100627,0.0029007553643910994,21.148679662001086
1600,C,246200274591805.0,3.3620500739204155,9.921829,-0.6618440225059787,3,1970-01-03 20:23:20.274591805,-0.28910828,0.79733276,0.25228882,10.300876249806663,0.8848574893341686,97.37523651123047,11.131736755371094,22.434036254882812,21199033.0,50354.0,0.1462020994971486,0.016025815101999998,0.023163862815323955,0.006730184449545385,0.0006834685976050115,0.002155584992757319,21.199033665994648
1600,C,246200324945809.0,2.0574998539204152,11.304108,-2.507608122505979,3,1970-01-03 20:23:20.324945809,-0.70666504,1.3251343,0.029556274,12.3060817952265,1.5020752195304516,97.35279083251953,11.121779441833496,22.500816345214844,21249387.0,50354.0,0.1364480085332486,0.040936215848999966,-0.07979729665496606,0.007116281769881311,0.0014341330532533262,-0.0014258599637806692,21.249387670017313
1600,C,246200375299813.0,-0.7079572460795847,13.109985,-0.5775545225059786,3,1970-01-03 20:23:20.375299813,-1.2452087,1.4298096,-0.0010681152,14.066484418559217,1.896022505055763,97.40540313720703,11.284466743469238,22.59262466430664,21299741.0,50354.0,0.03397743423760859,0.12120441946099995,-0.07767513991346606,0.004290801372641872,0.0040822147751998685,-0.0039646835354834155,21.299741674010875
1600,C,246200425653817.0,0.9312182539204152,10.942429,0.3151609774940214,3,1970-01-03 20:23:20.425653817,-1.1235504,1.3020172,0.112213135,11.410901829903597,1.7234285822460207,97.40716552734375,11.331170082092285,22.666563034057617,21350095.0,50354.0,0.005621042394408592,0.11209842727799998,-0.006606282282766047,0.0009969708461642966,0.005873865772347802,-0.002121953366634536,21.350095678004436
1600,C,246200476007821.0,1.9473772539204153,11.539749,0.38413077749402147,3,1970-01-03 20:23:20.476007821,-1.3370819,1.1392517,-0.26271057,11.787068109317994,1.7761473156386056,97.37760925292969,11.259454727172852,22.730955123901367,21400449.0,50354.0,0.0724743991009086,0.072564595506,0.017606068515333955,0.0019662089305276013,0.004649260924632768,0.0002769416179773622,21.400449681997998
1600,C,246200526361825.0,0.7786912539204152,9.055359,1.8649809574940215,3,1970-01-03 20:23:20.526361825,-0.86221313,0.9061737,-0.07106018,9.497884463583432,1.2528414924872657,97.19953918457031,11.414349555969238,22.748884201049805,21450803.0,50354.0,0.06863422682190859,0.02505383411599996,0.05662588615179396,0.003552691874858769,0.002457739202593093,0.0018689379226542796,21.45080368599156
1600,C,246200576715829.0,1.1503191539204152,7.8923187,1.9631102274940213,3,1970-01-03 20:23:20.576715829,-0.6919861,0.8705597,-0.112350464,8.27520268155198,1.1177394958657922,97.02192687988281,11.567275047302246,22.76337432861328,21501157.0,50354.0,0.04856669503820859,-0.06677751854710007,0.09637985176444396,0.0029507676096721704,-0.0010504772029218076,0.003852225463517122,21.501157690014224
1600,C,246200627069833.0,1.7378740539204154,6.681488,2.1810972874940213,3,1970-01-03 20:23:20.627069833,-0.39396667,0.753067,-0.2509308,6.946138529453883,0.8861635909630506,96.81987762451172,11.684618949890137,22.764720916748047,21551511.0,50354.0,0.07271604039380859,-0.12654446871410005,0.10433871260485397,0.0030535354299718966,-0.004867267673275236,0.005053491295125814,21.551511694007786
1600,C,246200677423837.0,1.3911942539204154,8.642654,3.791601477494021,3,1970-01-03 20:23:20.677423837,-0.09623718,0.5917053,-0.3120575,9.089226448504625,0.6758377321285728,96.82151794433594,11.6965970993042,22.796606063842773,21601865.0,50354.0,0.0787805527865086,-0.10765327686600004,0.15037463680610394,0.003814229726500846,-0.00589639664047018,0.006412917998119687,21.601865698001347
1600,C,246200727777841.0,1.4672899539204152,8.721313,2.8440458774940214,3,1970-01-03 20:23:20.727777841,0.26400757,0.53564453,-0.2704773,9.01795978771649,0.6555707660897607,96.84056854248047,11.706841468811035,22.825410842895508,21652219.0,50354.0,0.0719680569008086,-0.05629660284100002,0.16706569345653396,0.003795397746097585,-0.004127766121383141,0.007992195195022435,21.65221970199491
1600,C,246200778131844.0,1.1961412539204153,10.014999,3.5103361774940214,3,1970-01-03 20:23:20.778131844,-0.04536438,0.39666748,-0.1187439,10.404609032036008,0.41653706971834425,96.842529296875,11.710371971130371,22.846240997314453,21702573.0,50354.0,0.06705720751980859,-0.02174507277600004,0.15998427699843396,0.003500239082317879,-0.001964855267009211,0.008234137106144727,21.70257370499894
1600,C,246200828485848.0,0.9522142539204155,11.58316,2.9265196774940216,3,1970-01-03 20:23:20.828485848,-0.17303467,0.434906,0.19116211,11.918927645450928,0.5055958644586217,96.83811950683594,11.69829273223877,22.86712646484375,21752927.0,50354.0,0.0540891466209086,0.05030764914299994,0.16206071986103396,0.003050101758200837,0.0007191199851919566,0.008108126885930824,21.7529277089925
1600,C,246200878839852.0,0.03909775392041537,13.6020355,-0.31263132250597847,3,1970-01-03 20:23:20.878839852,0.040908813,-0.05155945,0.32063293,14.273542273218219,0.32731847437282907,96.91809844970703,11.755407333374023,22.87859344482422,21803281.0,50354.0,0.0249582624214086,0.14061846710349996,0.06580986711353397,0.0019901766174584205,0.004806946828738129,0.005737097768258696,21.803281713015167
1600,C,246200929193856.0,-1.4734144460795848,11.696106,1.6742613574940215,3,1970-01-03 20:23:20.929193856,0.7060547,-0.45437622,0.05656433,12.769877350629088,0.8415286757573549,96.9486312866211,11.755341529846191,22.855207443237305,21853635.0,50354.0,-0.036111791358491414,0.14346210854549996,0.03428175939089396,-0.000280812398048934,0.007152296653114871,0.002520006880501982,21.85363571700873
1600,C,246200979547860.0,3.438054093920415,6.6470795,0.32480457749402136,3,1970-01-03 20:23:20.979547860,0.12231445,-0.27053833,0.72598267,6.8811374772749865,0.7843485512310967,96.9510498046875,11.720945358276367,22.837007522583008,21903989.0,50354.0,0.04946373241368859,-0.031642818666500025,0.050330483045193955,0.0003361618199466992,0.0028152742612835816,0.0021302824278133857,21.90398972100229
1600,C,246201029901864.0,2.8915453139204152,10.555832,0.7890074774940214,3,1970-01-03 20:23:21.029901864,0.5235748,0.04486084,0.36990356,10.66205591886958,0.6426287496379377,96.97956085205078,11.509825706481934,22.837417602539062,21954343.0,50354.0,0.1593603242912086,-0.06035149716450002,0.028042446108433955,0.0052575632756591975,-0.002316140889677088,0.00197319523730089,21.95434372499585
1600,C,246201080255868.0,1.1821794539204156,9.74675,0.0879728774940216,3,1970-01-03 20:23:21.080255868,0.7663269,0.032440186,0.15278625,10.24873417625249,0.7820824262955838,97.1330337524414,11.561331748962402,22.86113166809082,22004697.0,50354.0,0.10256416847992861,0.017688907013999992,0.02207973439753396,0.006594472954498922,-0.0010741160322191392,0.0012619261385987542,22.004697729018517
1600,C,246201130609872.0,2.1077318539204155,6.805435,0.5141050774940215,3,1970-01-03 20:23:21.130609872,0.4504547,-0.17155457,0.17878723,7.151237941647343,0.5141062933392742,97.3011703491211,11.574237823486328,22.88090705871582,22055051.0,50354.0,0.08283009699750861,-0.07673483825500002,0.015158516672733961,0.004667671421925436,-0.0014865994108546577,0.0009375474471961355,22.05505173301208
1600,C,246201180963876.0,2.113896353920415,7.1719055,0.23203117749402136,3,1970-01-03 20:23:21.180963876,0.6611481,-0.18138123,-0.0574646,7.564004809806717,0.6879812068531254,97.5131607055664,11.581101417541504,22.908367156982422,22105405.0,50354.0,0.1062879333888086,-0.14156169823150003,0.018785472491833956,0.004761424651036308,-0.005496051899120612,0.0008546078151963264,22.10540573700564
1600,C,246201231317880.0,1.2332964539204152,8.285599,0.9053099774940214,3,1970-01-03 20:23:21.231317880,0.6399689,-0.34881592,0.066711426,8.708064448562636,0.7319037869635665,97.557373046875,11.690691947937012,22.893489837646484,22155759.0,50354.0,0.08427227332300859,-0.10429560920350005,0.028634838259133953,0.004797734324383421,-0.006189949429290997,0.001193901163777119,22.1557597409992
1600,C,246201281671883.0,2.758976953920415,8.592331,1.1186735774940213,3,1970-01-03 20:23:21.281671883,0.71917725,-0.48518372,0.26507568,8.69168471283506,0.9071296903960664,97.56046295166016,11.533393859863281,22.8615665435791,22206113.0,50354.0,0.1005134675892086,-0.06853355639000006,0.05095783396393395,0.004652350598946892,-0.004351319902147552,0.0020039047085601805,22.206113744003233
1600,C,246201332025887.0,3.5021562739204155,11.387558,1.2113096774940213,3,1970-01-03 20:23:21.332025887,0.53862,-0.2186737,0.2396698,11.422435771795401,0.6287855791155916,97.58487701416016,11.522961616516113,22.848901748657227,22256467.0,50354.0,0.1576365512773486,0.009564465352999965,0.05866198841083395,0.006499443025003311,-0.0014846648050385514,0.002759898267929531,22.256467747996794
1600,C,246201382379891.0,2.0715837539204154,12.642639,1.0653135774940214,3,1970-01-03 20:23:21.382379891,0.13627625,-0.11216736,0.21470642,12.780343577986912,0.27794168408615594,97.5159683227539,11.401116371154785,22.827011108398438,22306821.0,50354.0,0.1403300526809486,0.111539069869,0.05731854369083396,0.007501905187858049,0.0030490237062842933,0.0029200418567236932,22.306821751990356
1600,C,246201432733895.0,1.9211931539204155,13.553223,-1.2168672225059787,3,1970-01-03 20:23:21.432733895,-0.061584473,-0.2816162,0.23799133,14.0564601597328,0.3738184112270243,97.66658020019531,11.282940864562988,22.842029571533203,22357175.0,50354.0,0.1005261442087086,0.16606401757400002,-0.0038156661204660474,0.0060640364690909,0.006989212932552411,0.001347041948589153,22.35717575601302
1600,C,246201483087899.0,1.8832597539204154,13.414352,-2.1526275225059788,3,1970-01-03 20:23:21.483087899,-0.39349365,-0.22042847,0.074798584,14.17890094904211,0.457187916665859,97.64462280273438,11.280705451965332,22.83038330078125,22407529.0,50354.0,0.09578471086070861,0.18549343577499997,-0.08483376919516605,0.004942518398082717,0.008851162002967775,-0.0022319268329416696,22.407529760006582
1600,C,246201533441903.0,0.9129533539204155,9.469727,0.5341398774940214,3,1970-01-03 20:23:21.533441903,-0.71595764,0.041015625,0.038223267,9.975768319547822,0.7181494565260518,97.6510009765625,11.392382621765137,22.84038543701172,22457883.0,50354.0,0.07040025741610861,0.08268325698299997,-0.04074866343846605,0.004184038946305427,0.006751884593568165,-0.003161788906416956,22.457883764000144
1600,C,246201583795907.0,3.4403734339204153,9.493301,1.2924559374940214,3,1970-01-03 20:23:21.583795907,-1.096756,0.4471588,-0.06729126,9.529007930795183,1.1863190252313363,97.6007308959961,11.392749786376953,22.863447189331055,22508237.0,50354.0,0.1096037085374686,-0.016037044044000002,0.04598820283395395,0.004531959850813214,0.0016779517031652023,0.00013191588336019887,22.508237767993705
1600,C,246201634149911.0,3.5113725799204154,10.5733795,1.2016966774940214,3,1970-01-03 20:23:21.634149911,-0.8665924,0.78533936,-0.33399963,10.61162584361386,1.216263150368006,97.5656967163086,11.404123306274414,22.9054012298584,22558591.0,50354.0,0.1750241093904706,0.011749614948499973,0.06279528038755396,0.007166074571971727,-0.00010794460233740423,0.002738841757067905,22.55859177201637
1600,C,246201684503915.0,1.2158708539204155,8.781891,1.1679136774940213,3,1970-01-03 20:23:21.684503915,-0.4640503,0.8480835,-0.40634155,9.155864864198454,1.0486666577891863,97.5134048461914,11.51661491394043,22.94342803955078,22608945.0,50354.0,0.11901780793381062,-0.006161554621500046,0.05965967990753396,0.007403093352473428,0.00014069059485287717,0.0030830485353494285,22.608945776009932
1600,C,246201734857919.0,0.7442827539204155,7.475296,0.9408171774940215,3,1970-01-03 20:23:21.734857919,-0.16609192,0.5800781,-0.37431335,8.097171557328519,0.7100616958948841,97.54136657714844,11.765357971191406,22.981298446655273,22659299.0,50354.0,0.04935078738460861,-0.08416200290100004,0.053091516736033954,0.004239016124331841,-0.0022740762077439847,0.0028387368778951096,22.659299780003494
1600,C,246201785211923.0,1.7114000539204153,5.7618713,1.2601225774940215,3,1970-01-03 20:23:21.785211923,0.28178406,0.3350525,-0.49668884,6.1313430144190875,0.6620892976078674,97.5762939453125,11.950398445129395,23.005054473876953,22709653.0,50354.0,0.06182672605300861,-0.16019703888790005,0.05541306021133396,0.002799116255818889,-0.006152227595119138,0.002731819733803882,22.709653783997055
1600,C,246201835565926.0,2.3358354539204154,4.7939453,1.4483244774940214,3,1970-01-03 20:23:21.835565926,0.62420654,0.14579773,-0.36528015,5.008551730239085,0.737780706332137,97.6116943359375,12.044570922851562,23.015377044677734,22760007.0,50354.0,0.10189724838090859,-0.22770540546180004,0.06819057150343397,0.004122078504322733,-0.0097662198413924,0.0031119686356827123,22.760007787001086
1600,C,246201885919930.0,1.3882799539204154,6.6723175,1.4082701474940214,3,1970-01-03 20:23:21.885919930,0.53544617,0.100631714,-0.35198975,7.073653843788415,0.6486340470059441,97.59762573242188,12.222983360290527,23.013992309570312,22810361.0,50354.0,0.0937620536232086,-0.20478310148440007,0.07192048287332396,0.0049261142465576585,-0.01088876313938448,0.0035275760160436345,22.810361790994648
1600,C,246201936273934.0,0.04811575392041556,10.483261,2.3944151574940213,3,1970-01-03 20:23:21.936273934,0.23344421,-0.09664917,-0.33361816,11.083984800708006,0.41849532605036177,97.60873413085938,12.240155220031738,23.01134490966797,22860715.0,50354.0,0.036164134736308605,-0.06154320010550002,0.09574020792368396,0.0032711516443275643,-0.006705297295128916,0.004221193212196268,22.860715795017313
1600,C,246201986627938.0,-0.5777387460795849,15.63353,0.012502977494021295,3,1970-01-03 20:23:21.986627938,0.0072021484,-0.301239,-0.090667725,16.324327860715716,0.3146703710539828,97.60529327392578,12.314489364624023,22.99653434753418,22911069.0,50354.0,-0.013334318073591407,0.16407324700700004,0.06059897788459395,0.0005747862941172309,0.002581398990839066,0.0039361516810950134,22.911069799010875
1600,C,246202036981942.0,-1.724146746079585,15.243057,0.23085617749402143,3,1970-01-03 20:23:22.036981942,0.37199402,-0.96232605,-0.054260254,16.264664950031936,1.03314817552397,97.59803771972656,12.496230125427246,22.944765090942383,22961423.0,50354.0,-0.057954571036091425,0.283910630899,0.006127053445133952,-0.0017948403611144847,0.011278890094039363,0.0016799612907885595,22.961423803004436
1600,C,246202087335946.0,1.0342607539204152,8.693497,0.8120024774940213,3,1970-01-03 20:23:22.087335946,0.72906494,-1.0724182,0.14654541,9.16417870988646,1.3050256854255826,97.64176940917969,12.595775604248047,22.893537521362305,23011777.0,50354.0,-0.017369259624591418,0.109181420058,0.026256052356633953,-0.0018964280845440123,0.009896878566944389,0.0008153094547711106,23.011777806997998
1600,C,246202137689950.0,3.522892963920415,6.83165,-1.0748535225059785,3,1970-01-03 20:23:22.137689950,0.4081421,-0.30680847,0.40052795,7.531352999919748,0.6489484184335096,97.65817260742188,12.577966690063477,22.875226974487305,23062131.0,50354.0,0.11473545915407858,-0.10259257398100002,-0.006617800760266047,0.0024513888055538984,0.0001658873776806283,0.0004944322604417548,23.06213181099156
1600,C,246202188043954.0,0.5461168539204153,10.169235,-0.6824891225059786,3,1970-01-03 20:23:22.188043954,0.24639893,0.26080322,0.12675476,10.984499906708987,0.38052269505270103,97.85977172851562,12.666269302368164,22.928382873535156,23112485.0,50354.0,0.1024454601837786,-0.06543791835500003,-0.04424461577346605,0.0054679640061692306,-0.0042305037055434735,-0.001280563061069773,23.112485815014224
1600,C,246202238397958.0,-0.4030257460795843,9.795441,0.4833586774940215,3,1970-01-03 20:23:22.238397958,0.24833679,-0.027832031,0.11470032,10.716705282306686,0.27495808157824975,97.9067153930664,12.89651870727539,22.933937072753906,23162839.0,50354.0,0.0036026048221086027,0.009181447651999984,-0.005013507214066044,0.0026699721326532222,-0.0014163691628894322,-0.0012401717624570955,23.162839819007786
1600,C,246202288751962.0,2.348011953920415,7.0798035,0.2390806774940215,3,1970-01-03 20:23:22.288751962,0.38755798,-0.36265564,0.277771,7.43087990596267,0.5990634603499783,98.09209442138672,12.814371109008789,22.951488494873047,23213193.0,50354.0,0.0489689177548086,-0.06860116922350004,0.01818885564053396,0.0013235932239190446,-0.001496010330005657,0.00033171574733318276,23.213193823001347
1600,C,246202339105966.0,2.9632768539204153,7.5555725,0.0873777774940212,3,1970-01-03 20:23:22.339105966,0.5872345,-0.0047912598,-0.050430298,7.846118968734842,0.5894154130298002,98.12149047851562,12.816903114318848,22.951610565185547,23263547.0,50354.0,0.13372231831500858,-0.12499433844800005,0.008219244521233952,0.004599617250529787,-0.004874154096645358,0.0006648767377728308,23.26354782699491
1600,C,246202389459969.0,1.4161272539204153,8.503296,0.7889158774940215,3,1970-01-03 20:23:22.389459969,0.6579132,0.1433258,-0.041625977,8.884290529705947,0.6746293690917143,98.17094421386719,12.859092712402344,22.962507247924805,23313901.0,50354.0,0.1102602572231086,-0.08915506777550002,0.02206244535163395,0.006142749304323177,-0.005391639600489061,0.0007624021059291952,23.31390182999894
1600,C,246202439813973.0,1.4778184539204156,10.440414,0.2567655774940214,3,1970-01-03 20:23:22.439813973,0.6700287,-0.05229187,0.20028687,10.817962770870608,0.7012757865392073,98.2489013671875,12.815778732299805,22.968461990356445,23364255.0,50354.0,0.0728608710863086,-0.016523413330000007,0.026327121992233957,0.004610440647446198,-0.002660667118793174,0.0012183041370165623,23.3642558339925
1600,C,246202490167977.0,2.2718248539204153,12.572403,0.033209077494021244,3,1970-01-03 20:23:22.490167977,0.39790344,-0.012054443,0.2058258,12.81278367391598,0.4481480972909668,98.29525756835938,12.638399124145508,22.972238540649414,23414609.0,50354.0,0.0944047695615086,0.08592449360899997,0.00730069188863395,0.004211247034590094,0.0017473109981843823,0.0008466474700786113,23.414609838015167
1600,C,246202540521981.0,2.1195726539204154,12.448654,-0.13950512250597846,3,1970-01-03 20:23:22.540521981,0.05029297,0.11201477,0.2688141,12.737770535454205,0.2955295448654564,98.34619140625,12.479549407958984,22.986278533935547,23464963.0,50354.0,0.1105622150549086,0.13648595208899994,-0.0026762155252660473,0.0051604537716875365,0.0055996277913385436,0.00011643044140051368,23.46496384200873
1600,C,246202590875985.0,2.4503221539204154,12.091339,-3.117578222505979,3,1970-01-03 20:23:22.590875985,-0.3388214,0.27339172,0.134552,13.219575879219011,0.4556832390669185,98.33203125,12.470911026000977,22.999134063720703,23515317.0,50354.0,0.1150562415770086,0.12437420376099995,-0.08200358737736606,0.00568039588262178,0.006567676143835448,-0.0021319833976795686,23.51531784600229
1600,C,246202641229989.0,-2.1614637460795842,10.257294,-2.5378511225059786,3,1970-01-03 20:23:22.641229989,-0.7803192,0.30307007,0.002609253,12.659306533153115,0.8371118977888576,98.29631042480469,12.468589782714844,23.014467239379883,23565671.0,50354.0,0.007272588134208607,0.06920233304099996,-0.14238674461936607,0.003079872945639316,0.004873676467063952,-0.005649475388681725,23.56567184999585
1600,C,246202691583993.0,-0.679408046079585,8.48056,-0.3935945225059787,3,1970-01-03 20:23:22.691583993,-1.0062561,0.08781433,0.15992737,9.834540828650198,1.022662925413685,98.2467041015625,12.460044860839844,23.017736434936523,23616025.0,50354.0,-0.07152462911119141,-0.021706249842000026,-0.07380500700446606,-0.001617673635677496,0.0011958088867012214,-0.005443059730633222,23.616025854018517
1600,C,246202741937997.0,3.452839863920415,10.514542,-0.6567018225059784,3,1970-01-03 20:23:22.741937997,-0.8675995,0.02027893,-0.022415161,10.86974412963059,0.8681258934306999,98.2035903930664,12.46100902557373,23.018932342529297,23666379.0,50354.0,0.06982669287777858,-0.015229516946000011,-0.026443311078366047,-4.274894054863477e-05,-0.000929931800421477,-0.002523951904371464,23.66637985801208
1600,C,246202792292001.0,2.3209276539204153,8.370102,0.1947996774940215,3,1970-01-03 20:23:22.792292001,-0.3491516,0.35443115,-0.6732025,8.682717661890589,0.8370961031322106,98.30673217773438,12.39887809753418,23.066713333129883,23716733.0,50354.0,0.14536614479667861,-0.018010518012000043,-0.01162931030496604,0.005417910074129809,-0.0008368843601375674,-0.0009585543885681521,23.71673386200564
1600,C,246202842646005.0,0.6924028539204152,6.893753,0.20561817749402134,3,1970-01-03 20:23:22.842646005,0.115982056,0.30281067,-0.75704956,7.729536761727979,0.823571597055186,98.31702423095703,12.434144973754883,23.087656021118164,23767087.0,50354.0,0.07586662219590859,-0.10917112266500005,0.010081320335033955,0.005569977374572368,-0.003202052167324832,-3.897374347298012e-05,23.7670878659992
1600,C,246202893000008.0,1.2461290539204155,5.6147614,0.5623075774940214,3,1970-01-03 20:23:22.893000008,0.3213501,-0.07069397,-0.61073303,6.290940632271886,0.6937278703478417,98.33329010009766,12.464869499206543,23.088598251342773,23817441.0,50354.0,0.0488064178437086,-0.17854233295120003,0.019334066733333953,0.003138893129077442,-0.0072437616720490705,0.0007405912002202989,23.817441869003233
1600,C,246202943354012.0,1.9103746539204154,6.7596436,0.31302477749402136,3,1970-01-03 20:23:22.943354012,0.21325684,-0.18560791,-0.5074463,7.199745069432224,0.5808877029556089,98.5020751953125,12.528005599975586,23.117441177368164,23867795.0,50354.0,0.07947129385230861,-0.18191880531500004,0.022038242701533952,0.0032296479473706255,-0.00907533007812812,0.0010416306346416693,23.867795872996794
1600,C,246202993708016.0,1.0606432539204151,8.841675,1.2236387774940214,3,1970-01-03 20:23:22.993708016,-0.12609863,-0.1084137,-0.46258545,9.249786248150283,0.49156860496503374,98.42438507080078,12.642768859863281,23.099985122680664,23918149.0,50354.0,0.0748013178657086,-0.10067480160780003,0.03868857832393396,0.0038841215452245195,-0.007114859241495337,0.0015289191729582056,23.918149876990356
1600,C,246203044062020.0,-0.6438857460795848,10.211533,2.2091734624940216,3,1970-01-03 20:23:23.044062020,-0.5642853,-0.14257813,-0.099090576,11.072360388335866,0.5903942455701942,98.3947525024414,12.648714065551758,23.0935001373291,23968503.0,50354.0,0.010492703774908586,-0.013766582184000044,0.08642791376617896,0.0021474475828458187,-0.0028812907197261505,0.003150057921352773,23.96850388101302
1600,C,246203094416024.0,0.1333971539204155,9.057251,-2.0611205225059788,3,1970-01-03 20:23:23.094416024,-1.2978058,-0.44506836,0.7442322,10.561908331942018,1.5608546719997891,98.3237075805664,12.615133285522461,23.065391540527344,24018857.0,50354.0,-0.012852571284791406,-0.008339025232000034,0.003727528870078954,-5.941438429631976e-05,-0.000556552877912634,0.0022698435792530653,24.018857885006582
1600,C,246203144770028.0,-1.4312697460795842,15.390213,1.3815825174940213,3,1970-01-03 20:23:23.144770028,-0.015975952,-0.63487244,0.2074585,16.21825146691392,0.6680997495405232,98.17753601074219,12.7503080368042,23.001358032226562,24069211.0,50354.0,-0.03267653825279139,0.12204460112799997,-0.017108728352186055,-0.001146286390827722,0.0028627652843335907,-0.0003368984593610105,24.069211889000144
1600,C,246203195124032.0,3.4120531239204155,9.201035,0.7098143774940213,3,1970-01-03 20:23:23.195124032,-0.025299072,-0.45825195,0.5022888,9.307136649480382,0.6803888089381716,98.17033386230469,12.728703498840332,22.974443435668945,24119565.0,50354.0,0.04987018310389861,0.12566465089599993,0.052655099625113944,0.0004328843964163265,0.006236575838208246,0.0008949509895385055,24.119565892993705
1600,C,246203245478036.0,3.199940693920415,8.777374,0.3380034774940215,3,1970-01-03 20:23:23.245478036,0.26490784,0.36827087,0.11413574,8.961731440362513,0.4677890171106736,98.18750762939453,12.720433235168457,22.992292404174805,24169919.0,50354.0,0.1664701683517786,-0.04082679660700006,0.026380910135033957,0.005446801028599586,0.00213596265743415,0.001989889617731244,24.16991989701637
1600,C,246203295832040.0,-0.04935744607958448,11.09198,0.15473007749402146,3,1970-01-03 20:23:23.295832040,0.45811462,0.64508057,-0.15765381,11.847538171459673,0.8067544054151705,98.25997924804688,12.858490943908691,23.035526275634766,24220273.0,50354.0,0.0793222344308886,0.006781525657999952,0.012405552713933957,0.006188315324859212,-0.0008571577866829758,0.0009765267751484653,24.220273901009932
1600,C,246203346186044.0,0.21832755392041525,7.43721,0.7124540774940213,3,1970-01-03 20:23:23.346186044,0.5235138,0.2328949,0.43663025,8.3001261401272,0.7203837230611978,98.28807067871094,12.835213661193848,23.04412841796875,24270627.0,50354.0,0.004254160405108597,-0.026959783370000042,0.021833095470133956,0.002104202892785901,-0.0005080279944150262,0.0008620264453302779,24.270627905003494
1600,C,246203396540048.0,2.7435350539204153,5.479645,0.4111998774940213,3,1970-01-03 20:23:23.396540048,0.56230164,0.048736572,0.21054077,5.800915027329757,0.6024000362128091,98.53780364990234,12.728206634521484,23.0939998626709,24320981.0,50354.0,0.0745708148776086,-0.16826154166500004,0.028290235624733952,0.0019845764026929706,-0.004915087300406198,0.0012619551069754896,24.320981908997055
1600,C,246203446894051.0,1.5952042539204152,8.035599,0.4990294774940214,3,1970-01-03 20:23:23.446894051,0.6199188,-0.043060303,-0.075790405,8.442340170368226,0.6260173270588888,98.63518524169922,12.763928413391113,23.107133865356445,24371335.0,50354.0,0.10923643955350859,-0.15319590181200007,0.02291684447053395,0.0046277152448122374,-0.008093334054420432,0.0012892406555585602,24.371335912001086
1600,C,246203497248055.0,1.4237566539204152,8.327057,1.4240324774940214,3,1970-01-03 20:23:23.497248055,0.6704712,-0.2541046,0.18103027,8.641593568687929,0.7395084424311009,98.56550598144531,12.809154510498047,23.070728302001953,24421689.0,50354.0,0.07600837877670859,-0.08150660988800006,0.04841693084073396,0.004663908791099878,-0.005909105137070904,0.0017959704610117924,24.421689915994648
1600,C,246203547602059.0,4.016713153920415,8.457184,0.7881224774940214,3,1970-01-03 20:23:23.547602059,0.7661896,-0.291687,0.25752258,8.565817931208146,0.8593286265026998,98.60010528564453,12.798599243164062,23.053970336914062,24472043.0,50354.0,0.13697470835200862,-0.07089236434300004,0.05569542530173396,0.005362275184639714,-0.00383694897421389,0.0026212367905989148,24.472043920017313
1600,C,246203597956063.0,4.175419823920415,10.95726,0.34824207749402136,3,1970-01-03 20:23:23.597956063,0.33380127,0.36109924,-0.050720215,11.108507605714083,0.49435664169892235,98.62094116210938,12.798402786254883,23.072662353515625,24522397.0,50354.0,0.20625333198309861,-0.004671743412000046,0.028610250400933956,0.008641452371516995,-0.0019024775409476375,0.0021225639971660703,24.522397924010875
1600,C,246203648310067.0,1.4263506539204154,12.757233,0.5076963774940215,3,1970-01-03 20:23:23.648310067,0.040267944,0.5609741,0.019180298,13.04373545388648,0.562744464225252,98.59040832519531,12.717154502868652,23.092378616333008,24572751.0,50354.0,0.14103577532059858,0.10359059026099995,0.021549962481233958,0.008743697854585186,0.002490479807117271,0.0012628836797343417,24.572751928004436
1600,C,246203698652407.0,1.7411394539204155,13.471359,-1.8365418225059784,3,1970-01-03 20:23:23.698652407,-0.13197327,0.103149414,0.3597412,14.160075913663052,0.3968254989040854,98.77852630615234,12.575701713562012,23.137365341186523,24623094.0,50343.0,0.07973047724951547,0.16685160352799994,-0.033449033119118475,0.005557017726568626,0.006807435680959812,-0.00029951745656151013,24.623094267997658
1600,C,246203749006411.0,0.9111681539204155,14.498306,-3.0545595225059783,3,1970-01-03 20:23:23.749006411,-0.20050049,0.33459473,0.25308228,15.624352685836907,0.4649781933424528,98.77176666259766,12.56064510345459,23.152332305908203,24673448.0,50354.0,0.0667771486426086,0.21072305570499997,-0.12314325856336604,0.003688622497086008,0.00950619719550924,-0.003942524127689913,24.67344827199122
1600,C,246203799360415.0,-1.381663346079585,10.93927,-2.4809665225059785,3,1970-01-03 20:23:23.799360415,-0.44288635,0.11705017,-0.06654358,12.87470222041747,0.4629007554028917,98.75102996826172,12.563040733337402,23.158777236938477,24723802.0,50354.0,-0.011845657452991412,0.14697265095199996,-0.13936793923526605,0.001383010153680992,0.009005704806503288,-0.00660924442697616,24.723802276013885
1600,C,246203849714419.0,1.5275468539204153,8.345947,-0.9566590225059786,3,1970-01-03 20:23:23.849714419,-0.87202454,0.3251953,0.023513794,9.132264893790545,0.9309842533644572,98.71097564697266,12.559410095214844,23.175060272216797,24774156.0,50354.0,0.003672909076908584,-0.007925291591000007,-0.08654909834676605,-0.0002057652858646374,0.0035007953666318964,-0.005687913255202823,24.774156280007446
1600,C,246203900068423.0,3.0952348839204156,9.844238,0.12357167749402143,3,1970-01-03 20:23:23.900068423,-1.2288971,0.42884827,-0.2059021,10.053864147028277,1.3177612059302752,98.72108459472656,12.330678939819336,23.21280860900879,24824510.0,50354.0,0.1163877758136186,-0.035494912255000004,-0.020974640085366047,0.003022767863488803,-0.0010931904722307423,-0.00270712516250579,24.824510284001008
1600,C,246203950422427.0,1.5445757539204155,9.470032,0.5659544774940215,3,1970-01-03 20:23:23.950422427,-0.61083984,0.4630127,-0.30488586,9.817532631843463,0.8249008777546883,98.70707702636719,12.341322898864746,23.240951538085938,24874864.0,50354.0,0.11681651242891862,-0.007193824210000024,0.017360200004133956,0.00587138436508236,-0.0010747743179793058,-9.100075792518034e-05,24.87486428799457
1600,C,246204000776430.0,0.4300127539204155,6.1924744,0.010092077494021634,3,1970-01-03 20:23:24.000776430,-0.0039978027,0.25149536,-0.62815857,7.277231482962705,0.676645466690203,98.71063995361328,12.370464324951172,23.258541107177734,24925218.0,50354.0,0.04971421486190861,-0.09913427636720004,0.014503124114933963,0.004192744121001158,-0.002677022588232166,0.000802222911345773,24.9252182909986
1600,C,246204051130434.0,0.9565019539204154,7.1777496,1.0855772774940213,3,1970-01-03 20:23:24.051130434,0.14489746,-0.12696838,-0.5569458,7.727201471570953,0.5893257737210515,98.70016479492188,12.596109390258789,23.252716064453125,24975572.0,50354.0,0.0349082807993086,-0.15684707035200005,0.02758566735053396,0.002130540573262466,-0.006444842366349301,0.0010596695027260859,24.975572294992162
1600,C,246204101484438.0,1.7180528539204154,7.5029755,0.8795225774940214,3,1970-01-03 20:23:24.101484438,0.25546265,-0.32603455,-0.51452637,7.8385189506217445,0.6605278788696975,98.72234344482422,12.662984848022461,23.24285316467285,25025926.0,50354.0,0.0673372663970086,-0.12385258415730004,0.049475319049033954,0.0025742361417616785,-0.007067175201580648,0.0019401644545819217,25.025926299014827
1600,C,246204151838442.0,0.8444262539204153,8.380768,1.7295744774940214,3,1970-01-03 20:23:24.151838442,0.28482056,-0.3795166,-0.6278076,8.840618505064507,0.7869548803406925,98.58197021484375,12.841779708862305,23.19508934020996,25076280.0,50354.0,0.0645155364981086,-0.09356418990050006,0.06568923655343396,0.003319658018490366,-0.0054739021204532326,0.0028994980164033348,25.07628030300839
1600,C,246204202192446.0,0.43857285392041545,11.239944,1.1441404774940214,3,1970-01-03 20:23:24.202192446,0.37590027,-0.3316803,-0.20957947,11.724078738962056,0.5433565943647355,98.5047836303711,12.929697036743164,23.15923309326172,25126634.0,50354.0,0.032302068538108596,0.0005214660239999457,0.07235152142173396,0.0024375768419968406,-0.0023425366590386436,0.0034754521635408024,25.12663430700195
1600,C,246204252546450.0,-0.2362775460795845,11.410507,0.9448912774940215,3,1970-01-03 20:23:24.252546450,-0.8462219,0.21142578,0.13879395,12.103919006531376,0.8832078606108649,98.39761352539062,13.064455032348633,23.153789520263672,25176988.0,50354.0,0.005093188965508601,0.07680120482699998,0.052595552495333965,0.0009415003981685702,0.0019467528840156252,0.003145792480010019,25.17698831099551
1600,C,246204302900454.0,-1.818980246079585,12.456177,1.5926420774940215,3,1970-01-03 20:23:24.302900454,-0.46696472,-1.1658173,0.2642212,13.607065969956537,1.2833545376213888,98.36043548583984,13.059876441955566,23.092609405517578,25227342.0,50354.0,-0.05174522543319141,0.107422303068,0.06388747727853397,-0.0011745583221468502,0.004638195258272414,0.002932693240616673,25.227342315018177
1600,C,246204353254458.0,2.4388933539204154,7.356537,0.4636290774940215,3,1970-01-03 20:23:24.353254458,0.3313141,-0.7792969,0.5066681,7.629222193565237,0.9868055810371311,98.47180938720703,12.940407752990723,23.072782516479492,25277696.0,50354.0,0.01560755231610859,0.005355500377999958,0.05177073886913396,-0.0009098381960687943,0.0028394067573599413,0.002911926907949836,25.27769631901174
1600,C,246204403608462.0,2.7255602039204154,8.400314,0.8548033774940214,3,1970-01-03 20:23:24.403608462,-0.14137268,-0.23405457,0.38134766,8.53968096618485,0.46924813710417956,98.45931243896484,12.7529878616333,23.057567596435547,25328050.0,50354.0,0.13002544722575862,-0.09675896237300004,0.03319417391923395,0.0036666020294655907,-0.002301264962648117,0.002139161609272739,25.3280503230053
1600,C,246204453962466.0,0.7920122539204155,9.927231,1.0160124774940213,3,1970-01-03 20:23:24.453962466,0.5399933,0.2997589,-0.04458618,10.382327340892216,0.6192221649949979,98.43388366699219,12.831658363342285,23.06075668334961,25378404.0,50354.0,0.08856192177105861,-0.03203659953500002,0.047101530781033955,0.005503374189232868,-0.003242685862157718,0.0020216049572386453,25.37840432699886
1600,C,246204504316469.0,1.2385606539204153,7.957367,0.31207877749402146,3,1970-01-03 20:23:24.504316469,0.537796,0.030563354,0.45959473,8.499124203760928,0.7080861332263909,98.5632095336914,12.898073196411133,23.081768035888672,25428758.0,50354.0,0.0511237341007086,-0.04318867615400003,0.033437353526833954,0.003516865757883483,-0.0018939467660219545,0.0020277274902191903,25.428758330002893
1600,C,246204554670473.0,3.0826463839204155,5.994766,0.07390427749402129,3,1970-01-03 20:23:24.554670473,0.5458679,0.26379395,0.19119263,6.349823558294257,0.6356993267837628,98.59315490722656,12.886649131774902,23.093679428100586,25479112.0,50354.0,0.10879502959171859,-0.14219634745900003,0.009717895375433954,0.004026274713484239,-0.004667438739504503,0.0010865197016123992,25.479112333996454
1600,C,246204605024477.0,1.4838152539204152,7.7302246,0.08934617749402163,3,1970-01-03 20:23:24.605024477,0.6589813,0.21879578,-0.28627014,8.270404310977998,0.7510516228270318,98.77596282958984,12.955472946166992,23.13983917236328,25529466.0,50354.0,0.1149698046559186,-0.14791511166380006,0.0041101567052339565,0.0056337272318527625,-0.007304136206334739,0.000348148867234976,25.529466337990016
1600,C,246204655378481.0,0.8233995539204155,8.4670105,1.0663511774940213,3,1970-01-03 20:23:24.655378481,0.74227905,0.016601563,0.14511108,8.980516033855139,0.7565124093507732,98.76765441894531,13.080368995666504,23.129369735717773,25579820.0,50354.0,0.0580887472170086,-0.08567141188730003,0.02909699230653396,0.004357095160504689,-0.005881007903446048,0.000836056390669281,25.57982034201268
1600,C,246204705732485.0,2.7125597139204154,11.253891,-0.17859812250597873,3,1970-01-03 20:23:24.705732485,0.9425659,-0.0079193115,0.3535614,11.517917655945803,1.0067268025176461,98.88166046142578,12.851888656616211,23.141277313232422,25630174.0,50354.0,0.08902484648642861,0.0030439370654999666,0.022350958665433948,0.003703878948671439,-0.0020803119335884605,0.0012953050616212362,25.630174346006243
1600,C,246204756086489.0,2.0606279539204153,13.248505,-1.2136781225059785,3,1970-01-03 20:23:24.756086489,0.48817444,0.44641113,0.22712708,13.745454925108215,0.699416822307354,99.04116821289062,12.681859970092773,23.190887451171875,25680528.0,50354.0,0.1201745459132286,0.12342762409199995,-0.03505333902066605,0.00526701310244617,0.0031841744952623755,-0.0003198078302036786,25.680528349999804
1600,C,246204806440493.0,1.5718126539204156,13.362549,-0.6110627225059786,3,1970-01-03 20:23:24.806440493,-0.18217468,0.3569641,0.24690247,13.788685711477465,0.4707141514911288,99.09634399414062,12.565292358398438,23.22024917602539,25730882.0,50354.0,0.0914539571836086,0.17651730655799996,-0.04594150025486605,0.00532817082246907,0.0075517135189750485,-0.0020392070684400717,25.730882353993366
1600,C,246204856794497.0,2.4252062539204156,12.365875,-3.213037222505979,3,1970-01-03 20:23:24.856794497,-0.57724,0.16508484,0.24191284,13.510576367381205,0.647287296457061,99.06887817382812,12.552045822143555,23.226646423339844,25781236.0,50354.0,0.10063294504270862,0.15429533104799997,-0.09627936431556607,0.004836171937351989,0.00832886977700626,-0.00358069470728977,25.78123635801603
1600,C,246204907148501.0,0.2581377539204155,9.924835,-2.7232911225059784,3,1970-01-03 20:23:24.907148501,-0.9133911,0.42539978,-0.2133789,11.53710584448138,1.0299411776157261,99.02826690673828,12.559237480163574,23.2498836517334,25831590.0,50354.0,0.0675585520854086,0.06774400566999998,-0.14945893874236604,0.004234557323194607,0.005590284380549085,-0.006186953256089557,25.831590362009592
1600,C,246204957502505.0,0.8574266539204154,9.684525,-0.7985017225059785,3,1970-01-03 20:23:24.957502505,-1.2017975,0.46687317,-0.22824097,10.481755116139215,1.3093440068441295,99.16084289550781,12.639546394348145,23.316120147705078,25881944.0,50354.0,0.0280865650962086,0.00023565671999997852,-0.08866817845886604,0.0024080571152815767,0.001711523959993029,-0.005995326429775421,25.881944366003154
1600,C,246205007856509.0,2.1911821539204155,9.391327,0.3314573774940215,3,1970-01-03 20:23:25.007856509,-1.1988525,0.34336853,-0.2554779,9.66362206495698,1.272956488470451,99.14225006103516,12.548431396484375,23.343706130981445,25932298.0,50354.0,0.0767548239550086,-0.013196474196000008,-0.011758775474366042,0.0026395916521424955,-0.00032631450159325274,-0.0025284494191769842,25.932298369996715
1600,C,246205058210512.0,1.8645677539204153,7.1992493,1.3270628774940214,3,1970-01-03 20:23:25.058210512,-0.7666626,0.2863922,-0.567276,7.453223609474031,0.9957881775938093,99.03179168701172,12.604403495788574,23.346181869506836,25982652.0,50354.0,0.10211161542970859,-0.07576826049490003,0.04175656445983396,0.004503320344389025,-0.0022398651253127903,0.0007552543332871258,25.982652373000747
1600,C,246205108564516.0,1.8068437539204154,5.0283203,0.8776609774940214,3,1970-01-03 20:23:25.108564516,-0.36540222,0.25202942,-0.697876,5.48668803023086,0.827084350173829,99.12763977050781,12.808822631835938,23.38874053955078,26033006.0,50354.0,0.0924351275329086,-0.18561568018080005,0.05550833249703395,0.004898103347569813,-0.006580863474392101,0.0024488383106830635,26.033006376994308
1600,C,246205158918520.0,1.1921282539204152,5.4208374,2.1372435314940215,3,1970-01-03 20:23:25.158918520,-0.0552063,-0.03492737,-0.64860535,5.945984246782293,0.6518869202426364,99.12567138671875,12.841120719909668,23.392250061035156,26083360.0,50354.0,0.0755051182414086,-0.23039075658710004,0.07590625082279195,0.0042282315678599846,-0.01047379405850542,0.0033086249642432573,26.083360381016973
1600,C,246205209272524.0,1.0258379539204152,7.55101,1.9461424574940214,3,1970-01-03 20:23:25.209272524,0.19824219,-0.10594177,-0.37226868,7.990420245812352,0.43486503036651664,98.94144439697266,13.018321990966797,23.346601486206055,26133714.0,50354.0,0.05584173521480859,-0.16687699801020006,0.10280740904475197,0.0033069197294671804,-0.010002010257496226,0.004499473814485153,26.133714385010535
1600,C,246205259626528.0,0.5585832539204154,9.659439,2.0005552974940213,3,1970-01-03 20:23:25.259626528,0.12815857,-0.17105103,-0.2515564,10.137915266991676,0.330096495451657,98.74181365966797,13.151317596435547,23.293638229370117,26184068.0,50354.0,0.039890972749808594,-0.060161725527000026,0.09936600937733396,0.0024102623884251673,-0.005716153942496087,0.005090120155612858,26.184068389004096
1600,C,246205309980532.0,0.41505905392041553,10.804672,2.0687773444940216,3,1970-01-03 20:23:25.309980532,0.12245178,-0.29631042,-0.28186035,11.274269870461644,0.42689525685801116,98.5338134765625,13.256935119628906,23.23255729675293,26234422.0,50354.0,0.0245133923845086,0.021755722646999986,0.10245358792733295,0.0016215087009867038,-0.000966947934509761,0.005081212001339599,26.234422392997658
1600,C,246205360334536.0,0.6288347539204153,12.452637,-0.5159547225059784,3,1970-01-03 20:23:25.360334536,-0.2718048,-0.46739197,-0.12524414,13.073373973309739,0.5549947725230036,98.59746551513672,13.268048286437988,23.228687286376953,26284776.0,50354.0,0.0262821144000086,0.09208006869299995,0.039095415153792966,0.0012788784743137899,0.0028660437185671784,0.0035637792505735072,26.28477639699122
1600,C,246205410688540.0,-0.6966504460795848,13.696335,0.42098067749402146,3,1970-01-03 20:23:25.410688540,-0.49079895,-0.7190094,0.13998413,14.46198292393365,0.8817333402232896,98.52413940429688,13.370515823364258,23.181808471679688,26335130.0,50354.0,-0.0017073956814914104,0.1648834680439999,-0.00239116153126604,0.0006187176931761074,0.006469570964427445,0.0009241029934543604,26.335130401013885
1600,C,246205461042544.0,0.35780815392041543,11.0473175,2.5239622774940216,3,1970-01-03 20:23:25.461042544,0.4043274,-0.22727966,0.4224701,11.531186583655375,0.6273895724623462,98.54095458984375,13.351312637329102,23.16703987121582,26385484.0,50354.0,-0.008531032389691409,0.12950173899249995,0.07414482877773397,-0.00025777290354816985,0.007411736357557957,0.0018065420802643234,26.385484405007446
1600,C,246205511396548.0,1.5566454539204155,8.463882,0.056753477494021265,3,1970-01-03 20:23:25.511396548,0.10324097,0.26213074,0.69285583,8.95009363672,0.7479441315395672,98.67244720458984,13.318180084228516,23.203779220581055,26435838.0,50354.0,0.0482001984846086,-0.002235730188500035,0.06497468056333396,0.0009987505947717302,0.003204176303658306,0.0035026118866800676,26.435838409001008
1600,C,246205561750552.0,0.18266775392041534,10.577774,0.5427305774940214,3,1970-01-03 20:23:25.561750552,0.24052429,0.3921051,0.42907715,11.234401707702046,0.6290513048854891,98.68018341064453,13.408350944519043,23.218507766723633,26486192.0,50354.0,0.043790688633808604,-0.014057426888000045,0.015093210052433952,0.0023160545649803903,-0.0004102128157150425,0.002015869282033189,26.48619241299457
1600,C,246205612104555.0,1.4621324539204155,9.227493,0.7980101774940214,3,1970-01-03 20:23:25.612104555,0.5022583,-0.010345459,0.47520447,9.567942451151843,0.6915126294933388,98.68705749511719,13.377903938293457,23.21028709411621,26536546.0,50354.0,0.0414111348328086,0.00516800725899998,0.03375582998833396,0.0021451263094190215,-0.00022380891799933465,0.0012298722811064139,26.5365464159986
1600,C,246205662458559.0,2.8336839539204153,6.591446,0.5608122774940214,3,1970-01-03 20:23:25.662458559,0.5951996,0.030822754,0.28482056,6.814523369406398,0.6605568540277349,98.82878875732422,13.19926643371582,23.23537254333496,26586900.0,50354.0,0.1081557697002086,-0.095195772797,0.03421107294923396,0.003765645955427774,-0.0022666290529502267,0.0017112027152591473,26.586900419992162
1600,C,246205712812563.0,2.1585893539204153,7.1194305,0.18860457749402149,3,1970-01-03 20:23:25.712812563,0.6842041,0.15478516,-0.027130127,7.516236605682439,0.7020183330968442,99.01934051513672,13.154412269592285,23.278642654418945,26637254.0,50354.0,0.1256904650715086,-0.14827046235950003,0.018868068158033956,0.005887546652847525,-0.006129749402535202,0.0013363735356576843,26.637254424014827
1600,C,246205763166567.0,1.4426317539204154,7.6749268,0.5828001774940215,3,1970-01-03 20:23:25.763166567,0.58872986,-0.0090789795,0.15718079,8.123568157206375,0.6094186382688055,99.10066986083984,13.209465980529785,23.28885841369629,26687608.0,50354.0,0.0906679438321086,-0.12099166625790005,0.01942165751633396,0.005447255660966371,-0.0067792126122002815,0.0009640204233035612,26.68760842800839
1600,C,246205813520571.0,3.214039813920415,8.483627,0.6415769774940214,3,1970-01-03 20:23:25.813520571,0.62849426,-0.03994751,0.2644348,8.61722817600623,0.6830275264286116,99.13113403320312,13.196723937988281,23.284679412841797,26737962.0,50354.0,0.1172410200635286,-0.08664529097740004,0.030826143631133958,0.005234523984000458,-0.00522767567231315,0.0012650888894897999,26.73796243200195
1600,C,246205863874575.0,3.3953600039204153,10.750015,0.6161863774940215,3,1970-01-03 20:23:25.863874575,0.4405365,0.14720154,0.03845215,10.853668721112344,0.46606788030312074,99.15479278564453,13.193655967712402,23.291828155517578,26788316.0,50354.0,0.1664048592137786,-0.009223795366000044,0.03166670798853396,0.007141352302564764,-0.002413695986867784,0.0015733825252283791,26.78831643599551
1600,C,246205914228579.0,2.5569963539204155,12.752213,1.1068327774940214,3,1970-01-03 20:23:25.914228579,0.2591858,0.15071106,0.12521362,12.835655001152729,0.324914685973823,99.04842376708984,12.97870922088623,23.271060943603516,26838670.0,50354.0,0.1498624760213586,0.09824639435599994,0.043380453265133956,0.00796266269921505,0.0022413219747712274,0.0018894623788835974,26.838670440018177
1600,C,246205964582583.0,2.7449083539204153,12.644516,-0.8300111225059785,3,1970-01-03 20:23:25.964582583,0.1803894,0.11520386,0.3215027,13.008526619648944,0.3862334153054984,99.15957641601562,12.737224578857422,23.29684829711914,26889024.0,50354.0,0.13348605482930861,0.14594424603299994,0.006969538807633956,0.007133865961227249,0.00614798775307385,0.0012676617504160778,26.88902444401174
1600,C,246206014936587.0,1.5139512539204154,14.5784,-3.3940675225059787,3,1970-01-03 20:23:26.014936587,0.09051514,0.35177612,-0.036361694,15.720676914602945,0.3650501362306603,99.16809844970703,12.736218452453613,23.31494903564453,26939378.0,50354.0,0.10722530834660861,0.191922156132,-0.10634962804546605,0.006060389990680069,0.008506462407308204,-0.002502092506740899,26.9393784480053
1600,C,246206065290591.0,-0.6638747460795846,11.87146,-2.7165162225059785,3,1970-01-03 20:23:26.065290591,-0.33816528,0.17019653,-0.2427063,13.510951760833546,0.44969874747569544,99.15351867675781,12.746842384338379,23.32554054260254,26989732.0,50354.0,0.021402376237908596,0.17245892522,-0.15384616694816605,0.00323845921478439,0.009174022485199305,-0.006550949530554676,26.98973245199886
1600,C,246206115644594.0,0.5857286539204152,8.462997,-1.6265657225059784,3,1970-01-03 20:23:26.115644594,-0.8293762,0.026947021,-0.17436218,9.734346340116208,0.847934663097085,99.1126708984375,12.755237579345703,23.328325271606445,27040086.0,50354.0,-0.0019674841622914093,0.018491423888999978,-0.10934577412956603,0.000489312277787814,0.004807556939517293,-0.006626383500514061,27.040086455002893
1600,C,246206165998598.0,1.5344896539204154,9.782623,0.23663927749402136,3,1970-01-03 20:23:26.165998598,-1.0295563,0.03918457,-0.28746033,10.17638620367351,1.0696518343458696,99.1031265258789,12.748157501220703,23.341690063476562,27090440.0,50354.0,0.0533807363365086,-0.03409922526000007,-0.034994178106066046,0.0012944314499902662,-0.0003929576151176693,-0.0036340469774365086,27.090440458996454
1600,C,246206216352602.0,1.8558092539204154,8.698914,1.1380369774940213,3,1970-01-03 20:23:26.216352602,-0.63027954,0.026443481,-0.325531,8.93022720704738,0.7098746285021102,99.00126647949219,12.73298168182373,23.329965591430664,27140794.0,50354.0,0.08535755560270859,-0.028159542951000052,0.03461022407183395,0.0034930139761536715,-0.0015674890072483502,-9.666810719861461e-06,27.140794462990016
1600,C,246206266706606.0,2.1561479539204154,6.964081,0.012167277494021356,3,1970-01-03 20:23:26.266706606,-0.16220093,0.18391418,-0.5509949,7.417305065298955,0.6030994504424185,99.18742370605469,12.730589866638184,23.38584327697754,27191148.0,50354.0,0.1010090466218086,-0.09912197488500003,0.02895869252783395,0.004692151944206669,-0.0032045667745569744,0.0016004746132298388,27.19114846701268
1600,C,246206317060610.0,1.0341082539204152,5.494293,0.8669493774940213,3,1970-01-03 20:23:26.317060610,0.12007141,0.14407349,-0.7577057,6.201253193066528,0.7805717403497633,99.1964111328125,12.766839027404785,23.399341583251953,27241502.0,50354.0,0.08032108054480859,-0.17980471780200005,0.022133520022633954,0.004565348611673921,-0.007022537341780602,0.0012863486353831305,27.241502471006243
1600,C,246206367414614.0,0.9706926539204153,5.9844513,1.4450895774940213,3,1970-01-03 20:23:26.367414614,0.38894653,-0.12689209,-0.6530609,6.582708880371534,0.7706293173844472,99.21561431884766,12.80008602142334,23.398273468017578,27291856.0,50354.0,0.05047487245670859,-0.2044688547589001,0.05821020476973395,0.0032930497087191985,-0.009674855736365782,0.002022813959097447,27.291856474999804
1600,C,246206417768618.0,0.8016100539204154,6.8716736,1.5210478774940213,3,1970-01-03 20:23:26.417768618,0.35905457,-0.29180908,-0.54989624,7.454873216279105,0.7186505396745131,99.2313003540039,12.82956314086914,23.388023376464844,27342210.0,50354.0,0.044621265275308596,-0.16979054339270003,0.07467844270423395,0.002394235459678997,-0.009422728867262838,0.0033457374774520897,27.342210478993366
1600,C,246206468122622.0,0.34473125392041526,9.408142,1.1635649374940216,3,1970-01-03 20:23:26.468122622,0.09124756,-0.26210022,-0.34674072,10.01014636969136,0.4441303518519314,99.14666748046875,13.008007049560547,23.358186721801758,27392564.0,50354.0,0.028861435107508594,-0.08359228263880004,0.06759049684295396,0.0018500739475381886,-0.006379419410995078,0.0035819050909795497,27.39256448301603
1600,C,246206518476626.0,-1.0545607460795843,12.993576,2.1610624974940214,3,1970-01-03 20:23:26.518476626,-0.38783264,-0.19995117,-0.09492493,13.8140873049394,0.44654828335717894,99.12516021728516,13.014275550842285,23.348825454711914,27442918.0,50354.0,-0.017871377124091398,0.07053885408599994,0.08370414493069396,0.0002766966898484948,-0.0003286461706738482,0.0038091451959351343,27.442918487009592
1600,C,246206568830630.0,-2.1033124460795847,12.711288,1.6262419474940213,3,1970-01-03 20:23:26.568830630,-0.8227844,-1.2319641,0.3911438,13.954301112170793,1.5322216500397747,99.06925201416016,13.004704475402832,23.283226013183594,27493272.0,50354.0,-0.07950577335899141,0.15370216092799993,0.09535296401146395,-0.002451664517712576,0.0056457160350074755,0.004508120831836711,27.493272491003154
1600,C,246206619184634.0,0.9401292539204156,9.918106,1.5690825174940213,3,1970-01-03 20:23:26.619184634,0.12013245,-1.0792542,0.7206726,10.291046607276614,1.3032998235829707,98.9122314453125,13.033615112304688,23.189048767089844,27543626.0,50354.0,-0.029285463228991403,0.07627105273799996,0.08044868405500395,-0.0027390369635756436,0.005790035600468879,0.004426158093369463,27.543626494996715
1600,C,246206669538637.0,2.778248803920415,7.1907196,-0.6782319225059785,3,1970-01-03 20:23:26.669538637,0.31663513,-0.49635315,0.60931396,7.7538267380582235,0.8472825720595939,98.92129516601562,13.007362365722656,23.15903663635254,27593980.0,50354.0,0.0936176043622586,-0.06272029786880003,0.022428945430013954,0.0016196903173122683,0.00034116735534184674,0.0025901500775442963,27.593980498000747
1600,C,246206719892641.0,0.19286065392041518,8.520142,-0.24994822250597837,3,1970-01-03 20:23:26.719892641,0.14538574,0.028503418,0.21459961,9.483226945469177,0.26077279544688403,98.92851257324219,12.996541976928711,23.15877342224121,27644334.0,50354.0,0.07480362282005859,-0.09791683749680004,-0.02336879151096604,0.0042403412367692005,-0.004044361157099713,-2.366250478013068e-05,27.644334501994308
1600,C,246206770246645.0,-0.06534864607958468,9.89119,0.0856077774940216,3,1970-01-03 20:23:26.770246645,0.40542603,-0.2480011,0.37329102,10.749820693212707,0.604335169434488,99.00659942626953,13.158305168151855,23.157121658325195,27694688.0,50354.0,0.00321036982140859,-0.029927094236000044,-0.0041375993840660355,0.0019641582927342194,-0.003218726669236708,-0.0006925284035642226,27.694688506016973
1600,C,246206820600649.0,2.3039751539204154,6.775879,1.0340177774940214,3,1970-01-03 20:23:26.820600649,0.48789978,-0.47253418,0.5317993,6.986136727565608,0.8626385350033993,99.02153015136719,13.08137035369873,23.12818145751953,27745042.0,50354.0,0.0563618995879086,-0.07384240378700005,0.02818881259793396,0.001499851026918379,-0.0026126046517250734,0.0006055373950855528,27.745042510010535
1600,C,246206870954653.0,3.8712663839204153,5.50589,0.19203787749402146,3,1970-01-03 20:23:26.870954653,0.7551422,-0.18399048,0.09715271,5.829710506044417,0.7832821254259632,99.05699920654297,13.078018188476562,23.118070602416992,27795396.0,50354.0,0.1554740561982186,-0.18425110188700006,0.030868403225633955,0.005333393858827325,-0.006498020192354302,0.0014868835227899696,27.795396514004096
1600,C,246206921308657.0,1.4843950539204154,7.543976,-0.0042359225059787065,3,1970-01-03 20:23:26.921308657,0.64533997,0.017700195,-0.18434143,8.120106121786993,0.6713856839381399,99.24990844726562,13.145885467529297,23.156797409057617,27845750.0,50354.0,0.1348394880205186,-0.16491272371800006,0.004728289820733952,0.007309224102795148,-0.00879089763725709,0.0008962179408284049,27.845750517997658
1600,C,246206971662661.0,1.6509904539204154,8.908157,1.2338774374940216,3,1970-01-03 20:23:26.971662661,0.49919128,-0.13812256,0.043014526,9.166784622572122,0.5197307236021329,99.17955780029297,13.129372596740723,23.128156661987305,27896104.0,50354.0,0.07893960093090861,-0.07925384745900006,0.030958684422853957,0.005382316122530083,-0.006147381762523333,0.0008984909505308129,27.89610452199122
1600,C,246207022016665.0,2.8523607539204154,10.787186,1.4367735774940216,3,1970-01-03 20:23:27.022016665,0.2998352,-0.03665161,0.16816711,10.835444337100084,0.34572339313443085,99.1938247680664,13.121365547180176,23.124921798706055,27946458.0,50354.0,0.1133808733598086,0.0024004507109999487,0.06723898060435396,0.004842052581217388,-0.001934937969924399,0.002472322612390014,27.946458526013885
1600,C,246207072370669.0,3.0889787539204154,12.209625,1.2276823774940215,3,1970-01-03 20:23:27.072370669,0.06536865,0.14476013,0.5184021,12.252441863463481,0.5421893515413683,99.19778442382812,13.094620704650879,23.12800407409668,27996812.0,50354.0,0.1495851047889086,0.085521510547,0.06708300757873396,0.006620694431850253,0.0022136112185926647,0.003381824696485605,27.996812530007446
1600,C,246207122724673.0,2.7429857539204154,13.030273,-0.6414125225059788,3,1970-01-03 20:23:27.122724673,0.18591309,0.31704712,0.29440308,13.343999400924044,0.47090946778242726,99.27803039550781,12.847342491149902,23.1568603515625,28047166.0,50354.0,0.14683137041390862,0.14199571194599997,0.014760516139033952,0.00746287759618133,0.005728201110706261,0.002060574396642243,28.047166534001008
1600,C,246207173078677.0,0.8920792539204152,15.323273,-3.547342022505979,3,1970-01-03 20:23:27.173078677,-0.030258179,0.33389282,-0.17147827,16.557263221803606,0.3765697408530607,99.28060150146484,12.853111267089844,23.175174713134766,28097520.0,50354.0,0.0915200317024086,0.2203880276419999,-0.10546027317976607,0.006000973251082519,0.009123735411607072,-0.0022835477830145125,28.09752053799457
1600,C,246207223432680.0,-1.201991046079585,12.250351,-1.5840395225059787,3,1970-01-03 20:23:27.223432680,-0.35484314,0.16246033,0.07672119,13.674425390597168,0.397735029666466,99.26454162597656,12.848016738891602,23.18276596069336,28147874.0,50354.0,-0.00780264919119142,0.20075193144799994,-0.12919279315876606,0.002107752539484915,0.010603040750008928,-0.005907860251205223,28.1478745409986
1600,C,246207273786684.0,1.0978442539204152,7.241287,-0.7200410225059786,3,1970-01-03 20:23:27.273786684,-0.75857544,0.0032806396,0.103775024,8.172395421409517,0.7656479062686576,99.2264633178711,12.842872619628906,23.182079315185547,28198228.0,50354.0,-0.0026221037861914203,-0.0027282300740000356,-0.05800983588176605,-0.0002624640057115678,0.004985642729493196,-0.004713200591353477,28.198228544992162
1600,C,246207324140688.0,2.801503193920415,9.327194,0.25850517749402147,3,1970-01-03 20:23:27.324140688,-1.4362488,0.036071777,-0.02848816,9.542414967429476,1.4369841209483016,99.20367431640625,12.648966789245605,23.194969177246094,28248582.0,50354.0,0.0981738706942886,-0.07632455386300004,-0.011620087969866045,0.0024057068354451628,-0.001990311941181851,-0.0017530725928125413,28.248582549014827
1600,C,246207374494692.0,2.5780229539204154,9.8085785,1.7831480774940214,3,1970-01-03 20:23:27.374494692,-0.5833893,0.5351105,-0.23504639,9.870232252454523,0.8257924242912211,98.99312591552734,12.496663093566895,23.18313217163086,28298936.0,50354.0,0.1354403298241886,-0.01168785576750004,0.05140270400083396,0.005881704726453701,-0.0022158884372671006,0.0010016069238116792,28.29893655300839
1600,C,246207424848696.0,0.7747697539204155,6.7904816,-0.07435012250597861,3,1970-01-03 20:23:27.424848696,0.131073,0.33551025,-0.4507599,7.68049280261988,0.5770023800922076,99.004150390625,12.5162992477417,23.203716278076172,28349290.0,50354.0,0.0844132620053086,-0.07555466386230006,0.04302240611273395,0.005535253881491252,-0.002196504916719477,0.0023773409973292994,28.34929055700195
1600,C,246207475202700.0,0.5129442539204154,7.619919,1.0736448774940215,3,1970-01-03 20:23:27.475202700,0.22557068,0.22705078,-0.44407654,8.2975741127406,0.547392146228499,98.98589324951172,12.775057792663574,23.211610794067383,28399644.0,50354.0,0.0324207755754086,-0.13065854409380004,0.025159244046333958,0.002941530564169717,-0.005191829936710733,0.0017166094060548527,28.39964456099551
1600,C,246207525556704.0,2.1076860539204154,6.192871,0.8255064774940215,3,1970-01-03 20:23:27.525556704,0.313797,-0.07493591,-0.5217743,6.503190378137091,0.6134593449911885,99.0660400390625,12.821904182434082,23.22626495361328,28449998.0,50354.0,0.0659796092605086,-0.14570458617000004,0.04781493366453396,0.0024774264890138876,-0.006957994530651696,0.0018372708722265217,28.449998565018177
1600,C,246207575910708.0,0.9962205539204154,6.893524,1.1889708274940214,3,1970-01-03 20:23:27.575910708,0.29788208,-0.120513916,-0.54826355,7.4364870649708195,0.6354921382624524,99.04236602783203,13.04842758178711,23.216066360473633,28500352.0,50354.0,0.0781470566656086,-0.16399303308500005,0.05071849510768396,0.0036286770680218528,-0.007797256959983137,0.0024807761361981305,28.50035256901174
1600,C,246207626264712.0,1.1367540539204155,10.05011,2.1371062024940213,3,1970-01-03 20:23:27.626264712,-0.28729248,-0.2059021,-0.2263794,10.356039451063934,0.4197383430106433,98.79562377929688,13.08798599243164,23.155349731445312,28550706.0,50354.0,0.0537019017016086,-0.06687932678200004,0.08374064138400895,0.003319561224811428,-0.005812673404371462,0.0033852776794513527,28.5507065730053
1600,C,246207676618716.0,0.12375355392041554,13.501801,3.6249754774940213,3,1970-01-03 20:23:27.676618716,-0.8954315,0.39334106,0.23173523,14.03470828778992,1.0050950091893436,98.75494384765625,13.073528289794922,23.173480987548828,28601060.0,50354.0,0.031735800042608606,0.09949726324699998,0.14507193045705896,0.0021510650168141566,0.0008212217863793036,0.005760814121242567,28.60106057699886
1600,C,246207726972719.0,-1.5962781460795847,14.827255,2.2605498074940216,3,1970-01-03 20:23:27.726972719,-0.67840576,-0.87301636,0.12539673,15.72390167384437,1.1127067358129545,98.7107925415039,13.07396125793457,23.128215789794922,28651414.0,50354.0,-0.03707375165679141,0.21977144291199993,0.14817987010014397,-0.0001343936077902804,0.008038228214965143,0.007383200582628698,28.651414580002893
1600,C,246207777326723.0,2.3649492539204156,8.607452,0.5177824774940214,3,1970-01-03 20:23:27.777326723,0.535141,-0.33374023,0.45950317,8.842137746291108,0.7803214685253135,98.77510070800781,12.933659553527832,23.11717987060547,28701768.0,50354.0,0.0193528324821086,0.09654641813899996,0.06995007193914396,-0.0004461595820609891,0.007963934787681025,0.005491857550723152,28.701768583996454
1600,C,246207827680727.0,2.0497942539204153,7.6378326,-0.7450349225059787,3,1970-01-03 20:23:27.827680727,0.17718506,-0.34410095,0.22233582,8.300927054621148,0.44635549300213445,98.77967834472656,12.925301551818848,23.09799575805664,28752122.0,50354.0,0.1111499972969086,-0.08446166962580003,-0.005721534808066049,0.003285669745346316,0.00030425771331683474,0.0016170818793491486,28.752122587990016
1600,C,246207878034731.0,-0.15886974607958448,9.699371,0.2078306774940215,3,1970-01-03 20:23:27.878034731,0.031829834,0.47930908,-0.13964844,10.584225164158255,0.5002519558156145,98.84020233154297,13.130058288574219,23.135404586791992,28802476.0,50354.0,0.0476078063339086,-0.05697042496280005,-0.013525191276666047,0.003997045222013085,-0.003560835845457184,-0.0004845748226353,28.80247659201268
1600,C,246207928388735.0,0.1677446539204155,8.429184,0.7929289774940214,3,1970-01-03 20:23:27.928388735,0.40101624,-0.15670776,0.3614807,9.20671354032356,0.5621740328941254,98.85612487792969,13.337302207946777,23.124250411987305,28852830.0,50354.0,0.0002234435547086022,-0.03704657076500007,0.025196125833633957,0.0012042473784457154,-0.0023670659014388236,0.0002938391193407811,28.852830596006243
1600,C,246207978742739.0,3.3059892839204155,6.041931,-0.05753492250597869,3,1970-01-03 20:23:27.978742739,0.35591125,-0.07499695,0.42016602,6.421782188256436,0.5557309103770506,98.87226867675781,13.317124366760254,23.117116928100586,28903184.0,50354.0,0.0874581993530186,-0.12912993764500005,0.01851501612243395,0.002207560723487848,-0.004183825952238573,0.0011005154210279218,28.903184599999804
1600,C,246208029096743.0,2.9916277039204155,7.643982,0.18558337749402143,3,1970-01-03 20:23:28.029096743,0.528656,0.11581421,-0.1530304,7.904665926812551,0.5624130162950393,98.90034484863281,13.323790550231934,23.12421417236328,28953538.0,50354.0,0.15855510290286862,-0.14889896839900005,0.003223875951233952,0.006193876910896473,-0.006999933767469791,0.0005473200857387368,28.953538603993366
1600,C,246208079450747.0,1.1994829539204153,8.142075,1.1560881374940215,3,1970-01-03 20:23:28.079450747,0.61546326,0.26359558,0.017486572,8.55004205614576,0.6697637153546578,98.87669372558594,13.401752471923828,23.124191284179688,29003892.0,50354.0,0.1055195930324586,-0.09602364291100003,0.03377926373285396,0.006648608619563734,-0.006166416584951873,0.0009316280478262816,29.00389260801603
1600,C,246208129804751.0,2.1847124539204152,9.8607025,2.3829558074940214,3,1970-01-03 20:23:28.129804751,0.7065277,-0.028915405,0.14021301,9.970982967783053,0.7208863847284565,98.91143035888672,13.395049095153809,23.121610641479492,29054246.0,50354.0,0.0852038877832086,-0.04021327088250003,0.08910250940296396,0.004801845076496053,-0.0034300367785789513,0.0030937944022404883,29.054246612009592
1600,C,246208180158755.0,3.861470233920415,12.415756,-0.2044465225059784,3,1970-01-03 20:23:28.180158755,0.701416,0.16911316,0.041015625,12.628618879635995,0.7226796990612967,98.94841766357422,13.39171314239502,23.12987518310547,29104600.0,50354.0,0.1522247415317686,0.06738519565449998,0.05484832826814396,0.005977740600263182,0.0006841075499846428,0.0036242502400454842,29.104600616003154
1600,C,246208230512759.0,2.661625853920415,12.560608,-0.6427400225059787,3,1970-01-03 20:23:28.230512759,0.14149475,0.31462097,0.43167114,12.891943186056944,0.5525822039753027,99.04380798339844,13.142877578735352,23.161977767944336,29154954.0,50354.0,0.1642319902035686,0.135360716428,-0.021329615643766047,0.007967431134900584,0.005104533828501102,0.0008439006277439629,29.154954619996715
1600,C,246208280866762.0,1.0485582539204152,13.771301,-3.4348390225059786,3,1970-01-03 20:23:28.280866762,-0.22367859,0.1415863,0.39007568,15.063152485461243,0.47142107303295266,99.0335464477539,13.122502326965332,23.166013717651367,29205308.0,50354.0,0.09341130528310859,0.16948927289299998,-0.10266120761626604,0.006486685250468072,0.007675208181134816,-0.003121716957217828,29.205308623000747
1600,C,246208331220766.0,-1.623332046079585,12.603607,-2.133371122505978,3,1970-01-03 20:23:28.331220766,-0.5326538,0.30870056,0.04298401,14.295634951487404,0.6171415814174521,99.01040649414062,13.117959976196289,23.181320190429688,29255662.0,50354.0,-0.014471079765191418,0.170571858716,-0.14019082682096604,0.0019874780578646007,0.008561719110519794,-0.006114285671026193,29.255662626994308
1600,C,246208381574770.0,-0.42235854607958423,7.4561615,-0.3121888225059788,3,1970-01-03 20:23:28.381574770,-0.9656677,-0.17645264,0.3705902,8.822836445989338,1.0492791512854431,98.95941925048828,13.101035118103027,23.169403076171875,29306016.0,50354.0,-0.05150435203879141,0.01157559152449998,-0.061571862735566044,-0.0016610634465288757,0.004585926354705068,-0.0050797792349648084,29.306016631016973
1600,C,246208431928774.0,4.093831073920415,9.21788,-1.0914095225059786,3,1970-01-03 20:23:28.431928774,-1.0218201,0.021957397,-0.13423157,9.76331679816734,1.0308329439980517,98.90880584716797,13.107490539550781,23.171579360961914,29356370.0,50354.0,0.0924366638334486,-0.07366685715450005,-0.035338395532366056,0.0010305528140540842,-0.001563271794766512,-0.0024399095724117266,29.356370635010535
1600,C,246208482282778.0,3.069584853920415,10.058411,1.3538572774940214,3,1970-01-03 20:23:28.482282778,-0.8639679,0.18864441,-0.20924377,10.10138860669814,0.9087409977207318,98.8681640625,13.116373062133789,23.182811737060547,29406724.0,50354.0,0.1803533228152486,-0.008150021493000068,0.006607647127333955,0.00686803349385425,-0.0020599035537081107,-0.0007233540525934932,29.406724639004096
1600,C,246208532636782.0,0.4310350539204153,7.9476013,0.9594175774940215,3,1970-01-03 20:23:28.532636782,-0.093826294,-0.04058838,-0.40888977,8.643788639871335,0.42147554383077995,98.84587860107422,13.352091789245605,23.17989158630371,29457078.0,50354.0,0.08813510741970859,-0.04013182832290008,0.05824132102403396,0.006759733208025517,-0.0012155921328149183,0.00163270247114699,29.457078642997658
1600,C,246208582990786.0,1.3931932539204155,6.820526,0.7629148774940213,3,1970-01-03 20:23:28.582990786,0.1516571,0.026473999,-0.5074005,7.301709114760938,0.5302414695246987,98.9083023071289,13.490245819091797,23.197696685791016,29507432.0,50354.0,0.0459285961065086,-0.12165205896790005,0.04336316421923395,0.0033753218636795703,-0.004073232930320475,0.0025580961249697565,29.50743264699122
1600,C,246208633344790.0,2.8131761539204154,6.1992188,1.2468626774940215,3,1970-01-03 20:23:28.633344790,0.34996033,-0.22384644,-0.637558,6.310474279805796,0.7609596997465651,98.89546966552734,13.373618125915527,23.18468475341797,29557786.0,50354.0,0.10590376258120861,-0.16567108517040005,0.05060016950193395,0.0038226832946806565,-0.007233934799969981,0.0023657148530978446,29.557786651013885
1600,C,246208683698794.0,2.0641679539204154,7.965088,1.7758543774940214,3,1970-01-03 20:23:28.683698794,0.48249817,-0.028915405,-0.74928284,8.124698545994116,0.8916643757704625,98.7542724609375,13.357332229614258,23.150711059570312,29608140.0,50354.0,0.1227968926031086,-0.13685444769640007,0.07610294729343395,0.0057579963955755546,-0.007616685340987427,0.0031900043715569776,29.608140655007446
1600,C,246208734052798.0,0.21173575392041544,9.362686,2.2242338874940213,3,1970-01-03 20:23:28.734052798,0.5345764,-0.13630676,-0.7303314,9.969721392514277,0.9152788723032,98.78073120117188,13.394462585449219,23.149511337280273,29658494.0,50354.0,0.057300427652308604,-0.057207834002000045,0.10071022224760397,0.004534310232070639,-0.00488590606632062,0.0044516251695347125,29.658494659001008
1600,C,246208784406802.0,-1.0225782460795845,11.979263,0.4458525774940214,3,1970-01-03 20:23:28.784406802,-0.05076599,-0.33291626,-0.11352539,12.957983229961753,0.35538491257750354,98.75164031982422,13.593851089477539,23.12815284729004,29708848.0,50354.0,-0.0204145814250914,0.04385704997299996,0.06722476692900395,0.0009286749504626476,-0.00033613268949813513,0.004228099222499458,29.70884866299457
1600,C,246208834760805.0,-1.038081146079585,13.043655,-0.5756623225059787,3,1970-01-03 20:23:28.834760805,-0.6859436,-0.3722992,0.5141907,14.110190568974858,0.9346215237560549,98.78018188476562,13.715079307556152,23.121265411376953,29759202.0,50354.0,-0.05188122151639141,0.13653280648599994,-0.0032682199501660493,-0.0018201914306577125,0.004541675416068241,0.001610233983286202,29.7592026659986
1600,C,246208885114809.0,0.2322435539204153,14.423248,1.5327055774940215,3,1970-01-03 20:23:28.885114809,0.36709595,-1.0264587,0.0688324,14.829790804608622,1.0922979440618994,98.62222290039062,13.710289001464844,23.029678344726562,29809556.0,50354.0,-0.020288573057791415,0.19806501683099995,0.024095478030833953,-0.001817018917994201,0.008424169397652106,0.0005243678766969758,29.809556669992162
1600,C,246208935468813.0,3.2860002539204154,7.6980286,-0.3866212225059784,3,1970-01-03 20:23:28.935468813,0.015274048,-0.61265564,0.6429596,8.095151522394504,0.8882439287708506,98.61443328857422,13.683096885681152,22.993553161621094,29859910.0,50354.0,0.0885788243500086,0.06347818095819992,0.028854965805533962,0.0017193436567841524,0.006584873090738685,0.0013331333244682353,29.859910674014827
1600,C,246208985822817.0,1.3600512539204153,9.456741,0.00516347749402124,3,1970-01-03 20:23:28.985822817,0.19158936,0.13363647,0.21302795,9.948137093262737,0.3161425255489571,98.7212905883789,13.660679817199707,23.02140998840332,29910264.0,50354.0,0.1169736388129086,-0.061563565780800064,-0.009603961646166045,0.005175194365052767,4.820426632139611e-05,0.00048468253172040605,29.91026467800839
1600,C,246209036176821.0,0.9911852539204156,9.476303,0.5551969774940213,3,1970-01-03 20:23:29.036176821,0.44682312,0.2253418,0.20672607,9.957688026865988,0.5414475924883398,98.75831604003906,13.69215202331543,23.03418731689453,29960618.0,50354.0,0.0591970815579086,-0.016791951212000066,0.014108195175233948,0.0044354502267760654,-0.0019727568513277292,0.00011340308756134257,29.96061868200195
1600,C,246209086530825.0,2.2503709539204153,7.816696,0.2708189774940215,3,1970-01-03 20:23:29.086530825,0.27174377,0.13923645,0.5101776,8.14489098559186,0.5945692971253859,98.88316345214844,13.569272994995117,23.063302993774414,30010972.0,50354.0,0.0816126606448086,-0.05808336417700004,0.020796603698733956,0.003545166879437811,-0.001885135815548856,0.00087879812124989,30.01097268599551
1600,C,246209136884829.0,2.2658739539204156,7.4513397,0.2568724774940214,3,1970-01-03 20:23:29.136884829,0.37760925,0.28459167,0.15112305,7.795467652989882,0.4964064267918516,99.03056335449219,13.474492073059082,23.105871200561523,30061326.0,50354.0,0.1137054980447086,-0.10906586518110004,0.013285687762233957,0.0049175252813259745,-0.004208316147548886,0.0008580898521127893,30.061326690018177
1600,C,246209187238833.0,1.4120988539204156,7.6983185,0.5831205774940214,3,1970-01-03 20:23:29.187238833,0.368927,0.115112305,0.0002593994,8.153882837081056,0.3864686809813465,99.1015396118164,13.532387733459473,23.123672485351562,30111680.0,50354.0,0.09260032138300861,-0.11204625549860003,0.021148505145433955,0.005194161615731636,-0.005566939862352809,0.0008669496748363552,30.11168069401174
1600,C,246209237592837.0,2.4261827539204153,7.4027863,1.2775480774940213,3,1970-01-03 20:23:29.237592837,0.33555603,-0.015808105,0.09805298,7.545051891808637,0.34994589916147373,99.04660034179688,13.420323371887207,23.10542869567871,30162034.0,50354.0,0.0966364160406086,-0.11326868445040005,0.04684605472663395,0.004764413338114411,-0.005672754243095976,0.0017118990338990537,30.1620346980053
1600,C,246209287946841.0,3.0714464539204154,9.239853,0.9534361774940214,3,1970-01-03 20:23:29.287946841,0.37568665,0.07133484,-0.11338806,9.326935548685405,0.3988558267552471,99.06644439697266,13.425360679626465,23.10997200012207,30212388.0,50354.0,0.1384138105658086,-0.07445747034390005,0.05616949058783395,0.005917859555269766,-0.004726381399256094,0.0025936223843823587,30.21238870199886
