Subject-id_accel,Activity_accel,Timestamp_accel,accel_x,accel_y,accel_z,Segment_accel,DateTime,gyro_x,gyro_y,gyro_z,accel_magnitude,gyro_magnitude,Roll,Pitch,Yaw,Time_Difference,Difference_Microseconds,vx,vy,vz,dx,dy,dz,Time_diff
1609,E,39591148060559.0,0.2644154882126119,9.789246,0.13641357,49,1970-01-01 10:59:51.148060559,0.0069122314,0.016204834,0.00047302246,9.79084719651225,0.01762382870270721,89.32563781738281,-0.16542227566242218,-84.24633026123047,15005488.0,50354.0,0.011626332203571862,-0.0014977167875000314,0.0080645078125,0.0005290720652607711,-6.977733975565741e-05,0.0003857491356607189,15.005488326001796
1609,E,39591198414563.0,0.23740743321261193,9.779556,0.11294556,49,1970-01-01 10:59:51.198414563,0.0029144287,0.024612427,0.005340576,9.780585208662139,0.025353248499738423,89.32611083984375,-0.17411373555660248,-84.24510955810547,15055842.0,50354.0,0.012634395692722863,-0.0007854720460000406,0.0062781148160100005,0.0006108123462450123,-5.748384526103132e-05,0.0003611042099179963,15.055842330002633
1609,E,39591248768567.0,0.1971700062126119,9.724121,0.1708374,49,1970-01-01 10:59:51.248768567,0.016464233,-0.009796143,-0.0066986084,9.725728639113335,0.02029548571607215,89.31861114501953,-0.1761542707681656,-84.24555969238281,15106196.0,50354.0,0.010941356192408862,-0.0024251241710000434,0.007144803583920001,0.0005935667052119614,-8.083318095541113e-05,0.00033794881655503764,15.10619633400347
1609,E,39591299122571.0,0.26125691821261193,9.720551,0.16662598,49,1970-01-01 10:59:51.299122571,0.011077881,0.01927185,-0.004135132,9.722598199294023,0.022610240302351613,89.3116683959961,-0.18769733607769012,-84.24459075927734,15156550.0,50354.0,0.011541814676253861,-0.00391069305600002,0.00849631551826,0.0005660587929603214,-0.0001595168703241806,0.0003937964556355859,15.156550337997032
1609,E,39591349476575.0,0.2537038182126119,9.768936,0.10449219,49,1970-01-01 10:59:51.349476575,0.0068359375,0.01953125,0.0026397705,9.77002909315751,0.020860684465258482,89.31388092041016,-0.1981031894683838,-84.24360656738281,15206904.0,50354.0,0.01296516646097786,-0.0027823858010000246,0.00682594216609,0.0006170122640920832,-0.00016851164638269014,0.00038576848171887994,15.20690434199787
1609,E,39591399830579.0,0.18459676421261192,9.735931,0.14929199,49,1970-01-01 10:59:51.399830579,0.013259888,-0.036483765,-0.0046691895,9.73713170712527,0.03909847911280795,89.30973052978516,-0.19780607521533966,-84.24542236328125,15257258.0,50354.0,0.011035093763719861,-0.002395163541000015,0.006389524299860001,0.0006042545516772146,-0.000130355159783535,0.0003327257992132232,15.257258345998707
1609,E,39591450184583.0,0.21448872821261192,9.700119,0.21676636,49,1970-01-01 10:59:51.450184583,0.013717651,-0.013870239,-0.012161255,9.702744969777,0.022988118714891547,89.2956771850586,-0.20155245065689087,-84.2460708618164,15307612.0,50354.0,0.01004777544278986,-0.004127769149999996,0.00921625107795,0.0005308033980122954,-0.00016422787636130728,0.0003929066066871224,15.307612349999545
1609,E,39591500538586.0,0.2843434682126119,9.701248,0.10832214,49,1970-01-01 10:59:51.500538586,0.0074768066,-0.007598877,-0.0029144287,9.702761751361022,0.011051672418340866,89.29766082763672,-0.21598131954669952,-84.2464599609375,15357966.0,50354.0,0.012559098209397861,-0.005000983041000024,0.0081847531645,0.0005691732579411302,-0.00022983459391280752,0.00043810508381216375,15.357966353003576
1609,E,39591550892590.0,0.12440084121261191,9.760147,0.12135315,49,1970-01-01 10:59:51.550892590,-0.0036468506,-0.053894043,-0.0023345947,9.760939098898985,0.054067714235002,89.29723358154297,-0.20651975274085999,-84.24915313720703,15408320.0,50354.0,0.010290955478398861,-0.003489658085000047,0.00578253477633,0.0005752958016976582,-0.0002137688716293038,0.0003516544084862769,15.408320356997137
1609,E,39591601262251.0,-0.07840372178738808,9.776489,0.16908264,49,1970-01-01 10:59:51.601262251,-0.0070343018,-0.04953003,-0.020095825,9.780654173823741,0.05391240540028805,89.2896957397461,-0.1667080670595169,-84.25162506103516,15458690.0,50370.0,0.0011584374527242622,-0.0015958223400000442,0.0073146253711500004,0.0002883529609703359,-0.0001280778245036273,0.0003298519783142838,15.458690018000198
1609,E,39591651616255.0,-0.04387308178738808,9.735046,0.22044373,49,1970-01-01 10:59:51.651616255,-0.008117676,0.049575806,-0.040237427,9.739501979206572,0.06436386980108437,89.27462005615234,-0.13176299631595612,-84.24913787841797,15509044.0,50354.0,-0.0030785630836021394,-0.0022272833050000283,0.009807105417490001,-4.8343003008612315e-05,-9.625433082416684e-05,0.00043107381606558937,15.509044022001035
1609,E,39591701970259.0,0.1645467152126119,9.718323,0.20422363,49,1970-01-01 10:59:51.701970259,0.009902954,0.121154785,-0.02508545,9.720477284220634,0.12412022489515898,89.26313018798828,-0.12905481457710266,-84.24305725097656,15559398.0,50354.0,0.0030382000687468606,-0.003691728687000027,0.01069185012272,-1.0162196250113533e-06,-0.0001490229649225854,0.0005161022036358672,15.559398026001872
1609,E,39591752324263.0,0.1848714222126119,9.731171,0.1749878,49,1970-01-01 10:59:51.752324263,0.0022735596,0.10644531,0.017501831,9.732801310376308,0.10789850407954418,89.25589752197266,-0.13154444098472595,-84.23770141601562,15609752.0,50354.0,0.00879730044595486,-0.003789289562000046,0.009547406173110002,0.00029798239645864523,-0.00018834959645507485,0.000509563755760112,15.60975203000271
1609,E,39591802678267.0,-0.014637241787388094,9.748535,0.25654602,49,1970-01-01 10:59:51.802678267,-0.030975342,0.121017456,0.033935547,9.75332570873225,0.1294461966182016,89.23526763916016,-0.10546671599149704,-84.23160552978516,15660106.0,50354.0,0.00428598596056586,-0.0030286420380000313,0.01086472698614,0.00032939790185697223,-0.00017165506389320195,0.0005139162765504373,15.660106034003547
1609,E,39591853032271.0,-0.05748393178738809,9.753113,0.1524353,49,1970-01-01 10:59:51.853032271,-0.02748108,0.1530304,0.02331543,9.756543288474516,0.15721680049603892,89.2306137084961,-0.07320939749479294,-84.22393035888672,15710460.0,50354.0,-0.00181579478709214,-0.0024762083040000054,0.01029692269364,6.219200317454785e-05,-0.00013859561706053492,0.0005327868539878212,15.710460037997109
1609,E,39591903386275.0,-0.09354044178738807,9.72522,0.20007324,49,1970-01-01 10:59:51.903386275,0.0113220215,0.23321533,0.027618408,9.730364502204607,0.23511774662562124,89.22093963623047,-0.03652443736791611,-84.21224212646484,15760814.0,50354.0,-0.0038023406534921397,-0.0030632100590000104,0.00887510751158,-0.00014144779598759043,-0.00013946593612525142,0.00048269420447682397,15.760814041997946
1609,E,39591953740279.0,-0.10959269178738806,9.698502,0.25682068,49,1970-01-01 10:59:51.953740279,0.009033203,0.37220764,0.051376343,9.70541516224275,0.3758452535962939,89.20294189453125,0.0006164245423860848,-84.1935806274414,15811168.0,50354.0,-0.005114282904012139,-0.004438151206000043,0.011503218223840003,-0.00022449383130728525,-0.00018886177256890636,0.0005130651070406695,15.811168045998784
1609,E,39592004094283.0,0.07938741321261192,9.752792,0.29174805,49,1970-01-01 10:59:52.004094283,-0.0070343018,0.4086914,0.055282593,9.75742145305156,0.4124734014752674,89.1796875,0.008713613264262676,-84.1731185913086,15861522.0,50354.0,-0.0007604782986771391,-0.0037439709620000618,0.01381131491521,-0.00014790886280010795,-0.00020600128982373867,0.0006373440008418619,15.861522049999621
1609,E,39592054448286.0,0.2836110482126119,9.774857,0.28637695,49,1970-01-01 10:59:52.054448286,0.0037231445,0.37117004,0.036315918,9.779943060952508,0.37296099836142677,89.15843963623047,-0.012395084835588932,-84.154541015625,15911876.0,50354.0,0.009139212263302861,-0.0018215811270000295,0.014555453125000001,0.00021095138502738182,-0.0001401239049447553,0.0007141901189483673,15.911876053003652
1609,E,39592104802290.0,0.3898122182126119,9.731049,0.28100586,49,1970-01-01 10:59:52.104802290,0.010055542,0.31391907,0.020111084,9.738021199805273,0.31472329455290365,89.13861846923828,-0.04790695011615753,-84.13880920410156,15962230.0,50354.0,0.01695477757878786,-0.002369004638000003,0.014284997007370001,0.0006569683822543181,-0.00010550637780540582,0.0007261160129826796,15.962230056997214
1609,E,39592155156294.0,0.3327443482126119,9.711304,0.37442017,49,1970-01-01 10:59:52.155156294,0.0036773682,0.2896576,0.034301758,9.720208543709845,0.29170474606445634,89.10514831542969,-0.07490328699350357,-84.12428283691406,16012584.0,50354.0,0.01819180667288786,-0.003969078519000019,0.01650166115731,0.0008848855517044396,-0.00015957391964378957,0.0007751156926121485,16.01258406099805
1609,E,39592205510298.0,0.3212849982126119,9.714554,0.23410034,49,1970-01-01 10:59:52.205510298,-0.0134887695,0.34605408,0.067092896,9.718856867904032,0.35275604868086574,89.09230041503906,-0.10113295167684555,-84.10689544677734,16062937.999999998,50353.99999999814,0.01646649685494725,-0.004384373133999878,0.015320720880269431,0.0008725921079202723,-0.0002103148522675706,0.0008011921125601077,16.06293806499889
1609,E,39592255864302.0,0.2823140482126119,9.78801,0.16358948,49,1970-01-01 10:59:52.255864302,-0.011444092,0.28556824,0.06309509,9.790250532651397,0.2926793079814665,89.0904541015625,-0.12066733092069626,-84.09256744384766,16113292.000000002,50354.000000003725,0.015196813191848985,-0.002453146172000228,0.01001263659814074,0.0007971871570482477,-0.0001721482235671774,0.0006378179412339801,16.113292068999726
1609,E,39592306218306.0,0.21480916821261192,9.7742,0.16017151,49,1970-01-01 10:59:52.306218306,0.021942139,0.17881775,0.043502808,9.77571709304289,0.18533682710903057,89.0907974243164,-0.12895578145980835,-84.0835952758789,16163646.0,50353.99999999814,0.012516071219937397,-0.0009514388299999925,0.008151330445229699,0.0006977272908355199,-8.571723659535638e-05,0.0004573141982509206,16.163646073000564
1609,E,39592356572310.0,0.18011068021261192,9.729233,0.43139648,49,1970-01-01 10:59:52.356572310,0.03616333,0.2716217,0.04763794,9.738834349714724,0.27812858119046757,89.05183410644531,-0.13209767639636993,-84.06987762451172,16213999.999999998,50353.99999999814,0.009942897023801493,-0.0024312673589999174,0.01489390728422945,0.000565449443472593,-8.516639372044758e-05,0.0005802099503145715,16.2140000770014
1609,E,39592406926314.0,0.10003255521261192,9.747101,0.52204895,49,1970-01-01 10:59:52.406926314,-0.00021362305,0.3887024,0.04168701,9.76120715367411,0.3909314622837456,88.99885559082031,-0.12299300730228424,-84.05029296875,16264354.0,50354.00000000186,0.0070531662383011215,-0.0031135388820001165,0.024004895591110888,0.0004279098847499734,-0.000139601586729663,0.0009793551599924799,16.26435408100224
1609,E,39592457280318.0,0.2806203282126119,9.743927,0.3574829,49,1970-01-01 10:59:52.457280318,-0.03364563,0.32255554,-0.0077209473,9.751336906700875,0.3243974689019596,88.96963500976562,-0.1382141262292862,-84.03411102294922,16314708.0,50354.0,0.009583697645996862,-0.0027435880440000353,0.02214397338745,0.00041886632201497035,-0.00014746488461590585,0.0011618900742732276,16.314708085003076
1609,E,39592507634322.0,0.651393638212612,9.697479,0.2505188,49,1970-01-01 10:59:52.507634322,-0.03767395,0.045669556,-0.030014038,9.713584370017792,0.06637678307138031,88.95653533935547,-0.20693126320838928,-84.03182220458984,16365062.000000002,50354.00000000186,0.02346531563268873,-0.003992921138000212,0.015307658800900566,0.0008320750073174979,-0.0001696050916752265,0.0009429197436061371,16.365062088996638
1609,E,39592557988326.0,0.7252309182126119,9.741074,0.30900574,49,1970-01-01 10:59:52.557988326,0.035873413,-0.043258667,-0.010421753,9.76284481354994,0.057156162978969006,88.93903350830078,-0.28546038269996643,-84.0339126586914,16415416.0,50353.99999999814,0.034659276457116577,-0.004064751118999914,0.014087149343579478,0.001463402855044974,-0.00020286801441448467,0.0007400730846535467,16.415416092997475
1609,E,39592608342329.0,0.4976003082126119,9.638977,0.5222931,49,1970-01-01 10:59:52.608342329,0.0049591064,0.014373779,0.02670288,9.659318385731194,0.030728521918923498,88.88829803466797,-0.3309740126132965,-84.03288269042969,16465770.0,50354.0,0.030787221787707857,-0.005537655973000038,0.020929610894679998,0.0016477464863099449,-0.00024175980335528282,0.0008816169725186589,16.465770096001506
1609,E,39592658696333.0,0.3408162482126119,9.781616,0.50953674,49,1970-01-01 10:59:52.658696333,-0.0052490234,0.041610718,0.05291748,9.796707006851358,0.06752232067012856,88.84129333496094,-0.3529829680919647,-84.03048706054688,16516124.000000002,50354.00000000186,0.02110881364111864,-0.004516930039000198,0.025978379881680957,0.001306586483991613,-0.0002531443120241393,0.0011810024837764835,16.516124100002344
1609,E,39592709050337.0,0.2728230822126119,9.751144,0.2283783,49,1970-01-01 10:59:52.709050337,-0.049240112,-0.00035095215,0.04017639,9.754572145079736,0.0635519795963606,88.8342514038086,-0.3639780879020691,-84.03043365478516,16566478.0,50353.99999999814,0.01544959742211529,-0.0016929014799999813,0.018578486962079314,0.0009204311153390067,-0.0001563449281538617,0.0011218082365253108,16.56647810400318
1609,E,39592759404341.0,0.33781026821261195,9.774673,0.3618927,49,1970-01-01 10:59:52.759404341,-0.0002746582,-0.21418762,-0.03627014,9.783143592979242,0.21723704806963942,88.81045532226562,-0.3805621266365051,-84.041015625,16616831.999999998,50353.99999999814,0.015373915863655293,-0.001867705390999967,0.01486125296699945,0.0007760435939958173,-8.964539919116238e-05,0.0008419123321943848,16.616832107996743
1609,E,39592809758345.0,0.4624745682126119,9.688492,0.42488098,49,1970-01-01 10:59:52.809758345,0.06048584,-0.21670532,-0.035095215,9.702787589327652,0.22770903950591032,88.78053283691406,-0.41542938351631165,-84.05166625976562,16667186.000000002,50354.000000003725,0.02014877132667935,-0.0034450947950002892,0.019808600941361464,0.0008943546953911214,-0.00013376037028293834,0.0008728829118508672,16.66718611199758
1609,E,39592860112349.0,0.555888868212612,9.610962,0.45973206,49,1970-01-01 10:59:52.860112349,0.0010223389,-0.16113281,-0.005218506,9.630443886121151,0.16122053355635127,88.7426986694336,-0.46511194109916687,-84.0594253540039,16717540.0,50353.99999999814,0.025639336238876913,-0.007566846641999736,0.02227190250807918,0.0011528071841779674,-0.00027724764955933936,0.0010594608353465278,16.717540115998418
1609,E,39592910466353.0,0.34861348821261195,9.740662,0.2624359,49,1970-01-01 10:59:52.910466353,-0.036590576,-0.26771545,-0.004196167,9.746189528197283,0.27023700752895813,88.73383331298828,-0.48253464698791504,-84.07276153564453,16767893.999999998,50353.99999999814,0.02277265582771702,-0.006253362551999778,0.018182022728919327,0.0012188687242605904,-0.0003479514068773129,0.0010185084756918737,16.767894119999255
1609,E,39592960820357.0,0.05538533821261192,9.836319,0.11500549,49,1970-01-01 10:59:52.960820357,0.0016174316,-0.5045166,-0.048187256,9.837461141710255,0.5068151807131966,88.74903106689453,-0.4546152949333191,-84.09815216064453,16818248.0,50354.00000000186,0.010171478452908238,-0.000579549363000058,0.00950284187603035,0.0008294344687833328,-0.00017203222328395724,0.0006970218361588438,16.818248124000093
1609,E,39593011174361.0,0.18693135821261192,9.67305,0.48867798,49,1970-01-01 10:59:53.011174361,0.06362915,-0.42416382,-0.06439209,9.685450720449154,0.4337164467498126,88.71134948730469,-0.4457443356513977,-84.11910247802734,16868602.0,50354.0,0.006100807465897862,-0.002281816687000048,0.01519893872419,0.00040968734257778113,-7.204061304085267e-05,0.0006219167301717479,16.86860212800093
1609,E,39593061528365.0,0.3694875082126119,9.7691345,0.4143219,49,1970-01-01 10:59:53.061528365,0.02861023,-0.1487732,-0.013824463,9.780345421775175,0.15212864975451293,88.68435668945312,-0.46599987149238586,-84.12633514404297,16918956.0,50354.0,0.014008957799987861,-0.003973320843500042,0.022734827978760003,0.0005063035600992049,-0.00015748559760540078,0.0009550584442801723,16.918956132001767
1609,E,39593111882368.0,0.27265523821261195,9.695709,0.354187,49,1970-01-01 10:59:53.111882368,-0.018157959,-0.14604187,0.0018005371,9.702932161590796,0.14717738006226044,88.6640853881836,-0.47249048948287964,-84.13346862792969,16969310.0,50354.0,0.016167227926747862,-0.00340283520050002,0.0193487485753,0.0007597458280420253,-0.00018570948071978957,0.0010595382069015689,16.969310134998523
1609,E,39593162236372.0,0.06214497821261192,9.789673,0.08253479,49,1970-01-01 10:59:53.162236372,0.0036010742,-0.3785553,-0.0395813,9.790428963722562,0.3806359969881644,88.68575286865234,-0.4460636377334595,-84.1526107788086,17019664.0,50354.0,0.00842926504893786,-0.002885737386000003,0.01099534450683,0.0006192659036488395,-0.00015832739201031108,0.0007639732315287871,17.01966413899936
1609,E,39593212590376.0,0.13814901021261192,9.730133,0.55514526,49,1970-01-01 10:59:53.212590376,0.06222534,-0.36662292,-0.04171753,9.745966013391868,0.3741987583046514,88.64022827148438,-0.43129295110702515,-84.17061614990234,17070018.0,50354.0,0.005042801746581861,-0.0020190443380000136,0.016054870618849998,0.00033918622571080004,-0.00012348768946514842,0.0006810432662192453,17.070018143000198
1609,E,39593262944380.0,0.2251851432126119,9.645065,0.31292725,49,1970-01-01 10:59:53.262944380,-0.0063476563,-0.111587524,-0.0095825195,9.650421092134401,0.11217795208026123,88.62749481201172,-0.43109655380249023,-84.17610931396484,17120372.0,50354.0,0.00914766398078686,-0.00565983995400001,0.02185546158427,0.0003572733556179623,-0.00019333126981968462,0.0009544684338779522,17.120372147001035
1609,E,39593313298384.0,0.13235067021261193,9.693344,0.30671692,49,1970-01-01 10:59:53.313298384,-0.044677734,-0.08135986,0.006881714,9.698214323017494,0.09307461910839149,88.61429595947266,-0.4179292917251587,-84.18008422851562,17170726.0,50354.0,0.00900167917460686,-0.006586076607000026,0.01560078126809,0.00045694601262334775,-0.00030831544125629797,0.0009430358262938678,17.170726151001872
1609,E,39593363652388.0,-0.020344031787388084,9.789108,0.14328003,49,1970-01-01 10:59:53.363652388,0.009963989,-0.33247375,-0.036392212,9.791665109586102,0.3346079326765992,88.62857818603516,-0.3809207081794739,-84.19683837890625,17221080.0,50354.0,0.0028199911356318608,-0.002959505996000028,0.01132957321015,0.0002976341934008803,-0.0002403291331957324,0.0006780255346986485,17.22108015500271
1609,E,39593414006392.0,0.1444966664126119,9.703735,0.50816345,49,1970-01-01 10:59:53.414006392,0.035247803,-0.2389679,-0.032196045,9.717034142347279,0.24368965952698698,88.58976745605469,-0.3690479099750519,-84.20856475830078,17271434.0,50354.0,0.0031257908819592607,-0.002697891789000021,0.01640139249596,0.00014969695385689166,-0.00014243630403294624,0.0006981825235827315,17.271434159003547
1609,E,39593464360396.0,0.17255757921261192,9.70459,0.38594055,49,1970-01-01 10:59:53.464360396,0.009902954,0.07102966,0.0028076172,9.712283938116947,0.07177160867629659,88.56856536865234,-0.36297574639320374,-84.20487213134766,17321788.0,50354.0,0.007982474742106262,-0.004825801475000046,0.022510856408,0.0002796728036170977,-0.00018942402530772967,0.000979693690655001,17.32178816299711
1609,E,39593514714400.0,0.15827535301261192,9.79245,0.28544617,49,1970-01-01 10:59:53.514714400,-0.0022888184,0.044555664,0.009170532,9.796611761481314,0.045547168312773285,88.56249237060547,-0.35528990626335144,-84.20259857177734,17372142.0,50354.0,0.00832938073463446,-0.002592223920000032,0.01690350344944,0.0004106835853379012,-0.00018676362536991696,0.000992335338130767,17.372142166997946
1609,E,39593565068404.0,0.15417073871261192,9.744919,0.26930237,49,1970-01-01 10:59:53.565068404,0.024978638,-0.1295166,-0.025161743,9.748639753906025,0.1342817759142807,88.56014251708984,-0.3457018733024597,-84.2090835571289,17422496.0,50354.0,0.007866455251365962,-0.0015768606870000363,0.013966903991580003,0.00040776256261953266,-0.00010496504315044072,0.0007772242481425606,17.422496170998784
1609,E,39593615422408.0,0.2167165182126119,9.724625,0.45404053,49,1970-01-01 10:59:53.615422408,0.033111572,-0.09623718,-0.015930176,9.735436988108777,0.10301330749983015,88.5309829711914,-0.3459784984588623,-84.21371459960938,17472850.0,50354.0,0.009337828467606361,-0.0032844907120000593,0.0182116041933,0.0004331522511925662,-0.00012239424417262543,0.0008101583005707239,17.47285017499962
1609,E,39593665776411.0,0.2199056022126119,9.715012,0.39309692,49,1970-01-01 10:59:53.665776411,0.017456055,0.06524658,0.015914917,9.723202067180962,0.0693910270926747,88.51065063476562,-0.34811636805534363,-84.21031951904297,17523204.0,50354.0,0.01099283512594586,-0.004037459251000052,0.02132837957865,0.0005118651172948643,-0.00018434473421845383,0.0009954981714263853,17.523204178003652
1609,E,39593716130415.0,0.2112538682126119,9.719009,0.344162,49,1970-01-01 10:59:53.716130415,0.006454468,0.058639526,0.019317627,9.725284070355446,0.06207596056106445,88.49747467041016,-0.34909480810165405,-84.20726776123047,17573558.0,50354.0,0.010855301986895861,-0.004178853283000048,0.018561967828840002,0.000550070548090016,-0.00020686210066852052,0.001004319276678376,17.573558181997214
1609,E,39593766484419.0,0.15255330711261192,9.755081,0.23480225,49,1970-01-01 10:59:53.766484419,0.015960693,-0.030410767,0.0018463135,9.757906458782175,0.034394292318767374,88.50137329101562,-0.34065425395965576,-84.20879364013672,17623912.0,50354.0,0.009159573253163161,-0.0031700360700000272,0.014576582922250003,0.000503914513918966,-0.00018502298724048288,0.0008343292922601931,17.62391218599805
1609,E,39593816838423.0,0.25063680321261195,9.693832,0.41645813,49,1970-01-01 10:59:53.816838423,0.021697998,0.017913818,-0.0049591064,9.703279764327016,0.028570977036700182,88.47842407226562,-0.3464941680431366,-84.20777130126953,17674266.0,50354.0,0.010151117407658162,-0.0038039173990000105,0.01639678258726,0.00048618525876749846,-0.00017558322648901397,0.0007798164234329334,17.67426618999889
1609,E,39593867192427.0,0.32058308821261194,9.739868,0.23222351,49,1970-01-01 10:59:53.867192427,0.027908325,0.092056274,0.011398315,9.744102577215472,0.09686668040099199,88.48368072509766,-0.3631328344345093,-84.20317840576172,17724620.0,50354.0,0.014381603206412862,-0.004186935100000037,0.016331857650279998,0.0006176603069004662,-0.00020118569336732421,0.0008240089752605446,17.724620193999726
1609,E,39593917546431.0,0.2412221282126119,9.726044,0.19680786,49,1970-01-01 10:59:53.917546431,0.009414673,0.015563965,0.013092041,9.728448474853321,0.02241148392596606,88.49307250976562,-0.3678952753543854,-84.20244598388672,17774974.0,50354.0,0.014144569933937862,-0.00337593357600005,0.010801722802490001,0.0007182034611546103,-0.0001904103446556542,0.0006831421550593903,17.774974198000564
1609,E,39593967900435.0,0.12240194021261191,9.699646,0.35577393,49,1970-01-01 10:59:53.967900435,0.036972046,0.0021514893,0.0057525635,9.706212243447794,0.037478701664487565,88.48008728027344,-0.3546837270259857,-84.20223999023438,17825328.0,50354.0,0.00915496317074186,-0.0043886028700000496,0.013912351726830002,0.0005866123449765213,-0.00019548773410094452,0.0006222262544246898,17.8253282020014
1609,E,39594018254439.0,0.1708180782126119,9.773605,0.25273132,49,1970-01-01 10:59:54.018254439,0.018188477,0.068481445,0.0009918213,9.776891111633907,0.07086263270835122,88.48194122314453,-0.3485996425151825,-84.19881439208984,17875682.0,50354.0,0.007382400403891861,-0.0031911595730000505,0.01532033667925,0.00041636120271855323,-0.00019083567902741355,0.0007359913959998763,17.87568220600224
1609,E,39594068608443.0,0.3175465982126119,9.740128,0.23808289,49,1970-01-01 10:59:54.068608443,0.010665894,0.036727905,-0.0064086914,9.744451657651089,0.03877849437470071,88.48541259765625,-0.36391833424568176,-84.19700622558594,17926036.0,50354.0,0.01229555745835786,-0.0021719442590000305,0.01235722936517,0.0004954319450978613,-0.00013502686517826606,0.0006968380803003624,17.926036210003076
1609,E,39594118962447.0,0.3098561682126119,9.812592,0.14945984,49,1970-01-01 10:59:54.118962447,0.03616333,0.0289917,-0.001663208,9.815007227261315,0.046379643879941174,88.50325775146484,-0.3778078258037567,-84.19567108154297,17976390.0,50354.0,0.01579611945028786,-0.0011903685600000167,0.00975716331321,0.0007072641495289734,-8.465294984396419e-05,0.0005567740644635734,17.976390213996638
1609,E,39594169316451.0,0.21218465521261193,9.80986,0.1818695,49,1970-01-01 10:59:54.169316451,0.036087036,0.03337097,-0.011642456,9.811733211027343,0.05051180641907525,88.51591491699219,-0.3765903115272522,-84.19408416748047,18026744.0,50354.0,0.013143421811376862,0.0005652740039999867,0.008341878793180001,0.0007286108303449328,-1.5738005636412755e-05,0.00045567958311258113,18.026744217997475
1609,E,39594219670454.0,0.2297932982126119,9.750092,0.31373596,49,1970-01-01 10:59:54.219670454,0.042114258,0.022705078,-0.02166748,9.755452283382773,0.05252248074326886,88.509033203125,-0.37755337357521057,-84.19292449951172,18077098.0,50354.0,0.011127678933386861,-0.0010082884960000134,0.012477858666419999,0.0006110735034509163,-1.1153775865084673e-05,0.0005241785300203493,18.077098221001506
1609,E,39594270024458.0,0.3782765682126119,9.714447,0.17636108,49,1970-01-01 10:59:54.270024458,0.00730896,0.044784546,-0.0090789795,9.718693189594324,0.04627639058385103,88.52066040039062,-0.4010241627693176,-84.19078063964844,18127452.0,50354.0,0.01530937502698786,-0.0034105015970000295,0.01233917317608,0.0006656057075603544,-0.0001112518781714621,0.0006248184106986224,18.127452225002344
1609,E,39594320378462.0,0.30924580821261194,9.745071,0.083862305,49,1970-01-01 10:59:54.320378462,-0.00022888184,-0.01725769,-0.0033874512,9.746707939196554,0.017588492734318176,88.54529571533203,-0.41403597593307495,-84.19181060791016,18177806.0,50354.0,0.017309750871257863,-0.003536915314000056,0.006551644164144999,0.0008212517327401327,-0.00017491511556824916,0.0004756141081748448,18.17780622900318
1609,E,39594370732466.0,0.15337728171261192,9.7664795,0.25358582,49,1970-01-01 10:59:54.370732466,0.037475586,-0.047836304,-0.0033874512,9.76977128703118,0.06086219148253038,88.54637908935547,-0.40384507179260254,-84.19419860839844,18228160.0,50354.0,0.01164746153504736,-0.0022268930615000296,0.008495931443125,0.0007290557367535466,-0.00014511540346996566,0.00037885281106423677,18.228160232996743
1609,E,39594421086470.0,0.1576192252126119,9.720825,0.18713379,49,1970-01-01 10:59:54.421086470,0.02168274,0.025161743,0.0121154785,9.722627978219576,0.035355895462986245,88.55622863769531,-0.3952217400074005,-84.1929931640625,18278514.0,50354.0,0.007829959054856362,-0.002837334603500024,0.011095997620970001,0.000490383018192006,-0.00012750205992170636,0.0004932659980467199,18.27851423699758
1609,E,39594471440474.0,0.05273030821261192,9.783493,0.17294312,49,1970-01-01 10:59:54.471440474,0.020690918,0.016189575,0.036819458,9.785520230126794,0.04523150355423875,88.56803131103516,-0.37270042300224304,-84.19221496582031,18328868.0,50354.0,0.005295970203046861,-0.002408985714000046,0.00906565636307,0.00033047152092622944,-0.00013208660663369928,0.0005076099623561751,18.328868240998418
1609,E,39594521794478.0,0.06211446421261192,9.883469,0.24565125,49,1970-01-01 10:59:54.521794478,0.044952393,-0.0018615723,0.08078003,9.886925675950797,0.09246402724657561,88.57048034667969,-0.35446858406066895,-84.19220733642578,18379222.0,50354.0,0.0028914468353498607,0.00168590227399996,0.01053895045349,0.00020613459877571428,-1.8205071768882164e-05,0.0004935851858205311,18.379222244999255
1609,E,39594572148482.0,0.49404500821261194,9.850555,0.26750183,49,1970-01-01 10:59:54.572148482,0.046813965,0.031036377,0.13825989,9.860137266015899,0.14923337830096675,88.56966400146484,-0.40224167704582214,-84.19046783447266,18429576.0,50354.0,0.014002427037249862,0.003374322247999959,0.012919655095159998,0.00042533706249044324,0.00012740127279039197,0.0005906173118983611,18.429576249000093
1609,E,39594622502486.0,1.076076268212612,9.860107,0.06422424,49,1970-01-01 10:59:54.622502486,0.076431274,0.09542847,0.06750488,9.903565964651554,0.13966116624036323,88.5997543334961,-0.5292054414749146,-84.18583679199219,18479930.0,50354.0,0.03953094337655787,0.0027861371739999453,0.00835186726439,0.0013478096669084373,0.00015510188686769158,0.0005355531184463903,18.47993025300093
1609,E,39594672856490.0,1.2019154682126119,9.448044,-0.2941742,49,1970-01-01 10:59:54.672856490,0.13162231,-0.106674194,-0.19119263,9.510803408951418,0.2554573113488879,88.68546295166016,-0.6648330688476562,-84.19223022460938,18530284.0,50354.0,0.057352997947977866,-0.007347882273000068,-0.00578945014292,0.002439246990727836,-0.00011485105635752611,6.451397586725019e-05,18.530284257001767
1609,E,39594723210493.0,1.064388028212612,9.387436,0.09593201,49,1970-01-01 10:59:54.723210493,0.08538818,-0.59425354,-0.2049408,9.432203645841755,0.63437303110306,88.708251953125,-0.77734375,-84.22240447998047,18580638.0,50354.0,0.05705872312949786,-0.019248320040000072,-0.00499114361763,0.0028805439015676068,-0.0006696125856344046,-0.00027142300910936736,18.580638259998523
1609,E,39594773564497.0,0.4850117982126119,9.733719,0.3294983,49,1970-01-01 10:59:54.773564497,-0.015670776,-0.75691223,-0.038116455,9.74500200947344,0.7580333510379224,88.69182586669922,-0.8058915138244629,-84.26005554199219,18630992.0,50354.0,0.03900923942990786,-0.01205588056500004,0.010711058914870002,0.002418703093358158,-0.0007881458586320878,0.00014401030743861154,18.63099226399936
1609,E,39594823918501.0,-0.43416239178738814,9.497147,0.014343262,49,1970-01-01 10:59:54.823918501,-0.06576538,-0.5235596,-0.025283813,9.515200658983598,0.5282792927595434,88.71936798095703,-0.6969525814056396,-84.28665924072266,18681346.0,50354.0,0.0012802355055678593,-0.00929368671800002,0.008656899006474001,0.0010143681104504722,-0.0005375180554840925,0.000487627076585678,18.681346268000198
1609,E,39594874272505.0,-0.6010782817873881,9.661972,0.11723328,49,1970-01-01 10:59:54.874272505,-0.055740356,-0.29205322,0.028305054,9.691948578789981,0.29866912575845206,88.73133850097656,-0.5701047778129578,-84.30139923095703,18731700.0,50354.0,-0.026064254438592144,-0.011100060937000025,0.003312702597934,-0.0006239872446767525,-0.0005134533847099361,0.00030135865959418027,18.731700272001035
1609,E,39594924626509.0,-0.6682932317873881,9.8446045,-0.0063476563,49,1970-01-01 10:59:54.924626509,-0.05986023,-0.039779663,0.07211304,9.878683605271828,0.10181335502814977,88.7608871459961,-0.4406847059726715,-84.30359649658203,18782054.0,50354.0,-0.03195896659727214,-0.002352123459500003,0.0027917673478949,-0.001460850636019955,-0.00033868564655068124,0.00015369223982613422,18.782054276001872
1609,E,39594974980513.0,-0.3683207317873881,9.830322,-0.17402649,49,1970-01-01 10:59:54.974980513,0.0038604736,0.138031,0.033294678,9.845596052697806,0.14204223245408382,88.8172607421875,-0.35558533668518066,-84.29703521728516,18832408.0,50354.0,-0.026098829760922142,0.001886424490500003,-0.004541279881395101,-0.0014617211389102575,-1.1724902942512997e-05,-4.404747705593455e-05,18.83240828000271
1609,E,39595025334517.0,0.03925679821261191,9.771301,-0.0388031,49,1970-01-01 10:59:55.025334517,0.049194336,0.23199463,-0.0042266846,9.772023045532576,0.2371907584751684,88.85489654541016,-0.3297940790653229,-84.28564453125,18882762.0,50354.0,-0.008284842655612142,4.08622709999647e-05,-0.0053584105874300006,-0.0008656777204310837,4.8523298794284693e-05,-0.0002492445069336096,18.882762284003547
1609,E,39595075688521.0,0.055659998212611916,9.765488,-0.010238647,49,1970-01-01 10:59:55.075688521,0.0070648193,0.26539612,0.021957397,9.765963954005008,0.26639658305956493,88.88530731201172,-0.30832475423812866,-84.27252960205078,18933116.0,50354.0,0.0023897201835978606,-0.0015914633470000647,-0.0012347240642189999,-0.00014842149847790357,-3.903948329045452e-05,-0.0001659953511245669,18.93311628799711
1609,E,39595126042525.0,-0.1484415617873881,9.816818,0.09776306,49,1970-01-01 10:59:55.126042525,-0.00630188,0.22543335,0.0438385,9.821886620185511,0.2297427323464377,88.8985366821289,-0.2588496804237366,-84.26128387451172,18983470.0,50354.0,-0.0023359614261221403,-0.0004454818380000584,0.002203602146101,1.3534842369662095e-06,-5.1284168922748096e-05,2.439344346754312e-05,18.983470291997946
1609,E,39595176396529.0,-0.1569864917873881,9.840378,0.24475098,49,1970-01-01 10:59:55.176396529,-0.00079345703,0.3445282,0.020431519,9.84825493416066,0.34513440445418625,88.89034271240234,-0.20819826424121857,-84.24401092529297,19033824.0,50354.0,-0.007689762104852141,0.0014400236919999392,0.00862347598508,-0.0002524176413393395,2.5039580258155e-05,0.00027259334610874405,19.033824295998784
1609,E,39595226750533.0,0.07966206821261192,9.860504,0.23086548,49,1970-01-01 10:59:55.226750533,0.0038452148,0.53570557,-0.0043792725,9.863468109273677,0.5357372690354034,88.88465881347656,-0.19181597232818604,-84.21721649169922,19084178.0,50354.0,-0.0019467970123421402,0.0025399061139999646,0.011974595613420002,-0.00024261964889360044,0.00010020269272565959,0.0005185976486354346,19.08417829999962
1609,E,39595277104536.0,0.3083760682126119,9.746262,0.31565857,49,1970-01-01 10:59:55.277104536,0.02784729,0.5695343,-0.018722534,9.752633679722235,0.5705219747881893,88.86744689941406,-0.20856539905071259,-84.18869018554688,19134532.0,50354.0,0.00976963616077786,0.0001703475819999733,0.013759836006850002,0.00019695562124016615,6.823605730419045e-05,0.0006479157849035379,19.134532303003652
1609,E,39595327458540.0,0.3578755682126119,9.671677,0.36932373,49,1970-01-01 10:59:55.327458540,0.049850464,0.5425415,-0.013046265,9.68092527105851,0.5449830758965966,88.84349822998047,-0.23268979787826538,-84.16148376464844,19184886.0,50354.0,0.01677421745027786,-0.004583749797000023,0.017245799367100002,0.0006682946023655499,-0.00011111622756705628,0.0007806288818099393,19.184886306997214
1609,E,39595377812544.0,0.3763234482126119,9.671661,0.3524475,49,1970-01-01 10:59:55.377812544,0.015975952,0.5079193,-0.0018463135,9.680690956653962,0.5081738435106008,88.8209457397461,-0.2595275640487671,-84.1360092163086,19235240.0,50354.0,0.018484928636537862,-0.00646197917400001,0.018172034257710003,0.0008877195210277596,-0.00027809831830286785,0.0008917147971718415,19.23524031099805
1609,E,39595428166548.0,0.4865987182126119,9.7164,0.34957886,49,1970-01-01 10:59:55.428166548,-0.018417358,0.38067627,0.00091552734,9.728458497441872,0.38112263093015525,88.79789733886719,-0.30202722549438477,-84.11685943603516,19285594.0,50354.0,0.02172579138408786,-0.0053359882030000255,0.017674917665720002,0.001012385297959294,-0.0002970374246507299,0.0009025187085761972,19.28559431499889
1609,E,39595478520552.0,0.5725514682126119,9.67775,0.34446716,49,1970-01-01 10:59:55.478520552,-0.02961731,0.18426514,0.009002686,9.693026408105917,0.18684719753335957,88.77546691894531,-0.35695481300354004,-84.10751342773438,19335948.0,50354.0,0.026666224243627867,-0.005182685450000042,0.017473996645540002,0.0012183657774589988,-0.0002648286465615827,0.0008849442156145933,19.335948318999726
1609,E,39595528874556.0,0.5333058682126119,9.787277,-0.08358765,49,1970-01-01 10:59:55.528874556,-0.017929077,-0.016830444,0.02027893,9.795076826867236,0.03187398075631541,88.8173828125,-0.40489867329597473,-84.1086196899414,19386302.0,50354.0,0.027842170159177865,-0.0033982152210000564,0.00656816342327,0.00137235784587944,-0.00021604133619376948,0.0006053094640524295,19.386302323000564
1609,E,39595579228560.0,0.2093007432126119,9.767227,0.17131042,49,1970-01-01 10:59:55.579228560,0.041610718,-0.13789368,-0.00090026855,9.768900034109937,0.1440379440282318,88.82396697998047,-0.4033464789390564,-84.11555480957031,19436656.0,50354.0,0.018696606655852863,-0.0011454527920000443,0.00220859618029,0.0011717067838720287,-0.00011439592956330355,0.00022097247653883012,19.4366563270014
1609,E,39595629582564.0,0.3430592882126119,9.779495,0.5235901,49,1970-01-01 10:59:55.629582564,0.03868103,0.10865784,0.031463623,9.795374017627148,0.11955211352214828,88.77867126464844,-0.42273446917533875,-84.10974884033203,19487010.0,50354.0,0.01390676851119286,-0.0013413802060000153,0.01749551039204,0.0008208551765807101,-6.261099439064751e-05,0.0004960902911715525,19.48701033100224
1609,E,39595679936568.0,0.674388638212612,9.753128,0.07284546,49,1970-01-01 10:59:55.679936568,-0.015365601,0.20819092,0.05807495,9.767404588144409,0.21668470338729523,88.79761505126953,-0.4915405809879303,-84.09943389892578,19537364.0,50354.0,0.025616286443607864,-0.0016963507290000117,0.01501645809412,0.000995071954597018,-7.648095175049567e-05,0.0008185538305760505,19.537364335003076
1609,E,39595730290572.0,0.46520589821261193,9.829773,-0.15592957,49,1970-01-01 10:59:55.730290572,0.035629272,-0.42185974,-0.015899658,9.83601256729778,0.42366010477815175,88.8523178100586,-0.5245794653892517,-84.1209945678711,19587718.0,50354.0,0.028691571643577867,-0.0004305015230000441,-0.0020918086374699997,0.0013673089430610752,-5.35477591486054e-05,0.0003254038993700771,19.587718338996638
1609,E,39595780644576.0,0.20699666821261192,9.712189,0.47381592,49,1970-01-01 10:59:55.780644576,0.02909851,-0.5904236,-0.031051636,9.723898042536385,0.5919551966318538,88.81293487548828,-0.5186933279037476,-84.15017700195312,19638072.0,50354.0,0.01692404401488786,-0.0014612227260000401,0.00800342463395,0.0011484643554331916,-4.7627941417075124e-05,0.000148836755943377,19.638072342997475
1609,E,39595830998579.0,0.013850918212611918,9.802933,0.10044861,49,1970-01-01 10:59:55.830998579,0.007965088,-0.19163513,0.0009918213,9.80441436914556,0.19180315270207574,88.82840728759766,-0.48585933446884155,-84.1598892211914,19688426.0,50354.0,0.005560279683427861,-0.0021369734060000395,0.01445825807181,0.000566087817752495,-9.059178401536602e-05,0.0005655177854829197,19.688426346001506
1609,E,39595881352583.0,0.09995626121261192,9.725281,0.16706848,49,1970-01-01 10:59:55.881352583,0.05076599,-0.21731567,-0.0035095215,9.726852643911732,0.22319409246077268,88.83572387695312,-0.4661672115325928,-84.17079162597656,19738780.0,50354.0,0.0028653233563888606,-0.0018073561220000314,0.006735277774930001,0.0002121314077334656,-9.930638452645778e-05,0.000533589652013373,19.738780350002344
1609,E,39595931706587.0,0.31895039821261195,9.737106,0.24351501,49,1970-01-01 10:59:55.931706587,0.016204834,-0.21131897,0.01737976,9.741589299537978,0.21265079304927612,88.82991027832031,-0.4802088439464569,-84.18128204345703,19789134.0,50354.0,0.010546812964348862,-0.003464682501,0.010337260527730001,0.00033767735614721365,-0.0001327341164112718,0.00042983529684607094,19.78913435400318
1609,E,39595982060591.0,0.09356282821261191,9.799469,0.060272217,49,1970-01-01 10:59:55.982060591,-0.0262146,-0.24127197,0.020263672,9.799825800868001,0.2435364144512366,88.84913635253906,-0.4609914720058441,-84.1934814453125,19839488.0,50354.0,0.010385845501707862,-0.0015968512250000128,0.0076484510141790005,0.0005270215421999102,-0.00012743423461950232,0.000452826259490643,19.839488357996743
1609,E,39596032414595.0,0.09585164821261191,9.832077,0.12416077,49,1970-01-01 10:59:56.032414595,0.034469604,-0.33724976,-0.03338623,9.833018570988854,0.34064672987361455,88.86167907714844,-0.44002217054367065,-84.21046447753906,19889842.0,50354.0,0.004768888272957861,0.0007942336419999684,0.004643469313699,0.00038155073224475895,-2.020750288719212e-05,0.00030947367809498446,19.88984236199758
1609,E,39596082768599.0,0.32285664821261195,9.78479,0.22842407,49,1970-01-01 10:59:56.082768599,0.024429321,-0.14492798,-0.021026611,9.788955275640134,0.14846895123744483,88.85798645019531,-0.4531843662261963,-84.21768951416016,19940196.0,50354.0,0.010541818779097862,0.00042466045899994324,0.008877028516680001,0.00038547767144960697,3.068809678087478e-05,0.00034040557387545215,19.940196365998418
1609,E,39596133122603.0,0.2089650502126119,9.697052,0.06364441,49,1970-01-01 10:59:56.133122603,0.052368164,-0.13772583,-0.0036315918,9.697430936872065,0.14739069614097636,88.87981414794922,-0.4502967894077301,-84.2247314453125,19990550.0,50354.0,0.013389674901251862,-0.0029748639660000724,0.007353408120960001,0.0006025232163901651,-6.420647369574225e-05,0.0004086337032258624,19.990550369999255
1609,E,39596183476607.0,0.11371968821261191,9.789429,0.13696289,49,1970-01-01 10:59:56.183476607,0.027496338,-0.28385925,-0.019546509,9.790460084805689,0.28585693699481884,88.8892593383789,-0.4328075647354126,-84.23900604248047,20040904.0,50354.0,0.008124233659331861,-0.0028580678630000488,0.0050506899921,0.0005416556758298164,-0.00014685572465873606,0.00031229797819251165,20.040904374000093
1609,E,39596233830611.0,-0.029651891787388085,9.646484,-0.08633423,49,1970-01-01 10:59:56.233830611,0.012771606,-0.2034607,0.005126953,9.648571624353703,0.20392561391687275,88.9305419921875,-0.39554619789123535,-84.24944305419922,20091258.0,50354.0,0.0021165749105978605,-0.0041312183990000525,0.0012746777728200002,0.00025783283736512065,-0.00017596926021837655,0.00015925378421739086,20.09125837800093
1609,E,39596284184615.0,-0.3954813317873881,9.701004,0.0398407,49,1970-01-01 10:59:56.284184615,0.0048065186,-0.03605652,0.04423523,9.71649568238178,0.057270680358412415,88.95162200927734,-0.30727970600128174,-84.2513427734375,20141612.0,50354.0,-0.01070357916994214,-0.006357494624000075,-0.00117056760481,-0.00021619500623751094,-0.0002640743277800742,2.621181699987774e-06,20.141612382001767
1609,E,39596334538618.0,-0.4902079317873881,9.791946,0.015472412,49,1970-01-01 10:59:56.334538618,0.0068359375,0.23648071,0.1043396,9.81296462228527,0.25856644865830525,88.9758071899414,-0.2109423279762268,-84.23954010009766,20191966.0,50354.0,-0.02229899858902214,-0.0026951978500000693,0.0013926182208240001,-0.0008309059002374437,-0.00022791963841790164,5.590568359384481e-06,20.191966384998523
1609,E,39596384892622.0,-0.1987040317873881,9.71666,-0.004180908,49,1970-01-01 10:59:56.384892622,0.020263672,0.42671204,0.09120178,9.722970924096023,0.43681980971454765,89.00293731689453,-0.15826250612735748,-84.21819305419922,20242320.0,50354.0,-0.017344736506922143,-0.0023010267380000724,0.000284286196208,-0.0009981103185105892,-0.0001257899464520796,4.221942250761467e-05,20.24232038899936
1609,E,39596435246626.0,-0.0948374417873881,9.761246,0.13392639,49,1970-01-01 10:59:56.435246626,-0.014511108,0.5321808,0.13337708,9.765273019424514,0.5488318700780359,89.00743103027344,-0.12437441945075989,-84.19149780273438,20292674.0,50354.0,-0.007390493680192141,-0.0030739606380000596,0.003266602000314,-0.0006227588904209764,-0.00013532605716555531,8.940071212383439e-05,20.292674393000198
1609,E,39596485600630.0,0.07287190821261191,9.751144,-0.020385742,49,1970-01-01 10:59:56.485600630,-0.012557983,0.55288696,0.1333313,9.751482560869038,0.5688751436253476,89.0345458984375,-0.11590667814016342,-84.16378784179688,20343028.0,50354.0,-0.00055302623881214,-0.0022057569700000383,0.0028586128946960004,-0.00019999400100077078,-0.00013292745021661849,0.00015421453541166678,20.343028397001035
1609,E,39596535954634.0,0.27569173821261195,9.836166,0.091674805,49,1970-01-01 10:59:56.535954634,-0.019561768,0.5266266,0.07977295,9.83737677159083,0.5329933978451781,89.04429626464844,-0.1346350908279419,-84.13742065429688,20393382.0,50354.0,0.008775786926047862,-0.00031949613000002464,0.001794844739151,0.0002070244458225338,-6.357829729870159e-05,0.00011716010284736594,20.393382401001872
1609,E,39596586308638.0,0.7018697182126119,9.911453,0.20672607,49,1970-01-01 10:59:56.586308638,0.012924194,0.5407562,0.028244019,9.928872492835135,0.5416475119838197,89.03889465332031,-0.2116270512342453,-84.11034393310547,20443736.0,50354.0,0.02461206478841786,0.003716603562999971,0.007512838829875,0.0008406059426151036,8.552897384063966e-05,0.00023433954921736762,20.44373640500271
1609,E,39596636662642.0,1.2617909682126118,9.976242,0.40126038,49,1970-01-01 10:59:56.636662642,0.07772827,0.44795227,-0.025894165,10.045849471434545,0.4553827268753098,89.00932312011719,-0.3629962205886841,-84.08781433105469,20494090.0,50354.0,0.04943908510212786,0.00724329701499994,0.015307274851650003,0.00186438580079427,0.00027593741685230373,0.0005745420021597551,20.494090409003547
1609,E,39596687016646.0,1.8259541682126117,10.186584,0.3069458,49,1970-01-01 10:59:56.687016646,0.13801575,0.22796631,-0.21794128,10.327845969314795,0.34426063857362055,88.99797821044922,-0.5751764178276062,-84.07646179199219,20544444.0,50354.0,0.07774015929977786,0.01417027020199994,0.01783050699386,0.0032019918363067807,0.000539129381822406,0.0008343099335244053,20.54444441299711
1609,E,39596737370650.0,1.5383870682126117,9.064224,-0.02192688,49,1970-01-01 10:59:56.737370650,0.25042725,-0.5028839,-0.23606873,9.169733221438328,0.6093721930852978,89.03899383544922,-0.7662231922149658,-84.10216522216797,20594798.0,50354.0,0.08470401930947785,-0.008791606984000055,0.00717592134884,0.004089857084845231,0.0001354186038395831,0.000629586846384158,20.594798416997946
1609,E,39596787724654.0,2.152354968212612,9.240555,0.03237915,49,1970-01-01 10:59:56.787724654,0.12541199,-1.1097412,0.069610596,9.454744935552505,1.1189724452767706,89.06473541259766,-1.0549993515014648,-84.15791320800781,20645152.0,50354.0,0.09292181225107787,-0.03260977911700004,0.0002631568017900001,0.004472085561200111,-0.0010423626978648794,0.00018729367059841154,20.645152420998784
1609,E,39596838078658.0,0.974376428212612,10.666611,0.09056091,49,1970-01-01 10:59:56.838078658,-0.22996521,-0.9902344,-0.08677673,10.698685253561937,1.0202834731696857,89.06537628173828,-1.1353216171264648,-84.20770263671875,20695506.0,50354.0,0.07872171636779787,0.007733518381999968,0.00309526189062,0.0043214691200374345,-0.0006263096165250968,8.455490741880656e-05,20.69550642499962
1609,E,39596888432661.0,-0.1826365117873881,9.578918,0.013809204,49,1970-01-01 10:59:56.888432661,-0.21354675,-1.0304718,-0.2167511,9.58475501249399,1.0744558550177912,89.07695770263672,-1.047032356262207,-84.25980377197266,20745860.0,50354.0,0.019933635875837862,0.016252483632999953,0.002627726360178,0.0024838458034380172,0.000603895572731653,0.00014408767519034126,20.745860428003652
1609,E,39596938786665.0,-0.839512131787388,9.700912,0.26489258,49,1970-01-01 10:59:56.938786665,0.17970276,-1.2237701,-0.13960266,9.755000160776046,1.2447470595605774,89.07102966308594,-0.8695078492164612,-84.3208236694336,20796214.0,50354.0,-0.02573463639928214,-0.008060920090000024,0.007016874815768,-0.0001460517901787566,0.0002062389953221092,0.00024282212380679247,20.796214431997214
1609,E,39596989140669.0,-0.8603098317873882,9.424072,0.19125366,49,1970-01-01 10:59:56.989140669,0.09011841,-0.9376221,-0.065093994,9.480165232114473,0.9441894716020774,89.07036590576172,-0.6925331354141235,-84.36766815185547,20846568.0,50354.0,-0.042796417576922145,-0.011959477832000003,0.01148439388448,-0.0017254063459588955,-0.0005040535584821947,0.0004658064420661439,20.84656843599805
1609,E,39597039494673.0,-1.1560862317873881,10.011459,0.5338745,49,1970-01-01 10:59:57.039494673,-0.176651,-0.4420166,0.053894043,10.110598203477728,0.47904991216724574,89.00916290283203,-0.49319693446159363,-84.38919830322266,20896922.0,50354.0,-0.050766803692622146,-0.004140836013000011,0.018256551684320003,-0.002355641221903317,-0.00040535760167556534,0.0007487877865856778,20.89692243999889
1609,E,39597089848677.0,-0.7011301617873881,9.664978,0.33026123,49,1970-01-01 10:59:57.089848677,-0.07197571,0.13298035,0.004272461,9.708135929370684,0.1512697267767848,88.9814453125,-0.35521477460861206,-84.38236236572266,20947276.0,50354.0,-0.046759137141032144,0.0019244543489999632,0.021756345274210005,-0.002455410612368914,-5.58018411545292e-05,0.00100740470672491,20.947276443999726
1609,E,39597140202681.0,0.1601827012126119,9.984222,-0.7465668,49,1970-01-01 10:59:57.140202681,0.25045776,0.29240417,0.037765503,10.012098969977782,0.38685335903213963,89.12606811523438,-0.3492536246776581,-84.3685302734375,20997630.0,50354.0,-0.013619434214891141,0.0012387083999999755,-0.01048132533589,-0.0015201512910280805,7.963894853157146e-05,0.0002838711769870828,20.997630448000564
1609,E,39597190556685.0,0.551280728212612,9.850357,-0.20220947,49,1970-01-01 10:59:57.190556685,0.073394775,0.04850769,0.02255249,9.86053860434747,0.09082072336001748,89.18091583251953,-0.39969566464424133,-84.36641693115234,21047984.0,50354.0,0.017912514762638863,0.005905995483000003,-0.02388734014979,0.0001080868889506444,0.00017988220966229046,-0.0008652998909329655,21.0479844520014
1609,E,39597240910689.0,0.33808492821261193,9.799957,-0.042114258,49,1970-01-01 10:59:57.240910689,-0.020523071,-0.195755,0.021591187,9.801822952521002,0.198008575128301,89.20658874511719,-0.41818371415138245,-84.37638092041016,21098338.0,50354.0,0.022391559131817864,0.0012667555779999602,-0.0061513384998560005,0.0010147356684407371,0.00018058835346279606,-0.0007562838123621374,21.09833845600224
1609,E,39597291264693.0,-0.1204722017873881,9.749069,-0.30145264,49,1970-01-01 10:59:57.291264693,-0.0025939941,-0.18045044,0.012054443,9.75752047322546,0.1808712240728875,89.27058410644531,-0.3685407340526581,-84.38581848144531,21148692.0,50354.0,0.005478835613207861,-0.0012833723980000466,-0.008649983790946001,0.0007016929284955128,-4.183616771421751e-07,-0.00037265289131552205,21.148692460003076
1609,E,39597341618697.0,0.03524373821261191,9.736191,0.071624756,49,1970-01-01 10:59:57.341618697,0.023101807,-0.06390381,0.019241333,9.737148864735207,0.07062307919369021,89.27945709228516,-0.3432292938232422,-84.38905334472656,21199046.0,50354.0,-0.00214579702742214,-0.0028888089800000296,-0.005786376635468,8.39159124743271e-05,-0.00010504301055390793,-0.0003634642464558253,21.199046463996638
1609,E,39597391972701.0,0.2031972282126119,9.629822,-0.103759766,49,1970-01-01 10:59:57.391972701,0.032089233,0.19134521,0.10076904,9.630519572855183,0.21862549642480858,89.314453125,-0.34725746512413025,-84.37963104248047,21249400.0,50354.0,0.006003228211687861,-0.005891090699000021,-0.0008090631467700002,9.711854492625806e-05,-0.0002210515342181843,-0.00016605338739740614,21.249400467997475
1609,E,39597442326704.0,0.006801358212611908,9.670975,0.18669128,49,1970-01-01 10:59:57.442326704,0.042282104,0.32403564,0.16487122,9.673859506146645,0.3660182939323728,89.30596923828125,-0.3251921534538269,-84.36327362060547,21299754.0,50354.0,0.005287134410427861,-0.007533033931000009,0.0020879667279779996,0.0002842574597370075,-0.00033797918580951076,3.21989554640738e-05,21.299754471001506
1609,E,39597492680708.0,0.14263509421261192,9.799133,-0.16773987,49,1970-01-01 10:59:57.492680708,-0.1212616,0.363266,0.12348938,9.800572603284506,0.40238810788012164,89.34165954589844,-0.3217240571975708,-84.34526062011719,21350108.0,50354.0,0.0037623615627098606,-0.0032702908840000424,0.00047713964956999937,0.00022783916011568842,-0.0002719953088672563,6.458168326752598e-05,21.350108475002344
1609,E,39597543034712.0,0.4838063682126119,9.930023,-0.23406982,49,1970-01-01 10:59:57.543034712,-0.08779907,0.42990112,0.10279846,9.938337506978167,0.4506563802371946,89.38732147216797,-0.3664814233779907,-84.32402038574219,21400462.0,50354.0,0.01577191669947986,0.0032517606119999566,-0.01011636256513,0.0004918145238071506,-4.665366581461592e-07,-0.00024268671534505415,21.40046247900318
1609,E,39597593388716.0,0.1988789902126119,9.663757,0.30317688,49,1970-01-01 10:59:57.593388716,0.12312317,0.33103943,0.08833313,9.668627483298902,0.3640730161123874,89.36376190185547,-0.3685731887817383,-84.3072280883789,21450816.0,50354.0,0.01718796926907186,-0.00015660094000001965,0.0017399084496199993,0.0008298310490302267,7.792683506194242e-05,-0.00021089398526619532,21.450816482996743
1609,E,39597643742720.0,0.21444295821261192,9.7379,-0.122680664,49,1970-01-01 10:59:57.643742720,-0.014984131,0.020385742,-0.0027313232,9.738875955355692,0.02544725496273779,89.3969497680664,-0.3684656023979187,-84.30642700195312,21501170.0,50354.0,0.010406206695501862,-0.004993681711000032,0.004544353230232,0.0006947385682600727,-0.0001296686663042283,0.0001582188563136338,21.50117048699758
1609,E,39597694096724.0,0.5758321182126119,9.805542,0.18334961,49,1970-01-01 10:59:57.694096724,-0.12503052,0.10958862,0.008880615,9.816430229933003,0.16649673236359033,89.37895965576172,-0.4215579330921173,-84.30085754394531,21551524.0,50354.0,0.019896755599157864,-0.0014239607660000196,0.0015274620534420002,0.000762937681692648,-0.00016157698464343032,0.00015287009339706031,21.551524490998418
1609,E,39597744450728.0,0.46245930821261194,9.763107,0.145401,49,1970-01-01 10:59:57.744450728,0.03187561,0.3511505,0.053131104,9.76913896803936,0.3565748762537553,89.3746337890625,-0.45907726883888245,-84.28323364257812,21601878.0,50354.0,0.026141063243107863,-0.0007893241270000201,0.00827695410797,0.0011590941649917241,-5.5723873751062e-05,0.00024684578569587,21.601878494999255
1609,E,39597794804732.0,0.4249532082126119,9.754303,-0.058685303,49,1970-01-01 10:59:57.794804732,-0.028152466,0.1483612,-0.0041656494,9.758310852905016,0.15106607707306388,89.39739990234375,-0.48745083808898926,-84.27601623535156,21652232.0,50354.0,0.02234238492603786,-0.0020793684300000376,0.0021832411033690003,0.0012206677745545819,-7.222507250759045e-05,0.000263356334835882,21.652232499000093
1609,E,39597845158736.0,0.38457845821261194,9.792908,0.3342743,49,1970-01-01 10:59:57.845158736,-0.012741089,0.11445618,-0.02003479,9.80138242987691,0.11689287959256724,89.36292266845703,-0.5082648992538452,-84.27001190185547,21702586.0,50354.0,0.020381578765587865,-0.0013290686530000161,0.006938504177469,0.001075661233864061,-8.581422043869235e-05,0.00022965818093565837,21.70258650300093
1609,E,39597895512740.0,0.4476125082126119,9.773056,0.11009216,49,1970-01-01 10:59:57.895512740,0.007827759,0.29663086,-0.010894775,9.778159752282544,0.29693406176725884,89.36296844482422,-0.538228452205658,-84.25518035888672,21752940.0,50354.0,0.02095207196168786,-0.0008569243720000101,0.011187814363420001,0.001040657324360621,-5.503674639042566e-05,0.00045636632190396246,21.752940507001767
1609,E,39597945866743.0,0.623210668212612,9.735672,0.137146,49,1970-01-01 10:59:57.945866743,-0.01789856,0.19033813,-0.023773193,9.748056219385077,0.19265027092476603,89.35772705078125,-0.5927975177764893,-84.2456283569336,21803294.0,50354.0,0.02696011511285786,-0.0022979551440000454,0.00622471515432,0.0012062851339758379,-7.94304015743334e-05,0.00043839525566814,21.803294509998523
1609,E,39597996220747.0,0.7297932682126119,9.760223,0.13861084,49,1970-01-01 10:59:57.996220747,0.04270935,0.014587402,-0.025726318,9.77832057473551,0.05194924746682312,89.35558319091797,-0.6614108681678772,-84.24486541748047,21853648.0,50354.0,0.03406458010737786,-0.002621051585000059,0.006942729960680001,0.0015364187515598748,-0.00012384583241603563,0.000331516765660355,21.85364851399936
1609,E,39598046574751.0,0.6065938382126119,9.759659,0.08818054,49,1970-01-01 10:59:58.046574751,0.029678345,-0.07788086,-0.009399414,9.770660255047675,0.08387241203054804,89.36027526855469,-0.7111775279045105,-84.2488021850586,21904002.0,50354.0,0.033646218178467864,-0.0020171308860000596,0.00570992657426,0.001704754768442738,-0.00011677552007237,0.0003185559335801844,21.904002518000198
1609,E,39598096928755.0,0.3624379482126119,9.720596,0.095199585,49,1970-01-01 10:59:58.096928755,0.00440979,-0.1729126,-0.01713562,9.723349798830283,0.17381554291658874,89.36257934570312,-0.7237033843994141,-84.25748443603516,21954356.0,50354.0,0.02439731328682786,-0.003014819865000045,0.0046169614071250005,0.0014613619917017507,-0.00012668942405792965,0.0002600000587073302,21.954356522001035
1609,E,39598147282759.0,0.3259084082126119,9.762695,0.16856384,49,1970-01-01 10:59:58.147282759,-0.0012207031,-0.20845032,-0.039154053,9.765707087700385,0.21209918880204978,89.35385131835938,-0.7293540835380554,-84.26781463623047,22004710.0,50354.0,0.01733049621571786,-0.0029383824930000043,0.006640771751225,0.0010505810598455936,-0.00014988377576736724,0.000283435947727778,22.004710526001872
1609,E,39598197636763.0,0.3500172982126119,9.7872925,0.13691711,49,1970-01-01 10:59:58.197636763,0.013031006,-0.1268158,-0.042099,9.790262386614767,0.1342549069792685,89.3507080078125,-0.7381299138069153,-84.27413177490234,22055064.0,50354.0,0.017017781510667858,-0.0012591647125000285,0.00769109387815,0.0008647865883172133,-0.00010568164599287434,0.00036083338095077436,22.05506453000271
1609,E,39598247990767.0,0.2449757922126119,9.701294,0.13208008,49,1970-01-01 10:59:58.247990767,0.03340149,-0.09863281,-0.050201416,9.702643060377993,0.11560394851008012,89.34916687011719,-0.7310190796852112,-84.279052734375,22105418.0,50354.0,0.014980141037635862,-0.0028050576895000297,0.006772542252630001,0.0008056116959986429,-0.00010232492741515547,0.00036415096686464807,22.105418534003547
1609,E,39598298344771.0,0.1966664662126119,9.720093,0.15176392,49,1970-01-01 10:59:58.298344771,-0.002822876,-0.14283752,-0.053512573,9.72138248549261,0.15255858290421456,89.34303283691406,-0.7168008685112,-84.28614807128906,22155772.0,50354.0,0.01111922714037186,-0.004496939501000009,0.007146340388,0.0006571037926177006,-0.00018384238326521948,0.00035043570824314156,22.15577253799711
1609,E,39598348698775.0,0.26179097821261194,9.764252,0.25682068,49,1970-01-01 10:59:58.348698775,0.014007568,-0.06442261,-0.038116455,9.768251186931307,0.07615345548465775,89.32252502441406,-0.713185727596283,-84.28911590576172,22206126.0,50354.0,0.011542583078293861,-0.0029118459350000073,0.010286934474200001,0.0005705563958753469,-0.00018653099092217243,0.0004389175612056095,22.206126541997946
1609,E,39598399052779.0,0.26212666821261194,9.795959,0.19496155,49,1970-01-01 10:59:58.399052779,0.020217896,0.06399536,-0.02267456,9.798523059345111,0.07083999641014965,89.31192779541016,-0.7103543877601624,-84.2857894897461,22256480.0,50354.0,0.013190674584047862,-0.0010017676530000186,0.011374521204710003,0.0006227092281647776,-9.853304930507666e-05,0.0005453704696279172,22.256480545998784
1609,E,39598449406783.0,0.2609059682126119,9.866852,-0.0016784668,49,1970-01-01 10:59:58.449406783,-0.0030059814,-0.01449585,-0.029220581,9.86745834031134,0.03275679998683032,89.3292465209961,-0.7070227265357971,-84.2867660522461,22306834.0,50354.0,0.01316839268727786,0.001581392546999954,0.0048662881857264,0.0006636422366901678,1.4593215956236376e-05,0.00040889485802301736,22.30683454999962
1609,E,39598499760786.0,0.19707845321261191,9.8042755,0.11280823,49,1970-01-01 10:59:58.499760786,0.054595947,-0.10423279,-0.04508972,9.805030257477322,0.12600902661987873,89.33232879638672,-0.6938087344169617,-84.29199981689453,22357188.0,50354.0,0.011530673778222861,0.001790777067499939,0.0027979140480864,0.0006218483964019117,8.490111438426381e-05,0.0001929616196407049,22.357188553003652
1609,E,39598550114790.0,0.08866475821261191,9.75415,0.053329468,49,1970-01-01 10:59:58.550114790,0.048461914,-0.047805786,-0.05105591,9.75449836818977,0.08509204563030139,89.3436279296875,-0.6647101044654846,-84.29451751708984,22407542.0,50354.0,0.007194156834052862,-0.0010467211865000745,0.004182848822546,0.00047143506032526586,1.8733094915933588e-05,0.00017575466679391197,22.407542556997214
1609,E,39598600468794.0,-0.04091288178738808,9.815079,0.13304138,49,1970-01-01 10:59:58.600468794,0.034118652,0.044692993,-0.061019897,9.817866897673657,0.08297574264497885,89.34230041503906,-0.6169435977935791,-84.29228210449219,22457896.0,50354.0,0.0012022489927578605,-0.0007747214670000362,0.004692258840096,0.00021139630950161355,-4.585846168717229e-05,0.00022344858562233766,22.45789656099805
1609,E,39598650822798.0,0.1481435170126119,9.727264,0.09017944,49,1970-01-01 10:59:58.650822798,0.08149719,0.0039367676,-0.05239868,9.727682598230698,0.0969686123587159,89.34954071044922,-0.5984020233154297,-84.29214477539062,22508250.0,50354.0,0.0026997457030654604,-0.0014516302890000186,0.00562003058514,9.824052045674375e-05,-5.6052858160813384e-05,0.0002596325108591668,22.50825056499889
1609,E,39598701176802.0,0.13988851221261192,9.7430725,0.005630493,49,1970-01-01 10:59:58.701176802,-0.000289917,-0.024871826,-0.028381348,9.74308108297829,0.037738477642033585,89.3649673461914,-0.5803249478340149,-84.29356384277344,22558604.0,50354.0,0.007251782399803461,-0.003264537939500032,0.002412206683141,0.00025054962304593085,-0.00011873896748894577,0.00020222763770351074,22.558604568999726
1609,E,39598751530806.0,0.06475423821261192,9.705383,0.14680481,49,1970-01-01 10:59:58.751530806,0.023101807,-0.024642944,-0.01109314,9.706881117526764,0.035553142346521,89.3603515625,-0.5524734854698181,-84.29475402832031,22608958.0,50354.0,0.005152290527455861,-0.0038154358765000443,0.003837863623631001,0.00031229734408960794,-0.00017825250076543392,0.0001573580201135987,22.608958573000564
1609,E,39598801884810.0,0.09563802421261192,9.694153,-0.009307861,49,1970-01-01 10:59:58.801884810,-0.0030975342,-0.02519226,0.005355835,9.694318596212648,0.025940887621185876,89.37757110595703,-0.530684232711792,-84.29615783691406,22659312.0,50354.0,0.004038195991079861,-0.00504708212800005,0.0034617606849730006,0.0002313888790771739,-0.0002231316157992989,0.00018378264121772294,22.6593125770014
1609,E,39598852238814.0,0.0004536982126119027,9.781921,-0.0030822754,49,1970-01-01 10:59:58.852238814,-0.04837036,-0.0047302246,0.020233154,9.783088075458245,0.05264453696333325,89.39116668701172,-0.49631842970848083,-84.29653930664062,22709666.0,50354.0,0.0024193012954998603,-0.003120084902000022,-0.00031194646414280005,0.00016258040918421766,-0.0002056247643143118,7.930287263784196e-05,22.70966658100224
1609,E,39598902592818.0,0.05164693821261192,9.75386,0.08169556,49,1970-01-01 10:59:58.902592818,0.010253906,0.02319336,0.027572632,9.754713521348167,0.037460973982984744,89.3948974609375,-0.470612108707428,-84.29539489746094,22760020.0,50354.0,0.0013117377232778602,-0.0016168417630000342,0.0019792466663742002,9.393636937576667e-05,-0.0001192616026447064,4.197761719157996e-05,22.760020585003076
1609,E,39598952946822.0,0.16376851721261193,9.768616,-0.024002075,49,1970-01-01 10:59:58.952946822,-0.044921875,0.049682617,0.034713745,9.768653152439482,0.07544124453778144,89.4112777709961,-0.462352454662323,-84.29304504394531,22810374.0,50354.0,0.0054235149212408604,-0.001951821748000054,0.0014525488718450002,0.00016957345583104783,-8.984824121644922e-05,8.640231626574483e-05,22.810374588996638
1609,E,39599003300826.0,0.01368306821261192,9.829025,0.14685059,49,1970-01-01 10:59:59.003300826,-0.024887085,-0.067855835,0.0010375977,9.831088423462722,0.07228317890305805,89.40337371826172,-0.4307977259159088,-84.29637145996094,22860728.0,50354.0,0.004467698566250861,-5.9392543000050316e-05,0.0030929570621550002,0.00024903108197457907,-5.063634220450964e-05,0.00011444220290031802,22.860728592997475
1609,E,39599053654829.0,0.08431600221261192,9.867996,0.10708618,49,1970-01-01 10:59:59.053654829,-0.030715942,0.021133423,-0.006729126,9.868805923596703,0.037886300919569446,89.40119934082031,-0.40992581844329834,-84.29531860351562,22911082.0,50354.0,0.0024673225960958607,0.0024426977169999505,0.0063933660582900015,0.00017460302780440343,6.000447436579549e-05,0.00023883715720344386,22.911082596001506
1609,E,39599104008833.0,0.3166615882126119,9.790115,-0.0748291,49,1970-01-01 10:59:59.104008833,0.0119018555,0.15405273,0.016738892,9.791793463359681,0.15541585598060273,89.42765808105469,-0.42459404468536377,-84.28780364990234,22961436.0,50354.0,0.010095412794135861,0.0014630606469999616,0.0008121365031600002,0.0003162919889198641,9.83352783304258e-05,0.00018141293798962672,22.961436600002344
1609,E,39599154362837.0,0.19449971821261192,9.780014,0.07469177,49,1970-01-01 10:59:59.154362837,0.036209106,-0.008911133,0.014587402,9.780393602211431,0.04004122807522927,89.43284606933594,-0.42100638151168823,-84.28826904296875,23011790.0,50354.0,0.012869508211867862,-0.0007520621670000443,-3.4575574099997756e-06,0.0005781878161681558,1.790080873095792e-05,2.036010981714776e-05,23.01179060400318
1609,E,39599204716841.0,0.13909505521261192,9.743881,0.20825195,49,1970-01-01 10:59:59.204716841,-0.0063171387,-0.015930176,0.01663208,9.746114121472822,0.023881014088024274,89.41610717773438,-0.4094921052455902,-84.28893280029297,23062144.0,50354.0,0.00839891561052686,-0.0019160955850000471,0.00712367403844,0.000535475106576432,-6.71762077221063e-05,0.00017926569034289235,23.062144607996743
1609,E,39599255070845.0,0.020839438212611916,9.809113,-0.067733765,49,1970-01-01 10:59:59.255070845,0.030441284,0.03778076,0.0082092285,9.810217428054479,0.04920822116589329,89.44210052490234,-0.3805655539035797,-84.2872085571289,23112498.0,50354.0,0.004026670740966861,-0.0011834700620000362,0.003537826343745,0.0003128389875715575,-7.80377642945211e-05,0.00026842459512227174,23.11249861199758
1609,E,39599305424849.0,0.14261983521261193,9.720551,0.29878235,49,1970-01-01 10:59:59.305424849,0.0007324219,0.03593445,-0.01260376,9.725145862379847,0.038087739559859675,89.41206359863281,-0.36908888816833496,-84.28522491455078,23162852.0,50354.0,0.004115414127026861,-0.0017708494720000269,0.005817110224544999,0.00020499327072147797,-7.43809029075196e-05,0.00023552923797983733,23.162852615998418
1609,E,39599355778853.0,0.3424489382126119,9.682343,0.15487671,49,1970-01-01 10:59:59.355778853,-0.0037078857,0.08665466,0.016098022,9.685463460063145,0.08821521880260995,89.40364074707031,-0.3888593018054962,-84.28083038330078,23213206.0,50354.0,0.01221257650852686,-0.00496253776200004,0.011421774153620001,0.0004110898202313361,-0.00016952649039041968,0.0004340233919890603,23.213206619999255
1609,E,39599406132857.0,0.12966512321261192,9.840973,-0.09700012,49,1970-01-01 10:59:59.406132857,-0.022369385,-0.024383545,0.008743286,9.84147533275304,0.03422560009880098,89.43154907226562,-0.37640416622161865,-84.2822265625,23263560.0,50354.0,0.011886415724502861,-0.0019306730680000498,0.0014571589064300001,0.0006067403274509893,-0.00017355036906691228,0.0003242528976528789,23.263560624000093
1609,E,39599456486861.0,0.10724996221261192,9.667084,0.12060547,49,1970-01-01 10:59:59.456486861,0.040878296,-0.038085938,-0.0073242188,9.667937709250214,0.05634907220384142,89.42996215820312,-0.36008480191230774,-84.28413391113281,23313914.0,50354.0,0.005964811105750861,-0.002314848911000059,0.0005943118969500003,0.000449440337905298,-0.00010688950686528575,5.164988041669827e-05,23.31391462800093
1609,E,39599506840865.0,0.03799031821261191,9.701752,0.14630127,49,1970-01-01 10:59:59.506840865,0.015411377,0.0033721924,0.009460449,9.703519331165886,0.018395171048412345,89.42337036132812,-0.3347955644130707,-84.28390502929688,23364268.0,50354.0,0.0036567145402658604,-0.005820016028000038,0.006719910992980001,0.00024224115118976302,-0.00020481149456920544,0.00018415018969976767,23.364268632001767
1609,E,39599557194868.0,0.22587178821261192,9.699432,0.2073822,49,1970-01-01 10:59:59.557194868,-0.028884888,0.033966064,0.031600952,9.701933573108976,0.05465025549556876,89.40571594238281,-0.33896034955978394,-84.28208923339844,23414622.0,50354.0,0.0066432562534678614,-0.00500559043200002,0.00890468872419,0.0002593223646738339,-0.00027255629384342146,0.00039338054707918917,23.414622634998523
1609,E,39599607548872.0,0.14051412221261192,9.80394,-0.043624878,49,1970-01-01 10:59:59.607548872,-0.030456543,0.016036987,0.03718567,9.80404324880691,0.05067109646433475,89.4254150390625,-0.3307315409183502,-84.28140258789062,23464976.0,50354.0,0.00922449806677586,-0.002432803156000021,0.004122918095994,0.0003995024505207762,-0.00018727643536507703,0.0003279960569117726,23.46497663899936
1609,E,39599657902876.0,0.22150777821261192,9.727676,0.15750122,49,1970-01-01 10:59:59.657902876,0.002090454,-0.055541992,0.015029907,9.729202626588433,0.057577608301168856,89.41670989990234,-0.33354562520980835,-84.28411865234375,23515330.0,50354.0,0.009114625387005863,-0.001721703968,0.0028670646625339998,0.00046172411119586247,-0.00010459802586094855,0.00017598679591145945,23.515330643000198
1609,E,39599708256880.0,0.23054097821261194,9.832596,0.11593628,49,1970-01-01 10:59:59.708256880,-0.02128601,-0.010635376,0.026260376,9.833596895435386,0.03543744900585893,89.41334533691406,-0.33803656697273254,-84.28462219238281,23565684.0,50354.0,0.011381231540517862,-0.0010002318560000053,0.0068843359375000005,0.0005160241898642648,-6.853017824084814e-05,0.000245511012907056,23.565684647001035
1609,E,39599758610884.0,0.13125203821261192,9.737289,0.046310425,49,1970-01-01 10:59:59.758610884,0.013122559,-0.03337097,0.019515991,9.737420241521193,0.0408252017528568,89.42185974121094,-0.32759812474250793,-84.28633117675781,23616038.0,50354.0,0.009108862774537861,-0.0007582053550000085,0.004084885291785,0.000515879104570158,-4.4272173661347346e-05,0.0002761720828897085,23.616038651001872
1609,E,39599808964888.0,0.1590077748126119,9.773071,0.23706055,49,1970-01-01 10:59:59.808964888,-0.004180908,-0.00491333,0.011581421,9.775948566663198,0.013257077950008628,89.40138244628906,-0.32108545303344727,-84.28645324707031,23666392.0,50354.0,0.007307871312536062,-0.002256866280000027,0.007134431037575001,0.0004133241141102602,-7.59104585543959e-05,0.00028246872722429675,23.66639265500271
1609,E,39599859318892.0,0.3830373182126119,9.822769,0.10305786,49,1970-01-01 10:59:59.859318892,-0.0063476563,0.036987305,0.020858765,9.826037194106233,0.04293531820065131,89.40098571777344,-0.34783121943473816,-84.28459167480469,23716746.0,50354.0,0.013647069307096062,-0.00010473632000006003,0.00856316120857,0.0005275825399804779,-5.945806866020219e-05,0.0003952182799811927,23.716746659003547
1609,E,39599909672896.0,0.26844380821261193,9.774353,0.092453,49,1970-01-01 10:59:59.909672896,0.009567261,-0.051101685,-0.0013275146,9.775489386111309,0.05200650909159891,89.40290069580078,-0.3562222421169281,-84.28715515136719,23767100.0,50354.0,0.016402340320007862,-7.245940600006548e-05,0.004922376922220001,0.0007565539861815956,-4.4612567935051605e-06,0.00033952539351889984,23.76710066299711
1609,E,39599960026900.0,0.3950612382126119,9.611984,0.16763306,49,1970-01-01 10:59:59.960026900,0.0053863525,-0.08085632,0.009109497,9.616529740580395,0.08154593927835808,89.39315795898438,-0.38409170508384705,-84.2911376953125,23817454.0,50354.0,0.016705066553847864,-0.005379393351000054,0.00654818673262,0.0008335451828630657,-0.00013726129686299202,0.0002887943811379067,23.817454666997946
1609,E,39600010380904.0,0.19910787221261192,9.743317,-0.10661316,49,1970-01-01 11:00:00.010380904,-0.002090454,-0.11366272,0.026123047,9.744016424974271,0.1166447491329495,89.42393493652344,-0.38285031914711,-84.29700469970703,23867808.0,50354.0,0.01495939569317586,-0.006160786723000061,0.0015362980223000001,0.0007972161659933164,-0.0002905471137231009,0.00020354307267462086,23.867808670998784
1609,E,39600060734908.0,-0.07574869178738808,9.773132,0.27243042,49,1970-01-01 11:00:00.060734908,-0.030227661,-0.0974884,0.0033721924,9.77956969743634,0.10212282460681127,89.3969497680664,-0.34021028876304626,-84.30171966552734,23918162.0,50354.0,0.003105814085565861,-0.002103563527000043,0.004174781155020001,0.0004548277865993804,-0.00020807154624425262,0.0001437878404473857,23.91816267499962
1609,E,39600111088911.0,-0.10594583178738809,9.74353,0.42495728,49,1970-01-01 11:00:00.111088911,-0.020523071,0.12081909,0.0035552979,9.756190847521548,0.12260134214133582,89.34854888916016,-0.2940238416194916,-84.29541015625,23968516.0,50354.0,-0.004574523020042139,-0.0020982008260000315,0.0175581301229,-3.697768484330927e-05,-0.00010578782111548288,0.0005471695072441919,23.968516678003652
1609,E,39600161442915.0,0.23156331821261192,9.803741,0.08258057,49,1970-01-01 11:00:00.161442915,-0.009521484,0.2055664,-0.003967285,9.804415450329971,0.20582502961688962,89.35224151611328,-0.29805028438568115,-84.28515625,24018870.0,50354.0,0.0031626714557278605,-0.0013275580330000287,0.01277828044945,-3.55461868347406e-05,-8.625033079304452e-05,0.000763779808980056,24.018870681997214
1609,E,39600211796919.0,0.4286763682126119,9.739792,0.05731201,49,1970-01-01 11:00:00.211796919,-0.0030517578,0.13150024,0.008026123,9.743902834208447,0.13178029062093688,89.35981750488281,-0.3316706717014313,-84.27861785888672,24069224.0,50354.0,0.01662285458512786,-0.0014216696590000349,0.00352207548666,0.0004981401891306245,-6.92173056014856e-05,0.00041039406140344143,24.06922468599805
1609,E,39600262150923.0,0.13232015321261192,9.695343,0.28507996,49,1970-01-01 11:00:00.262150923,-0.036636353,0.11500549,0.02619934,9.699552336404787,0.12351068985199747,89.33184051513672,-0.3217872381210327,-84.27268981933594,24119578.0,50354.0,0.01412420941992286,-0.004150806105000062,0.00862040262869,0.0007741188304551621,-0.00014029822231023046,0.000305711171510167,24.11957868999889
1609,E,39600312504927.0,-0.0647928817873881,9.674011,0.38404846,49,1970-01-01 11:00:00.312504927,-0.046966553,0.16566467,0.020965576,9.684047607061224,0.17346525693614412,89.28933715820312,-0.28269925713539124,-84.26419067382812,24169932.0,50354.0,0.0017001341126728605,-0.005806974342000048,0.016846646230340004,0.00039840949712016254,-0.00025070703831412176,0.0006411838891237985,24.169932693999726
1609,E,39600362858931.0,0.07380269821261191,9.737839,0.28242493,49,1970-01-01 11:00:00.362858931,-0.0044403076,0.2818756,0.023147583,9.742243782361623,0.2828592950667955,89.26529693603516,-0.2651864290237427,-84.2499771118164,24220286.0,50354.0,0.0002268401481378601,-0.004737052550000052,0.01677980054003,4.851543096443151e-05,-0.00026546696505988656,0.0008466130503376058,24.220286698000564
1609,E,39600413212935.0,0.2518269882126119,9.646164,0.2247467,49,1970-01-01 11:00:00.413212935,-0.022460938,0.43829346,0.03161621,9.649303098446268,0.44000594944770416,89.24906921386719,-0.2747419774532318,-84.22797393798828,24270640.0,50354.0,0.008198378615127861,-0.00543815646900004,0.01276906012851,0.00021212173280274108,-0.0002561812374713653,0.0007439516650518316,24.2706407020014
1609,E,39600463566939.0,0.15587972321261193,9.758118,0.3927002,49,1970-01-01 11:00:00.463566939,-0.039138794,0.40368652,0.023986816,9.766017574255848,0.40628809848099495,89.20817565917969,-0.2694399952888489,-84.20758819580078,24320994.0,50354.0,0.010264831873552862,-0.00492759208600003,0.015545460601300002,0.00046484825047351456,-0.0002609784513692368,0.0007128746884144264,24.32099470600224
1609,E,39600513920943.0,0.1943013542126119,9.794357,0.3787079,49,1970-01-01 11:00:00.513920943,-0.034057617,0.31939697,-0.0012817383,9.801769127197906,0.32121019375787135,89.17083740234375,-0.26866987347602844,-84.19145202636719,24371348.0,50354.0,0.008816508986334862,-0.0011965369250000514,0.0194217417337,0.0004804109188293933,-0.00015418719610994905,0.0008803692531882951,24.371348710003076
1609,E,39600564274947.0,0.4108388282126119,9.826431,0.2898407,49,1970-01-01 11:00:00.564274947,-0.025268555,0.21846008,-0.02166748,9.834123977019777,0.22098141576826053,89.14802551269531,-0.2984806001186371,-84.18045043945312,24421702.0,50354.0,0.015235614372919861,0.0005233794759999449,0.0168320481022,0.0006055603098159562,-1.6948085093475683e-05,0.0009127616666984543,24.421702713996638
1609,E,39600614628951.0,0.4972188382126119,9.735458,0.33035278,49,1970-01-01 11:00:00.614628951,0.0019378662,0.16375732,-0.019714355,9.747193213047685,0.1649511169166718,89.12081146240234,-0.340712308883667,-84.172119140625,24472056.0,50354.0,0.022862167867587862,-0.0009595206470000617,0.01561461124596,0.000959187863469263,-1.098072626226994e-05,0.0008169095424086244,24.472056717997475
1609,E,39600664982954.0,0.3703267482126119,9.700241,0.50971985,49,1970-01-01 11:00:00.664982954,0.012176514,0.18000793,-0.0022735596,9.716087760869126,0.1804336205626098,89.06816101074219,-0.3642052114009857,-84.16279602050781,24522410.0,50354.0,0.02184219522942786,-0.0041366062770000454,0.02115050860551,0.001125521749693565,-0.00012830518756555068,0.0009256354225004604,24.522410721001506
1609,E,39600715336958.0,0.30321858821261194,9.710831,0.50068665,49,1970-01-01 11:00:00.715336958,0.004486084,0.14938354,0.002746582,9.724913108409273,0.14947612078612885,89.01786041259766,-0.37746116518974304,-84.15499877929688,24572764.0,50354.0,0.016957850935177862,-0.004756640256000017,0.0254390044505,0.0009768687622862782,-0.00022390526796134256,0.001172984170211164,24.572764725002344
1609,E,39600765690962.0,0.2942311682126119,9.685562,0.49630737,49,1970-01-01 11:00:00.765690962,-0.0057678223,0.057418823,0.009811401,9.699319337378284,0.05853590862344675,88.9687728881836,-0.3895440101623535,-84.15178680419922,24623118.0,50354.0,0.015041992517517862,-0.005126213439000042,0.025101318441540003,0.0008056600586085204,-0.0002488206074790165,0.0012724537094528912,24.62311872900318
1609,E,39600816044966.0,0.2885243782126119,9.675354,0.50227356,49,1970-01-01 11:00:00.816044966,-0.009841919,0.05493164,0.022460938,9.689350904409155,0.060156813234512385,88.91976928710938,-0.401138573884964,-84.148681640625,24673472.0,50354.0,0.014672036392347862,-0.006019417868000047,0.02514127207461,0.0007481101058636894,-0.00028061355941634124,0.0012649577014251087,24.673472732996743
1609,E,39600866398970.0,0.20525716421261192,9.689056,0.48349,49,1970-01-01 11:00:00.866398970,-0.0011291504,0.053207397,0.021911621,9.70126049827406,0.05755363768684886,88.87529754638672,-0.4000917971134186,-84.14569854736328,24723826.0,50354.0,0.01243193789363986,-0.005931449430000005,0.024818569150120002,0.0006823967605983129,-0.00030088698596174735,0.0012578389225150273,24.72382673699758
1609,E,39600916752974.0,0.12728475221261193,9.744965,0.528656,49,1970-01-01 11:00:00.916752974,0.0066833496,-0.013122559,0.0042877197,9.759324151628089,0.01533796781878451,88.82612609863281,-0.3867657780647278,-84.14601135253906,24774180.0,50354.0,0.008372407829837862,-0.0041788532830000025,0.025482799842,0.0005237910122799986,-0.0002545470914052012,0.0012664375671146053,24.774180740998418
1609,E,39600967106978.0,0.18955587021261192,9.695679,0.55026245,49,1970-01-01 11:00:00.967106978,0.0024261475,-0.03704834,-0.01234436,9.711355514452816,0.039126064359413355,88.77440643310547,-0.3821330964565277,-84.14752197265625,24824534.0,50354.0,0.007977096350799861,-0.004012106012000019,0.027163929815650002,0.0004116314667559159,-0.00020622378217021557,0.0013254867125906543,24.824534744999255
1609,E,39601017460982.0,0.2895467182126119,9.727356,0.45565796,49,1970-01-01 11:00:01.017460982,-0.0015411377,-0.02645874,-0.014831543,9.739000322132423,0.030371280769154442,88.73795318603516,-0.3921668827533722,-84.14862060546875,24874888.0,50354.0,0.012062365868781861,-0.004455447805000024,0.025326058162569998,0.0005045335403024091,-0.0002131876024506101,0.001321540427327645,24.874888749000093
1609,E,39601067814986.0,0.24007771821261192,9.758163,0.3814087,49,1970-01-01 11:00:01.067814986,0.011566162,-0.11886597,-0.014892578,9.76601547500004,0.12035233195471215,88.71414947509766,-0.3947402238845825,-84.15441131591797,24925242.0,50354.0,0.013334354435877861,-0.0028822881370000352,0.02107482729882,0.0006394132271104178,-0.0001847421778117355,0.001168235093261416,24.92524275300093
1609,E,39601118168990.0,0.1267812122126119,9.677017,0.5462189,49,1970-01-01 11:00:01.118168990,0.026412964,-0.15202332,-0.008041382,9.692451993970787,0.15451018838755462,88.66691589355469,-0.38099074363708496,-84.16168212890625,24975596.0,50354.0,0.00923640729131586,-0.004149673140000061,0.023354880085199998,0.0005682640680055564,-0.00017704368907103143,0.0011186067428074714,24.975596757001767
1609,E,39601168522993.0,0.10699056321261191,9.665878,0.5419464,49,1970-01-01 11:00:01.168522993,0.018692017,-0.029571533,0.0062408447,9.681161462295446,0.0355361112963686,88.6209716796875,-0.3652280569076538,-84.162841796875,25025950.0,50354.0,0.005885671989880861,-0.006473132585000071,0.0273967377581,0.0003807285900626899,-0.0002674503797383283,0.001277773482440764,25.025950759998523
1609,E,39601218876997.0,0.1585957875126119,9.757385,0.45635986,49,1970-01-01 11:00:01.218876997,-0.007461548,-0.036972046,0.0028533936,9.768053863063816,0.03782523944430413,88.58814239501953,-0.35732194781303406,-84.16448974609375,25076304.0,50354.0,0.006686667552208961,-0.004449707449000071,0.025134356708020004,0.00031653379265119547,-0.0002750043435360216,0.0013225753653735035,25.07630476399936
1609,E,39601269231001.0,0.19153951321261192,9.81456,0.23997498,49,1970-01-01 11:00:01.269231001,-0.01121521,-0.17854309,-0.01373291,9.817574887328288,0.1794213162897884,88.5879135131836,-0.35375821590423584,-84.17341613769531,25126658.0,50354.0,0.00881535646635896,-0.0007063407350000489,0.01753162226668,0.00039029445871548456,-0.00012981382512857105,0.001074201352646022,25.126658768000198
1609,E,39601319585005.0,0.08898518821261192,9.779709,0.29891968,49,1970-01-01 11:00:01.319585005,0.023895264,-0.2956543,-0.036727905,9.784476126720742,0.2988835688956633,88.58073425292969,-0.3342866897583008,-84.18819427490234,25177012.0,50354.0,0.007062770407782861,-0.00014428938700002063,0.01356775085482,0.00039976360031026865,-2.141631458159575e-05,0.0007829889170800056,25.177012772001035
1609,E,39601369939009.0,0.05442403821261192,9.710831,0.57095337,49,1970-01-01 11:00:01.369939009,0.03239441,-0.15766907,-0.02330017,9.72808594828034,0.1626401898546048,88.53376770019531,-0.3106692433357239,-84.19583129882812,25227366.0,50354.0,0.003610614093707861,-0.0027558744200000085,0.021900793779850002,0.00026872380159403194,-7.301742416883974e-05,0.0008929915482670867,25.227366776001872
1609,E,39601420293013.0,0.12478231121261192,9.684906,0.46888733,49,1970-01-01 11:00:01.420293013,0.02180481,0.028060913,0.0036773682,9.696286662827262,0.03572656734711635,88.5022201538086,-0.29910385608673096,-84.19425201416016,25277720.0,50354.0,0.004511878259478861,-0.005142729551000025,0.026180069303900003,0.0002044999899761821,-0.00019886315217786782,0.001210531889859574,25.27772078000271
1609,E,39601470647017.0,0.17159627621261192,9.7352295,0.30895996,49,1970-01-01 11:00:01.470647017,-0.0010986328,-0.038528442,0.0024719238,9.740151553807497,0.03862328629531162,88.49417114257812,-0.29475128650665283,-84.19613647460938,25328074.0,50354.0,0.007461923695604861,-0.004528448516500019,0.019583861220330002,0.00030146441182314285,-0.0002434912502054486,0.0011521984788085387,25.328074784003547
1609,E,39601521001021.0,0.1730611192126119,9.777588,0.36279297,49,1970-01-01 11:00:01.521001021,0.012481689,-0.1603241,-0.0042266846,9.784340007595173,0.16086477073557962,88.47936248779297,-0.29053357243537903,-84.2040786743164,25378428.0,50354.0,0.00867743924462086,-0.002194993802500021,0.016912723518610003,0.000406340740746063,-0.000169276107265464,0.0009188745139722925,25.37842878799711
1609,E,39601571355025.0,0.1515462270016119,9.785095,0.42575073,49,1970-01-01 11:00:01.571355025,0.018005371,-0.08921814,0.0005493164,9.794352854750198,0.09101852360049875,88.45601654052734,-0.28341811895370483,-84.20841217041016,25428782.0,50354.0,0.008172639155635514,-0.0009395301090000403,0.0198531647349,0.0004242344238832548,-7.891790851983706e-05,0.0009256547685586214,25.428782791997946
1609,E,39601621691972.0,0.10595296521261191,9.752945,0.40592957,49,1970-01-01 11:00:01.621691972,0.027908325,-0.028961182,0.002746582,9.761495394824651,0.04031337718209023,88.43643951416016,-0.26982587575912476,-84.20976257324219,25479119.0,50337.0,0.006480868419243692,-0.0015594402600000226,0.02093214563055,0.0003688068053983473,-6.289533573217807e-05,0.0010265050839328284,25.479119739000453
1609,E,39601672045976.0,0.1942250582126119,9.728897,0.46444702,49,1970-01-01 11:00:01.672045976,0.037826538,-0.04295349,-0.0021820068,9.740070361979773,0.05727661332446944,88.40908813476562,-0.26930850744247437,-84.21175384521484,25529473.0,50354.0,0.007557582095776861,-0.0029748639660000277,0.02191347140643,0.00035344606861667245,-0.00011416017749800328,0.0010787241001400457,25.52947374300129
1609,E,39601722399979.0,0.1847951282126119,9.696701,0.43597412,49,1970-01-01 11:00:01.722399979,0.021255493,-0.029129028,-0.0008239746,9.706553982802097,0.03606903365824039,88.3855972290039,-0.267483115196228,-84.21311950683594,25579827.0,50354.0,0.009542591233627861,-0.00439091915400006,0.02266990304178,0.0004305310639144227,-0.0001854483216122422,0.0011224756184825835,25.579827745998045
1609,E,39601772753983.0,0.20026754021261192,9.710907,0.4083557,49,1970-01-01 11:00:01.772753983,0.018463135,-0.06364441,0.004638672,9.719611329359925,0.06643053180729407,88.36668395996094,-0.2683010399341583,-84.21617889404297,25630181.0,50354.0,0.009694722802941862,-0.004843853384000042,0.02125769187814,0.00048433785549871597,-0.00023250386818922858,0.001105965057298826,25.630181749998883
1609,E,39601823107987.0,0.2229420982126119,9.74527,0.31718445,49,1970-01-01 11:00:01.823107987,0.020736694,-0.015335083,0.017684937,9.750691918920916,0.03127190824622786,88.36195373535156,-0.27298831939697266,-84.2168960571289,25680535.0,50354.0,0.010655149066631862,-0.0036210316710000292,0.01826692435655,0.0005123487240602576,-0.00021312041102973682,0.0009951112629407901,25.68053575399972
1609,E,39601873461991.0,0.16991780821261193,9.819962,0.3090515,49,1970-01-01 11:00:01.873461991,0.0184021,0.019714355,0.019180298,9.824841199071944,0.03309345719088335,88.3587646484375,-0.2697746753692627,-84.21588134765625,25730889.0,50354.0,0.009891033864067861,-0.000875353936000037,0.015766742513150002,0.0005172912476462269,-0.00011320550042744067,0.000856865630778437,25.730889758000558
1609,E,39601923815995.0,0.2237660782126119,9.77066,0.30950928,49,1970-01-01 11:00:01.923815995,0.027008057,-0.035842896,-0.0048980713,9.775827880088869,0.045145757708138515,88.35578155517578,-0.2734203338623047,-84.21764373779297,25781243.0,50354.0,0.00991177920852786,-0.0002361099060000419,0.015573504758059999,0.0004985754247287425,-2.7983325150035988e-05,0.0007890534055472543,25.781243762001395
1609,E,39601974169999.0,0.23025105821261194,9.721512,0.30578613,49,1970-01-01 11:00:01.974169999,0.029541016,-0.03807068,-0.015350342,9.726638554815018,0.0505735237203383,88.35334014892578,-0.2774638533592224,-84.21955108642578,25831597.0,50354.0,0.011430789443777862,-0.0027147855560000346,0.015491292537570001,0.0005373418509591012,-7.429469504677593e-05,0.0007821184015120765,25.831597766002233
1609,E,39602024524003.0,0.1923940052126119,9.698975,0.34069824,49,1970-01-01 11:00:02.024524003,0.043289185,0.03163147,-0.016174316,9.705043077140719,0.056000999369591443,88.34636688232422,-0.2757033407688141,-84.21794128417969,25881951.0,50354.0,0.010640934761856862,-0.004519598801000001,0.016276536983490002,0.0005556998003252655,-0.0001821400949561899,0.0007998186438517278,25.88195177000307
1609,E,39602074878007.0,0.22990010821261192,9.6983795,0.3267212,49,1970-01-01 11:00:02.074878007,0.02645874,0.00843811,-0.022872925,9.704197720092786,0.03597828957601132,88.3407974243164,-0.27922433614730835,-84.217529296875,25932305.0,50354.0,0.010632098893706862,-0.005102005753500023,0.01680361924088,0.0005355911683461279,-0.00024224313786864714,0.0008328590932609635,25.93230577399663
1609,E,39602125232011.0,0.31000874821261193,9.669464,0.26582336,49,1970-01-01 11:00:02.125232011,0.029129028,-0.053375244,-0.024719238,9.674415295653345,0.06563884270449141,88.34437561035156,-0.2945514917373657,-84.2202377319336,25982659.0,50354.0,0.013593285278217864,-0.005845004200500053,0.01491849438712,0.0006099224972965489,-0.00027561286961185996,0.000798667654812156,25.98265977799747
1609,E,39602175586015.0,0.24975179321261193,9.724579,0.3430786,49,1970-01-01 11:00:02.175586015,0.0055999756,-0.047317505,-0.004058838,9.731124651523206,0.04782029038029636,88.3355484008789,-0.301509827375412,-84.22256469726562,26033013.0,50354.0,0.01409309115146286,-0.005185379389000038,0.015330324646920003,0.0006970598993700717,-0.00027771196763284384,0.0007615745168200252,26.033013781998307
1609,E,39602225940019.0,0.15465902001261192,9.729843,0.41937256,49,1970-01-01 11:00:02.225940019,-0.011413574,0.060821533,0.00541687,9.738877139251631,0.062119811884136164,88.31487274169922,-0.29461297392845154,-84.21941375732422,26083367.0,50354.0,0.010181851044571462,-0.003665217306000011,0.019196232855320003,0.0006111702196695562,-0.00022283147299001626,0.0008692751382338966,26.083367785999144
1609,E,39602276294022.0,0.2706410782126119,9.791092,0.18722534,49,1970-01-01 11:00:02.276294022,-0.00340271,0.017242432,-0.01109314,9.793606235636918,0.02078310976919296,88.32943725585938,-0.3040899932384491,-84.21864318847656,26133721.0,50354.0,0.010707780573016462,-0.0019906195049999987,0.015272315328300002,0.0005259382552360112,-0.00014239700339054725,0.0008678146376190008,26.133721789003175
1609,E,39602326648026.0,0.23974202821261192,9.714249,0.26434326,49,1970-01-01 11:00:02.326648026,0.021133423,-0.11302185,-0.026809692,9.718245324348153,0.11806489626580075,88.33332061767578,-0.3083128035068512,-84.22434997558594,26184075.0,50354.0,0.012849915470467859,-0.0023832296430000015,0.0113691426422,0.0005931121132868049,-0.000110120399999196,0.0006707519873232785,26.184075792996737
1609,E,39602377002030.0,0.1368367542126119,9.695221,0.44508362,49,1970-01-01 11:00:02.377002030,0.0090789795,-0.034988403,-0.004638672,9.705443090738227,0.03644356584056249,88.30973052978516,-0.29826030135154724,-84.22596740722656,26234429.0,50354.0,0.00948112400511986,-0.00479697381000002,0.017861240557760002,0.000562228580876872,-0.00018077598233618155,0.000735933357825393,26.234429796997574
1609,E,39602427356034.0,0.1344563832126119,9.757355,0.2773285,49,1970-01-01 11:00:02.427356034,-0.0048065186,0.07296753,0.010437012,9.761310323639455,0.07386673320813092,88.31104278564453,-0.2887133061885834,-84.22232818603516,26284783.0,50354.0,0.00683034732095486,-0.0037116940480000226,0.01818816994524,0.00041067391357658327,-0.00021422273066086707,0.0009076160082340313,26.28478380099841
1609,E,39602477710038.0,0.22271321821261192,9.791992,0.18191528,49,1970-01-01 11:00:02.477710038,0.010650635,-0.053466797,-0.015777588,9.793940341347632,0.05675444203267422,88.32719421386719,-0.2911961078643799,-84.22509002685547,26335137.0,50354.0,0.00899245905508286,-0.0012752905810000127,0.01156238064906,0.0003983707961295017,-0.0001255573120043339,0.0007490296123126912,26.33513780499925
1609,E,39602528064042.0,0.16357015321261192,9.738617,0.33387756,49,1970-01-01 11:00:02.528064042,0.020217896,-0.11627197,-0.024337769,9.744346065269644,0.12050004699685839,88.32096862792969,-0.28464245796203613,-84.23090362548828,26385491.0,50354.0,0.009725456442372861,-0.0017470572070000332,0.012986116332680002,0.0004712609584794427,-7.609365025847717e-05,0.0006180575085092681,26.385491809000087
1609,E,39602578418046.0,0.18639730121261192,9.694519,0.32585144,49,1970-01-01 11:00:02.578418046,0.028823853,-7.6293945e-05,-0.004486084,9.700056363933559,0.02917096625390919,88.31625366210938,-0.28245335817337036,-84.23088073730469,26435845.0,50354.0,0.00881113060006386,-0.004201134928000054,0.016609997033,0.00046669565196742936,-0.0001497576333828972,0.0007451413462077254,26.435845813000924
1609,E,39602628772050.0,0.06910298821261192,9.783112,0.26193237,49,1970-01-01 11:00:02.628772050,0.029281616,0.005554199,-0.010665894,9.786964970964425,0.03165475409669601,88.32147216796875,-0.2627856135368347,-84.23063659667969,26486199.0,50354.0,0.006432730786858861,-0.003080884313000066,0.014798632984370001,0.00038379469813855333,-0.00018333939843066002,0.0007907750779473246,26.48619981700176
1609,E,39602679126054.0,0.13486837021261192,9.733231,0.43263245,49,1970-01-01 11:00:02.679126054,0.0028381348,-0.049468994,-0.01083374,9.742855545389459,0.050720866503862164,88.29996490478516,-0.25330010056495667,-84.2330322265625,26536553.0,50354.0,0.005135386891071861,-0.0021062322890000582,0.017487058473140003,0.0002912504987772618,-0.00013059603468855712,0.0008128568538257294,26.5365538210026
1609,E,39602729480058.0,0.1940114382126119,9.774826,0.21447754,49,1970-01-01 11:00:02.729480058,0.009918213,0.014007568,0.008071899,9.777271016790516,0.018966772626205913,88.3115234375,-0.25357669591903687,-84.23236846923828,26586907.0,50354.0,0.00828020693672186,-0.002314848911000059,0.016292288218230002,0.0003377644058023625,-0.00011130956137240296,0.0008504626116486227,26.586907825003436
1609,E,39602779834061.0,0.1716573112126119,9.737106,0.24803162,49,1970-01-01 11:00:02.779834061,0.021865845,-0.03630066,0.0041046143,9.7402853145808,0.042575825917431004,88.31836700439453,-0.2504569888114929,-84.23419952392578,26637261.0,50354.0,0.00920644210427886,-0.00221728803600004,0.011644593121320001,0.00044026136290527517,-0.0001141056119146215,0.0007033668614858505,26.63726182800019
1609,E,39602830188065.0,-0.013782751787388081,9.703918,0.40856934,49,1970-01-01 11:00:02.830188065,0.027954102,-0.051712036,0.0018463135,9.713922075162651,0.05881305432837154,88.30155181884766,-0.21998555958271027,-84.23670959472656,26687615.0,50354.0,0.00397480778264886,-0.004002538752000023,0.016531242369920002,0.00033186432840317924,-0.0001565965790414776,0.0007093830101629496,26.68761583200103
1609,E,39602880542069.0,0.013377888212611905,9.779312,0.2503662,49,1970-01-01 11:00:02.880542069,0.018371582,0.004425049,-0.003753662,9.783491846010804,0.019266189614071824,88.30825805664062,-0.19406652450561523,-84.23650360107422,26737969.0,50354.0,-1.0193250222139794e-05,-0.0029399182900000627,0.016590020090580002,9.981710008290755e-05,-0.00017479024094643617,0.0008338940249680086,26.737969836001866
1609,E,39602930896073.0,0.10377095821261192,9.7035675,0.2870636,49,1970-01-01 11:00:02.930896073,0.015045166,0.028030396,-0.012527466,9.707930199381144,0.03419060578968334,88.30892944335938,-0.1815006285905838,-84.23512268066406,26788323.0,50354.0,0.0029494565064478607,-0.002948742828500055,0.0135308700746,7.400183100199498e-05,-0.00014825882098047746,0.000758353651688737,26.788323840002704
1609,E,39602981250077.0,0.0949056022126119,9.733353,0.2565918,49,1970-01-01 11:00:02.981250077,0.04273987,0.030380249,-0.004562378,9.736899219284899,0.05263526678885351,88.31558990478516,-0.16835926473140717,-84.23362731933594,26838677.0,50354.0,0.005002079761825861,-0.004105852571500051,0.013687612005800001,0.00020019582862632748,-0.0001776135483858027,0.0006852797233382309,26.83867784400354
1609,E,39603031604081.0,0.1515614857906119,9.745544,0.2922821,49,1970-01-01 11:00:03.031604081,0.022064209,0.04837036,0.008392334,9.749925983454835,0.05382334359079559,88.31584930419922,-0.16450361907482147,-84.23119354248047,26889031.0,50354.0,0.006205301874657166,-0.003049010231000038,0.013818998180300001,0.0002821682474617332,-0.00018013798077854475,0.0006925339246554398,26.889031847997103
1609,E,39603081958085.0,0.06498311821261192,9.778244,0.19709778,49,1970-01-01 11:00:03.081958085,0.025283813,0.03414917,0.007537842,9.780613160163147,0.043153865105281505,88.3303451538086,-0.14804279804229736,-84.2295150756836,26939385.0,50354.0,0.005451943494989167,-0.0019187895239999987,0.01232111723876,0.00029349446667158575,-0.00012507429443163592,0.0006581296859056736,26.93938585199794
1609,E,39603132312089.0,0.07265828821261192,9.741898,0.23161316,49,1970-01-01 11:00:03.132312089,0.028869629,0.005355835,-0.0004272461,9.744970097334296,0.029365336476445,88.33948516845703,-0.1327192187309265,-84.22926330566406,26989739.0,50354.0,0.0034653976895678605,-0.002010584865999994,0.01079365533638,0.00022451189900359232,-9.892985901702982e-05,0.0005819606291242998,26.989739855998778
1609,E,39603182666093.0,0.06548665821261192,9.811661,0.24006653,49,1970-01-01 11:00:03.182666093,0.03425598,0.059051514,0.0048217773,9.814974637819022,0.06843831534881166,88.34766387939453,-0.11699950695037842,-84.22632598876953,27040093.0,50354.0,0.003478075316147861,-0.0011692450569999932,0.01187547955513,0.00017481581986490474,-8.005857797137069e-05,0.0005707408091635473,27.040093859999615
1609,E,39603233020097.0,0.07151387821261192,9.746124,0.1665802,49,1970-01-01 11:00:03.233020097,0.032821655,0.054534912,-0.009216309,9.747875908170975,0.06431374670605228,88.36612701416016,-0.10178010910749435,-84.22364044189453,27090447.0,50354.0,0.0034492625055778606,-0.001062847055000014,0.01023814472121,0.0001744095843375885,-5.619738310382418e-05,0.0005567547184054122,27.090447864000453
1609,E,39603283374101.0,0.05149434821261191,9.778305,0.12922668,49,1970-01-01 11:00:03.283374101,0.04425049,0.020645142,-0.026687622,9.779670522731829,0.05564671528001584,88.3902587890625,-0.08322246372699738,-84.22268676757812,27140801.0,50354.0,0.0030969781167078606,-0.0019026510670000461,0.00744752981776,0.0001648147001472876,-7.466234621759552e-05,0.0004452722278676477,27.14080186800129
1609,E,39603333728104.0,0.08623860821261192,9.743851,0.13632202,49,1970-01-01 11:00:03.333728104,0.057891846,0.019882202,-0.033721924,9.745023298874777,0.06988516257345544,88.41334533691406,-0.06983016431331635,-84.22175598144531,27191155.0,50354.0,0.0034677026439178605,-0.001959878388000062,0.0066857196199,0.0001652789675102738,-9.724690408853773e-05,0.00035583282109196584,27.191155870998045
1609,E,39603384082108.0,0.11170552821261193,9.698883,0.2234497,49,1970-01-01 11:00:03.384082108,0.040618896,0.0725708,-0.01512146,9.701538397686745,0.08452854120017934,88.42204284667969,-0.061352185904979706,-84.2181625366211,27241509.0,50354.0,0.004983639522777861,-0.003959486082000043,0.009057972594440002,0.00021277944173089816,-0.00014903183926119265,0.0003963789388804382,27.241509874998883
1609,E,39603434436112.0,0.13390706721261192,9.754593,0.14129639,49,1970-01-01 11:00:03.434436112,0.010787964,0.091674805,0.0076293945,9.75563221259199,0.09262212316444679,88.4412841796875,-0.057486291974782944,-84.21359252929688,27291863.0,50354.0,0.006183788315020861,-0.0036890347480000307,0.00918321230793,0.0002811623306722584,-0.00019256680893691187,0.0004592583122869696,27.29186387899972
1609,E,39603484790116.0,0.04931233821261191,9.792725,0.00894165,49,1970-01-01 11:00:03.484790116,0.0074920654,-0.034500122,-0.006011963,9.79326255785317,0.03581247214429814,88.47932434082031,-0.04084453359246254,-84.21536254882812,27342217.0,50354.0,0.004612914970390861,-0.0013263747140000199,0.00378254313308,0.0002718285986168109,-0.00012627296402477526,0.0003264388247383088,27.342217883000558
1609,E,39603535144120.0,0.11680196421261191,9.771057,0.29180908,49,1970-01-01 11:00:03.535144120,0.022964478,-0.019989014,-0.006576538,9.775475105596572,0.031147693053741942,88.47572326660156,-0.034430984407663345,-84.21636199951172,27392571.0,50354.0,0.00418225979215986,-0.0009118605859999966,0.007572001129210001,0.0002214361149967395,-5.635205014810042e-05,0.0002858733608916754,27.392571887001395
1609,E,39603585498124.0,0.15232442524261192,9.713928,0.14718628,49,1970-01-01 11:00:03.585498124,-0.0040740967,0.093170166,0.02180481,9.715043058050659,0.09577435896692083,88.49191284179688,-0.034652967005968094,-84.21167755126953,27442925.0,50354.0,0.006775795107314171,-0.002895732655000036,0.01105258617872,0.0002758909482040577,-9.586377502865781e-05,0.00046891123465175367,27.442925891002233
1609,E,39603635852128.0,0.027049768212611916,9.773239,0.11671448,49,1970-01-01 11:00:03.635852128,-0.0072631836,-0.03100586,0.0070648193,9.774728558385451,0.03261945526964792,88.51215362548828,-0.015934830531477928,-84.21322631835938,27493279.0,50354.0,0.00451610406862217,-0.0028407964410000494,0.0066442294345200005,0.0002842961455525493,-0.00014442859304999414,0.00044555272669454356,27.49327989500307
1609,E,39603686206132.0,0.08004353821261191,9.74263,0.14782715,49,1970-01-01 11:00:03.686206132,0.0036468506,-0.030136108,0.00045776367,9.744013682042176,0.03035941488671935,88.52780151367188,-0.005088490433990955,-84.21473693847656,27543633.0,50354.0,0.0026962881758678604,-0.002118166187000027,0.0066603646185099995,0.0001815863995395255,-0.00012485180208515794,0.00033496976447313634,27.54363389899663
1609,E,39603736560136.0,0.11606954221261193,9.705856,0.10281372,49,1970-01-01 11:00:03.736560136,0.001083374,0.029708862,0.010528564,9.706465312691856,0.031537927015912376,88.54948425292969,-0.0002151509397663176,-84.21324157714844,27593987.0,50354.0,0.004937539025865861,-0.003814667978000015,0.006310385183990001,0.00019219686745804992,-0.00014937096577220606,0.00032656456777754254,27.59398790299747
1609,E,39603786914140.0,0.04006551421261191,9.717682,0.14407349,49,1970-01-01 11:00:03.786914140,-0.0066375732,-0.008285522,0.017318726,9.719389135695732,0.020313678225789594,88.5641860961914,0.01533889677375555,-84.21363830566406,27644341.0,50354.0,0.003931012315617861,-0.00444278377400002,0.0062158792861700006,0.0002232835171245357,-0.00020789786276010486,0.00031537376056521837,27.644341906998307
1609,E,39603837268144.0,-0.06673075178738808,9.797333,0.09101868,49,1970-01-01 11:00:03.837268144,-0.0055236816,-0.042144775,0.00024414063,9.800186553908823,0.04250591397518727,88.58648681640625,0.046793628484010696,-84.2157211303711,27694695.0,50354.0,-0.0006713506864201395,-0.002139667345000036,0.00591891556409,8.206850083831104e-05,-0.0001657263718230644,0.00030551772994499604,27.694695910999144
1609,E,39603887622147.0,0.09070943521261192,9.752243,0.2220459,49,1970-01-01 11:00:03.887622147,0.013916016,0.023498535,-0.017105103,9.754960131729513,0.03222454339628554,88.58992004394531,0.055442359298467636,-84.2145767211914,27745049.0,50354.0,0.0006037113125968608,-0.0012695250480000341,0.00788202693066,-1.7029565147486889e-06,-8.583323687856277e-05,0.00034746632919032083,27.745049914003175
1609,E,39603937976151.0,0.3046071382126119,9.655746,0.09863281,49,1970-01-01 11:00:03.937976151,0.020370483,0.08180237,0.009002686,9.657462998197113,0.08477990723328721,88.61156463623047,0.031002227216959,-84.21046447753906,27795403.0,50354.0,0.009952885369126861,-0.004834260947000021,0.00807372788167,0.0002657834346557582,-0.0001536750199961164,0.00040171803891003244,27.795403917996737
1609,E,39603988330155.0,0.10515950821261191,9.736267,0.1434784,49,1970-01-01 11:00:03.988330155,0.0013580322,-0.05470276,0.008956909,9.737434541954984,0.055447835141762915,88.62522888183594,0.03653639182448387,-84.21317291259766,27845757.0,50354.0,0.010316694857047863,-0.005236488699000026,0.0060956339341700005,0.000510327221354401,-0.0002535512638373432,0.0003567420224374037,27.845757921997574
1609,E,39604038684159.0,-0.03715922178738809,9.740387,0.3065796,49,1970-01-01 11:00:04.038684159,0.0018005371,-0.091308594,-0.0036468506,9.7470371882284,0.09139912905167114,88.61460876464844,0.06342514604330063,-84.21773529052734,27896111.0,50354.0,0.0017120432113278603,-0.003105482242000038,0.011331110266000002,0.00030284753834749557,-0.00021002580238155865,0.0004387531387276802,27.89611192599841
1609,E,39604089038163.0,0.006328328212611922,9.764465,0.221344,49,1970-01-01 11:00:04.089038163,-0.014007568,0.005004883,-0.005203247,9.768052708151403,0.015758635552017883,88.6160888671875,0.08339662849903107,-84.2175064086914,27946465.0,50354.0,-0.0007762294075321397,-0.002395541196000045,0.013291532477200002,2.356098413816486e-05,-0.0001384992670985281,0.0006199242763455465,27.94646592999925
1609,E,39604139392167.0,0.09685872821261192,9.780914,0.12600708,49,1970-01-01 11:00:04.139392167,-0.0069885254,0.029632568,0.0012512207,9.78187842458864,0.03047120159726521,88.63188934326172,0.08929108828306198,-84.21600341796875,27996819.0,50354.0,0.002597940519617861,-0.001375192917000068,0.008745258141160001,4.58652206689822e-05,-9.493577276300385e-05,0.0005548202773984498,27.996819934000087
1609,E,39604189746171.0,0.13381551421261192,9.714813,0.15615845,49,1970-01-01 11:00:04.189746171,0.013244629,-0.031341553,0.0034942627,9.716084135277226,0.03420413737570444,88.64371490478516,0.0894567221403122,-84.217529296875,28047173.0,50354.0,0.00580768540153986,-0.0026252813210000687,0.00710408154881,0.00021162844381698796,-0.00010071993989012944,0.00039903882537437475,28.047173938000924
1609,E,39604240100175.0,0.04825948421261192,9.6970215,0.29606628,49,1970-01-01 11:00:04.240100175,-0.0061035156,0.005004883,0.013381958,9.702089785866901,0.01553636239397422,88.63361358642578,0.10180401802062988,-84.21729278564453,28097527.0,50354.0,0.004584102235351861,-0.00473744279350005,0.011385662027210001,0.00026163403733402287,-0.0001853713050307695,0.0004655162740134556,28.09752794200176
1609,E,39604290454179.0,0.11495565121261192,9.760117,0.1884613,49,1970-01-01 11:00:04.290454179,-0.008224487,0.029891968,0.012863159,9.762004879588021,0.033565351134547575,88.63970947265625,0.10401871055364609,-84.21577453613281,28147881.0,50354.0,0.004109267464600861,-0.0035968239855000556,0.01219895088166,0.0002188729689357097,-0.00020983183469488567,0.0005937897992066201,28.1478819460026
1609,E,39604340808183.0,0.1821706162126119,9.810013,0.13545227,49,1970-01-01 11:00:04.340808183,-0.0011901855,-0.026382446,0.0020141602,9.810995931384678,0.026485974397378518,88.65386199951172,0.09681114554405212,-84.21705627441406,28198235.0,50354.0,0.0074807480349648615,-0.0007520369900000631,0.00815517195189,0.00029180182023256623,-0.0001094912727801665,0.0005124557505802884,28.198235950003436
1609,E,39604391162186.0,0.08436177821261191,9.776749,0.2250824,49,1970-01-01 11:00:04.391162186,0.01461792,-0.059677124,0.0010375977,9.779570276646925,0.061450136883694745,88.65528106689453,0.10410580039024353,-84.22004699707031,28248589.0,50354.0,0.00671048609444386,-0.00033329312600003004,0.00907718138659,0.0003572927016761234,-2.7325356330534347e-05,0.000433858960002911,28.24858995300019
1609,E,39604441516190.0,-0.010349531787388094,9.7278595,0.28208923,49,1970-01-01 11:00:04.441516190,0.0049438477,-0.032302856,0.00630188,9.733294924212585,0.03328107311028194,88.64761352539062,0.12497206032276154,-84.2216567993164,28298943.0,50354.0,0.0018634063282478603,-0.002401671795500041,0.01276906012851,0.00021586488952610945,-6.885821182860729e-05,0.0005500228226256727,28.29894395700103
1609,E,39604491870194.0,-0.018345131787388086,9.74321,0.18232727,49,1970-01-01 11:00:04.491870194,-0.010559082,-0.007980347,-0.003967285,9.746396371317804,0.013817362309585645,88.65409088134766,0.1470063179731369,-84.2220458984375,28349297.0,50354.0,-0.0007224455448221399,-0.0032460831985000687,0.0116926142205,2.8725969644309365e-05,-0.00014219352748394076,0.0006158715750850248,28.349297961001866
1609,E,39604542224198.0,0.04787801421261191,9.801712,0.15252686,49,1970-01-01 11:00:04.542224198,0.013336182,-0.020965576,-0.016937256,9.803446664762266,0.030071244872110565,88.6661148071289,0.15929727256298065,-84.22309112548828,28399651.0,50354.0,0.0007435493808198603,-0.0013866988060000438,0.008430622431009999,5.313312789146051e-07,-0.00011663955252729934,0.0005066427291750673,28.399651965002704
1609,E,39604592578202.0,0.11504720321261191,9.766159,0.28819275,49,1970-01-01 11:00:04.592578202,0.015258789,0.0010681152,-0.0042877197,9.770478378234207,0.015885718493438065,88.65796661376953,0.1608784794807434,-84.22306823730469,28450005.0,50354.0,0.00410196819911486,-0.0008089118330000299,0.011095997620970001,0.00012199559611001646,-5.527888905810487e-05,0.0004916217130487004,28.45000596900354
1609,E,39604642932206.0,0.11330770121261191,9.730621,0.23603821,49,1970-01-01 11:00:04.642932206,-0.0056610107,-0.004989624,0.0054779053,9.733558450040825,0.009324743228778933,88.656494140625,0.16220353543758392,-84.22331237792969,28500359.0,50354.0,0.0057492914287138605,-0.0025987699400000525,0.013198562879920002,0.0002480251636498437,-8.579520399882308e-05,0.0006116641497309076,28.500359972997103
1609,E,39604693286210.0,0.045482384212611915,9.799271,0.19030762,49,1970-01-01 11:00:04.693286210,-0.004211426,-0.062347412,-0.0027923584,9.801692477518332,0.06255184375768048,88.66204833984375,0.17371246218681335,-84.22640991210938,28550713.0,50354.0,0.00399785798075086,-0.0017651091160000743,0.010734108961910002,0.0002454039806820933,-0.00010986938299291519,0.0006025528789617541,28.55071397699794
1609,E,39604743640214.0,0.0024373382126119114,9.764236,0.28068542,49,1970-01-01 11:00:04.743640214,0.0047912598,-0.011169434,-0.00039672852,9.76940724298067,0.012160173513154878,88.65457153320312,0.19123710691928864,-84.22699737548828,28601067.0,50354.0,0.0012064748514998603,-0.0009187842610000475,0.011858191768080001,0.0001310294877175764,-6.757238355273207e-05,0.0005688063554789583,28.601067980998778
1609,E,39604793994218.0,0.05141805321261192,9.709305,0.30638123,49,1970-01-01 11:00:04.793994218,-0.0054473877,0.060409546,-0.0020141602,9.714653655013704,0.06068808879830944,88.64275360107422,0.20139023661613464,-84.2240219116211,28651421.0,50354.0,0.0013559171899128605,-0.0031838582430000137,0.01478057704705,6.451334442664807e-05,-0.00010329223032320955,0.0006706842824585281,28.651421984999615
1609,E,39604844348222.0,0.2249257432126119,9.688583,0.21765137,49,1970-01-01 11:00:04.844348222,-0.0074920654,0.027755737,0.0021972656,9.691305353756489,0.028832966487824133,88.6441421508789,0.18542970716953278,-84.22262573242188,28701775.0,50354.0,0.006957507762597861,-0.005088573824000036,0.0131935687702,0.00020930710002936245,-0.00020827502215086026,0.0007043050692409034,28.701775989000453
1609,E,39604894702226.0,0.1976735462126119,9.753754,0.1764679,49,1970-01-01 11:00:04.894702226,-0.019943237,-0.031692505,0.010559082,9.755459351037803,0.038905549577096556,88.651123046875,0.17345291376113892,-84.22417449951172,28752129.0,50354.0,0.010639782309858861,-0.003969481351000031,0.009922740860790001,0.00044304697215424296,-0.00022805465514097665,0.0005819993275794353,28.75212999300129
1609,E,39604945056229.0,0.02999471321261192,9.731125,0.23434448,49,1970-01-01 11:00:04.945056229,0.0012054443,-0.060653687,0.0068206787,9.734705037247451,0.061047886946093435,88.65040588378906,0.186584010720253,-84.2271957397461,28802483.0,50354.0,0.005732003767548861,-0.0028984014170000067,0.01034302329126,0.00041219245807089423,-0.00017291268444993694,0.0005102311440561629,28.802483995998045
1609,E,39604995410233.0,0.03416036321261191,9.734039,0.292099,49,1970-01-01 11:00:04.995410233,-0.0065307617,-0.0071868896,0.01083374,9.739127935202415,0.014548957106692392,88.64085388183594,0.19862912595272064,-84.22757720947266,28852838.0,50355.0,0.001615264436696073,-0.0033948333900000434,0.013254530717699999,0.00018498584521237682,-0.00015844791935324374,0.0005941274160605903,28.852837999998883
1609,E,39605045764237.0,0.08814595821261191,9.768997,0.23640442,49,1970-01-01 11:00:05.045764237,-0.011795044,0.018356323,0.008422852,9.772062581425542,0.023388503433442873,88.63958740234375,0.2025599181652069,-84.22665405273438,28903192.0,50354.0,0.0030793062545228602,-0.0024412626280000405,0.013306130605340001,0.00011819520629281909,-0.00014693538944518812,0.0006687177701301781,28.90319200399972
1609,E,39605096118241.0,0.09984944821261191,9.7209015,0.26869202,49,1970-01-01 11:00:05.096118241,0.00061035156,-0.030517578,0.0008392334,9.724751531726836,0.030535215877942536,88.634033203125,0.20502734184265137,-84.22819519042969,28953546.0,50354.0,0.004733160347567861,-0.0027720254655000187,0.01271681306988,0.00019669447164083812,-0.000131254954330051,0.000655179652911014,28.953546008000558
1609,E,39605146472245.0,0.1776082382126119,9.784225,0.28266907,49,1970-01-01 11:00:05.146472245,-0.018295288,0.0438385,0.009094238,9.788342080136466,0.048365657341274584,88.62590789794922,0.19568529725074768,-84.22601318359375,29003900.0,50354.0,0.006985552171127861,-0.002388630109500052,0.013881618162930001,0.0002950420250832022,-0.00012992982541177678,0.0006696687031484574,29.003900012001395
1609,E,39605196826249.0,0.12527059221261191,9.777603,0.22914124,49,1970-01-01 11:00:05.196826249,0.00932312,-0.02507019,-0.008361816,9.780322885305239,0.028024185268948607,88.62716674804688,0.1950295865535736,-84.22727966308594,29054254.0,50354.0,0.00762558031361586,-0.0009610564440000752,0.01288584817487,0.00036786448256839266,-8.43350583574727e-05,0.0006739244999867906,29.054254016002233
1609,E,39605247180253.0,0.12563680321261192,9.725494,0.42489624,49,1970-01-01 11:00:05.247180253,0.009979248,-0.04508972,-0.013442993,9.734805640924897,0.04809763300955623,88.59944152832031,0.19458390772342682,-84.22965240478516,29104608.0,50354.0,0.006317095494620861,-0.002439726831000072,0.01646670163396,0.00035103474882397593,-8.562152051467871e-05,0.000739009146536913,29.10460802000307
1609,E,39605297534257.0,0.1407430042126119,9.74585,0.3504486,49,1970-01-01 11:00:05.297534257,0.0076904297,0.060440063,0.0048675537,9.752154778504556,0.061121493792584906,88.58335876464844,0.19113807380199432,-84.22667694091797,29154962.0,50354.0,0.006706644411544861,-0.0032391721120000306,0.019520857036680002,0.0003278986996175344,-0.0001429776386879136,0.0009060587646507035,29.15496202399663
1609,E,39605347888261.0,0.11370443021261192,9.75415,0.24189758,49,1970-01-01 11:00:05.347888261,0.0070495605,0.009552002,-0.00440979,9.757222325471881,0.012664252575468648,88.5836181640625,0.19214381277561188,-84.2261962890625,29205316.0,50354.0,0.006406223056523861,-0.002517700000000036,0.014913499773860002,0.00033014266424356625,-0.00014494076916382568,0.0008669538014189656,29.20531602799747
1609,E,39605398242265.0,0.2349507682126119,9.833633,0.26945496,49,1970-01-01 11:00:05.398242265,0.0050964355,0.022964478,0.020217896,9.837677714643313,0.03101780493982384,88.58003997802734,0.1742127686738968,-84.22504425048828,29255670.0,50354.0,0.008778091930751861,-0.0003075874090000372,0.012874322899580003,0.0003822954984346409,-7.113226109639484e-05,0.0006996140114491991,29.255670031998307
1609,E,39605448596269.0,0.2341725682126119,9.730072,0.24371338,49,1970-01-01 11:00:05.448596269,0.052139282,0.14465332,0.04534912,9.733474557979056,0.1603110426616717,88.5822982788086,0.15560896694660187,-84.2177505493164,29306024.0,50354.0,0.01181111824117786,-0.0009137992150000216,0.01292003929618,0.0005183745444986746,-3.075085103244948e-05,0.0006494246570026497,29.306024035999144
1609,E,39605498950272.0,0.10284017221261191,9.742981,0.36636353,49,1970-01-01 11:00:05.498950272,0.057678223,0.07595825,0.03717041,9.74998829722837,0.10236245664826694,88.5667953491211,0.15710820257663727,-84.21395874023438,29356378.0,50354.0,0.00848496976568586,-0.003196144619000032,0.01535990636307,0.000510994607748808,-0.00010347605590861935,0.0007120041918629373,29.356378039003175
1609,E,39605549304276.0,0.13328145621261192,9.6528015,0.3681183,49,1970-01-01 11:00:05.549304276,0.0033416748,0.016662598,0.020965576,9.6598354502489,0.02698822594373952,88.54820251464844,0.15486106276512146,-84.2131576538086,29406732.0,50354.0,0.00594483423886186,-0.00514158399750001,0.01849204903391,0.000363299175422498,-0.00020991899337762155,0.0008522906810297655,29.406732042996737
1609,E,39605599658280.0,0.2822224982126119,9.567871,0.3335266,49,1970-01-01 11:00:05.599658280,0.017074585,0.2228241,0.08085632,9.57457444179961,0.23765492942010402,88.53545379638672,0.127680242061615,-84.20194244384766,29457086.0,50354.0,0.01046114306056386,-0.009550328467500013,0.0176653136473,0.00041305329046764145,-0.0003698982801313056,0.0009103339202248243,29.457086046997574
1609,E,39605650012284.0,0.11289571421261191,9.719772,0.28829956,49,1970-01-01 11:00:05.650012284,0.06062317,0.33293152,0.10020447,9.724123459270345,0.35292988192888997,88.53267669677734,0.1255936175584793,-84.18519592285156,29507440.0,50354.0,0.009947891234229862,-0.00786421218900001,0.015655717230320002,0.0005138382564400216,-0.00043844589010870114,0.0008389235944058389,29.50744005099841
1609,E,39605700366288.0,0.11249898621261192,9.863541,0.3409729,49,1970-01-01 11:00:05.700366288,-0.010696411,0.009750366,0.040756226,9.869509971261706,0.043249887897865734,88.51932525634766,0.12609735131263733,-84.1846694946289,29557794.0,50354.0,0.005674762372605861,-0.0004201285990000254,0.01584319272542,0.000393331549859303,-0.00020857484801947693,0.0007930480559556662,29.55779405499925
1609,E,39605750720292.0,0.3613850982126119,9.763153,0.0045928955,49,1970-01-01 11:00:05.750720292,-0.055038452,-0.068573,-0.017349243,9.765409174836257,0.08962412487845754,88.55290222167969,0.09294695407152176,-84.18805694580078,29608148.0,50354.0,0.01193097959357386,0.0006720748379999776,0.008700310033303502,0.00044325976548250686,6.343250459301798e-06,0.0006179317689563817,29.608148059000087
1609,E,39605801074296.0,0.2446400982126119,9.736145,0.57543945,49,1970-01-01 11:00:05.801074296,0.1063385,0.19076538,0.059829712,9.753579821364598,0.2264484515884296,88.5098648071289,0.07420319318771362,-84.17852020263672,29658502.0,50354.0,0.01525789637039786,-0.002535374254000002,0.0146034743626535,0.0006845343301449161,-4.691228939663262e-05,0.0005867193797370094,29.658502063000924
1609,E,39605851428300.0,0.09371541821261192,9.7048645,0.10107422,49,1970-01-01 11:00:05.851428300,0.021850586,-0.03475952,-0.018493652,9.705563023293942,0.045029851248598415,88.53327941894531,0.08176250755786896,-84.18025207519531,29708856.0,50354.0,0.008518776837037861,-0.00400290381850004,0.01703258466959,0.0005986253013436091,-0.00016461422703133359,0.0007965010582547947,29.70885606700176
1609,E,39605901782304.0,0.20008443521261193,9.762543,0.4114685,49,1970-01-01 11:00:05.901782304,-0.08828735,-0.19444275,-0.060256958,9.771331004141604,0.22188632266320238,88.50518798828125,0.07536261528730392,-84.19007873535156,29759210.0,50354.0,0.0073969989096868615,-0.003338281372500031,0.01290428806144,0.0004007114859752884,-0.00018482901955380878,0.0007537206447491425,29.7592100710026
1609,E,39605952136308.0,0.17612813621261192,9.749451,0.20199585,49,1970-01-01 11:00:05.952136308,0.06491089,0.0652771,-0.013168335,9.751574341894331,0.09299423891658196,88.5161361694336,0.07060709595680237,-84.18682861328125,29809564.0,50354.0,0.009471903910772862,-0.002215727062000001,0.01544519193995,0.00042470836631071444,-0.00013983327035540732,0.0007137548579949962,29.809564075003436
1609,E,39606002490311.0,0.2899281882126119,9.739883,0.17495728,49,1970-01-01 11:00:06.002490311,0.06665039,0.028076172,-0.0033721924,9.742437307677054,0.07240108840969384,88.53083038330078,0.04869754612445831,-84.18540954589844,29859918.0,50354.0,0.011733900080053861,-0.002786237882000004,0.00949054895401,0.0005338985270770444,-0.0001259344713950881,0.000627807148487231,29.85991807800019
1609,E,39606052844315.0,0.15128682758261192,9.732727,0.3475647,49,1970-01-01 11:00:06.052844315,-0.022781372,-0.14889526,-0.021621704,9.738930954515476,0.1521719009690475,88.5152816772461,0.048407264053821564,-84.19288635253906,29910272.0,50354.0,0.01110847045267635,-0.0032072980300000033,0.013155535890460002,0.0005751023629025486,-0.0001508992536564242,0.0005701604781292212,29.91027208200103
1609,E,39606103198319.0,0.08602498821261191,9.733475,0.26670837,49,1970-01-01 11:00:06.103198319,4.5776367e-05,-0.1071167,-0.028945923,9.73734871326219,0.11095880304278567,88.51317596435547,0.05814028158783913,-84.19829559326172,29960626.0,50354.0,0.005974799586276351,-0.0033686322460000136,0.01546555308339,0.0004301054897707121,-0.00016556219655885243,0.0007205931570946215,29.960626086001866
1609,E,39606153552323.0,0.2559010882126119,9.75383,0.31071472,49,1970-01-01 11:00:06.153552323,0.023284912,0.11985779,0.008117676,9.75933585998932,0.12236818873454335,88.50588989257812,0.04112115502357483,-84.19229125976562,30010980.0,50354.0,0.00860867282615786,-0.002837322015000011,0.014537781136929998,0.00036716808492785616,-0.00015624731042919763,0.0007553939456649967,30.010980090002704
1609,E,39606203906327.0,0.11742757421261191,9.657288,0.25422668,49,1970-01-01 11:00:06.203906327,0.029281616,-0.047042847,3.0517578e-05,9.660693855062902,0.05541158200917414,88.50700378417969,0.045089494436979294,-84.19464111328125,30061334.0,50354.0,0.009399295733879862,-0.0047554821140000335,0.014223529627799998,0.0004533866244360698,-0.00019116402955583414,0.0007241235211236072,30.06133409400354
1609,E,39606254260331.0,-0.07518412178738809,9.84079,0.13258362,49,1970-01-01 11:00:06.254260331,-0.013504028,-0.14425659,-0.030807495,9.844294081975915,0.148126379415781,88.52434539794922,0.0783013105392456,-84.2018814086914,30111688.0,50354.0,0.00106356340170986,-0.0025660901940000465,0.009738722923100001,0.00026342340445674245,-0.00018433522599851804,0.0006032976324740093,30.111688097997103
1609,E,39606304614335.0,0.09406636821261191,9.710327,0.27516174,49,1970-01-01 11:00:06.304614335,0.05632019,-0.081100464,-0.036895752,9.71439481441546,0.10540657274713422,88.52347564697266,0.0865573063492775,-84.20598602294922,30162042.0,50354.0,0.0004753983182478601,-0.001230727291000045,0.01026580492872,3.874643922337552e-05,-9.55924738198473e-05,0.0005036539977252721,30.16204210199794
