Subject-id_accel,Activity_accel,Timestamp_accel,accel_x,accel_y,accel_z,Segment_accel,DateTime,gyro_x,gyro_y,gyro_z,accel_magnitude,gyro_magnitude,Roll,Pitch,Yaw,Time_Difference,Difference_Microseconds,vx,vy,vz,dx,dy,dz,Time_diff
1602,E,98126719815697.0,1.9660542511840289,9.78569,1.3361260412124434,15,1970-01-02 03:15:26.719815697,0.0059661865,-0.0014648438,-0.0027160645,9.897672341917092,0.006717004918811728,97.27067565917969,2.8787012100219727,-91.55873107910156,15005477.0,50354.0,0.0977144134693406,-0.00026569288100004,0.06765193545621137,0.00490198264365461,9.508219934752716e-08,0.0034105014845600906,15.005477993006934
1602,E,98126770169701.0,1.878560361184029,9.7933655,1.4131981412124432,15,1970-01-02 03:15:26.770169701,0.0016784668,0.009597778,-0.0025634766,9.898253343592831,0.010075018889050968,97.28599548339844,2.876063108444214,-91.55748748779297,15055831.0,50354.0,0.09679586209559059,-0.0005273196765000148,0.06921973494091137,0.0048971852078982725,-1.9965677160178882e-05,0.003446018045588359,15.055831997000496
1602,E,98126820523705.0,1.840672811184029,9.785034,1.4803978412124432,15,1970-01-02 03:15:26.820523705,0.009170532,0.003982544,-0.0050811768,9.882933073222977,0.011215064491469421,97.29177856445312,2.879253387451172,-91.55699157714844,15106186.0,50355.0,0.09364099319729677,-0.0005438465887500425,0.07285351284750258,0.004794723924136671,-2.6969288643333317e-05,0.003577049196192792,15.10618600100861
1602,E,98126870877709.0,1.945409111184029,9.79335,1.3743035412124434,15,1970-01-02 03:15:26.870877709,0.011489868,0.0058135986,-0.0053253174,9.900634153849678,0.013934633140132852,97.31261444091797,2.867064952850342,-91.5556411743164,15156540.0,50354.0,0.0953221845594606,-0.0005442260320000412,0.07187281670531138,0.00475752592638188,-2.7394404372624855e-05,0.003643774799151197,15.15654000500217
1602,E,98126921231713.0,1.915013611184029,9.759415,1.2717339412124433,15,1970-01-02 03:15:26.921231713,0.0011291504,0.002319336,-0.007217407,9.883394074807905,0.00766454590372875,97.34784698486328,2.8598246574401855,-91.55372619628906,15206894.0,50354.0,0.0971938628810606,-0.0011892355950000148,0.06661928569501137,0.004846976526410003,-4.364336338298041e-05,0.003486815662132926,15.206894008995732
1602,E,98126971585717.0,1.9089711111840288,9.764938,1.2806297412124432,15,1970-01-02 03:15:26.971585717,0.0026397705,-0.017608643,-0.008728027,9.887777302778725,0.019829552488819516,97.38081359863281,2.8538150787353516,-91.55290985107422,15257248.0,50354.0,0.0962764633550606,-0.0019045645190000006,0.06426086043241137,0.004871002403646824,-7.78926054701784e-05,0.0032951694390501223,15.257248013003846
1602,E,98127021939721.0,1.817876151184029,9.816345,1.2903038412124432,15,1970-01-02 03:15:27.021939721,-0.0035858154,-0.021514893,-0.00340271,9.941628604437312,0.022075487043968615,97.41012573242188,2.860499858856201,-91.55248260498047,15307602.0,50354.0,0.0938308335246406,-0.0004712379090000136,0.06472839480471136,0.004786331413540237,-5.981557772975636e-05,0.0032475624791050393,15.307602016997407
1602,E,98127072293724.0,1.8294728111840288,9.763519,1.3863579412124434,15,1970-01-02 03:15:27.072293724,-0.005218506,-0.027404785,-0.0028076172,9.874945993806483,0.028038148300306796,97.42596435546875,2.865856409072876,-91.55300903320312,15357956.0,50354.0,0.0918293048255406,-0.0005069640720000207,0.06739031369611138,0.0046743653032425125,-2.4628191275637868e-05,0.0033263527239252143,15.357956020001438
1602,E,98127122647728.0,1.863377861184029,9.757111,1.3471123412124433,15,1970-01-02 03:15:27.122647728,-0.001663208,-0.014190674,-0.0047302246,9.872429738296374,0.01505046558057209,97.44738006591797,2.8661880493164062,-91.5526123046875,15408310.0,50354.0,0.0929749013782106,-0.001998298490000021,0.06882058130061137,0.004652815499591845,-6.307499552347504e-05,0.003429381703332489,15.408310023995
1602,E,98127173001732.0,1.944249441184029,9.767639,1.3039147412124432,15,1970-01-02 03:15:27.173001732,-0.004928589,-0.0012664795,-0.0043640137,9.885433271328337,0.006703698637963146,97.47413635253906,2.8545877933502197,-91.55130767822266,15458664.0,50354.0,0.0958646325917206,-0.0018945692500000123,0.06674490885421137,0.004754412946760958,-9.801073108998084e-05,0.0034131323456279726,15.458664028003113
1602,E,98127223355736.0,1.954961111184029,9.792206,1.3210503412124432,15,1970-01-02 03:15:27.223355736,-0.0056915283,0.014190674,-0.003967285,9.90674997833212,0.01579582455065901,97.49723815917969,2.8414745330810547,-91.5494155883789,15509018.0,50354.0,0.0981704240769706,-0.0010109824350000097,0.06608874588021137,0.004885220621747639,-7.315307477324556e-05,0.0033443529252485614,15.509018031996675
1602,E,98127273709740.0,1.936055471184029,9.797577,1.2749992412124433,15,1970-01-02 03:15:27.273709740,-0.008117676,0.009811401,-0.002243042,9.919672031885552,0.01293025485586193,97.52609252929688,2.8312954902648926,-91.54745483398438,15559372.0,50354.0,0.0979641244942806,-0.00025723340900002037,0.06536074033671138,0.0049380795293783915,-3.192987030438876e-05,0.0033095037144834647,15.559372036004788
1602,E,98127324063744.0,1.826741511184029,9.749924,1.2771813412124433,15,1970-01-02 03:15:27.324063744,-0.006668091,-0.016067505,-0.004837036,9.877542869720616,0.018056164370502444,97.55496215820312,2.837798833847046,-91.54678344726562,15609726.0,50354.0,0.0947359396250806,-0.0013217673230000242,0.06425625052371138,0.004851609514333157,-3.9754501429565125e-05,0.0032633669788928645,15.60972603999835
1602,E,98127374417748.0,1.845052051184029,9.813049,1.3774925412124432,15,1970-01-02 03:15:27.374417748,-0.0064849854,-0.021362305,-0.006286621,9.924342606245137,0.02319320405094732,97.56739807128906,2.841226816177368,-91.54716491699219,15660080.0,50354.0,0.0924447465197406,-0.0009322287790000484,0.06683672433781138,0.004712648135068163,-5.674885986005584e-05,0.003300527828088559,15.660080044006463
1602,E,98127424771752.0,1.938634211184029,9.799316,1.4203545412124434,15,1970-01-02 03:15:27.424771752,-0.013076782,-0.0074310303,-0.0029449463,9.90044398397796,0.015326289423892718,97.5733642578125,2.830929756164551,-91.54719543457031,15710434.0,50354.0,0.0952618690276406,0.0003113136049999319,0.07044139599421137,0.004725889459636417,-1.5632781335800935e-05,0.003456251235599337,15.710434048000025
1602,E,98127475125756.0,1.874532031184029,9.871902,1.4829460412124433,15,1970-01-02 03:15:27.475125756,-0.0206604,0.0101623535,-0.0033569336,9.966922890290723,0.023267886883294134,97.56849670410156,2.829618215560913,-91.5468521118164,15760788.0,50354.0,0.0960040864841006,0.0017930555859999554,0.07309639876371138,0.004815502961919108,5.298170312180417e-05,0.003613851058620221,15.760788052008138
1602,E,98127525479760.0,1.794728571184029,9.86676,1.4600731412124432,15,1970-01-02 03:15:27.525479760,-0.02130127,0.007507324,-0.0057678223,9.96898937194553,0.023310336577112168,97.56707000732422,2.8399410247802734,-91.54645538330078,15811142.0,50354.0,0.0923809741858206,0.003491093173999957,0.07409639395591137,0.004742970672486606,0.0001330390133305178,0.0037058729423019424,15.8111420560017
1602,E,98127575833764.0,1.820195511184029,9.724915,1.3563286412124433,15,1970-01-02 03:15:27.575833764,-0.02130127,-0.0030670166,-0.007369995,9.841544845583975,0.022747912447906086,97.58336639404297,2.84749436378479,-91.54570770263672,15861496.0,50354.0,0.0910129436217806,-0.00020959852500007057,0.07090854767611138,0.004617308668641976,8.261819077787015e-05,0.0036507894154694373,15.861496059995261
1602,E,98127626187767.0,1.941747011184029,9.816513,1.4529015412124433,15,1970-01-02 03:15:27.626187767,-0.015594482,-0.0065612793,-0.006149292,9.912963231585351,0.018001445692004753,97.58379364013672,2.8366689682006836,-91.5459213256836,15911850.0,50354.0,0.09471442688566059,-0.001474667244000041,0.07072798830291138,0.004676058007265847,-4.240475926611581e-05,0.003565983066343856,15.911850062999292
1602,E,98127676541771.0,1.954213431184029,9.806122,1.4858910412124433,15,1970-01-02 03:15:27.676541771,-0.014541626,0.020217896,-0.002609253,9.897829959193887,0.025040575205228434,97.57979583740234,2.8240468502044678,-91.5450668334961,15962204.0,50354.0,0.0980885960575006,0.0005698813949999823,0.07398998084771137,0.00485420170863997,-2.2779793320274476e-05,0.0036435643093052287,15.962204067007406
1602,E,98127726895775.0,1.888066581184029,9.783569,1.4596306412124433,15,1970-01-02 03:15:27.726895775,-0.02130127,0.03337097,-0.0012664795,9.881848745636116,0.039610222325527536,97.57979583740234,2.8212857246398926,-91.54335021972656,16012557.999999998,50353.99999999814,0.096737083871387,-0.00025954969300002144,0.07415939939840863,0.004905126143569422,7.813221261252726e-06,0.0037299569464564254,16.012558071000967
1602,E,98127777249779.0,1.861333181184029,9.762466,1.3615471412124434,15,1970-01-02 03:15:27.777249779,-0.02130127,0.008041382,-0.006134033,9.875757968103295,0.0235803793211202,97.59427642822266,2.822923421859741,-91.54214477539062,16062912.0,50354.00000000186,0.09439863781714408,-0.0013586768050000903,0.071028793028114,0.004812224064952325,-4.074208854015032e-05,0.003655403120722696,16.06291207499453
1602,E,98127827603783.0,1.918889331184029,9.798843,1.3734184412124433,15,1970-01-02 03:15:27.827603783,-0.0070648193,-0.0107421875,-0.0044403076,9.907329439237701,0.01360230111449627,97.6065902709961,2.8159995079040527,-91.54202270507812,16113266.0,50354.0,0.0951746621938906,-0.0009741233070000455,0.06885822846871138,0.00477288697437782,-5.873290841982743e-05,0.003521935540225573,16.113266079002642
1602,E,98127877957787.0,1.965398111184029,9.816925,1.4811913412124433,15,1970-01-02 03:15:27.877957787,-0.001953125,-0.01109314,-0.0030517578,9.90869408938935,0.01166986195270046,97.60305786132812,2.8024442195892334,-91.54273223876953,16163620.000000002,50354.00000000186,0.09779470493650422,0.00039699093599995886,0.07187051049211403,0.00485838975624213,-1.453046170466972e-05,0.0035431274608168323,16.163620082996204
1602,E,98127928311791.0,1.946675591184029,9.783554,1.5211998412124432,15,1970-01-02 03:15:27.928311791,-0.0055999756,-0.009643555,-0.0067749023,9.871258585073932,0.013048263521755131,97.59429931640625,2.792335271835327,-91.5435791015625,16213974.0,50353.99999999814,0.09849427960451695,1.2059782999963397e-05,0.07559120279990857,0.004941967763789107,1.0298669952260662e-05,0.0037126435555531155,16.213974087004317
1602,E,98127978665795.0,1.937230411184029,9.794739,1.4850517412124433,15,1970-01-02 03:15:27.978665795,-0.0061035156,-0.0072631836,-0.0059814453,9.887367836462518,0.011215365645561647,97.59072875976562,2.783693313598633,-91.54405212402344,16264327.999999998,50353.99999999814,0.09778510142161699,-0.0005465171390000057,0.07568839609070857,0.004941725976094792,-1.3456032852012566e-05,0.003808766461268927,16.26432809099788
1602,E,98128029019799.0,1.891927051184029,9.796677,1.4306847412124433,15,1970-01-02 03:15:28.029019799,-0.008377075,-0.004211426,-0.002822876,9.898514614749363,0.009791839634127848,97.59491729736328,2.7815873622894287,-91.54401397705078,16314682.000000002,50354.000000003725,0.09640669743004772,-0.00021611936800003644,0.07340949741801679,0.004889166919688724,-1.920089933674148e-05,0.0037538376648694563,16.314682095005992
1602,E,98128079373803.0,1.915547661184029,9.80275,1.4666344412124432,15,1970-01-02 03:15:28.079373803,-0.0037994385,-0.006149292,-0.0030822754,9.89865245424345,0.007858113428679394,97.59394836425781,2.7761356830596924,-91.5443344116211,16365036.0,50353.99999999814,0.09586079083328705,-1.4426421000025774e-05,0.07294580505590867,0.0048407185520058,-5.804451329654352e-06,0.0036847874503858854,16.365036098999553
1602,E,98128129727807.0,1.9222310111840288,9.780655,1.4991814412124433,15,1970-01-02 03:15:28.129727807,-0.0041656494,-0.002960205,-0.002746582,9.872238463674083,0.005801651596611895,97.58872985839844,2.769986152648926,-91.54471588134766,16415389.999999998,50353.99999999814,0.09662375363420701,-0.0004178123150000439,0.0746703464718086,0.004846183376057919,-1.088247465627335e-05,0.003716531847013201,16.415390103007667
1602,E,98128180081810.0,1.895848561184029,9.803192,1.4399468412124432,15,1970-01-02 03:15:28.180081810,-0.007003784,-0.0040283203,-0.0012207031,9.903532638076364,0.008171320016765815,97.59158325195312,2.767543077468872,-91.54473876953125,16465744.0,50354.00000000186,0.09612778939351414,-0.00040668408100008423,0.0739984327666141,0.004852905598809115,-2.0758345762095994e-05,0.0037430338548859066,16.465744105997146
1602,E,98128230435814.0,1.927052791184029,9.840424,1.3999077412124432,15,1970-01-02 03:15:28.230435814,-0.008087158,-0.007598877,-0.0028076172,9.944421013789265,0.011446736238763819,97.59930419921875,2.760486364364624,-91.54471588134766,16516098.0,50354.0,0.0962491873485706,0.0010981200319999578,0.07149901882171136,0.004843475143435468,1.7408282938323815e-05,0.00366318933863927,16.51609811000526
1602,E,98128280789818.0,1.9701283511840288,9.804245,1.4331261412124434,15,1970-01-02 03:15:28.280789818,-0.0119018555,-0.0045928955,-0.003326416,9.902312335596344,0.01318384984827484,97.60260772705078,2.74764084815979,-91.54472351074219,16566451.999999998,50353.99999999814,0.09811932962139695,0.0011246314129999323,0.07132729405780873,0.004893616151752692,5.596221313076016e-05,0.003595938079367544,16.56645211399882
1602,E,98128331143822.0,1.9516347111840289,9.796539,1.4632164412124433,15,1970-01-02 03:15:28.331143822,-0.012451172,-0.009567261,-0.0063934326,9.891407579374903,0.016954059915738406,97.60162353515625,2.738042116165161,-91.54518127441406,16616806.0,50354.00000000186,0.09873822862124425,1.9738767999942206e-05,0.07292121719771406,0.0049562827438751605,2.8811808047034902e-05,0.0036317447678804317,16.616806118006934
1602,E,98128381497826.0,1.949544241184029,9.841614,1.4627434412124434,15,1970-01-02 03:15:28.381497826,-0.009597778,-0.009841919,-0.010375977,9.936199854730527,0.01722328687691098,97.5999984741211,2.7289185523986816,-91.545654296875,16667160.0,50354.0,0.0982199824837706,0.0009605780809999411,0.07366689195981138,0.0049588168809909594,2.4681437307270067e-05,0.0036906488242590186,16.667160122000496
1602,E,98128431851830.0,1.956166561184029,9.84404,1.4963127412124433,15,1970-01-02 03:15:28.431851830,-0.012710571,0.004638672,-0.011489868,9.93397907566954,0.017750857999743252,97.59346008300781,2.719041109085083,-91.5456314086914,16717514.000000002,50354.00000000186,0.09833408087122424,0.0021565107580000325,0.07450015750491412,0.004948641653088888,7.847894569950524e-05,0.003730401804373532,16.71751412600861
1602,E,98128482205834.0,1.859517391184029,9.8367,1.4045769412124434,15,1970-01-02 03:15:28.482205834,-0.024383545,-0.016479492,-0.0012817383,9.94324404578022,0.029458000210719936,97.59970092773438,2.7229251861572266,-91.54608917236328,16767868.0,50353.99999999814,0.09606747486876704,0.002032790979999892,0.07303569953440867,0.0048944479688655795,0.00010547404985762019,0.0037145102726788923,16.76786813000217
1602,E,98128532559838.0,1.803166681184029,9.8307495,1.3145958412124432,15,1970-01-02 03:15:28.532559838,-0.047607422,-0.05947876,0.0155181885,9.95308193478353,0.07774962183152544,97.61747741699219,2.7342214584350586,-91.54817199707031,16818222.0,50354.0,0.0922153968900106,0.001698176061499965,0.06846061314311137,0.004740397862270745,9.393455720384192e-05,0.0035624526642819227,16.818222133995732
1602,E,98128582913842.0,1.851643851184029,9.72113,1.3663994412124434,15,1970-01-02 03:15:28.582913842,-0.057662964,-0.061920166,0.009674072,9.834698294553274,0.08516285601008244,97.62915802001953,2.7394301891326904,-91.55059814453125,16868576.0,50354.0,0.0920171647734306,-0.0012115298285000338,0.06749941822561137,0.004638423205000459,1.225229220823927e-05,0.003423065709770333,16.868576138003846
1602,E,98128633267846.0,1.9094136311840288,9.746353,1.4018303412124433,15,1970-01-02 03:15:28.633267846,-0.027877808,-0.016311646,-0.0008544922,9.851861779854763,0.03231055757850738,97.63654327392578,2.7361888885498047,-91.55097961425781,16918930.0,50354.0,0.09469214423358059,-0.0033363805090000447,0.06969572123211137,0.004700780272869521,-0.0001145027385672395,0.0034541620261270855,16.918930141997407
1602,E,98128683641429.0,1.970265681184029,9.832748,1.5050102412124433,15,1970-01-02 03:15:28.683641429,-0.0023345947,0.026733398,0.0010681152,9.921118641395664,0.02685639162508886,97.62861633300781,2.7233986854553223,-91.550048828125,16969303.0,50373.0,0.0977155430009581,-0.0005263726635000447,0.07321314032924442,0.004846076214532709,-9.72892327791735e-05,0.003599374041715088,16.96930372499628
1602,E,98128733995433.0,1.955495171184029,9.84993,1.5225426412124434,15,1970-01-02 03:15:28.733995433,-0.023010254,0.034973145,0.0072784424,9.936520082536067,0.04249198023281168,97.6170425415039,2.7126083374023438,-91.54885864257812,17019657.0,50354.0,0.0988388809800706,0.0020815840059999896,0.07622469892081138,0.004948650732570359,3.915555597012112e-05,0.003762396478798655,17.019657729004393
1602,E,98128784349437.0,1.947682671184029,9.814209,1.6413933412124433,15,1970-01-02 03:15:28.784349437,-0.04171753,0.012298584,-0.00032043457,9.887179970253062,0.043493794454147215,97.58833312988281,2.7040507793426514,-91.54950714111328,17070011.0,50354.0,0.0982703085373006,0.0016148276029999764,0.07965841622951138,0.004962618064478855,9.306455507979215e-05,0.003924669190139677,17.070011732997955
1602,E,98128834703441.0,1.925587941184029,9.7834015,1.6109368412124434,15,1970-01-02 03:15:28.834703441,-0.029586792,0.010955811,0.0012969971,9.861071164597965,0.03157673600922669,97.56583404541016,2.698997735977173,-91.5499496459961,17120365.0,50354.0,0.09751733420759061,-6.0160441500034665e-05,0.08188391700291137,0.0049293454813881254,3.9141855125084034e-05,0.004067151323792708,17.12036573700607
1602,E,98128885057445.0,2.018285091184029,9.751389,1.6277367412124433,15,1970-01-02 03:15:28.885057445,-0.013656616,0.028457642,0.0023956299,9.823715130674415,0.03165564075152159,97.54285430908203,2.680612802505493,-91.54961395263672,17170719.0,50354.0,0.0992948913359306,-0.0016417795815000429,0.08154008478471136,0.004955141402509234,-4.284974395907296e-05,0.004114526093006977,17.17071974099963
1602,E,98128935411449.0,2.104695611184029,9.817032,1.5900170412124432,15,1970-01-02 03:15:28.935411449,-0.014801025,0.015914917,-0.0034332275,9.890718864213962,0.02200322647327592,97.52469635009766,2.6502044200897217,-91.54961395263672,17221073.0,50354.0,0.10380428514352061,-0.0007950644830000621,0.08101338698011137,0.005113427966223143,-6.135242301191914e-05,0.004092608758622942,17.221073745007743
1602,E,98128985765453.0,2.038426691184029,9.823853,1.6235558412124433,15,1970-01-02 03:15:28.985765453,-0.02381897,0.0042419434,-0.0059509277,9.89546349284635,0.0249148741951536,97.5015640258789,2.6303398609161377,-91.5503921508789,17271427.0,50354.0,0.10431139020672059,0.00102936164499994,0.08090812446081137,0.005239728358293023,5.8988996476709285e-06,0.004076697893548113,17.271427749001305
1602,E,98129036119457.0,2.021489431184029,9.779709,1.6060539412124433,15,1970-01-02 03:15:29.036119457,-0.019714355,-0.003189087,-0.009490967,9.8542516136777,0.02211118548505898,97.48246765136719,2.613851547241211,-91.55130767822266,17321781.0,50354.0,0.1022165082128606,8.96804739999681e-05,0.08131188549211138,0.005199752898509796,2.8174123430060692e-05,0.004084213190584736,17.321781752994866
1602,E,98129086473461.0,1.954930591184029,9.82399,1.6041008412124433,15,1970-01-02 03:15:29.086473461,-0.022399902,-0.0039367676,-0.0069732666,9.900907874232432,0.023788236500856662,97.4632568359375,2.6070587635040283,-91.55228424072266,17372135.0,50354.0,0.10011432690316059,9.312972299998064e-05,0.08082206695711137,0.005094083435716066,4.60261232986771e-06,0.004082046520814081,17.37213575700298
1602,E,98129136827465.0,1.9953511311840288,9.766098,1.5383354412124433,15,1970-01-02 03:15:29.136827465,-0.0234375,-0.011260986,-0.008972168,9.849896773435445,0.027506835706100765,97.45494079589844,2.594996213912964,-91.55310821533203,17422489.0,50354.0,0.09945624292406059,-0.00024955442400004273,0.07911711828261138,0.005024588236539948,-3.938304697078564e-06,0.0040267888667805,17.42248976099654
1602,E,98129187181469.0,1.875798511184029,9.762878,1.3788506412124433,15,1970-01-02 03:15:29.187181469,-0.034851074,0.0019836426,-0.007446289,9.872999707280647,0.03569284825829303,97.46934509277344,2.6003172397613525,-91.5522232055664,17472843.0,50354.0,0.09746393454590059,-0.0017881712480000331,0.07344599399721137,0.004957859308161213,-5.1303819243945916e-05,0.0038410814778690977,17.472843765004654
1602,E,98129237535472.0,1.853642751184029,9.793991,1.5184685412124432,15,1970-01-02 03:15:29.237535472,-0.045013428,-0.029312134,-0.0023498535,9.886247573659242,0.053767385201594124,97.46212005615234,2.6085715293884277,-91.55388641357422,17523197.0,50354.0,0.0938961426626406,-0.0010859091870000176,0.07294580505591136,0.004817872663879442,-7.236072311199628e-05,0.003685706324760471,17.523197767994134
1602,E,98129287889476.0,1.885411551184029,9.898544,1.7026268412124432,15,1970-01-02 03:15:29.287889476,-0.04878235,-0.061660767,-0.004776001,9.966914337198226,0.07876914398482943,97.42662048339844,2.611807107925415,-91.55841064453125,17573551.0,50354.0,0.0941381701707206,0.0023297536949999508,0.08109751844331137,0.004734139894205535,3.131627317791432e-05,0.003878348755739931,17.573551772002247
1602,E,98129338243480.0,2.009190851184029,9.763824,1.6974388412124433,15,1970-01-02 03:15:29.338243480,-0.033065796,-0.04258728,-0.0020751953,9.828536993563596,0.053956739323694845,97.39569091796875,2.59759783744812,-91.56184387207031,17623905.0,50354.0,0.0980544046844206,0.001570239135999938,0.08560345368641137,0.00483883245712789,9.819011950608421e-05,0.00419703037531003,17.62390577599581
1602,E,98129388597484.0,1.917409231184029,9.831787,1.9200340912124432,15,1970-01-02 03:15:29.388597484,-0.032989502,-0.0022888184,0.0011138916,9.878104407716934,0.033087560900929715,97.33246612548828,2.5964303016662598,-91.56475830078125,17674259.0,50354.0,0.0988600102737806,-0.00011050185300003854,0.09107711601966137,0.004957714225402632,3.6751805574088475e-05,0.004448286703489793,17.674259780003922
1602,E,98129438951488.0,1.986394211184029,9.814346,1.8046318412124434,15,1970-01-02 03:15:29.438951488,-0.020614624,0.010910034,-0.0038452148,9.86851235027794,0.023638469523229948,97.28834533691406,2.5854685306549072,-91.5661392211914,17724613.0,50354.0,0.09828605926850059,0.0011614905409999827,0.09377591418066138,0.004963546592866014,2.6460742197774597e-05,0.004654044741353526,17.724613783997484
1602,E,98129489305492.0,1.967641171184029,9.8580475,1.8404137412124433,15,1970-01-02 03:15:29.489305492,-0.023391724,0.039535522,-0.013442993,9.909278935333528,0.04786381004791312,97.23949432373047,2.577573537826538,-91.56623840332031,17774967.0,50354.0,0.0995507488218806,0.0018226511494999664,0.09177131262871138,0.004980937317291527,7.513173534171721e-05,0.0046715225293795775,17.774967788005597
1602,E,98129539659496.0,1.904149341184029,9.812134,1.6962486412124433,15,1970-01-02 03:15:29.539659496,-0.024490356,-0.014465332,1.5258789e-05,9.880915823525157,0.02844334016439704,97.21315002441406,2.5788962841033936,-91.56808471679688,17825321.0,50354.0,0.09748006972989061,0.001766959625499964,0.08904254880231137,0.004960644918677944,9.037563048217325e-05,0.00455235058924886,17.82532179199916
1602,E,98129590013500.0,1.928685481184029,9.778549,1.7660271412124433,15,1970-01-02 03:15:29.590013500,-0.0087890625,-0.03225708,0.0044555664,9.839114298921102,0.033728606578097994,97.17864227294922,2.5767905712127686,-91.57125854492188,17875675.0,50354.0,0.0964992823227606,-0.00023457410900002847,0.08716971737411137,0.0048838181466296,3.858087014891888e-05,0.004436496225523796,17.875675796007272
1602,E,98129640367504.0,2.023335751184029,9.828003,1.8148552412124435,15,1970-01-02 03:15:29.640367504,-0.0064849854,0.008331299,0.006454468,9.879786275778429,0.01237439840269571,97.13739013671875,2.560403823852539,-91.57270812988281,17926029.0,50354.0,0.09950003856733061,0.0001649597039999805,0.09015587574231138,0.004934674902049826,-1.752681874686208e-06,0.004464526457892176,17.926029800000833
1602,E,98129690721508.0,1.9792836111840288,9.731583,1.8087212412124432,15,1970-01-02 03:15:29.690721508,-0.011367798,0.021652222,-0.0030822754,9.786077404641356,0.024648447629567527,97.09922790527344,2.551724433898926,-91.57328796386719,17976383.0,50354.0,0.10077394768634061,-0.0010175032780000044,0.09123078509801137,0.005042298151908681,-2.1464489562598603e-05,0.004566771959976805,17.976383803994395
1602,E,98129741075512.0,1.986195851184029,9.779678,1.7560173412124434,15,1970-01-02 03:15:29.741075512,0.0013580322,0.01210022,-0.008178711,9.838926072539065,0.014668022672676704,97.06958770751953,2.542267084121704,-91.57395935058594,18026737.0,50354.0,0.0998388764240406,-0.002234181803000009,0.08974942328971136,0.005050829072627068,-8.186767528433734e-05,0.004556538706577695,18.02673780800251
1602,E,98129791429515.0,2.033269211184029,9.815552,1.8165489812124433,15,1970-01-02 03:15:29.791429515,0.0063934326,0.008071899,-0.006164551,9.866906224411252,0.012001384208021371,97.03165435791016,2.525986671447754,-91.57522583007812,18077091.0,50354.0,0.10119807187524059,-0.00012009429000001529,0.08994650229969138,0.005061507247331004,-5.927360919346161e-05,0.004524204318564392,18.07709181100654
1602,E,98129841783519.0,1.949101741184029,9.83252,1.6807152412124433,15,1970-01-02 03:15:29.841783519,-0.0041046143,-0.0184021,-0.009307861,9.900900676165918,0.021026683508273136,97.01343536376953,2.522440195083618,-91.57686614990234,18127445.0,50354.0,0.10026415346777061,0.0012103087439999862,0.08805062132799138,0.005072214447460993,2.7448329308357268e-05,0.00448143358157417,18.1274458150001
1602,E,98129892137523.0,1.932729061184029,9.806168,1.7432152412124433,15,1970-01-02 03:15:29.892137523,0.0020446777,-0.030044556,-0.004852295,9.868732717472417,0.030502472340796217,96.9873275756836,2.521404266357422,-91.57947540283203,18177799.0,50354.0,0.09773285411122061,0.0009740477759999679,0.08620429775601138,0.004984970659816262,5.499554410403884e-05,0.004387216097777938,18.177799819008214
1602,E,98129942491527.0,1.950810711184029,9.802948,1.7397972412124434,15,1970-01-02 03:15:29.942491527,-0.013656616,-0.036636353,-0.0025024414,9.86512794968394,0.03917891951895176,96.96163177490234,2.5177125930786133,-91.5823745727539,18228153.0,50354.0,0.0977758808489106,0.00022951353199996959,0.08769180527001137,0.004922323420091224,3.0302063051514428e-05,0.004378182185886176,18.228153823001776
1602,E,98129992845531.0,1.981328311184029,9.813004,1.7587181412124433,15,1970-01-02 03:15:29.992845531,-0.010925293,-0.009552002,-0.009536743,9.871959475382896,0.01736525946802702,96.93389129638672,2.509826183319092,-91.583984375,18278507.0,50354.0,0.0989994641661606,0.0004016235039999656,0.08808212178331137,0.004954212861444448,1.589013715537037e-05,0.004425460161421506,18.278507826995337
1602,E,98130043199535.0,2.011983211184029,9.785355,1.8260399412124433,15,1970-01-02 03:15:30.043199535,-0.0029144287,0.008743286,-0.011245728,9.836676528035207,0.014539784832491975,96.89793395996094,2.497851848602295,-91.5850601196289,18328861.0,50354.0,0.10053960419866059,-4.131545700007277e-05,0.09025345424121137,0.005023795124221103,9.071475699316303e-06,0.004489954797569409,18.32886183100345
1602,E,98130093553539.0,2.065572071184029,9.807663,1.7356774412124434,15,1970-01-02 03:15:30.093553539,-0.0012664795,0.018478394,-0.009994507,9.866187549220307,0.02104626297745529,96.875732421875,2.478109359741211,-91.58504486083984,18379215.0,50354.0,0.1026606093441806,-0.0001757858140000626,0.08967335853731137,0.005115971776368113,-5.4659586999704084e-06,0.0045300173653248675,18.379215834997012
1602,E,98130143907543.0,1.946233081184029,9.830719,1.7980095412124433,15,1970-01-02 03:15:30.143907543,-0.0029907227,-0.011672974,-0.014038086,9.887030405618068,0.018500556824494967,96.84458923339844,2.4764583110809326,-91.58686828613281,18429569.0,50354.0,0.1010052183211706,0.0009663436139999644,0.08896763715651138,0.005127694543130547,1.990387373059753e-05,0.004497644348583375,18.429569839005126
1602,E,98130194261547.0,2.013387011184029,9.888016,1.6982628412124434,15,1970-01-02 03:15:30.194261547,-0.0017242432,-0.00050354004,-0.010238647,9.951687071234504,0.010395020903068855,96.82779693603516,2.464524984359741,-91.58755493164062,18479923.0,50354.0,0.0996913550655506,0.002989391094999979,0.08802564977231138,0.0050529376281574796,9.959353276849159e-05,0.004456159985006971,18.479923842998687
1602,E,98130244615551.0,1.918340011184029,9.783569,1.7420403412124432,15,1970-01-02 03:15:30.244615551,-0.0001373291,-0.022277832,-0.009353638,9.847030148916364,0.024162185367573336,96.80677795410156,2.467336654663086,-91.58950805664062,18530277.0,50354.0,0.0989890912421606,0.0018022955449999724,0.08661651322391138,0.005002177596689245,0.00012064029453527879,0.004396965737755901,18.5302778470068
1602,E,98130294969554.0,1.849461841184029,9.873581,1.7434593412124433,15,1970-01-02 03:15:30.294969554,-0.00064086914,-0.026428223,-0.0087890625,9.93959945944384,0.02785873837454309,96.78469848632812,2.4794201850891113,-91.59172058105469,18580631.0,50354.0,0.0948619472370706,0.0014388655499999563,0.08775442550441137,0.004880587595791604,8.16027128888132e-05,0.004390137124362982,18.58063184999628
1602,E,98130345323558.0,1.888539611184029,9.785126,1.8251701912124432,15,1970-01-02 03:15:30.345323558,0.0033111572,-0.038116455,-0.0073394775,9.841634550618444,0.03895761586318063,96.75282287597656,2.486241340637207,-91.59496307373047,18630985.0,50354.0,0.0941116625662706,0.001478066138999957,0.08984738573786137,0.004757788574018722,7.343958913395082e-05,0.004471480801646701,18.630985854004393
1602,E,98130395677562.0,2.023885061184029,9.831253,1.7849785412124435,15,1970-01-02 03:15:30.395677562,0.010940552,-0.0398407,-0.012557983,9.88592802493509,0.04318194057222293,96.72726440429688,2.4732210636138916,-91.59798431396484,18681339.0,50354.0,0.0985031159762106,0.0004123740829999701,0.09089271463626138,0.00484946227936405,4.7595613469292165e-05,0.0045504935071192885,18.681339857997955
1602,E,98130446031566.0,1.9721730311840289,9.812637,1.7598625412124433,15,1970-01-02 03:15:30.446031566,0.0039520264,-0.05126953,-0.011856079,9.871830295095469,0.052770728897196764,96.70587158203125,2.4681332111358643,-91.60138702392578,18731693.0,50354.0,0.1006087545915506,0.0011050185299999828,0.08924846393221138,0.005013039565284524,3.820339381749982e-05,0.004535414452818439,18.73169386200607
1602,E,98130496385570.0,1.9324238811840289,9.8415985,1.6899010412124433,15,1970-01-02 03:15:30.496385570,0.0032958984,-0.07673645,-0.009109497,9.909613012123707,0.07734551467576276,96.69458770751953,2.468717575073242,-91.60565185546875,18782047.0,50354.0,0.0983060364626906,0.0013654871834999746,0.08685469771471138,0.005008077694372631,6.219992234878843e-05,0.004433749300784574,18.78204786599963
1602,E,98130546739574.0,1.940022761184029,9.849945,1.6798760412124434,15,1970-01-02 03:15:30.546739574,-0.004348755,-0.066101074,-0.0077667236,9.918675093203111,0.06669771847284056,96.68450164794922,2.4679980278015137,-91.60929870605469,18832401.0,50354.0,0.0974965891149006,0.002304790699499961,0.08484087760421137,0.004929722704167014,9.240658626028939e-05,0.004322779499804519,18.832401870007743
1602,E,98130597093578.0,1.915501881184029,9.811859,1.6602226412124432,15,1970-01-02 03:15:30.597093578,0.005126953,-0.07342529,-0.005874634,9.884103236664227,0.07383813502034206,96.6785888671875,2.471012830734253,-91.61317443847656,18882755.0,50354.0,0.09707054392090061,0.0015560393079999658,0.08409366452741138,0.004898616708442367,9.720411709882567e-05,0.004253264967247866,18.882755874001305
1602,E,98130647447582.0,1.881032281184029,9.831894,1.7468620412124434,15,1970-01-02 03:15:30.647447582,-0.0007171631,-0.07131958,-0.0062561035,9.896270255740285,0.07159703656780156,96.65972900390625,2.4788818359375,-91.61748504638672,18933109.0,50354.0,0.0955853406059406,0.0011015692809999704,0.08578017104941138,0.004850497204732281,6.69106114452514e-05,0.004276913558317667,18.933109877994866
1602,E,98130697801586.0,1.920552541184029,9.817001,1.8015343412124434,15,1970-01-02 03:15:30.697801586,-0.011245728,-0.06982422,-0.008056641,9.874146494180208,0.0711814411280164,96.6331558227539,2.4810473918914795,-91.62203979492188,18983463.0,50354.0,0.09571250107276061,0.001231029414999953,0.08933797572031138,0.00481630575994466,5.8727837369190076e-05,0.00440894958122131,18.98346388200298
1602,E,98130748155590.0,1.977269461184029,9.769424,1.8469139412124433,15,1970-01-02 03:15:30.748155590,-0.005279541,-0.055511475,-0.006088257,9.820128707441604,0.05609335328846328,96.60163879394531,2.475053310394287,-91.62609100341797,19033817.0,50354.0,0.0981354645536206,-0.00034177777500003087,0.09185698240661137,0.0048805102305754,2.2388688540278043e-05,0.004561945460761534,19.03381788599654
1602,E,98130798509594.0,1.965962711184029,9.800842,1.8321282012124434,15,1970-01-02 03:15:30.798509594,-0.002822876,-0.03050232,-0.008987427,9.853221218466505,0.03192387818505303,96.57282257080078,2.47066593170166,-91.6288070678711,19084171.0,50354.0,0.09927875640371059,-0.0007486129180000317,0.09262724401983138,0.004970297841042728,-2.7452766477662577e-05,0.004644759368738549,19.084171890004654
1602,E,98130848863597.0,1.923711111184029,9.812714,1.7408043412124432,15,1970-01-02 03:15:30.848863597,0.0051116943,-0.016464233,-0.010055542,9.87587931587736,0.019957813302281028,96.55818176269531,2.4723546504974365,-91.63020324707031,19134525.0,50354.0,0.0979303178257606,0.00034129941199994164,0.08995572262063137,0.004965132861875397,-1.0254932140564269e-05,0.004596891351106931,19.134525892994134
1602,E,98130899217601.0,1.949284841184029,9.789917,1.7371269412124433,15,1970-01-02 03:15:30.899217601,0.0107421875,-0.011657715,-0.009719849,9.85252135529316,0.018594955657091045,96.54507446289062,2.4703824520111084,-91.63130950927734,19184879.0,50354.0,0.0975104190927706,6.62406869999789e-05,0.08756387589761137,0.00492061143339786,1.0260637072521e-05,0.004469410931893797,19.184879897002247
1602,E,98130949571605.0,1.961720761184029,9.798584,1.7514855412124433,15,1970-01-02 03:15:30.949571605,0.013061523,-0.013244629,-0.009246826,9.859135706765569,0.020773236904763927,96.53020477294922,2.466601610183716,-91.63260650634766,19235233.0,50354.0,0.0984673880508206,-0.0002895103230000149,0.08783279647001137,0.004934133250454196,-5.621259625572907e-06,0.004415962020199638,19.23523390099581
1602,E,98130999925609.0,1.917104061184029,9.845581,1.6719414412124434,15,1970-01-02 03:15:30.999925609,0.014373779,-0.010421753,-0.007217407,9.916205800351596,0.019165318211224646,96.52650451660156,2.468912363052368,-91.63325500488281,19285587.0,50354.0,0.0976571725527606,0.0011119422049999444,0.08619162113651137,0.004937828062316364,2.0706367493112226e-05,0.004381412762079423,19.285587905003922
1602,E,98131050279613.0,1.890507991184029,9.825897,1.6535088412124432,15,1970-01-02 03:15:31.050279613,0.0059661865,-0.012771606,-0.008026123,9.899938820340719,0.01622121917684202,96.52545166015625,2.475174903869629,-91.63390350341797,19335941.0,50354.0,0.0958642486424706,0.0017996016059999313,0.08372486176061138,0.004872288821432336,7.330393852954388e-05,0.00427798728990086,19.335941908997484
1602,E,98131100633617.0,1.894170111184029,9.802811,1.7006584412124433,15,1970-01-02 03:15:31.100633617,-0.0024719238,-0.023742676,-0.008087158,9.871642609764896,0.02520371392138362,96.5175552368164,2.481011390686035,-91.6353759765625,19386295.0,50354.0,0.0952868405833206,0.0007227813159999542,0.08444786966961138,0.0048126109734377455,6.350603482719112e-05,0.004234084859218719,19.386295913005597
1602,E,98131150987621.0,1.957234671184029,9.779892,1.7317253412124434,15,1970-01-02 03:15:31.150987621,0.0021209717,-0.035079956,-0.0052490234,9.842801494698843,0.03553384415691447,96.50591278076172,2.477632522583008,-91.6375961303711,19436649.0,50354.0,0.0969668182056806,-0.00043548656900002533,0.08641712649011137,0.004840370367330683,7.23321984521721e-06,0.004301868008313339,19.43664991699916
1602,E,98131201341625.0,1.994572931184029,9.787018,1.7744194412124434,15,1970-01-02 03:15:31.201341625,0.011108398,-0.018859863,-0.006362915,9.844034906181998,0.02279424545367532,96.48875427246094,2.4688594341278076,-91.63926696777344,19487003.0,50354.0,0.0994946600048206,-0.0008331069300000352,0.08827420718711138,0.004946310636905789,-3.193937852432453e-05,0.004398203707991437,19.487003921007272
1602,E,98131251695629.0,1.940358451184029,9.789215,1.6992852412124433,15,1970-01-02 03:15:31.251695629,0.008956909,-0.00390625,-0.008865356,9.856230104404352,0.013193920755541811,96.48279571533203,2.468158721923828,-91.63967895507812,19537357.0,50354.0,0.0990697674138806,-0.0005983817590000303,0.08745746278941138,0.004999256589120641,-3.6040590722954656e-05,0.004424396254998914,19.537357925000833
1602,E,98131302049633.0,1.927602111184029,9.782806,1.6553093412124433,15,1970-01-02 03:15:31.302049633,0.0107421875,-0.011367798,-0.01071167,9.855282326959063,0.01895682720928954,96.4835205078125,2.4694764614105225,-91.64017486572266,19587711.0,50354.0,0.0973836430787406,-0.000704427283000005,0.08445862780171137,0.0049461075159727245,-3.280082325043489e-05,0.004328331412812698,19.587711928994395
1602,E,98131352403637.0,1.989110281184029,9.807907,1.7103478412124433,15,1970-01-02 03:15:31.352403637,0.012741089,0.011932373,-0.013626099,9.8716668607258,0.02214469345633059,96.47602844238281,2.461730718612671,-91.63985443115234,19638065.0,50354.0,0.0986110679026506,-0.00023381879900001234,0.08473715088191137,0.004934558838378487,-2.3622221606514438e-05,0.00425984211991757,19.63806593300251
1602,E,98131402757640.0,1.9513600411840288,9.776611,1.6910149412124433,15,1970-01-02 03:15:31.402757640,0.0155181885,0.035003662,-0.015670776,9.84415414747544,0.04137201648667795,96.47218322753906,2.4598028659820557,-91.63822174072266,19688419.0,50354.0,0.0992092213062606,-0.0003897903140000111,0.08563611077311137,0.004980521421412758,-1.570060663800159e-05,0.004289487608688508,19.68841993600654
1602,E,98131453111644.0,1.888753231184029,9.78833,1.6983086412124433,15,1970-01-02 03:15:31.453111644,0.008132935,0.041137695,-0.018951416,9.857773327513746,0.04601750482188605,96.46685791015625,2.4670767784118652,-91.63632202148438,19738773.0,50354.0,0.0966825318584106,-0.00088268044300001,0.08533299983471138,0.004931966669426927,-3.203699624898954e-05,0.004304489297773153,19.7387739400001
1602,E,98131503465648.0,1.863499931184029,9.785767,1.6332909412124432,15,1970-01-02 03:15:31.503465648,0.007080078,0.03303528,-0.020568848,9.863730915324512,0.039554199994584496,96.47103881835938,2.477921485900879,-91.63441467285156,19789127.0,50354.0,0.09447047786894061,-0.0006521598310000338,0.08387968268671138,0.004812659325905522,-3.86426735784991e-05,0.0042602677078418605,19.789127944008214
1602,E,98131553819652.0,1.8557484711840289,9.805328,1.6193596412124434,15,1970-01-02 03:15:31.553819652,0.01449585,0.031173706,-0.018325806,9.885137328157477,0.03895850072251975,96.47714233398438,2.4893674850463867,-91.63251495361328,19839481.0,50354.0,0.0936395170264206,-0.00022420118500005444,0.08189198371371137,0.004736045341480509,-2.206414129983422e-05,0.004173633244963443,19.839481948001776
1602,E,98131604173656.0,1.8526051611840288,9.831665,1.6354119412124433,15,1970-01-02 03:15:31.604173656,0.013900757,0.021438599,-0.016311646,9.909573587901734,0.030313600371535646,96.48030090332031,2.5007574558258057,-91.6312484741211,19889835.0,50354.0,0.09336521940213059,0.0009313727609999287,0.08194538413071138,0.004708218249061633,1.7804458768948836e-05,0.004124933410219032,19.889835951995337
1602,E,98131654527660.0,1.922536191184029,9.810806,1.6326500412124434,15,1970-01-02 03:15:31.654527660,0.018096924,0.016143799,-0.016830444,9.885875958656715,0.02951922677936048,96.48432922363281,2.5019469261169434,-91.6302261352539,19940189.0,50354.0,0.0950467338285706,0.001069292366999931,0.08227999653151137,0.004743647746489364,5.037074592765247e-05,0.004134702408932782,19.94018995600345
1602,E,98131704881664.0,1.995198541184029,9.790817,1.6568657412124432,15,1970-01-02 03:15:31.704881664,0.020629883,0.027313232,-0.016830444,9.860347642726147,0.03814273928438608,96.48523712158203,2.4926421642303467,-91.62877655029297,19990543.0,50354.0,0.0986368073568306,4.08622709999647e-05,0.08282013885411137,0.004876370516424846,2.7950363320923374e-05,0.004156726108603824,19.990543959997012
1602,E,98131755235668.0,2.041875171184029,9.78772,1.6071373412124432,15,1970-01-02 03:15:31.755235668,0.01991272,0.04562378,-0.021255493,9.861402048064665,0.05412801217447256,96.49336242675781,2.4768974781036377,-91.62609100341797,20040897.0,50354.0,0.10164140485629058,-0.000540373951000017,0.08217780560621137,0.0050424045488897526,-1.257620556736132e-05,0.004154153247677546,20.040897964005126
1602,E,98131805589672.0,1.910634331184029,9.790802,1.5379082412124434,15,1970-01-02 03:15:31.805589672,0.017150879,0.041992188,-0.026855469,9.877909487586498,0.05271349655173659,96.51106262207031,2.4808199405670166,-91.62312316894531,20091251.0,50354.0,0.0995123317411206,-0.0005407516060000475,0.07918281262871138,0.005064447626313022,-2.721949814859063e-05,0.00406257628530065,20.091251967998687
1602,E,98131855943676.0,1.771291071184029,9.77211,1.5251366412124434,15,1970-01-02 03:15:31.855943676,0.01953125,0.026123047,-0.02468872,9.868273369804275,0.04090741016448131,96.53057098388672,2.5049431324005127,-91.62088012695312,20141605.0,50354.0,0.0926998358554206,-0.0009337645760000618,0.07711828100481137,0.004839325743578118,-3.7123893914216754e-05,0.003935192634411202,20.1416059720068
1602,E,98131906297679.0,1.728642751184029,9.817932,1.5668999412124434,15,1970-01-02 03:15:31.906297679,0.023803711,0.025848389,-0.01689148,9.911112319884376,0.0389881772830847,96.54296112060547,2.5338797569274902,-91.61900329589844,20191959.0,50354.0,0.08811783384576061,-0.00025071256600002576,0.07784820503571138,0.004552446470066639,-2.9821581004136208e-05,0.003901591219042242,20.19195997499628
1602,E,98131956651683.0,1.6789448811840288,9.857742,1.5078484412124433,15,1970-01-02 03:15:31.956651683,0.023269653,0.01889038,-0.0095825195,9.961111597359201,0.03146661544006106,96.56275939941406,2.5684733390808105,-91.6171875,20242313.0,50354.0,0.0857928338201306,0.0019052442979999838,0.07741294002431139,0.004378548879824143,4.165614541656294e-05,0.0039090098491761935,20.242313979004393
1602,E,98132007005687.0,1.671712211184029,9.78862,1.5143944412124433,15,1970-01-02 03:15:32.007005687,0.026641846,0.011276245,-0.007904053,9.89237828705634,0.029990260309216227,96.58252716064453,2.6038949489593506,-91.61573791503906,20292667.0,50354.0,0.0843594936145506,0.0011672560739999613,0.07609100905081137,0.004283925147822969,7.735634186584262e-05,0.0038647689258643663,20.292667982997955
1602,E,98132057359691.0,1.7286885111840289,9.835556,1.4510552412124433,15,1970-01-02 03:15:32.057359691,0.024597168,-0.014190674,-0.0011138916,9.943251782668593,0.02841894890193954,96.60985565185547,2.629509210586548,-91.61526489257812,20343021.0,50354.0,0.08561188898706061,0.0006086791519999714,0.07466112665441138,0.004279369499760766,4.471272118500031e-05,0.0037954865206503933,20.34302198700607
1602,E,98132107713695.0,1.801534011184029,9.837494,1.4184776412124434,15,1970-01-02 03:15:32.107713695,0.010147095,-0.023254395,0.0045776367,9.945202305264845,0.025781489125188965,96.64037322998047,2.643732786178589,-91.61505126953125,20393375.0,50354.0,0.0888804124456606,0.0018391798499999624,0.07224622938081138,0.004393192673171622,6.162974609335233e-05,0.0036986865028988034,20.39337599099963
1602,E,98132158067699.0,1.796101861184029,9.795074,1.4212547412124432,15,1970-01-02 03:15:32.158067699,0.0020751953,-0.036102295,0.004852295,9.903171670296917,0.03648598232975497,96.6701431274414,2.6587889194488525,-91.6155014038086,20443729.0,50354.0,0.09057767835861061,0.0008199645359999424,0.07149594219231137,0.004518216352179137,6.694927820631961e-05,0.0036189966536965116,20.443729995007743
1602,E,98132208421703.0,1.857457451184029,9.795349,1.4967400412124434,15,1970-01-02 03:15:32.208421703,0.0072631836,-0.06059265,0.0053100586,9.890169769175774,0.061256997905261755,96.68852996826172,2.6647801399230957,-91.6176986694336,20494083.0,50354.0,0.0919856628074906,-0.00024112012900004897,0.07346635463711138,0.00459639724053893,1.4573565635036318e-05,0.0036497157472743765,20.494083999001305
1602,E,98132258775707.0,1.8776600911840289,9.808029,1.5234886412124433,15,1970-01-02 03:15:32.258775707,0.0011138916,-0.0569458,0.006378174,9.898330182612831,0.05731270361543614,96.70207977294922,2.6675684452056885,-91.61993408203125,20544438.0,50355.0,0.09404092192297177,8.504959499994668e-05,0.07604180765175259,0.0046836843370512155,-3.9294658697875755e-06,0.003764241756027872,20.544438002994866
1602,E,98132309129711.0,1.8568928711840291,9.793747,1.4941307412124434,15,1970-01-02 03:15:32.309129711,0.0018463135,-0.04185486,0.006668091,9.888947553411187,0.04242289024505713,96.7198486328125,2.673262357711792,-91.62123107910156,20594792.0,50354.0,0.0940248399335406,4.471435199994409e-05,0.07597460319131137,0.004734931686261412,3.26706689361625e-06,0.0038273171757958213,20.59479200700298
1602,E,98132359483715.0,1.875401791184029,9.806946,1.5354363412124432,15,1970-01-02 03:15:32.359483715,-0.0030975342,-0.04347229,0.0011138916,9.895870984533767,0.04359673692446282,96.7307357788086,2.676363229751587,-91.62287902832031,20645146.0,50354.0,0.09396798271444061,1.7447660999956655e-05,0.07627541043421138,0.004733095295808224,1.5650530012985013e-06,0.0038331985930497867,20.64514601099654
1602,E,98132409837719.0,1.8676350611840289,9.759293,1.4661614412124433,15,1970-01-02 03:15:32.409837719,-0.0028533936,-0.03074646,-0.0024261475,9.857942881417145,0.030973744514667213,96.75225830078125,2.680891513824463,-91.62337493896484,20695500.0,50354.0,0.0942384388320706,-0.0008500006970000486,0.07557122736811137,0.004738473075276513,-2.0961187787374316e-05,0.00382304279994908,20.695500015004654
1602,E,98132460191722.0,1.963734911184029,9.71463,1.4811913412124433,15,1970-01-02 03:15:32.460191722,0.003692627,-0.021209717,-0.0029449463,9.80742287126551,0.0217292498280797,96.77228546142578,2.6715939044952393,-91.62348175048828,20745854.0,50354.0,0.09646240179431059,-0.003174240629000056,0.07420550100311138,0.0048012750644504,-0.00010131832386470465,0.0037709286902022753,20.745854017994134
1602,E,98132510545726.0,1.939305591184029,9.773727,1.5346886412124434,15,1970-01-02 03:15:32.510545726,0.0070648193,0.0028686523,-0.002105713,9.860131548938927,0.007910427611597035,96.783203125,2.665583848953247,-91.62283325195312,20796208.0,50354.0,0.09826685072812061,-0.0028108358110000655,0.07593081031751138,0.004902698390757251,-0.00015068626952988309,0.0037799819101193197,20.796208022002247
1602,E,98132560899730.0,1.912831611184029,9.798019,1.5132042412124433,15,1970-01-02 03:15:32.560899730,0.008392334,0.021209717,-0.0061950684,9.88806947068346,0.023636036843521877,96.79659271240234,2.663489818572998,-91.62113952636719,20846562.0,50354.0,0.0969852583440206,-0.0007113509580000559,0.07673679910081138,0.004915862350109299,-8.867809628311606e-05,0.003843712402325112,20.84656202599581
1602,E,98132611253734.0,1.849263511184029,9.789551,1.4898125412124432,15,1970-01-02 03:15:32.611253734,0.0024261475,0.0099487305,-0.008087158,9.88573843337488,0.013048584397180813,96.81285095214844,2.6708436012268066,-91.6198501586914,20896916.0,50354.0,0.0947182688958606,-0.00031295011000004883,0.07560695353111137,0.00482651970531849,-2.5788827989038638e-05,0.0038355586600139187,20.896916030003922
1602,E,98132661607738.0,1.8243153611840288,9.729385,1.5125176412124433,15,1970-01-02 03:15:32.661607738,0.006515503,0.010543823,-0.007385254,9.824553797200984,0.014427957563108301,96.8267593383789,2.682074546813965,-91.61865234375,20947270.0,50354.0,0.0924896952696106,-0.002040948328000034,0.07558966700291136,0.004713334913794069,-5.926410097352809e-05,0.0038066773151850903,20.947270033997484
1602,E,98132711961742.0,1.877034481184029,9.818237,1.4318749412124434,15,1970-01-02 03:15:32.711961742,0.016662598,0.008483887,-0.0017242432,9.92040215619608,0.018777420625610945,96.85073852539062,2.6843907833099365,-91.61714172363281,20997624.0,50354.0,0.0931888849813006,-0.0013187209060000233,0.07413097204771138,0.004674829614977192,-8.458639230441944e-05,0.003769516529377529,20.997624038005597
1602,E,98132762315746.0,1.903111751184029,9.824585,1.5433556412124434,15,1970-01-02 03:15:32.762315746,0.0040893555,0.0051879883,-0.005508423,9.91106239510972,0.008601207761311555,96.85736846923828,2.6831376552581787,-91.61654663085938,21047978.0,50354.0,0.0951727416923306,0.0010781294939999813,0.07490738037371138,0.004742380674762014,-6.057369979925058e-06,0.0037523385989141613,21.04797804199916
1602,E,98132812669750.0,1.870198541184029,9.792145,1.4547630412124433,15,1970-01-02 03:15:32.812669750,-0.0098724365,0.006668091,-0.005218506,9.891847965185345,0.01300620024845263,96.87647247314453,2.686797618865967,-91.61526489257812,21098332.0,50354.0,0.0950006332309506,0.0004212112099999754,0.07548363406741138,0.004787995060443451,3.774890090460691e-05,0.0037863945705841474,21.098332046007272
1602,E,98132863023754.0,1.8541463111840288,9.759537,1.4087883412124433,15,1970-01-02 03:15:32.863023754,-0.0059051514,-0.007507324,-0.0050811768,9.866605328170472,0.010818922514315195,96.90251922607422,2.6929686069488525,-91.61437225341797,21148686.0,50354.0,0.0937678303480706,-0.001216502286000047,0.07209563315531138,0.004752623607529018,-2.00230434204538e-05,0.0037156032108664905,21.148686050000833
1602,E,98132913377758.0,1.863774591184029,9.842743,1.4788414412124433,15,1970-01-02 03:15:32.913377758,-0.005279541,0.008346558,-0.0031433105,9.939102417799372,0.010364313026798026,96.91631317138672,2.6968557834625244,-91.61327362060547,21199040.0,50354.0,0.0936060945589206,5.740355999997356e-05,0.07270185503211138,0.004717513307383318,-2.9182628624503847e-05,0.0036455663600947433,21.199040053994395
1602,E,98132963731762.0,1.880437191184029,9.722992,1.4487358412124434,15,1970-01-02 03:15:32.963731762,-0.011260986,0.009155273,-0.00592041,9.82370269453247,0.01567418527276059,96.93609619140625,2.699185848236084,-91.61182403564453,21249394.0,50354.0,0.09426802004468061,-0.0008626899050000334,0.07370761323961138,0.004730106583374868,-2.0274694308066507e-05,0.0036861511826771637,21.24939405800251
1602,E,98133014085765.0,1.883778861184029,9.806885,1.4282585412124433,15,1970-01-02 03:15:33.014085765,-0.0047302246,0.008087158,0.0018310547,9.909331277389164,0.009546198751220366,96.95699310302734,2.6999995708465576,-91.61042785644531,21299748.0,50354.0,0.09477166755047059,-0.00176548677100006,0.07243408756631138,0.004759452214583122,-6.616960417165435e-05,0.0036794096011907177,21.29974806100654
1602,E,98133064439769.0,1.870213811184029,9.854813,1.3903862412124433,15,1970-01-02 03:15:33.064439769,-0.004211426,-0.0042877197,-0.0016937256,9.962587802672205,0.006244145705165716,96.98185729980469,2.7026302814483643,-91.60945892333984,21350102.0,50354.0,0.0945142735122106,0.0015533705459999506,0.07096501968711137,0.004765652138135125,-5.340450196827752e-06,0.0036103593233194247,21.3501020650001
1602,E,98133114793773.0,1.867360411184029,9.796677,1.5660301412124433,15,1970-01-02 03:15:33.114793773,-0.008346558,0.0034637451,0.00019836426,9.8823204085421,0.009038910827349906,96.98182678222656,2.706028699874878,-91.60926818847656,21400456.0,50354.0,0.0941009061965606,0.001296363729999984,0.07443369526031136,0.004748764379527733,7.174775986685037e-05,0.0036607034462312624,21.400456069008214
1602,E,98133165147777.0,1.874379451184029,9.806442,1.4538933412124433,15,1970-01-02 03:15:33.165147777,-0.010620117,0.011169434,0.0002593994,9.905911879625696,0.015414617381653213,96.99765014648438,2.708109140396118,-91.60794830322266,21450810.0,50354.0,0.0942057845148406,7.852706299999678e-05,0.07603261351701138,0.004740997552040949,3.4615625495360524e-05,0.003788290256086655,21.450810073001776
1602,E,98133215501781.0,1.858235651184029,9.808838,1.5693260412124432,15,1970-01-02 03:15:33.215501781,-0.009536743,0.0048980713,-0.005065918,9.894431897036023,0.011857659747633878,96.99647521972656,2.7128546237945557,-91.60770416259766,21501164.0,50354.0,0.0939760504323206,0.00038470455999997107,0.07611559439131137,0.004737854058464678,1.1662782572270191e-05,0.0038306354305078414,21.501164076995337
1602,E,98133265855785.0,1.989461231184029,9.792435,1.4404350412124434,15,1970-01-02 03:15:33.265855785,-0.0042877197,0.026977539,-0.002960205,9.888898038917704,0.027476079858020395,97.01449584960938,2.6982626914978027,-91.6054916381836,21551518.0,50354.0,0.0968734644073806,3.205032099994051e-05,0.07577675477221138,0.004805018235119157,1.0492637638934773e-05,0.003824193674890012,21.55151808100345
1602,E,98133316209789.0,1.819753011184029,9.778015,1.4769646412124433,15,1970-01-02 03:15:33.316209789,-0.009552002,-0.011184692,-0.00079345703,9.877547640645808,0.014729821838750271,97.02672576904297,2.708857774734497,-91.60543823242188,21601872.0,50354.0,0.0959045869801006,-0.0007439803500000551,0.07345137180441139,0.004853572999782614,-1.7924262340135885e-05,0.0037571165428196317,21.601872084997012
1602,E,98133366563793.0,1.893163011184029,9.829727,1.4822594412124432,15,1970-01-02 03:15:33.366563793,-0.0031585693,0.0077819824,0.00032043457,9.924352496394294,0.008404670630694777,97.03726196289062,2.7080373764038086,-91.60453796386719,21652226.0,50354.0,0.0934800866951606,0.00019492033399996433,0.07450438472321137,0.004768137929122051,-1.3823684022834286e-05,0.0037250820820959587,21.652226089005126
1602,E,98133416917797.0,1.873280811184029,9.788086,1.5217034412124433,15,1970-01-02 03:15:33.416917797,-0.004257202,-0.008392334,0.004501343,9.879008056232419,0.010431544834779217,97.04257202148438,2.7103261947631836,-91.60472869873047,21702580.0,50354.0,0.0948277561157606,0.00044847790099996287,0.07563077349081138,0.004741026558450563,1.6198837362593167e-05,0.0037799528783544504,21.702580092998687
1602,E,98133467271801.0,1.912373831184029,9.8116,1.5055138412124434,15,1970-01-02 03:15:33.467271801,-0.0052337646,0.013916016,0.0035247803,9.902525327446497,0.015279786299675047,97.04963684082031,2.7066357135772705,-91.60372161865234,21752934.0,50354.0,0.0953114269309006,-7.905578000031666e-06,0.07621624951961137,0.004787134211565789,1.1092289376169269e-05,0.0038230524983334136,21.7529340970068
1602,E,98133517625804.0,1.8607533511840288,9.865829,1.5026909412124434,15,1970-01-02 03:15:33.517625804,-0.0032653809,0.004501343,0.0050964355,9.959056011179323,0.0075431065239325665,97.05599212646484,2.7100887298583984,-91.60320281982422,21803288.0,50354.0,0.0949960230704806,0.0019494299329999658,0.07573757180711138,0.004791370668684776,4.888175868583334e-05,0.003825741359542899,21.80328809999628
1602,E,98133567979808.0,1.900105771184029,9.803101,1.4747978412124434,15,1970-01-02 03:15:33.567979808,0.0082092285,0.028930664,0.0124053955,9.89863050683951,0.03253104040078535,97.06800842285156,2.7076783180236816,-91.60130310058594,21853642.0,50354.0,0.0946871501238606,0.0017354506099999537,0.07496423507511138,0.004775653251513928,9.277423743110898e-05,0.003794219391873723,21.853642104004393
1602,E,98133618333812.0,1.906224541184029,9.800262,1.5655724412124432,15,1970-01-02 03:15:33.618333812,0.004058838,0.05114746,0.016555786,9.88408153066822,0.05391317909787587,97.0665512084961,2.7041945457458496,-91.59893798828125,21903996.0,50354.0,0.09583197827449061,8.4670250999961e-05,0.07654740260061137,0.004796700095685289,4.5825182917394856e-05,0.0038146085017616714,21.903996107997955
1602,E,98133668687816.0,1.7360127511840289,9.891907,1.5134789412124434,15,1970-01-02 03:15:33.668687816,0.011230469,0.05558777,0.009597778,9.990505463256003,0.05751731000377317,97.07132720947266,2.7248551845550537,-91.5960464477539,21954350.0,50354.0,0.0917006083099506,0.0023205389129999595,0.07752127665531137,0.004721507932436477,6.0555951122026006e-05,0.003878987137626367,21.95435011200607
1602,E,98133719041820.0,1.795064261184029,9.800049,1.4356285412124432,15,1970-01-02 03:15:33.719041820,0.0063171387,0.05680847,0.016860962,9.906207117823442,0.05959362838979836,97.08859252929688,2.7368404865264893,-91.592529296875,22004704.0,50354.0,0.0889019259403906,0.002315176211999948,0.07424967908501137,0.00454703000482084,0.00011671339970212268,0.0038211373526741057,22.00470411599963
1602,E,98133769395824.0,1.795537311184029,9.743332,1.5472313412124432,15,1970-01-02 03:15:33.769395824,0.0058898926,0.038406372,0.022033691,9.835595610061873,0.044667927913945145,97.0903549194336,2.748893976211548,-91.5906982421875,22055058.0,50354.0,0.09040057578751061,-0.001425496563000033,0.07509946325981137,0.004514299086003369,2.2399464522870863e-05,0.0037601633568156026,22.055058120007743
1602,E,98133819749828.0,1.767415311184029,9.755478,1.5726219412124434,15,1970-01-02 03:15:33.819749828,0.009109497,0.06034851,0.032226563,9.846155258766542,0.06901794663423476,97.08839416503906,2.7640163898468018,-91.58802032470703,22105412.0,50354.0,0.08970445817336059,-0.00254766063000002,0.07854854609161137,0.004534504440032854,-0.00010003217864816234,0.003868395931440771,22.105412124001305
1602,E,98133870103832.0,1.917958551184029,9.791382,1.4726616412124434,15,1970-01-02 03:15:33.870103832,0.012390137,0.04144287,0.043777466,9.886495647285841,0.0615426153010808,97.10034942626953,2.756113290786743,-91.585693359375,22155766.0,50354.0,0.0927866577328406,-0.0013379057800000215,0.07667110475471137,0.004594578825170428,-9.782690550457105e-05,0.0039079651493578674,22.155766127994866
1602,E,98133920457836.0,1.971593191184029,9.801437,1.5206810412124434,15,1970-01-02 03:15:33.920457836,0.015426636,0.059661865,0.04914856,9.888045984323362,0.07882322109396647,97.1051025390625,2.740237236022949,-91.58285522460938,22206120.0,50354.0,0.09792724421760059,-0.000180796037000025,0.07536338871541137,0.004801603909406258,-3.8236355646610175e-05,0.0038277724420972803,22.20612013200298
1602,E,98133970811840.0,1.946233081184029,9.777023,1.5383965412124434,15,1970-01-02 03:15:33.970811840,0.017364502,0.069107056,0.056869507,9.862644663818289,0.09116716484084711,97.10774993896484,2.728154420852661,-91.5796890258789,22256474.0,50354.0,0.09863911205941059,-0.000542312580000042,0.07701839629271139,0.004948951151986311,-1.8205705650210688e-05,0.003836516201149507,22.25647413599654
1602,E,98134021165844.0,1.928838071184029,9.801758,1.5215355412124434,15,1970-01-02 03:15:34.021165844,0.022018433,0.0652771,0.05984497,9.890014898540738,0.09125421420672247,97.11253356933594,2.718601942062378,-91.57665252685547,22306828.0,50354.0,0.0975626664031706,-0.0005342307630000528,0.07703991003921137,0.004939772176352407,-2.710413174671339e-05,0.0038787259785188193,22.306828140004654
1602,E,98134071519847.0,2.071538261184029,9.796509,1.4150902412124433,15,1970-01-02 03:15:34.071519847,0.033203125,0.06402588,0.07324219,9.89365842262355,0.10279192193716452,97.13314056396484,2.6879377365112305,-91.57302856445312,22357182.0,50354.0,0.1007174749200306,-4.363174100003875e-05,0.07393542732411139,0.004992099118094237,-1.4548844263210305e-05,0.003801106068796377,22.357182142994134
1602,E,98134121873851.0,2.0481618111840287,9.764984,1.4829766412124432,15,1970-01-02 03:15:34.121873851,0.023544312,0.06109619,0.08139038,9.854063037448146,0.1044579964225518,97.14359283447266,2.661219596862793,-91.57008361816406,22407536.0,50354.0,0.10372168872201061,-0.0009694907390000242,0.07296462989881138,0.005147164823015671,-2.5507384678961585e-05,0.003698502740701527,22.407536147002247
1602,E,98134172227855.0,2.097722341184029,9.755295,1.3908898412124433,15,1970-01-02 03:15:34.172227855,0.03845215,0.04486084,0.09347534,9.855480424916657,0.11058346166241903,97.16795349121094,2.6274614334106445,-91.56741333007812,22457890.0,50354.0,0.1043809253041706,-0.0020071356170000263,0.07235533642801137,0.005239399513337165,-7.494252176501328e-05,0.003658720792210417,22.45789015099581
1602,E,98134222581859.0,2.122441581184029,9.809113,1.5050865412124432,15,1970-01-02 03:15:34.222581859,0.032913208,0.03579712,0.10292053,9.892908327248541,0.11383034989240155,97.17391967773438,2.5904016494750977,-91.56609344482422,22508244.0,50354.0,0.10625106707346062,-0.0008960997840000297,0.07291199738031137,0.005303081672091621,-7.309475769097842e-05,0.003657395663292142,22.508244155003922
1602,E,98134272935863.0,2.151570611184029,9.733215,1.3900963412124434,15,1970-01-02 03:15:34.272935863,0.0423584,0.020233154,0.12072754,9.83246439729637,0.12953282783062878,97.19821166992188,2.549459457397461,-91.56483459472656,22558598.0,50354.0,0.10760680496725061,-0.001452007944000049,0.07289201943081138,0.0053842996443689865,-5.911830826785799e-05,0.003670907731253638,22.558598158997484
1602,E,98134323289867.0,2.251591971184029,9.829712,1.2888695412124433,15,1970-01-02 03:15:34.323289867,0.04118347,0.023376465,0.13290405,9.940992232225105,0.14108870905759832,97.23435974121094,2.4941940307617188,-91.56302642822266,22608952.0,50354.0,0.1108584243362806,-0.0009333869210000314,0.06744832402181138,0.005500299078175006,-6.0057086516107034e-05,0.003533348827106683,22.608952163005597
1602,E,98134373643871.0,2.319386771184029,9.736404,1.2437035412124433,15,1970-01-02 03:15:34.373643871,0.042816162,0.0050811768,0.14633179,9.855133168716264,0.152551744830032,97.27813720703125,2.430048942565918,-91.5618896484375,22659306.0,50354.0,0.1150835317966006,-0.0008530974680000118,0.06376259249621137,0.005688540629557551,-4.497831746185409e-05,0.003303497245174259,22.65930616699916
1602,E,98134423997875.0,2.459706597184029,9.775772,1.2951561412124433,15,1970-01-02 03:15:34.423997875,0.03062439,0.022659302,0.15383911,9.88669312342643,0.15848586370901163,97.31200408935547,2.3466858863830566,-91.5604019165039,22709660.0,50354.0,0.12032323373540259,-0.0022111448480000313,0.06392087022441138,0.005926836135799245,-7.714842878993309e-05,0.0032146865409171193,22.709660171007272
1602,E,98134474351879.0,2.600011161184029,9.777542,1.2997643412124433,15,1970-01-02 03:15:34.474351879,0.035217285,0.0342865,0.15979004,9.890210932897233,0.16717858154746626,97.34455871582031,2.244750499725342,-91.55847930908203,22760014.0,50354.0,0.12738851400243262,-0.0011754134220000282,0.06533231298601137,0.006236638672795477,-8.52633775637915e-05,0.003254207393688814,22.760014175000833
1602,E,98134524705883.0,2.682896911184029,9.732651,1.2220818412124432,15,1970-01-02 03:15:34.524705883,0.036346436,0.047210693,0.15834045,9.86011207746637,0.16917922759501192,97.38851928710938,2.1332380771636963,-91.55554962158203,22810368.0,50354.0,0.1330077765380106,-0.0022610708390000105,0.06349252133491137,0.0065559974069367396,-8.652036423919797e-05,0.0032434228536978717,22.810368178994395
1602,E,98134575059887.0,2.716664611184029,9.714188,1.1541954412124433,15,1970-01-02 03:15:34.575059887,0.02456665,0.06855774,0.15647888,9.853957154167494,0.17259583973023365,97.44095611572266,2.019536256790161,-91.5512924194336,22860722.0,50354.0,0.1359447604486606,-0.0038561344970000195,0.05982753313961137,0.006771418023713421,-0.00015401287874447278,0.003104829011505059,22.86072218300251
1602,E,98134625413890.0,2.925069141184029,9.719757,1.1119744412124433,15,1970-01-02 03:15:34.625413890,0.023254395,0.08831787,0.15455627,9.876241743789171,0.1795228499229717,97.4979248046875,1.8786009550094604,-91.54602813720703,22911076.0,50354.0,0.1420419306833706,-0.004180766735000047,0.05705535912981137,0.00699887092263115,-0.00020234506231806568,0.002942760578667257,22.91107618600654
1602,E,98134675767894.0,3.121037771184029,9.656525,1.0473076412124434,15,1970-01-02 03:15:34.675767894,0.02545166,0.093688965,0.15603638,9.838416103270621,0.1837736679805658,97.5643081665039,1.7122997045516968,-91.54035186767578,22961430.0,50354.0,0.1522228337326906,-0.0056325480860000415,0.05436424498921137,0.007408703973703173,-0.0002470698272483192,0.0028052113729046357,22.9614301900001
1602,E,98134726121898.0,3.1816304111840292,9.678497,1.0309960412124433,15,1970-01-02 03:15:34.726121898,0.025024414,0.08906555,0.14712524,9.867722182167256,0.17379507972869512,97.6307373046875,1.5421559810638428,-91.5350570678711,23011784.0,50354.0,0.15868227682748062,-0.006671351106000026,0.05232545181241137,0.007827657968573432,-0.00030977526995698573,0.002686126496374456,23.011784194008214
1602,E,98134776475902.0,3.2973073111840288,9.756943,0.9643456412124434,15,1970-01-02 03:15:34.776475902,0.026016235,0.08564758,0.13830566,9.966784103065146,0.16474467527500616,97.70292663574219,1.3613078594207764,-91.52994537353516,23062138.0,50354.0,0.1631202150360606,-0.00414312712000004,0.05023671753841137,0.008102021337648379,-0.0002722761182960037,0.0025822077377456645,23.062138198001776
1602,E,98134826829906.0,3.403294911184029,9.661926,1.0168511412124432,15,1970-01-02 03:15:34.826829906,0.03237915,0.07847595,0.13795471,9.87499568317608,0.16198267220387835,97.76853942871094,1.168408751487732,-91.52555847167969,23112492.0,50354.0,0.16870106215256062,-0.00456033518700006,0.049880591391111374,0.008354264295777916,-0.00021912707050334156,0.0025206534869185943,23.112492201995337
1602,E,98134877183910.0,3.552647911184029,9.675919,1.2027031412124434,15,1970-01-02 03:15:34.877183910,0.041656494,0.095825195,0.13160706,9.87443542659811,0.16804210701786518,97.8060073852539,0.9588426947593689,-91.52104949951172,23162846.0,50354.0,0.17512977243876063,-0.006600276435000043,0.05588171816861137,0.008656628922505695,-0.00028099071880709664,0.0026627776677851395,23.16284620600345
1602,E,98134927537914.0,3.749760911184029,9.712631,1.4019066412124432,15,1970-01-02 03:15:34.927537914,0.046539307,0.10595703,0.1149292,9.906684368466442,0.16309972506139042,97.81342315673828,0.7273441553115845,-91.51652526855469,23213200.0,50354.0,0.1838527469207606,-0.005323676650000026,0.06557626049211138,0.009038102889914666,-0.0003002093668210468,0.0030579475287410168,23.213200209997012
1602,E,98134977891918.0,3.8163503111840287,9.726059,1.4663597412124434,15,1970-01-02 03:15:34.977891918,0.039154053,0.11097717,0.086761475,9.920753507414151,0.1462071327661935,97.81076049804688,0.4936118721961975,-91.51166534423828,23263554.0,50354.0,0.1904919822455606,-0.004061301870000052,0.07221434271031138,0.00942487724622047,-0.00023628560419804197,0.003469154016827398,23.263554214005126
1602,E,98135028245922.0,3.648122111184029,9.754929,1.3683678412124434,15,1970-01-02 03:15:35.028245922,0.029876709,0.100097656,0.06225586,9.93910576643229,0.12160571771797828,97.82112121582031,0.2915359139442444,-91.50707244873047,23313908.0,50354.0,0.1879330221779606,-0.0029963651240000368,0.07136993634271138,0.009527606336370995,-0.00017769088190794025,0.0036150213937179545,23.313908217998687
1602,E,98135078599926.0,3.335316951184029,9.639893,1.1338860412124434,15,1970-01-02 03:15:35.078599926,0.024520874,0.09480286,0.062423706,9.826308656221089,0.11612740674224115,97.8671875,0.1379375010728836,-91.50263214111328,23364262.0,50354.0,0.1758220452732406,-0.005165766506000003,0.06299924599781137,0.009158261333218894,-0.000205497988048511,0.0033830129037873418,23.3642622220068
1602,E,98135128953929.0,3.2842152611840287,9.603622,1.0356041412124433,15,1970-01-02 03:15:35.128953929,0.03703308,0.051635742,0.08425903,9.802648811907392,0.10553332650266391,97.92778778076172,-0.005513669922947884,-91.50059509277344,23414616.0,50354.0,0.1666599625107906,-0.008975222845000026,0.05462125432291137,0.008622669509978554,-0.00035602768889012775,0.002961331336574837,23.41461622499628
1602,E,98135179307933.0,3.694310511184029,9.611938,1.0146538412124433,15,1970-01-02 03:15:35.179307933,0.049346924,0.020721436,0.085861206,9.861717556645095,0.10117629917099313,97.989990234375,-0.20401987433433533,-91.50027465820312,23464970.0,50354.0,0.17569834337091061,-0.009679045880000037,0.05161934522351137,0.008619555067183593,-0.00046965852368932657,0.0026748195747802856,23.464970229004393
1602,E,98135229661937.0,3.9477284111840287,9.617905,1.0449272412124433,15,1970-01-02 03:15:35.229661937,0.04373169,0.037841797,0.053390503,9.899747052581711,0.07870837389400392,98.04566955566406,-0.4320647418498993,-91.49906921386719,23515324.0,50354.0,0.19240361394846062,-0.009319442789000019,0.05185407291221137,0.00926770297942981,-0.00047832494921941447,0.002605150248403092,23.515324232997955
1602,E,98135280015941.0,3.750798511184029,9.71965,1.1689964412124434,15,1970-01-02 03:15:35.280015941,0.032791138,0.03147888,0.023361206,9.94849063006579,0.05110699133351405,98.0794448852539,-0.6234360933303833,-91.49797821044922,23565678.0,50354.0,0.1938258123244606,-0.006607577765000035,0.055739956552411374,0.009724098265273338,-0.0004009945964880594,0.0027088948798308066,23.56567823700607
1602,E,98135330369945.0,3.6648457111840287,9.705139,1.0436150412124434,15,1970-01-02 03:15:35.330369945,0.020187378,0.048614502,0.03277588,9.94359896413105,0.06200934078828195,98.12993621826172,-0.7983536720275879,-91.49642181396484,23616032.0,50354.0,0.1867036745865606,-0.004411287347000023,0.05570691929301137,0.009580590891958781,-0.00027742196692482544,0.0028058979931602085,23.61603224099963
1602,E,98135380723949.0,3.712651511184029,9.640259,0.8871819412124433,15,1970-01-02 03:15:35.380723949,0.015991211,0.04902649,0.051376343,9.91521365188632,0.07279316019393765,98.20281219482422,-0.9773278832435608,-91.49547576904297,23666386.0,50354.0,0.1857432475675606,-0.006410114554000006,0.04861167562651138,0.00937709615907431,-0.00027245043566147774,0.0026264292642888243,23.666386245007743
1602,E,98135431077953.0,3.774861611184029,9.617874,0.8681847412124433,15,1970-01-02 03:15:35.431077953,0.026916504,0.011795044,0.048965454,9.905793813150542,0.0571072406614964,98.2776870727539,-1.1606906652450562,-91.4966049194336,23716740.0,50354.0,0.18851311788186062,-0.008607185459000015,0.04419486696341137,0.009422652512920078,-0.0003780905624273016,0.002336590322786485,23.716740249001305
1602,E,98135481431957.0,3.821568811184029,9.601898,0.9060417412124433,15,1970-01-02 03:15:35.481431957,0.0262146,0.008224487,0.037734985,9.889888340752703,0.046677366383756,98.34571838378906,-1.3460381031036377,-91.4979476928711,23767094.0,50354.0,0.19125532874396062,-0.009573000356000018,0.044669700148011374,0.009561430180698301,-0.0004577225382642559,0.00223734320616429,23.767094252994866
1602,E,98135531785961.0,3.844960511184029,9.597046,0.8933006412124433,15,1970-01-02 03:15:35.531785961,0.020767212,0.03312683,0.030761719,9.891078003744088,0.04974884235775547,98.41368103027344,-1.5300006866455078,-91.49821472167969,23817448.0,50354.0,0.19302020874926062,-0.010097386912000014,0.04530204316231137,0.009674905207466831,-0.0004952413402464368,0.0022652185813239957,23.81744825700298
1602,E,98135582139965.0,3.877782111184029,9.625763,0.9114281412124434,15,1970-01-02 03:15:35.582139965,0.012207031,0.042877197,0.024353027,9.920511449253665,0.050798971962772034,98.47614288330078,-1.7132751941680908,-91.49803161621094,23867802.0,50354.0,0.1944354910033606,-0.00949653780700004,0.04543765655511137,0.009754972152671746,-0.0004933162426502644,0.0022845534197855526,23.86780226099654
1602,E,98135632493969.0,3.8835957111840287,9.62532,0.9458519412124433,15,1970-01-02 03:15:35.632493969,0.004760742,0.04257202,0.022323608,9.914588919013804,0.04830512421481419,98.53179931640625,-1.8928735256195068,-91.49781799316406,23918156.0,50354.0,0.1954082094337606,-0.00878468330900005,0.04676074063521138,0.009815094845905403,-0.0004602663040375343,0.0023212790460607558,23.918156265004654
1602,E,98135682847972.0,3.8763631111840287,9.600388,1.0058190412124433,15,1970-01-02 03:15:35.682847972,-0.0037841797,0.047836304,0.019180298,9.878396547666371,0.05167703385210022,98.57778930664062,-2.0676462650299072,-91.4971923828125,23968510.0,50354.0,0.1953724832707606,-0.009423549684000013,0.04913722032451137,0.00983868550022173,-0.00045842868206476256,0.0024144229630829396,23.968510267994134
1602,E,98135733201976.0,3.859364811184029,9.587418,0.9872795412124433,15,1970-01-02 03:15:35.733201976,-0.009597778,0.057281494,0.015899658,9.866518376269518,0.06021699113976291,98.62533569335938,-2.235785961151123,-91.49629974365234,24018864.0,50354.0,0.19476242190146062,-0.010377808338000033,0.05018024300971137,0.009822426507521013,-0.0004985387909198952,0.002500515774365726,24.018864272002247
1602,E,98135783555980.0,3.777898111184029,9.614975,0.9270378412124434,15,1970-01-02 03:15:35.783555980,-0.018066406,0.049194336,0.015213013,9.892290568747867,0.05457026190862475,98.67918395996094,-2.3872337341308594,-91.49617767333984,24069218.0,50354.0,0.1922833685964606,-0.010010551439000063,0.04819676873731137,0.009744651867366163,-0.0005133177341055315,0.0024768380247547914,24.06921827599581
1602,E,98135833909984.0,3.837392111184029,9.686523,0.9706474412124433,15,1970-01-02 03:15:35.833909984,-0.020553589,0.02482605,0.012969971,9.962545430735824,0.03474194765876349,98.7235107421875,-2.5417611598968506,-91.49699401855469,24119572.0,50354.0,0.1917301619285606,-0.0075153848540000685,0.04777802235561138,0.009668308658028459,-0.0004412504980488643,0.0024163573153465163,24.119572280003922
1602,E,98135884263988.0,3.810597711184029,9.682648,1.0096031412124433,15,1970-01-02 03:15:35.884263988,-0.036880493,0.006729126,0.015045166,9.947868700755015,0.040395654724419076,98.76056671142578,-2.6888418197631836,-91.4985580444336,24169926.0,50354.0,0.1925534397577606,-0.005811581733000044,0.04985676891371137,0.00967510823965651,-0.00033553303776090183,0.002458151139787739,24.169926283997484
1602,E,98135934617992.0,3.773122111184029,9.631134,1.0997368412124433,15,1970-01-02 03:15:35.934617992,-0.050704956,-0.031402588,0.010864258,9.876673799442624,0.060622992320985315,98.78457641601562,-2.8278045654296875,-91.50144958496094,24220280.0,50354.0,0.19093531396776062,-0.007206110586000042,0.053106852737511374,0.009655096352547448,-0.00032774643951546516,0.0025923151023128353,24.220280288005597
1602,E,98135984971996.0,3.8830464111840293,9.60907,1.0950218412124433,15,1970-01-02 03:15:35.984971996,-0.043136597,-0.0655365,0.014312744,9.872352965684138,0.07975370507882341,98.80965423583984,-2.9793612957000732,-91.50617980957031,24270634.0,50354.0,0.1927593548876606,-0.009058583892000073,0.055257439347411376,0.009660280677772942,-0.00040949621287260894,0.0027282877818221004,24.27063429199916
1602,E,98136035326000.0,3.923924711184029,9.594009,1.0871941412124433,15,1970-01-02 03:15:36.035326000,-0.03463745,-0.09326172,0.015487671,9.865436292003373,0.10068450383681266,98.83609771728516,-3.133122682571411,-91.51239776611328,24320988.0,50354.0,0.1965561119478606,-0.009993280017000065,0.054941651789511374,0.009801795508517917,-0.0004796687776368965,0.002774482517554304,24.320988296007272
1602,E,98136085680004.0,3.938451111184029,9.604431,1.1125694412124434,15,1970-01-02 03:15:36.085680004,-0.019195557,-0.14143372,0.004623413,9.873600020882387,0.14280526079016564,98.8589096069336,-3.284087896347046,-91.52074432373047,24371342.0,50354.0,0.1979510360797606,-0.010110076120000044,0.05538344771471138,0.00993250646589142,-0.0005061421974612518,0.0027776550302178165,24.371342300000833
1602,E,98136136034008.0,3.902058911184029,9.573624,1.1124626412124434,15,1970-01-02 03:15:36.136034008,-0.009063721,-0.12263489,0.002166748,9.837872168032941,0.12298846320112079,98.88241577148438,-3.4268171787261963,-91.52820587158203,24421696.0,50354.0,0.1974005208331606,-0.010623309265000023,0.056019632739211386,0.009953766148396619,-0.0005220044438381467,0.002804795356588414,24.421696303994395
1602,E,98136186388012.0,3.864049211184029,9.6111145,1.1672569412124434,15,1970-01-02 03:15:36.186388012,-0.039749146,0.0385437,0.012619019,9.859436719422586,0.05678777208115914,98.89456939697266,-3.5616891384124756,-91.52725219726562,24472050.0,50354.0,0.1955273041968606,-0.010455038785500038,0.057396499926711385,0.009892743850780844,-0.00053068956886744,0.0028554779721299377,24.47205030800251
1602,E,98136236742015.0,3.900136311184029,9.625168,1.1155297412124434,15,1970-01-02 03:15:36.236742015,-0.01914978,-0.007385254,0.010848999,9.887225363659919,0.023215443781993854,98.91465759277344,-3.6974194049835205,-91.52903747558594,24522404.0,50354.0,0.1954788988966606,-0.009157315497500044,0.057473720303411385,0.009844363175285583,-0.0004937802437830931,0.0028920875347338013,24.52240431100654
1602,E,98136287096019.0,3.915593411184029,9.595825,1.0988671412124433,15,1970-01-02 03:15:36.287096019,-0.0154418945,-0.01902771,0.005432129,9.863900272261235,0.025100077272109566,98.93757629394531,-3.832207202911377,-91.53156280517578,24572758.0,50354.0,0.19677662722006062,-0.009542259239000036,0.055751870308811374,0.00987581738104069,-0.00047079919314086256,0.002850680694843933,24.5727583150001
1602,E,98136337450023.0,3.920811911184029,9.616104,1.1226708412124433,15,1970-01-02 03:15:36.337450023,-0.020492554,-0.023956299,0.0027313232,9.880460865232854,0.0316434694311982,98.9557876586914,-3.963844060897827,-91.53407287597656,24623112.0,50354.0,0.19729717680126063,-0.009770463567000046,0.05593166178351138,0.009921596163844805,-0.00048623642208666415,0.0028118562874884104,24.623112319008214
1602,E,98136387804027.0,3.919484411184029,9.641296,1.1065880412124434,15,1970-01-02 03:15:36.387804027,-0.02406311,-0.02508545,0.0051574707,9.907455946012776,0.03514132280657571,98.97506713867188,-4.09150505065918,-91.53678894042969,24673466.0,50354.0,0.1973951405082606,-0.008625640200000024,0.056126050882811376,0.009937168472901818,-0.00046315870454176084,0.002821277031800008,24.673466323001776
1602,E,98136438158031.0,3.912968911184029,9.626099,1.0805718412124432,15,1970-01-02 03:15:36.438158031,-0.028213501,-0.033416748,0.0028381348,9.89604478267364,0.043826198725368325,98.9977798461914,-4.215116024017334,-91.5401840209961,24723820.0,50354.0,0.1971976772972606,-0.008373996085000024,0.05506612435981137,0.009934663373889608,-0.0004279998427474463,0.002799485396083513,24.723820326995337
1602,E,98136488512035.0,3.950383511184029,9.6147,1.1793572412124433,15,1970-01-02 03:15:36.488512035,-0.025909424,-0.038528442,-0.00047302246,9.874538278389585,0.046432346970692796,99.00621032714844,-4.34141206741333,-91.54283142089844,24774174.0,50354.0,0.19797562393796062,-0.00904360357700006,0.056898234508211375,0.009949278205199166,-0.00043852290669017617,0.002818926663220209,24.77417433100345
1602,E,98136538866039.0,3.918660411184029,9.643509,1.1678978412124432,15,1970-01-02 03:15:36.538866039,-0.03514099,-0.027511597,0.003982544,9.899382574163633,0.044806671427170805,99.01488494873047,-4.459644317626953,-91.54500579833984,24824528.0,50354.0,0.1981189188334606,-0.008605272007000061,0.05909684121021137,0.009972472303356072,-0.00044434574057837105,0.0029204080213627295,24.824528334997012
1602,E,98136589220043.0,3.8352559111840288,9.6228485,1.0771843412124433,15,1970-01-02 03:15:36.589220043,-0.024429321,-0.023208618,-0.00039672852,9.881537037231539,0.033698502452031105,99.0373764038086,-4.562970161437988,-91.5479965209961,24874882.0,50354.0,0.1952203512482606,-0.008400117222500041,0.05652443410691138,0.009903102802847496,-0.0004281446846311241,0.0029109968486591997,24.874882339005126
1602,E,98136639574047.0,3.942494711184029,9.594574,1.1508843412124432,15,1970-01-02 03:15:36.639574047,-0.008712769,-0.034744263,-0.0017852783,9.858302170074879,0.035864514128438725,99.05025482177734,-4.679786205291748,-91.55077362060547,24925236.0,50354.0,0.1958204274193606,-0.009632153717500046,0.05609608521741138,0.0098452336845147,-0.00045399848545638223,0.0028354468150284745,24.925236342998687
1602,E,98136689928051.0,3.861806211184029,9.592285,1.1783806412124433,15,1970-01-02 03:15:36.689928051,-0.013519287,-0.030685425,-0.00390625,9.838935351661522,0.03375833552593335,99.05865478515625,-4.7822136878967285,-91.55299377441406,24975590.0,50354.0,0.19648888432246062,-0.010401650957000033,0.05864390446251137,0.009877171541723833,-0.0005043911002898886,0.002888808720171415,24.9755903470068
1602,E,98136740282054.0,3.927998811184029,9.631073,1.1839806412124434,15,1970-01-02 03:15:36.740282054,-0.0076904297,-0.05091858,-0.00093078613,9.88615746017428,0.051504474184354526,99.06550598144531,-4.890705108642578,-91.55610656738281,25025944.0,50354.0,0.1961239210481606,-0.00948271563400001,0.05947717000761138,0.009884812600816131,-0.0005006286976616081,0.0029739342919342807,25.02594434999628
1602,E,98136790636058.0,3.856343511184029,9.576706,1.2448784412124434,15,1970-01-02 03:15:36.790636058,-0.0053253174,-0.05807495,-0.007080078,9.812367771430837,0.05874679844382438,99.0648422241211,-4.98729133605957,-91.55887603759766,25076298.0,50354.0,0.1959863866502606,-0.009874948117000027,0.061151385118211374,0.00987216121692315,-0.00048736790025892795,0.00303706513240284,25.076298354004393
1602,E,98136840990062.0,3.961736011184029,9.646851,1.2603050412124432,15,1970-01-02 03:15:36.840990062,-0.0042266846,-0.061401367,-0.0050811768,9.895018282321931,0.06175606115879982,99.0604248046875,-5.09510612487793,-91.56147766113281,25126652.0,50354.0,0.1968357881346606,-0.009477705411000048,0.06307300453701137,0.009890083894559962,-0.0004872417578744579,0.003127597458349543,25.126652357997955
1602,E,98136891344066.0,3.931081111184029,9.601822,1.2793785412124432,15,1970-01-02 03:15:36.891344066,-0.002090454,-0.047531128,-0.008270264,9.843273030869943,0.04829053109573549,99.05445098876953,-5.1969122886657715,-91.56322479248047,25177006.0,50354.0,0.1987174566898606,-0.008845359879000033,0.06394161355471137,0.009958844044946971,-0.000461319814806332,0.0031978470396953037,25.17700636200607
1602,E,98136941698070.0,3.944508811184029,9.558121,1.3006951412124432,15,1970-01-02 03:15:36.941698070,0.0075531006,-0.04611206,-0.013671875,9.799599093253939,0.048685640307311824,99.04698944091797,-5.298942565917969,-91.5646743774414,25227360.0,50354.0,0.1982837274754606,-0.011079315089000032,0.06495851510241137,0.009995298813730293,-0.0005016435416693377,0.0032453185392003797,25.22736036599963
1602,E,98136992052074.0,4.007909111184029,9.622635,1.2979942412124432,15,1970-01-02 03:15:36.992052074,0.00881958,-0.031158447,-0.016052246,9.873339237260922,0.03614288882301365,99.03866577148438,-5.405973434448242,-91.56525421142578,25277714.0,50354.0,0.2002180260314606,-0.010555306188000022,0.06542720258131138,0.010033078648043755,-0.0005446948598910304,0.003282721214123088,25.277714370007743
1602,E,98137042406078.0,3.958150211184029,9.610077,1.3473870412124433,15,1970-01-02 03:15:37.042406078,0.014556885,-0.02079773,-0.024353027,9.845641945322294,0.03517837969717841,99.02393341064453,-5.503377437591553,-91.56462097167969,25328068.0,50354.0,0.2005614755592606,-0.009247209976000008,0.06660276454761137,0.010090425511549588,-0.0004985679494610288,0.0033241184824048878,25.328068374001305
1602,E,98137092760082.0,3.8796437111840287,9.681854,1.2778526412124434,15,1970-01-02 03:15:37.092760082,0.005508423,0.0013427734,-0.025360107,9.913555840540173,0.02598616538472203,99.01744079589844,-5.585390567779541,-91.56370544433594,25378422.0,50354.0,0.1973321375834606,-0.007756253213000038,0.06609565948441139,0.010017767498094292,-0.0004280961927094541,0.003340948221854237,25.378422377994866
1602,E,98137143114086.0,3.834172511184029,9.654022,1.2421471412124434,15,1970-01-02 03:15:37.143114086,0.0011291504,0.011917114,-0.029067993,9.88492486941322,0.031436297551761166,99.0165786743164,-5.659244060516357,-91.56279754638672,25428776.0,50354.0,0.1942107510305606,-0.006649849948000062,0.06344603452211138,0.009857875306635212,-0.00036270245928449955,0.003261471230002224,25.42877638200298
1602,E,98137193468090.0,3.804478911184029,9.6844635,1.2236534412124433,15,1970-01-02 03:15:37.193468090,-0.03590393,0.041229248,-0.038116455,9.913141775879264,0.06664688456227665,99.01570892333984,-5.7260894775390625,-91.56057739257812,25479130.0,50354.0,0.19231832686096062,-0.006584150566500059,0.06208146126371138,0.009731642594074831,-0.0003331924309535696,0.0031604057613996597,25.47913038599654
1602,E,98137243822094.0,3.767903611184029,9.622452,1.2942101412124434,15,1970-01-02 03:15:37.243822094,-0.069992065,0.052856445,-0.049118042,9.836441145668209,0.1005249968461378,99.0042953491211,-5.787083148956299,-91.5567855834961,25529484.0,50354.0,0.19064987476566062,-0.0073789884565000664,0.06339225141471137,0.009641990412353444,-0.0003515499511820742,0.0031590516641046497,25.529484390004654
1602,E,98137294176097.0,3.7537892111840288,9.628067,1.2609917412124434,15,1970-01-02 03:15:37.294176097,-0.07192993,0.031692505,-0.03907776,9.844951969370666,0.08778041370144896,98.99787139892578,-5.844631671905518,-91.55463409423828,25579838.0,50354.0,0.18937366018876062,-0.008798883137000066,0.06433231779381138,0.009567852539547464,-0.0004073102731095529,0.0032157214789629777,25.579838392994134
1602,E,98137344530101.0,3.898213711184029,9.563843,1.1501213412124434,15,1970-01-02 03:15:37.344530101,-0.0388031,0.029083252,-0.021896362,9.821475215339692,0.053206830250829146,99.01080322265625,-5.923346519470215,-91.5545654296875,25630192.0,50354.0,0.1926544775764606,-0.010274481930000036,0.06070459407621138,0.009618322424514976,-0.0004802101122918616,0.0031480543301515627,25.630192397002247
1602,E,98137394884105.0,3.862706511184029,9.593674,1.1855522412124433,15,1970-01-02 03:15:37.394884105,-0.0017547607,0.05734253,-0.02027893,9.839271018540082,0.06084800681912321,99.0193099975586,-5.994750499725342,-91.552490234375,25680546.0,50354.0,0.19539668843856062,-0.011140394491000027,0.05880525378471138,0.00976996420676019,-0.0005391623436515185,0.003008899439594452,25.68054640099581
1602,E,98137445238109.0,3.8094075111840286,9.57724,1.1177727412124434,15,1970-01-02 03:15:37.445238109,0.026031494,0.06718445,-0.022018433,9.826377369688853,0.07534056273648362,99.03911590576172,-6.056818008422852,-91.55096435546875,25730900.0,50354.0,0.19316081474116062,-0.010803098222000042,0.057990813082511375,0.009782712257555844,-0.0005524713160352028,0.0029405745755160676,25.730900405003922
1602,E,98137495592113.0,3.781316111184029,9.629059,1.0708672412124434,15,1970-01-02 03:15:37.495592113,0.03593445,0.07237244,-0.021255493,9.88074774639525,0.08355148563029353,99.06438446044922,-6.112131595611572,-91.54973602294922,25781254.0,50354.0,0.19111164864036062,-0.009912210077000048,0.05510338883751137,0.00967482781055656,-0.0005215493170439254,0.0028473727217404126,25.781254408997484
1602,E,98137545946117.0,3.796681711184029,9.606766,1.0575768412124433,15,1970-01-02 03:15:37.545946117,0.03996277,0.08540344,-0.021972656,9.863552019922945,0.09681718939114498,99.09160614013672,-6.168756008148193,-91.54806518554688,25831608.0,50354.0,0.1907912511737606,-0.009168833975000032,0.05358783666321137,0.009615169308620131,-0.000480403446097206,0.0027365189844316966,25.831608413005597
1602,E,98137596300121.0,3.7345479111840287,9.659668,1.0502373412124433,15,1970-01-02 03:15:37.596300121,0.039871216,0.080566406,-0.021652222,9.907522766032587,0.09246338928793804,99.11790466308594,-6.213934421539307,-91.54656219482422,25881962.0,50354.0,0.1896137682023606,-0.008398191182000029,0.05306843767091137,0.009577457172832603,-0.0004422849923777905,0.0026852850189102084,25.88196241699916
1602,E,98137646654125.0,3.712788911184029,9.650894,1.1207634412124434,15,1970-01-02 03:15:37.646654125,0.02760315,0.067352295,-0.024902344,9.883962980963174,0.07693108778890274,99.13311004638672,-6.2550048828125,-91.5445556640625,25932316.0,50354.0,0.1875015991767606,-0.0072871805260000585,0.05465928669911138,0.009494633604504135,-0.0003949106034923182,0.0027122609164640633,25.932316421007272
1602,E,98137697008129.0,3.700948011184029,9.662643,1.1194054412124432,15,1970-01-02 03:15:37.697008129,0.0101623535,0.052246094,-0.027282715,9.894046055727557,0.059810319382921064,99.14704895019531,-6.292881488800049,-91.54324340820312,25982670.0,50354.0,0.1866556544944606,-0.007212278951000076,0.056400731952811374,0.009420157175680337,-0.0003650528912524324,0.0027961580895994593,25.982670425000833
1602,E,98137747362133.0,3.705464611184029,9.703033,1.2262322412124433,15,1970-01-02 03:15:37.747362133,-0.0026855469,0.03543091,-0.025939941,9.916934403973007,0.04399365959617,99.14381408691406,-6.329941272735596,-91.54096984863281,26033024.0,50354.0,0.18647125059336062,-0.005899575348000067,0.05905611993041137,0.009394216089396074,-0.0003301171556859266,0.002906857159863899,26.033024428994395
1602,E,98137797716137.0,3.659612011184029,9.645233,1.2609612412124434,15,1970-01-02 03:15:37.797716137,-0.00932312,0.027511597,-0.022979736,9.848846936040056,0.03703885530972177,99.13667297363281,-6.360790729522705,-91.53870391845703,26083378.0,50354.0,0.1854305341213606,-0.006337906918000065,0.06262007030701137,0.009363371233762538,-0.00030810309101108533,0.0030634414416075926,26.08337843300251
1602,E,98137848070140.0,3.681126911184029,9.647629,1.2446495412124434,15,1970-01-02 03:15:37.848070140,-0.00289917,0.026672363,-0.018966675,9.856569954673548,0.03285658069927992,99.13233184814453,-6.394062042236328,-91.53677368164062,26133732.0,50354.0,0.1848177838484606,-0.0077328134260000484,0.06308376266911138,0.009321741901526188,-0.00035425852610089086,0.0031648454028398425,26.13373243600654
1602,E,98137898424144.0,3.677449511184029,9.640244,1.1998955412124432,15,1970-01-02 03:15:37.898424144,-0.005554199,0.020812988,-0.018417358,9.85587108819237,0.028341289168277245,99.13463592529297,-6.425956726074219,-91.53589630126953,26184086.0,50354.0,0.1852668785859606,-0.007858421479000052,0.061546311540211375,0.009317621546111422,-0.0003925405212031876,0.0031378113783681193,26.1840864400001
1602,E,98137948778148.0,3.666844611184029,9.626678,1.1750847412124432,15,1970-01-02 03:15:37.948778148,-0.0031585693,0.013839722,-0.016235352,9.845169970660068,0.021566203180534364,99.14095306396484,-6.455760478973389,-91.53582000732422,26234440.0,50354.0,0.18490729311886062,-0.008385904806000056,0.059794878570611366,0.009319875121012285,-0.0004089834028774478,0.0030550071434201844,26.234440444008214
1602,E,98137999132152.0,3.668217911184029,9.65715,1.2024285412124434,15,1970-01-02 03:15:37.999132152,0.006942749,0.0015716553,-0.012817383,9.870775132172431,0.014661417770042163,99.14302062988281,-6.484593391418457,-91.53584289550781,26284794.0,50354.0,0.1846748691256606,-0.007960262444000043,0.059858651911611375,0.009304970098830311,-0.0004115474528532525,0.003012516936950922,26.284794448001776
1602,E,98138049486156.0,3.6838582111840292,9.660736,1.2011925412124433,15,1970-01-02 03:15:38.049486156,0.009109497,-0.0066375732,-0.008285522,9.876568735281225,0.01398893092380012,99.14527893066406,-6.515036582946777,-91.53629302978516,26335148.0,50354.0,0.1851032205328606,-0.007102784178000044,0.06051596799221138,0.00930990296333259,-0.0003792423248020962,0.0030306718053185458,26.335148451995337
1602,E,98138099840160.0,3.687917011184029,9.673386,1.2444969412124434,15,1970-01-02 03:15:38.099840160,0.0013275146,-0.013336182,-0.008956909,9.882718065589026,0.01611962357453232,99.14061737060547,-6.545108795166016,-91.53634643554688,26385502.0,50354.0,0.1855991847735606,-0.0066940104060000186,0.06157512409901137,0.009333174458399766,-0.0003473618972413696,0.003073887425580715,26.38550245600345
1602,E,98138150194164.0,3.656133011184029,9.642868,1.2661034412124432,15,1970-01-02 03:15:38.150194164,-0.0056762695,-0.010543823,-0.009719849,9.8452852288751,0.01542296026950599,99.13325500488281,-6.570488452911377,-91.53598022460938,26435856.0,50354.0,0.1849011474131606,-0.007143873042000018,0.06320938582831137,0.00932808686346508,-0.00034839639157029697,0.003141699606440205,26.435856459997012
1602,E,98138200548168.0,3.6591847111840288,9.662872,1.2444969412124434,15,1970-01-02 03:15:38.200548168,-0.003921509,-0.0051727295,-0.009017944,9.86859449112257,0.011111196033928445,99.12881469726562,-6.595305442810059,-91.5356674194336,26486210.0,50354.0,0.1841777542960606,-0.007408584020000033,0.06320938582831137,0.009292299508333062,-0.00036638721144997534,0.003182845413998791,26.486210464005126
1602,E,98138250902172.0,3.6134236111840288,9.665604,1.2305809412124433,15,1970-01-02 03:15:38.250902172,-0.0062713623,-0.007797241,-0.008865356,9.867496155876717,0.013368675675498987,99.1263198852539,-6.6128129959106445,-91.53573608398438,26536564.0,50354.0,0.1831024597322606,-0.0068361597480000305,0.06231503584581138,0.009247013948591044,-0.00035863991384693764,0.0031603283644893888,26.536564467998687
1602,E,98138301256176.0,3.670308411184029,9.654907,1.2086998412124432,15,1970-01-02 03:15:38.301256176,-0.0050354004,-0.011199951,-0.00491333,9.867865503944458,0.013226298472347475,99.12738037109375,-6.638369560241699,-91.5363998413086,26586918.0,50354.0,0.1833825211271606,-0.007036694553000042,0.06141377225911138,0.009226992363097649,-0.00034927685273627887,0.0031151202016576405,26.5869184720068
1602,E,98138351610179.0,3.680684411184029,9.61058,1.2062279412124433,15,1970-01-02 03:15:38.351610179,-0.0046691895,-0.012893677,-0.002090454,9.826284530443068,0.013871490009849528,99.12984466552734,-6.665757179260254,-91.5373306274414,26637272.0,50354.0,0.1850759462887606,-0.008422033801000029,0.060800636778111365,0.009276678834130648,-0.00038920440376865977,0.0030769921763301573,26.63727247499628
1602,E,98138401964183.0,3.674458811184029,9.610306,1.1832329412124434,15,1970-01-02 03:15:38.401964183,-0.0029296875,-0.0137786865,-0.0012207031,9.828862120384866,0.014139497394578355,99.13565826416016,-6.691524982452393,-91.53868103027344,26687626.0,50354.0,0.18518044090956062,-0.009544953178000033,0.060159456636811375,0.009321945060492134,-0.0004523548311702846,0.00304541227190751,26.687626479004393
1602,E,98138452318187.0,3.690190611184029,9.649536,1.1609551412124433,15,1970-01-02 03:15:38.452318187,-0.0015869141,-0.012084961,-0.001876831,9.872938728867878,0.012332358790388027,99.14368438720703,-6.718072414398193,-91.54020690917969,26737980.0,50354.0,0.1854197785069606,-0.00856415796600006,0.059019623351211366,0.009330601724249755,-0.0004559330912724904,0.0030005716968584486,26.737980482997955
1602,E,98138502672191.0,3.7117513111840292,9.630157,1.1595970412124432,15,1970-01-02 03:15:38.502672191,0.00036621094,-0.013793945,-0.00050354004,9.857160941936517,0.013807989777208119,99.15227508544922,-6.747488021850586,-91.5418930053711,26788334.0,50354.0,0.1863586917794606,-0.008064369339000036,0.05842454229691137,0.009360266546401227,-0.0004186564319579875,0.0029568917585227864,26.78833448700607
1602,E,98138553026195.0,3.707005811184029,9.636444,1.2207390412124433,15,1970-01-02 03:15:38.553026195,0.0007324219,-0.013000488,-0.0010070801,9.85286372205055,0.01305999006146481,99.15167999267578,-6.77553129196167,-91.54244232177734,26838688.0,50354.0,0.18678204806986062,-0.008393986623000045,0.059929721547211365,0.00939456440718636,-0.0004143720280552761,0.0029798053008034783,26.83868849099963
1602,E,98138603380199.0,3.6988729111840293,9.668243,1.2869469412124432,15,1970-01-02 03:15:38.603380199,0.0038452148,-0.0073242188,-0.0035247803,9.872707302786916,0.008991881563481616,99.14094543457031,-6.801215648651123,-91.5414810180664,26889042.0,50354.0,0.1864578085930606,-0.007435095401000049,0.06313600997951138,0.009397059871202368,-0.0003985287981182504,0.0030984259226482986,26.889042495007743
1602,E,98138653737249.0,3.680425011184029,9.641174,1.2492577412124433,15,1970-01-02 03:15:38.653737249,0.005218506,-0.004135132,-0.00440979,9.84944574480724,0.007986136072817692,99.1365737915039,-6.823992729187012,-91.54110717773438,26939399.0,50357.0,0.18579965273834417,-0.0073164440655000395,0.063857829596435,0.009372884490132776,-0.0003714216364572725,0.0031975143897629665,26.9393995450082
1602,E,98138704091253.0,3.700230911184029,9.651291,1.1667534412124434,15,1970-01-02 03:15:38.704091253,0.005996704,-0.005355835,-0.0040893555,9.875072552192993,0.009020435456019917,99.14402770996094,-6.848599433898926,-91.54218292236328,26989753.0,50354.0,0.18582277415746062,-0.007742808695000037,0.060827913539911384,0.009356337841955678,-0.00037914680675111043,0.0031392129549437935,26.98975354900176
1602,E,98138754445257.0,3.709325111184029,9.662476,1.1871239412124432,15,1970-01-02 03:15:38.754445257,0.0027008057,-0.011871338,-0.0034942627,9.88396477886027,0.012666210528646986,99.14796447753906,-6.873719692230225,-91.54318237304688,27040107.0,50354.0,0.1865503919751606,-0.007206488241000028,0.059263570857311376,0.009375239203721006,-0.00037637844895767363,0.0030235433026688774,27.040107552995323
1602,E,98138804799261.0,3.709325111184029,9.642624,1.2249657412124433,15,1970-01-02 03:15:38.804799261,0.0005645752,-0.013092041,-0.0045166016,9.858563324788642,0.013860734926953137,99.14672088623047,-6.898665904998779,-91.54364776611328,27090461.0,50354.0,0.1867793566485606,-0.007424697300000049,0.06072918193441137,0.009399323081099429,-0.00036836935836575895,0.003021057537037204,27.090461557003437
1602,E,98138855153265.0,3.714848811184029,9.631989,1.2305046412124434,15,1970-01-02 03:15:38.855153265,-0.0010986328,-0.004562378,-0.0051574707,9.848055083406102,0.006972932744941566,99.14481353759766,-6.924043655395508,-91.54360961914062,27140815.0,50354.0,0.1869184268434606,-0.008192268499000024,0.06182137781831137,0.009408589094978619,-0.0003931883479214249,0.0030854554428943006,27.140815560996998
1602,E,98138905507268.0,3.7164967111840292,9.646515,1.2075249412124434,15,1970-01-02 03:15:38.905507268,-0.0061187744,0.0053253174,-0.008453369,9.86609927977953,0.011715709667749501,99.1456298828125,-6.948577880859375,-91.54341888427734,27191169.0,50354.0,0.18709898621666063,-0.008094304791999995,0.06138227079671138,0.009416636408614674,-0.00041004705574750755,0.003101898261180428,27.19116956400103
1602,E,98138955861272.0,3.707997611184029,9.658096,1.1850029412124432,15,1970-01-02 03:15:38.955861272,-0.0113220215,0.009460449,-0.0074768066,9.87984104628613,0.016540583516365642,99.14910888671875,-6.971064567565918,-91.54338836669922,27241523.0,50354.0,0.18692649355426064,-0.007437008853000003,0.06023667449581137,0.009416839504192484,-0.000391031883640165,0.0030620001856298453,27.24152356799459
1602,E,98139006215276.0,3.698384611184029,9.65863,1.1697136412124434,15,1970-01-02 03:15:39.006215276,-0.012161255,0.0068206787,-0.0050811768,9.881515221154116,0.014840355075823385,99.15467834472656,-6.991641044616699,-91.54375457763672,27291877.0,50354.0,0.1864704852125606,-0.007131989498000012,0.05928469939571138,0.009401015734412259,-0.0003668036714831274,0.003009189630466868,27.291877572002704
1602,E,98139056569280.0,3.717580111184029,9.638779,1.2163902412124432,15,1970-01-02 03:15:39.056569280,-0.008010864,0.0021972656,-0.0056915283,9.85728535018498,0.010069528913168691,99.15406036376953,-7.01493501663208,-91.54357147216797,27342231.0,50354.0,0.1867117438150606,-0.007618333607000035,0.060074937447811366,0.00939560898022842,-0.0003713688848145862,0.0030051175768093723,27.342231575996266
1602,E,98139106923284.0,3.707738211184029,9.615814,1.2173821412124433,15,1970-01-02 03:15:39.106923284,-0.005279541,0.0038757324,-0.005508423,9.833317316044697,0.008557895696607885,99.15399169921875,-7.036714553833008,-91.54336547851562,27392585.0,50354.0,0.18694723940226063,-0.00869631203900004,0.061275087272311374,0.009407612220462496,-0.0004107538334293439,0.0030552295723785304,27.39258558000438
1602,E,98139157277288.0,3.731694511184029,9.61467,1.2089897412124433,15,1970-01-02 03:15:39.157277288,-0.004638672,0.0018157959,-0.0037841797,9.836845382702455,0.006255750049029524,99.15521240234375,-7.061459541320801,-91.54342651367188,27442939.0,50354.0,0.1873025976510606,-0.009303304332000021,0.061088764883811375,0.00942248814749147,-0.00045317634137266854,0.0030807547057347027,27.44293958399794
1602,E,98139207631292.0,3.732289611184029,9.615524,1.1781365412124434,15,1970-01-02 03:15:39.207631292,0.002380371,-0.0042266846,-0.004257202,9.842701015150922,0.006454052810004126,99.1612319946289,-7.0854878425598145,-91.54432678222656,27493293.0,50354.0,0.1879207282488606,-0.009310605662000013,0.060100678412611366,0.009446997676182317,-0.00046864241191893886,0.0030511866138740354,27.493293588006054
1602,E,98139257985296.0,3.719884211184029,9.6137085,1.1676689412124432,15,1970-01-02 03:15:39.257985296,0.0071411133,0.0016784668,-0.0030212402,9.840898597627822,0.007933513868913016,99.16886138916016,-7.107240200042725,-91.54512023925781,27543647.0,50354.0,0.18762338032576062,-0.009334813347500031,0.059060344631011376,0.00945507402158324,-0.00046943571440218263,0.00300011707716929,27.543647591999616
1602,E,98139308339300.0,3.718480411184029,9.647827,1.1847893412124433,15,1970-01-02 03:15:39.308339300,0.0054473877,0.0017089844,-0.0032653809,9.871277444030213,0.006577033742929974,99.17291259765625,-7.127608776092529,-91.54547119140625,27594001.0,50354.0,0.1872757060973606,-0.00852152071650006,0.059227842176611374,0.009438834298874923,-0.00044956892272933035,0.0029781416792555183,27.59400159600773
1602,E,98139358693304.0,3.727986611184029,9.677231,1.2064568412124432,15,1970-01-02 03:15:39.358693304,0.00289917,-0.006958008,-0.005432129,9.897887283941127,0.009291237134505017,99.1729965209961,-7.148144245147705,-91.54576110839844,27644355.0,50354.0,0.1874797002221606,-0.006922214734000029,0.06020440513491137,0.009435216864906585,-0.00038882692743724077,0.003006945690562208,27.64435560000129
1602,E,98139409047308.0,3.712209011184029,9.6401825,1.1840264412124433,15,1970-01-02 03:15:39.409047308,0.008071899,-0.009399414,-0.0046691895,9.863064939844607,0.013240312216730664,99.17745208740234,-7.1665825843811035,-91.54668426513672,27694709.0,50354.0,0.18732180518436062,-0.007114680310500019,0.060185197601611375,0.009436377501619986,-0.0003534069065353777,0.0030310490280974333,27.694709603994852
1602,E,98139459401311.0,3.753819711184029,9.653915,1.1980034412124434,15,1970-01-02 03:15:39.459401311,0.0055389404,-0.010559082,-0.006225586,9.880052118971847,0.013451096404415224,99.17932891845703,-7.190218925476074,-91.54735565185547,27745063.0,50354.0,0.18797220514306062,-0.00770170724250005,0.059972366349811373,0.009448777298013486,-0.0003730321894218828,0.0030252069876049704,27.745063606998883
1602,E,98139509755315.0,3.737935311184029,9.660095,1.2454125412124433,15,1970-01-02 03:15:39.509755315,-0.0012359619,-0.0104522705,-0.007217407,9.876437222135472,0.012761995307438052,99.17383575439453,-7.210965633392334,-91.54713439941406,27795417.0,50354.0,0.1886199161981606,-0.007200370230000044,0.061517884189511374,0.009481459839007927,-0.0003751896045251349,0.003058760037828529,27.795417611006997
1602,E,98139560109319.0,3.699208511184029,9.6410675,1.2930352412124433,15,1970-01-02 03:15:39.560109319,-0.003921509,-0.0016479492,-0.0048980713,9.845227687982966,0.006487300814880202,99.16181945800781,-7.226337909698486,-91.54569244384766,27845771.0,50354.0,0.1872449700157606,-0.007523831737500031,0.06391049981811137,0.009463150240207895,-0.00037071123293574943,0.003157910424159918,27.845771615000558
1602,E,98139610463323.0,3.680135111184029,9.670151,1.2197624412124433,15,1970-01-02 03:15:39.610463323,0.00048828125,-0.0030975342,-0.005569458,9.882352104042969,0.006391556861441132,99.1602783203125,-7.237746238708496,-91.54559326171875,27896125.0,50354.0,0.18578973438036062,-0.007270651825500018,0.06326470725041136,0.009391894752581143,-0.00037248071266565225,0.003201890188364197,27.89612561899412
1602,E,98139660817327.0,3.676366111184029,9.664932,1.1711327412124433,15,1970-01-02 03:15:39.660817327,-0.004196167,-0.0039978027,-0.0029449463,9.884482638381893,0.00650099627979435,99.1656723022461,-7.24839973449707,-91.54647827148438,27946479.0,50354.0,0.1852146312755606,-0.006669815309000013,0.060195568007911364,0.00934077691411913,-0.0003509791410453073,0.0031083593501787916,27.946479623002233
1602,E,98139711171331.0,3.7340749111840292,9.655319,1.1939903412124433,15,1970-01-02 03:15:39.711171331,0.00093078613,-0.011016846,-0.0026855469,9.87929089475179,0.011377584135466369,99.16817474365234,-7.267291069030762,-91.54730987548828,27996833.0,50354.0,0.1865726736201606,-0.007043240573000018,0.05954670384621137,0.009360488975359573,-0.0003452536079411148,0.003014751178471248,27.996833626995794
1602,E,98139761525335.0,3.6966603111840293,9.674652,1.1696984412124434,15,1970-01-02 03:15:39.761525335,-0.0034332275,-0.0074920654,-0.006286621,9.896945307793885,0.010365312278087641,99.17341613769531,-7.279731273651123,-91.54830932617188,28047187.0,50354.0,0.18708362069356063,-0.006798520133000025,0.05951059247511137,0.00940754452193656,-0.0003484940092949631,0.0029975055494819427,28.047187631003908
1602,E,98139811879339.0,3.681126911184029,9.630859,1.2307945412124432,15,1970-01-02 03:15:39.811879339,-0.0044403076,-0.010131836,-0.0037994385,9.842311003969305,0.011696416768771367,99.17068481445312,-7.290769577026367,-91.5484619140625,28097541.0,50354.0,0.1857505488975606,-0.007414349553000056,0.060437211818511374,0.009386845887795661,-0.00035783742008442407,0.00301992586870054,28.09754163499747
1602,E,98139862233343.0,3.6927388111840287,9.6610565,1.2329613412124434,15,1970-01-02 03:15:39.862233343,-0.0076904297,-0.004257202,-0.0029449463,9.873088779299774,0.00927033907412937,99.16683197021484,-7.302714824676514,-91.54821014404297,28147895.0,50354.0,0.1856518172920606,-0.007756643456500036,0.06202998185181138,0.009350797373556093,-0.0003819600910001838,0.003083356535037716,28.147895639005583
1602,E,98139912587347.0,3.697362211184029,9.627533,1.2116905412124432,15,1970-01-02 03:15:39.912587347,-0.003189087,-0.003540039,-0.0073547363,9.844257527085563,0.008763235592954676,99.16714477539062,-7.315404415130615,-91.54838562011719,28198249.0,50354.0,0.18606057344016058,-0.007840382158500024,0.06154900044381137,0.009358602861465132,-0.00039268631390885654,0.003111348037256894,28.198249642999144
1602,E,98139962941350.0,3.725743611184029,9.666412,1.2299553412124433,15,1970-01-02 03:15:39.962941350,-0.000289917,-0.0010375977,-0.004699707,9.883313932677222,0.004821608314637688,99.16402435302734,-7.331295967102051,-91.5479965209961,28248603.0,50354.0,0.1868915352897606,-0.007705546735000061,0.061473318381811366,0.009389815241493226,-0.00039139985175165164,0.0030973329210727037,28.248603646003176
1602,E,98140013295354.0,3.714894611184029,9.639099,1.1834923412124434,15,1970-01-02 03:15:40.013295354,-0.0017700195,-0.007797241,-0.00491333,9.862461161877267,0.009384601639460316,99.16829681396484,-7.345560073852539,-91.54889678955078,28298957.0,50354.0,0.18733294852456062,-0.007414349553000056,0.06076337230041138,0.009421849828993165,-0.000380673628842979,0.0030775531613063223,28.298957649996737
1602,E,98140063649358.0,3.724446611184029,9.647186,1.1911675412124434,15,1970-01-02 03:15:40.063649358,-0.0048675537,-0.009063721,-0.005996704,9.870454485860282,0.011908172666359886,99.17102813720703,-7.360642433166504,-91.54967498779297,28349311.0,50354.0,0.1873002939555606,-0.00789840255500005,0.05978681185981138,0.009432141145922012,-0.0003855291598231187,0.0030350919866019284,28.34931165400485
1602,E,98140114003362.0,3.6777089111840287,9.638824,1.1492821412124432,15,1970-01-02 03:15:40.114003362,-0.0062408447,-0.017608643,-0.0051879883,9.862699396662306,0.019388854362027273,99.17992401123047,-7.368631362915039,-91.55168151855469,28399665.0,50354.0,0.1863640695866606,-0.007905326230000056,0.05892550165441138,0.009407747680902504,-0.0003978904796199477,0.0029888199173475865,28.399665657998412
1602,E,98140164357366.0,3.675816811184029,9.648071,1.2303368412124434,15,1970-01-02 03:15:40.164357366,0.0040740967,-0.017730713,-0.0031738281,9.85851346722753,0.01846752913136106,99.17718505859375,-7.376315116882324,-91.5521469116211,28450019.0,50354.0,0.18513971711206062,-0.00788304458500005,0.059911667120511373,0.009353350837713704,-0.0003975038120092577,0.0029919633982462305,28.450019662006525
1602,E,98140214711370.0,3.7440083111840288,9.625397,1.2129265412124433,15,1970-01-02 03:15:40.214711370,-0.0043945313,-0.013702393,-0.0048980713,9.848434437007988,0.015200611228928013,99.17710876464844,-7.393966197967529,-91.55279541015625,28500373.0,50354.0,0.1868089371058606,-0.008221096164000052,0.06151404217931137,0.009364551267244604,-0.00040545395163757555,0.0030571350830416373,28.500373666000087
1602,E,98140265065374.0,3.679738311184029,9.643021,1.2785698412124433,15,1970-01-02 03:15:40.265065374,-0.0033111572,-0.013336182,-0.0070495605,9.84668387625327,0.015443892501030823,99.16716003417969,-7.401676654815674,-91.55213165283203,28550727.0,50354.0,0.1869076687113606,-0.008348240014000068,0.06272840442031137,0.009409062984660179,-0.000417166176953509,0.003128052078038702,28.5507276700082
1602,E,98140315419378.0,3.728093411184029,9.617584,1.1669060412124432,15,1970-01-02 03:15:40.315419378,0.0029144287,-0.0032196045,-0.0051879883,9.845948586820201,0.006765720241389,99.17448425292969,-7.416476726531982,-91.55317687988281,28601081.0,50354.0,0.18650697927406062,-0.008544947915000036,0.061569746291811375,0.00940146059232895,-0.0004253197924884356,0.0031294545404791144,28.60108167400176
1602,E,98140365773382.0,3.637135811184029,9.640686,1.2185417412124433,15,1970-01-02 03:15:40.365773382,-0.003768921,0.0043640137,-0.007080078,9.848031723143151,0.00913109443408142,99.1732177734375,-7.417479991912842,-91.55277252197266,28651435.0,50354.0,0.1854343761315606,-0.008603736210000002,0.06005841881811138,0.009364367505047327,-0.000431752420215126,0.0030622323129725253,28.651435677995323
1602,E,98140416127386.0,3.6846669111840287,9.663208,1.1012169412124433,15,1970-01-02 03:15:40.416127386,0.0030975342,-0.0025024414,-0.007217407,9.895447647406511,0.00824305130908771,99.18875122070312,-7.424447536468506,-91.5548095703125,28701789.0,50354.0,0.1843410271410606,-0.007455060762000045,0.05840456434741137,0.009309835328194785,-0.0004043123313640452,0.002982542527158367,28.701789682003437
1602,E,98140466481390.0,3.737675911184029,9.644852,1.1455589412124434,15,1970-01-02 03:15:40.466481390,-0.0009613037,-0.0016021729,-0.0050964355,9.877406099922029,0.0054281412666573395,99.19776916503906,-7.439465522766113,-91.5560302734375,28752143.0,50354.0,0.1868723252387606,-0.007350173380000053,0.05656707639181137,0.00934603857286676,-0.0003727513799931365,0.002894640998891411,28.752143685996998
1602,E,98140516835393.0,3.688771511184029,9.611664,1.1225334412124433,15,1970-01-02 03:15:40.516835393,0.0010986328,-0.011108398,-0.009307861,9.84208688023547,0.01453409015215472,99.21084594726562,-7.447362899780273,-91.55818939208984,28802497.0,50354.0,0.18697566675296062,-0.008647896668000048,0.057103761912311375,0.009412370894375566,-0.00040278340959849855,0.0028618906959828987,28.80249768900103
1602,E,98140567189397.0,3.714116411184029,9.658325,1.2139336412124433,15,1970-01-02 03:15:40.567189397,0.0021820068,-0.00065612793,-0.0061798096,9.876308692833836,0.006586478894525093,99.20926666259766,-7.458327293395996,-91.55795288085938,28852851.0,50354.0,0.1863825092214606,-0.008308686947000063,0.058825231734211364,0.009400038796508003,-0.0004269159056748578,0.002918744273038503,28.85285169299459
1602,E,98140617543401.0,3.677235911184029,9.591248,1.1742607412124433,15,1970-01-02 03:15:40.617543401,-0.0008392334,-0.005218506,-0.01133728,9.812055747717716,0.012508838290189523,99.21492767333984,-7.464593887329102,-91.55885314941406,28903205.0,50354.0,0.1860920774202606,-0.00882270057900004,0.06012756996631138,0.009377792667878615,-0.0004313169437421046,0.0029948746884140612,28.903205697002704
1602,E,98140667897405.0,3.702092411184029,9.630783,1.1629234412124434,15,1970-01-02 03:15:40.667897405,0.0043029785,-0.017593384,-0.007217407,9.855907307044069,0.019497018960512074,99.22146606445312,-7.473585605621338,-91.56047821044922,28953559.0,50354.0,0.18578934917226061,-0.00951612551300005,0.05884328616091137,0.009362858677319907,-0.0004617166245182863,0.0029953292447150873,28.953559700996266
1602,E,98140718251409.0,3.6723531111840293,9.658112,1.1762902412124434,15,1970-01-02 03:15:40.718251409,0.0032958984,-0.016921997,-0.0072784424,9.87644628590206,0.018713435080210405,99.22522735595703,-7.477595806121826,-91.56172180175781,29003913.0,50354.0,0.1856664149166606,-0.007832690585000078,0.058894382882411375,0.00935214177246677,-0.00043679114289934927,0.002964281293503737,29.00391370500438
1602,E,98140768605413.0,3.6980489111840287,9.630905,1.2268578412124433,15,1970-01-02 03:15:40.768605413,0.0038909912,-0.028930664,-0.009094238,9.845262577729116,0.030574961926387045,99.2223129272461,-7.4857025146484375,-91.56266021728516,29054267.0,50354.0,0.1855646117171606,-0.007829618991000051,0.06050405927121138,0.009346483557559718,-0.00039432996819495526,0.00300609457810176,29.05426770899794
1602,E,98140818959417.0,3.703450511184029,9.64006,1.1396080412124434,15,1970-01-02 03:15:40.818959417,-0.0031433105,-0.022857666,-0.00579834,9.868979069163194,0.023790208965508607,99.23149108886719,-7.49413537979126,-91.56494903564453,29104621.0,50354.0,0.18634755095696062,-0.008284114195000027,0.059580511521811375,0.00936363251964635,-0.000405695460423924,0.0030233692388559343,29.104621713006054
1602,E,98140869313421.0,3.710225411184029,9.641098,1.0742089412124434,15,1970-01-02 03:15:40.869313421,-0.0023040771,-0.034500122,-0.013748169,9.881921445362492,0.03720993604066244,99.24993133544922,-7.502620697021484,-91.5689468383789,29154975.0,50354.0,0.1866541186974606,-0.008027485034000047,0.05573727016651138,0.009391063036889363,-0.00041067713378853486,0.002903355789566902,29.154975716999616
1602,E,98140919667425.0,3.677220611184029,9.634644,1.2016350412124432,15,1970-01-02 03:15:40.919667425,0.005996704,-0.032562256,-0.00592041,9.850086156456538,0.03363498519757741,99.2500991821289,-7.507072448730469,-91.57048034667969,29205329.0,50354.0,0.1859937285051606,-0.008163843666000054,0.057298923945511365,0.009382154849020396,-0.0004076490826799026,0.002845912259158397,29.20532972100773
1602,E,98140970021429.0,3.715154011184029,9.668152,1.2097374412124433,15,1970-01-02 03:15:40.970021429,0.009033203,-0.03152466,-0.012557983,9.886722176348794,0.03511560737881517,99.24845123291016,-7.515925407409668,-91.57164764404297,29255683.0,50354.0,0.1861178158673606,-0.007482705108000062,0.06071112499001138,0.009368652352666967,-0.000393933158483001,0.0029711390020496563,29.25568372500129
1602,E,98141020375433.0,3.671468111184029,9.662979,1.2318322412124434,15,1970-01-02 03:15:41.020375433,-0.0025177002,-0.023773193,-0.012802124,9.872290887633055,0.027118220786469475,99.24313354492188,-7.518498420715332,-91.57203674316406,29306037.0,50354.0,0.1859729851748606,-0.006769314813000057,0.061471399894411374,0.009368130097840004,-0.00035882310555102005,0.0030761894290151116,29.306037728994852
1602,E,98141070729436.0,3.688557911184029,9.648605,1.2962700412124433,15,1970-01-02 03:15:41.070729436,0.0007019043,-0.019729614,-0.0152282715,9.85067974459498,0.024932921832650633,99.22908782958984,-7.523861885070801,-91.57102966308594,29356391.0,50354.0,0.1853033751651606,-0.00726144963200004,0.06365003116461138,0.009347624924280715,-0.00035325255643176744,0.0031501822697730156,29.356391731998883
1602,E,98141121083440.0,3.682011911184029,9.696838,1.2360283412124433,15,1970-01-02 03:15:41.121083440,-0.009552002,-0.0071258545,-0.01864624,9.906189228135672,0.02212918459186362,99.222412109375,-7.526963710784912,-91.57041931152344,29406745.0,50354.0,0.1855688364177606,-0.006408981589000049,0.06375567637431137,0.009337449671023207,-0.00034418044685111923,0.0032076934987074583,29.406745736006997
1602,E,98141171437444.0,3.639134711184029,9.634308,1.1693627412124432,15,1970-01-02 03:15:41.171437444,-0.0098724365,-0.019882202,-0.016830444,9.849912364311821,0.027857329449401145,99.22705841064453,-7.524785041809082,-91.57192993164062,29457099.0,50354.0,0.18432450851136062,-0.006768937158000026,0.060560531282211366,0.009312804745280484,-0.0003317804602932209,0.0031299091601682733,29.457099740000558
1602,E,98141221791448.0,3.6787923111840293,9.6796875,1.2079674412124433,15,1970-01-02 03:15:41.221791448,-0.011886597,-0.014038086,-0.01776123,9.89335799462578,0.02556991079172364,99.22479248046875,-7.52763032913208,-91.57225799560547,29507453.0,50354.0,0.18424344864216063,-0.007200735296500017,0.05985404200291137,0.009279435457254206,-0.00035171444338694764,0.003031677711599535,29.50745374399412
1602,E,98141272145452.0,3.641743911184029,9.644516,1.1964928412124434,15,1970-01-02 03:15:41.272145452,-0.014419556,-0.0126953125,-0.02217102,9.855873474333787,0.029336814458120572,99.22493743896484,-7.525503635406494,-91.57281494140625,29557807.0,50354.0,0.18430914047056063,-0.006943728480500051,0.060537096530611366,0.009279048536090984,-0.00035611516451353073,0.003031087694858502,29.557807748002233
1602,E,98141322499456.0,3.641545611184029,9.606201,1.1418968412124433,15,1970-01-02 03:15:41.322499456,-0.019714355,-0.017593384,-0.023757935,9.827245838704304,0.03553339878342214,99.2336654663086,-7.523831367492676,-91.57476806640625,29608161.0,50354.0,0.1833713803046606,-0.00879389809100004,0.058873637034411376,0.009257092471557746,-0.0003962262241906578,0.0030064040389665776,29.608161751995794
1602,E,98141372853460.0,3.687047311184029,9.630341,1.0896050412124434,15,1970-01-02 03:15:41.372853460,-0.0140686035,-0.033462524,-0.029159546,9.86564456545483,0.04656119886576058,99.24951171875,-7.527743816375732,-91.57833099365234,29658515.0,50354.0,0.1845119840064606,-0.009150782066000035,0.05618252289381138,0.0092621994632611,-0.00045179321231279097,0.0028967689385128643,29.658515756003908
1602,E,98141423207464.0,3.622517911184029,9.6592865,0.9660851412124434,15,1970-01-02 03:15:41.423207464,-0.00944519,-0.060684204,-0.028244019,9.907157958258699,0.06759814227123462,99.28241729736328,-7.521197319030762,-91.58544921875,29708869.0,50354.0,0.1840329236035606,-0.007814248432500039,0.051756111722911384,0.009278855138897505,-0.00042712857286073637,0.002717571003745229,29.70886975999747
1602,E,98141473561468.0,3.565038011184029,9.599976,0.8669487412124433,15,1970-01-02 03:15:41.473561468,0.009597778,-0.11984253,-0.028961182,9.860755233598542,0.12366527160919231,99.33171081542969,-7.506798267364502,-91.59746551513672,29759223.0,50354.0,0.1809610954574606,-0.008578748037500031,0.046150294057811375,0.009189454417899333,-0.0004127264721251918,0.002464989578341257,29.759223764005583
1602,E,98141523915472.0,3.6611989111840293,9.705231,0.8729454412124433,15,1970-01-02 03:15:41.523915472,0.0022583008,-0.18748474,-0.02432251,9.974230915464922,0.18906933159048028,99.37598419189453,-7.504329204559326,-91.6122055053711,29809577.0,50354.0,0.18193496699446063,-0.007422003361000053,0.04380531583091137,0.009136634164352021,-0.00040285091796003666,0.002264812390168373,29.809577767999144
1602,E,98141574269475.0,3.6643117111840287,9.677994,0.9993492412124434,15,1970-01-02 03:15:41.574269475,-0.03929138,-0.24835205,-0.02949524,9.924830750048377,0.2531650103473315,99.4001693725586,-7.502499580383301,-91.62753295898438,29859931.0,50354.0,0.1844343809393606,-0.005457744175000049,0.04713876321941138,0.009224081072929819,-0.0003242734037138746,0.002289699078249976,29.859931771003176
1602,E,98141624623479.0,3.846104911184029,9.6605835,1.1160332412124434,15,1970-01-02 03:15:41.624623479,-0.06829834,-0.28981018,-0.042877197,9.913361414079194,0.30082064041711765,99.40621948242188,-7.526443958282471,-91.6426010131836,29910285.0,50354.0,0.1890897593013606,-0.006581834282500048,0.05325898476001138,0.00940421727884064,-0.00030312046682447994,0.002527714100877927,29.910285774996737
1602,E,98141674977483.0,4.026006011184029,9.714691,1.1201683412124432,15,1970-01-02 03:15:41.674977483,-0.076416016,-0.28997803,-0.07147217,9.993878034203071,0.3082773693745651,99.4097671508789,-7.572723388671875,-91.65716552734375,29960639.0,50354.0,0.1981961366924606,-0.005657913913500043,0.05630084724071137,0.009750697003436438,-0.00030816014033069425,0.0027583878902821967,29.96063977900485
1602,E,98141725331487.0,4.102238911184029,9.762711,1.0121971412124433,15,1970-01-02 03:15:41.725331487,-0.098724365,-0.29600525,-0.09861755,10.071780727855923,0.3272476576542882,99.4262466430664,-7.625592231750488,-91.67366790771484,30010993.0,50354.0,0.20464482241046061,-0.0030866498460000447,0.05368656575101138,0.010142326827334248,-0.00022016188177293374,0.0027691530968926036,30.010993782998412
