Subject-id_accel,Activity_accel,Timestamp_accel,accel_x,accel_y,accel_z,Segment_accel,DateTime,gyro_x,gyro_y,gyro_z,accel_magnitude,gyro_magnitude,Roll,Pitch,Yaw,Time_Difference,Difference_Microseconds,vx,vy,vz,dx,dy,dz,Time_diff
1631,E,1551276569846845.0,1.5095978,9.64621,1.3714698136732981,163,1970-01-18 22:54:36.569846845,0.0031738281,0.0050201416,0.0017700195,9.844164906599138,0.006197416842748309,97.35733795166016,-8.938036918640137,5.109418869018555,15005510.0,50354.0,0.0774791282821,-0.008927587961000032,0.06998676344770526,0.003921463611151863,-0.00043286488194752167,0.003518213446011685,15.005510761868209
1631,E,1551276620200849.0,1.5272369,9.631836,1.3898567136732982,163,1970-01-18 22:54:36.620200849,-0.0029144287,-0.0030059814,0.00015258789,9.830471557282825,0.004189642214879966,97.35645294189453,-8.93801498413086,5.109389305114746,15055864.0,50354.0,0.0764583872419,-0.008105835858000041,0.06952191797900525,0.0038756848283477484,-0.0004288505114909649,0.0035124100722802912,15.05586476600729
1631,E,1551276670554853.0,1.5429688,9.633667,1.4204353136732981,163,1970-01-18 22:54:36.670554853,0.0002746582,-0.0004119873,0.002532959,9.83091800303334,0.0025809013847626046,97.3511962890625,-8.940435409545898,5.110169887542725,15106218.0,50354.0,0.0772985689089,-0.008421630969000019,0.07075472237250527,0.0038711388850086914,-0.0004161120323033805,0.0035317449741299805,15.10621876991354
1631,E,1551276720908857.0,1.535675,9.648041,1.416330713673298,163,1970-01-18 22:54:36.720908857,-0.00047302246,-0.0038757324,0.00036621094,9.844367960256005,0.003921627511206271,97.34642028808594,-8.941283226013184,5.110719203948975,15156572.0,50354.0,0.0775110149526,-0.008013637684000034,0.07142125827050526,0.003897640892880986,-0.0004137907588765824,0.0035795646646490757,15.15657277405262
1631,E,1551276771262861.0,1.5492096,9.644211,1.3679145136732982,163,1970-01-18 22:54:36.771262861,0.002960205,-0.0039978027,-0.0027160645,9.84881387039687,0.00566764911037306,97.34904479980469,-8.943843841552734,5.110151767730713,15206926.0,50354.0,0.07766813957419999,-0.007748171396000049,0.07009894208890526,0.003906945573521243,-0.00039683506720716215,0.003563054084448879,15.20692677795887
1631,E,1551276821616865.0,1.5463257,9.623032,1.4087165136732982,163,1970-01-18 22:54:36.821616865,0.007843018,1.5258789e-05,-0.0025177002,9.822472616168515,0.0082372312384712,97.34627532958984,-8.946565628051758,5.110662460327148,15257280.0,50354.0,0.0779362922481,-0.008377822989000023,0.06990723937550526,0.003917652779990047,-0.0004060041606311468,0.0035249356307294638,15.25728078186512
1631,E,1551276871970869.0,1.5413971,9.644348,1.4101509136732981,163,1970-01-18 22:54:36.871970869,0.00819397,0.0019378662,-0.001449585,9.842406071020859,0.008543873035235685,97.34294891357422,-8.948092460632324,5.111344337463379,15307634.0,50354.0,0.07773959693560001,-0.00837437374000001,0.07097062521830526,0.003919451861978015,-0.0004217700570460338,0.0035468819968783676,15.3076347860042
1631,E,1551276922324873.0,1.5321045,9.647232,1.3981880136732983,163,1970-01-18 22:54:36.922324873,0.0040130615,-0.00090026855,-0.0027313232,9.845268857820123,0.004937132010363871,97.34124755859375,-8.948067665100098,5.111617565155029,15357988.0,50354.0,0.07738154978320001,-0.007765090339999998,0.07070554917380527,0.003905485110939228,-0.00040634328714216024,0.0035669810426701668,15.35798878991045
1631,E,1551276972678876.0,1.5484924,9.641083,1.3944801136732983,163,1970-01-18 22:54:36.972678876,0.0041656494,0.0059509277,-0.0017089844,9.842272842103073,0.007462359083680642,97.34017181396484,-8.950617790222168,5.112117767333984,15408342.0,50354.0,0.0775601881513,-0.007847293245000017,0.07031100544220525,0.0039009681359769067,-0.0003930729815195454,0.0035503737955672977,15.408342792885378
1631,E,1551277023032880.0,1.4703522,9.638077,1.3956855136732982,163,1970-01-18 22:54:37.023032880,0.010360718,0.0045928955,-0.0011749268,9.827182488535414,0.011393841298473598,97.33934020996094,-8.941948890686035,5.11256217956543,15458696.0,50354.0,0.0760054504942,-0.008077788680000057,0.07024799999970527,0.0038663220841777535,-0.0004009457876257269,0.0035388540800109815,15.458696797024459
1631,E,1551277073386884.0,1.5,9.632004,1.4017585136732982,163,1970-01-18 22:54:37.073386884,0.008071899,0.0,-0.0069274902,9.824948846035333,0.010636995531506866,97.33765411376953,-8.937602996826172,5.112929344177246,15509050.0,50354.0,0.0747845573394,-0.008306370663000053,0.07043124827650526,0.0037964400272265473,-0.00041250397977871377,0.0035418814338501526,15.509050800930709
1631,E,1551277123740888.0,1.516983,9.643341,1.3848518136732981,163,1970-01-18 22:54:37.123740888,0.008514404,-0.0018157959,-0.0036468506,9.840789464170424,0.009438840475630105,97.33830261230469,-8.935659408569336,5.112825870513916,15559404.0,50354.0,0.075958580991,-0.008173838935000044,0.07015848821160527,0.0037952599937444804,-0.00041492223704884846,0.0035396277955611587,15.55940480506979
1631,E,1551277174094892.0,1.5133972,9.65596,1.367090613673298,163,1970-01-18 22:54:37.174094892,0.008178711,-0.007659912,-0.0038452148,9.854861257949574,0.01184699296561807,97.3413314819336,-8.932873725891113,5.1120686531066895,15609758.0,50354.0,0.07629588229539999,-0.007570698723000041,0.06928565449330525,0.0038333106221616928,-0.00039640022461546814,0.003510785180881532,15.60975880897604
1631,E,1551277224448896.0,1.5084686,9.660797,1.3910011136732983,163,1970-01-18 22:54:37.224448896,0.006225586,-0.0028076172,-0.0026855469,9.855815388801565,0.00733844653433078,97.34056854248047,-8.929498672485352,5.112113952636719,15660112.0,50354.0,0.0760815152466,-0.007131209011000015,0.06944047541940526,0.003836405737914934,-0.0003701499310189194,0.0034927077728123123,15.66011281288229
1631,E,1551277274802900.0,1.5189514,9.6440735,1.4005531136732983,163,1970-01-18 22:54:37.274802900,0.004058838,-0.00012207031,0.0029144287,9.839839628724675,0.004998295881419105,97.338623046875,-8.9284086227417,5.112423896789551,15710466.0,50354.0,0.07622135334,-0.00743047542150004,0.07028296078190525,0.003834529322404829,-0.0003666195289570539,0.0035178169532403946,15.71046681702137
1631,E,1551277325156904.0,1.4985504,9.711395,1.3584999136732983,163,1970-01-18 22:54:37.325156904,0.00016784668,-0.0033874512,0.0041656494,9.908024177369956,0.005371743949974609,97.34141540527344,-8.922863006591797,5.111799716949463,15760820.0,50354.0,0.0759716428186,-0.006156569575500065,0.06946467806950526,0.0038317630642850722,-0.0003420810318894717,0.0035184263033619626,15.76082082092762
1631,E,1551277375510908.0,1.4443817,9.671371,1.3096260136732982,163,1970-01-18 22:54:37.375510908,0.004623413,-0.004180908,0.0032958984,9.867129771274177,0.007051162013183044,97.35224914550781,-8.910367965698242,5.109930038452148,15811174.0,50354.0,0.07409420148170001,-0.005469300418000032,0.06717540647280527,0.0037782077619486535,-0.000292704528826352,0.0034401874085217524,15.8111748250667
1631,E,1551277425864912.0,1.480133,9.649246,1.3552497136732982,163,1970-01-18 22:54:37.425864912,0.005783081,-0.010269165,0.002243042,9.844750023975266,0.011997125199961448,97.35669708251953,-8.903830528259277,5.10876989364624,15861528.0,50354.0,0.0736305066019,-0.007034025791000027,0.06709357618740526,0.0037192649754207974,-0.0003147962439639945,0.003380490176436121,15.86152882897295
1631,E,1551277476218915.0,1.4985809,9.674286,1.3657478136732981,163,1970-01-18 22:54:37.476218915,-0.002090454,-0.01953125,0.0055389404,9.870729391754676,0.020408811460821723,97.35869598388672,-8.899696350097656,5.107451915740967,15911882.0,50354.0,0.0749950798603,-0.0069606348360000325,0.06850655474600525,0.00374194639035881,-0.0003523435706059805,0.0034140044965104764,15.911882831947878
1631,E,1551277526572919.0,1.5475006,9.607605,1.331888513673298,163,1970-01-18 22:54:37.526572919,0.001449585,-0.015106201,0.0027770996,9.817393400927173,0.015427601482827657,97.36702728271484,-8.90398120880127,5.105417251586914,15962236.0,50354.0,0.0766911939255,-0.00800903029300004,0.06791838981360526,0.0038190053151050873,-0.00037689125895283484,0.0034347708291773142,15.962236835854128
1631,E,1551277576926923.0,1.553482,9.643845,1.3764137136732981,163,1970-01-18 22:54:37.576926923,-9.1552734e-05,-0.0075683594,0.004699707,9.848044518646786,0.008909303665075079,97.36780548095703,-8.908466339111328,5.104895114898682,16012590.0,50354.0,0.07807343892020001,-0.008775443350000032,0.06818692517790526,0.0038965091611561898,-0.0004225826929098128,0.0034267235155412603,16.01259083999321
1631,E,1551277627280927.0,1.5606995,9.622116,1.420801513673298,163,1970-01-18 22:54:37.627280927,-0.0042266846,-0.007217407,0.0052337646,9.822355675887179,0.009866515007830238,97.36226654052734,-8.914535522460938,5.1053338050842285,16062944.000000002,50354.00000000186,0.0784057476255029,-0.008410099903000328,0.07042548777890786,0.0039396764796613085,-0.0004326804224808061,0.003489844721013813,16.06294484389946
1631,E,1551277677634931.0,1.570282,9.640335,1.3847602136732982,163,1970-01-18 22:54:37.677634931,-0.00036621094,0.00076293945,0.0034332275,9.84621482967446,0.0035359918161243296,97.3619155883789,-8.921265602111816,5.105399131774902,16113298.0,50353.99999999814,0.07882872122549708,-0.00849847117299971,0.07063562760940265,0.00395869222226148,-0.0004257070939804372,0.003551495702131362,16.11329884803854
1631,E,1551277727988935.0,1.5363922,9.628021,1.3460487136732981,163,1970-01-18 22:54:37.727988935,0.0032348633,0.011550903,0.0030975342,9.833776463133928,0.012388802153770376,97.36758422851562,-8.923176765441895,5.105093002319336,16163651.999999998,50353.99999999814,0.07821673633339711,-0.008349800987999709,0.06875357636380272,0.0039539334849601334,-0.0004241889481974667,0.0035094019884332616,16.16365285194479
1631,E,1551277778342939.0,1.5291595,9.644516,1.3772377136732983,163,1970-01-18 22:54:37.778342939,-0.0001373291,0.010070801,0.0002746582,9.844789664874117,0.010075481586015383,97.36804962158203,-8.923567771911621,5.105508327484131,16214006.000000002,50354.000000003725,0.07718139515090572,-0.00824453595100065,0.06856418238131032,0.003912458756380581,-0.0004177956211132429,0.0034572492119259667,16.21400685585104
1631,E,1551277828696943.0,1.5437012,9.644913,1.379862213673298,163,1970-01-18 22:54:37.828696943,0.0012664795,0.0068511963,-0.00010681152,9.847114640330572,0.006968089391351021,97.36824035644531,-8.926000595092773,5.105828762054443,16264360.0,50353.99999999814,0.07736541384389714,-0.007819246066999743,0.06941550487080268,0.0038910250100620074,-0.0004044378398671809,0.003473914585946321,16.26436085999012
1631,E,1551277879050947.0,1.5198822,9.678848,1.3518013136732983,163,1970-01-18 22:54:37.879050947,0.0034179688,0.016082764,0.0008544922,9.880247595076279,0.016464141809317916,97.37188720703125,-8.92422103881836,5.106070518493652,16314713.999999998,50353.99999999814,0.07713183926179715,-0.006954869302999751,0.06877509262800272,0.0038897773414419213,-0.0003719679026704635,0.003479224673227295,16.31471486389637
1631,E,1551277929404951.0,1.5317078,9.667999,1.3318275136732982,163,1970-01-18 22:54:37.929404951,-0.001083374,0.012451172,0.0019073486,9.874050478190815,0.012642917467079422,97.37835693359375,-8.92439079284668,5.105653762817383,16365068.0,50354.00000000186,0.07682988143000284,-0.006373633081000263,0.06756572298610776,0.0038762942418575914,-0.0003355717045219808,0.0034326527147165867,16.36506886803545
1631,E,1551277979758955.0,1.4995575,9.640503,1.3530372136732982,163,1970-01-18 22:54:37.979758955,0.004989624,0.015655518,0.001083374,9.839408995731274,0.01646709721637593,97.38241577148438,-8.92059326171875,5.105826377868652,16415422.0,50354.0,0.07631816645810001,-0.007339045146000018,0.06759683924040526,0.003855808401678766,-0.00034524409972118615,0.003402987829176918,16.4154228719417
1631,E,1551278030112958.0,1.4288483,9.659027,1.3471778136732981,163,1970-01-18 22:54:38.030112958,0.0048065186,0.012237549,0.0019378662,9.847811237375375,0.013289678400497487,97.3868637084961,-8.906318664550781,5.105759620666504,16465776.000000002,50354.00000000186,0.07372847282660273,-0.007564933190000297,0.06798331374350776,0.003777724237271101,-0.00037523746256549383,0.0034135015116761045,16.465776874916628
1631,E,1551278080466962.0,1.4759979,9.678665,1.3701423136732982,163,1970-01-18 22:54:38.080466962,-0.00016784668,0.00015258789,0.003982544,9.871058410684407,0.003988998907507707,97.38733673095703,-8.898849487304688,5.105668544769287,16516130.0,50353.99999999814,0.0731353127773973,-0.0066041285159997775,0.06841396884620272,0.003697589530151772,-0.00035673446657195066,0.003434074383761014,16.51613087905571
1631,E,1551278130820966.0,1.5075073,9.662857,1.3287147136732982,163,1970-01-18 22:54:38.130820966,-0.0035705566,-0.0058898926,0.0012359619,9.86569832013747,0.006997664688422126,97.39400482177734,-8.896140098571777,5.104312896728516,16566484.0,50354.0,0.07511571042040001,-0.006507700606000005,0.06794912337750526,0.003732516011050943,-0.00033011652180458856,0.003433213572916296,16.56648488296196
1631,E,1551278181174970.0,1.4855652,9.6171875,1.2939704136732981,163,1970-01-18 22:54:38.181174970,-0.000869751,-0.005340576,0.0039367676,9.822287132002616,0.0066915138758121655,97.40662384033203,-8.891382217407227,5.1020684242248535,16616838.000000002,50354.00000000186,0.07535658633250279,-0.008055519623500316,0.06603134345120769,0.003788441015347974,-0.00036665819571814315,0.0033732262133466307,16.61683888686821
1631,E,1551278231528974.0,1.4791412,9.638519,1.3862861136732982,163,1970-01-18 22:54:38.231528974,-0.0036773682,-0.01133728,0.0051879883,9.83011784526433,0.012998929851249608,97.40492248535156,-8.885635375976562,5.101715087890625,16667192.0,50353.99999999814,0.07464241303279723,-0.008668277449499702,0.06748081858900276,0.0037765248070200192,-0.00042105503890690584,0.0033614357036862537,16.66719289100729
1631,E,1551278281882978.0,1.5314484,9.665024,1.3823493136732983,163,1970-01-18 22:54:38.281882978,-0.00793457,-0.0126953125,0.0062713623,9.864589523880957,0.01623139999061749,97.40311431884766,-8.88700008392334,5.101266860961914,16717545.999999998,50353.99999999814,0.07579761435919719,-0.007463897888999729,0.06970593415430268,0.0037876285696481033,-0.00040615977849738506,0.0034539508738180734,16.71754689491354
1631,E,1551278332236982.0,1.5221252,9.626907,1.3520301136732982,163,1970-01-18 22:54:38.332236982,-0.007080078,-0.005493164,0.0021820068,9.829688271858727,0.009222988067444642,97.40652465820312,-8.887602806091309,5.100406646728516,16767900.0,50354.00000000186,0.07687982252720284,-0.007756253213000324,0.06884347084230781,0.0038439598284890353,-0.0003831977442950695,0.0034882583695997915,16.76790089905262
1631,E,1551278382590986.0,1.5170898,9.632568,1.3811897136732982,163,1970-01-18 22:54:38.382590986,0.00440979,-0.016708374,0.0009918213,9.83071318734933,0.017308949103256088,97.4061050415039,-8.887288093566895,5.099677562713623,16818254.0,50354.0,0.07651831605500001,-0.008573397925000078,0.06881427559310527,0.0038621049350841216,-0.00041113162670143615,0.003465809082004395,16.81825490295887
1631,E,1551278432944990.0,1.4848175,9.63504,1.4049476136732981,163,1970-01-18 22:54:38.432944990,0.0057373047,-0.016998291,0.0050964355,9.825221899084491,0.018650260506142623,97.40228271484375,-8.882553100585938,5.099451541900635,16868608.0,50354.0,0.0755790200921,-0.008368633384000058,0.07014657949060525,0.0038293546321755377,-0.0004265495222666964,0.0034986174484425803,16.86860890686512
1631,E,1551278483298994.0,1.5368652,9.674454,1.4104103136732982,163,1970-01-18 22:54:38.483298994,-0.0046081543,-0.015960693,0.0052337646,9.871169479592306,0.017417551463425354,97.3964614868164,-8.88456916809082,5.099494934082031,16918962.0,50354.0,0.0760769053379,-0.007314069562000015,0.07088226653680527,0.0038182412345511103,-0.0003948434120714439,0.0035506832564321145,16.9189629110042
1631,E,1551278533652998.0,1.529068,9.652267,1.3195747136732983,163,1970-01-18 22:54:38.533652998,0.00032043457,-0.008605957,0.0031433105,9.859856221202925,0.00916763737824039,97.40465545654297,-8.88559627532959,5.097790241241455,16969316.0,50354.0,0.0771910001764,-0.006880345383000013,0.06873283303350526,0.0038588260571335315,-0.00035737278507026575,0.0035150893618817085,16.96931691491045
1631,E,1551278584007001.0,1.5219421,9.6194,1.3593391136732982,163,1970-01-18 22:54:38.584007001,0.006668091,-0.012619019,0.0020599365,9.821360941066242,0.014420347308254203,97.40782928466797,-8.88634204864502,5.0967206954956055,17019670.0,50354.0,0.0768152812877,-0.008266439941000016,0.06744701343110526,0.003877416148421646,-0.00038135061410234875,0.003428599994439499,17.019670917885378
1631,E,1551278634361005.0,1.5241089,9.644531,1.3202613136732981,163,1970-01-18 22:54:38.634361005,0.00045776367,-0.0042266846,0.0030975342,9.8514236104962,0.005260145283698794,97.41576385498047,-8.886811256408691,5.095271110534668,17070024.0,50354.0,0.076690426027,-0.008461209213000006,0.06746429995930525,0.0038648131930622024,-0.0004211520227502586,0.003396662137230366,17.07002492202446
1631,E,1551278684715009.0,1.5478058,9.642181,1.3630165136732981,163,1970-01-18 22:54:38.684715009,-0.007019043,-0.0073242188,0.006286621,9.847233381779397,0.011934519230524682,97.41696166992188,-8.890989303588867,5.094634056091309,17120378.0,50354.0,0.0773415964019,-0.007887651976,0.06755688585910526,0.0038780642286924158,-0.00041161527815545315,0.003399428395350121,17.12037892593071
1631,E,1551278735069013.0,1.5221558,9.621689,1.3836311136732982,163,1970-01-18 22:54:38.735069013,-0.0016784668,0.0076141357,0.0010223389,9.820527921978604,0.007863681712987241,97.4156494140625,-8.891731262207031,5.095190048217773,17170732.0,50354.0,0.07729242320320001,-0.008462745010000019,0.06915234731370526,0.003893220711597603,-0.0004116539449165226,0.003441928363591851,17.17073293006979
1631,E,1551278785423017.0,1.5555267,9.688599,1.3239540136732981,163,1970-01-18 22:54:38.785423017,0.00032043457,0.011642456,0.005126953,9.89897110853325,0.012725372571747993,97.42185974121094,-8.895792007446289,5.0947699546813965,17221086.0,50354.0,0.0774868123025,-0.007294079024000039,0.06816887075120526,0.003896876812327009,-0.0003967095587040195,0.0034573363072202524,17.22108693397604
1631,E,1551278835777021.0,1.5053864,9.595413,1.3613685136732983,163,1970-01-18 22:54:38.835777021,-0.0026245117,0.0065460205,0.0021362305,9.795047708144407,0.0073689841090198716,97.42415618896484,-8.894564628601074,5.094702243804932,17271440.0,50354.0,0.0770646091187,-0.007955629876000021,0.06760836527100526,0.0038911411371215523,-0.00038394192097530156,0.0034184634713311946,17.27144093788229
1631,E,1551278886131025.0,1.5090332,9.664505,1.3302864136732981,163,1970-01-18 22:54:38.886131025,-0.0004119873,0.0068206787,0.004333496,9.867338825391299,0.008091389191357129,97.4297103881836,-8.89238452911377,5.094147205352783,17321794.0,50354.0,0.0758940422692,-0.008562244514000018,0.06776779610580527,0.0038510399659931584,-0.00041587052351703104,0.0034083656149839587,17.32179494202137
1631,E,1551278936485029.0,1.4494324,9.678589,1.3884834136732982,163,1970-01-18 22:54:38.936485029,-0.016326904,-0.007369995,0.00730896,9.864724838884806,0.01934697694232463,97.42567443847656,-8.88161563873291,5.094233989715576,17372148.0,50354.0,0.07448528841120002,-0.006468122362000019,0.06845046794310526,0.0037861004085404317,-0.0003784195468370529,0.0034295672339594205,17.37214894592762
1631,E,1551278986839033.0,1.5126648,9.606537,1.366342913673298,163,1970-01-18 22:54:38.986839033,-0.0018615723,-0.006790161,0.004257202,9.80642392180109,0.008227727918620809,97.42708587646484,-8.88157844543457,5.093643665313721,17422502.0,50354.0,0.07457672120440001,-0.007927582698000037,0.06935826244360527,0.003752934216091962,-0.00036244066629562144,0.0034696104049462117,17.4225029500667
1631,E,1551279037193037.0,1.4922028,9.669052,1.4399208136732982,163,1970-01-18 22:54:39.037193037,-0.0043182373,-0.012130737,0.005126953,9.855414983375802,0.013859567114686134,97.41642761230469,-8.877436637878418,5.094626426696777,17472856.0,50354.0,0.0756535515652,-0.008167695747000034,0.07065330186340525,0.0037823475775202193,-0.00040523082540976676,0.0035250711545576035,17.47285695397295
1631,E,1551279087547040.0,1.5510254,9.711746,1.4507392136732982,163,1970-01-18 22:54:39.087547040,-0.012374878,-0.002746582,0.0034484863,9.90505253446651,0.013136718614589251,97.40325164794922,-8.88088607788086,5.096408843994141,17523210.0,50354.0,0.07661935639140001,-0.005518848754000025,0.07277814750850527,0.0038337750036233184,-0.0003445861309016785,0.0036111736008365915,17.523210956947878
1631,E,1551279137901044.0,1.4949036,9.616089,1.413095813673298,163,1970-01-18 22:54:39.137901044,-0.01184082,-0.01272583,0.008056641,9.807157744929995,0.019158842127440293,97.3977279663086,-8.878376007080078,5.096494674682617,17573564.0,50354.0,0.07668735443300001,-0.006852298205000028,0.07210277448350526,0.0038598030584259192,-0.00031146836698674435,0.0036476669729928494,17.573564960854128
1631,E,1551279188255048.0,1.517746,9.619553,1.4172309136732981,163,1970-01-18 22:54:39.188255048,-0.004562378,-0.013000488,0.003189087,9.813549792208365,0.014142074004423714,97.39203643798828,-8.878918647766113,5.096682071685791,17623918.0,50354.0,0.07584947897920001,-0.009173441366000028,0.07125913601440526,0.0038404198548189607,-0.00040348004517906845,0.0036094228206058937,17.62391896499321
1631,E,1551279238609052.0,1.5235748,9.655167,1.4338783136732982,163,1970-01-18 22:54:39.238609052,-0.0008239746,-0.015274048,0.0044555664,9.847329351532487,0.015931966243767845,97.38360595703125,-8.879584312438965,5.097200870513916,17674272.0,50354.0,0.07657133378160001,-0.008189574560000029,0.07178237701690526,0.0038374988028786624,-0.00043714865196890345,0.0036013561735893053,17.67427296889946
1631,E,1551279288963056.0,1.4994202,9.620697,1.3964485136732983,163,1970-01-18 22:54:39.288963056,-0.003250122,-0.008224487,0.007019043,9.814440549766251,0.011290369527340636,97.38131713867188,-8.87758731842041,5.097080707550049,17724626.0,50354.0,0.07610994511500001,-0.008160772072000028,0.07125913853210526,0.003844056558779699,-0.0004116526771538655,0.0036013562369774377,17.72462697303854
1631,E,1551279339317060.0,1.5450134,9.653046,1.5158180136732982,163,1970-01-18 22:54:39.339317060,-0.0069122314,-0.00541687,0.004043579,9.838989833048515,0.009668089503789617,97.36083984375,-8.881698608398438,5.0998992919921875,17774980.0,50354.0,0.07664970474720001,-0.008214172489000046,0.07332213435900527,0.0038460297045806104,-0.0004122719792122989,0.00364012270757949,17.77498097694479
1631,E,1551279389671064.0,1.5276642,9.631851,1.4317726136732982,163,1970-01-18 22:54:39.389671064,-0.0052490234,0.001159668,0.003540039,9.825360609889382,0.006436532657067201,97.35355377197266,-8.88346004486084,5.101016044616699,17825334.0,50354.0,0.0773608039352,-0.00793334823100006,0.07421148922470526,0.0038775225770967853,-0.0004065461291674427,0.0037144540409670803,17.82533498085104
1631,E,1551279440025068.0,1.5480347,9.6510315,1.4162696136732982,163,1970-01-18 22:54:39.440025068,-0.00062561035,0.0007171631,0.005584717,9.84924140389376,0.00566522507868114,97.34861755371094,-8.887725830078125,5.101771831512451,17875688.0,50354.0,0.0774368712053,-0.00798406729750005,0.07170515915790526,0.0038973410670123695,-0.00040075277076104726,0.0036737434563289856,17.87568898499012
1631,E,1551279490379072.0,1.5445251,9.621033,1.422769913673298,163,1970-01-18 22:54:39.490379072,-0.00018310547,-0.0014648438,0.0009613037,9.818495618008365,0.0017616468928749742,97.34344482421875,-8.891839027404785,5.1024932861328125,17926042.0,50354.0,0.0778613780846,-0.008256432083500015,0.07147849818000526,0.003909944022371812,-0.0004088870529154386,0.0036049349407965736,17.92604298889637
1631,E,1551279540733076.0,1.6131592,9.655319,1.4341377136732982,163,1970-01-18 22:54:39.540733076,0.0021362305,0.0032348633,0.0014038086,9.861704388513258,0.004122923708274396,97.33618927001953,-8.905001640319824,5.1037797927856445,17976396.0,50354.0,0.0795010176211,-0.00814848569600001,0.07192836333370527,0.003961913036682409,-0.00041302661493447214,0.00361055455233069,17.97639699303545
1631,E,1551279591087080.0,1.606781,9.6689,1.4858345136732982,163,1970-01-18 22:54:39.591087080,-0.0010986328,0.010009766,0.0040130615,9.867843436470892,0.010840067896778787,97.32112884521484,-8.91693115234375,5.106569766998291,18026750.0,50354.0,0.0810684344154,-0.006943338237000008,0.07351614076790526,0.00404265709392296,-0.0003799668511611415,0.0036618562797662486,18.0267509969417
1631,E,1551279641441083.0,1.5376892,9.621979,1.443888013673298,163,1970-01-18 22:54:39.641441083,-0.0031738281,0.0134887695,0.0030975342,9.815779350478296,0.014199112843859276,97.31326293945312,-8.919569969177246,5.108405590057373,18077105.0,50355.0,0.07916989846049999,-0.007782893977500027,0.07376308893226893,0.004034400625982972,-0.0003707697115805746,0.003708122805776136,18.077104999916628
1631,E,1551279691795087.0,1.5481415,9.652863,1.4605354136732982,163,1970-01-18 22:54:39.691795087,4.5776367e-05,0.020568848,0.0032958984,9.845705091728277,0.020831287761105943,97.30271911621094,-8.923048973083496,5.111030101776123,18127459.0,50354.0,0.0776919595339,-0.008186502966000047,0.07312466863030526,0.003949310998725009,-0.0004020615068465014,0.0036981930721529306,18.12745900405571
1631,E,1551279742149091.0,1.4898529,9.649872,1.4164527136732983,163,1970-01-18 22:54:39.742149091,0.00012207031,0.013290405,0.0039978027,9.839104801575365,0.013879200000458808,97.29898071289062,-8.917990684509277,5.112236022949219,18177813.0,50354.0,0.07648758500880001,-0.007484240905000031,0.07243393008220526,0.0038817783929515582,-0.000394542318440169,0.003664728839784878,18.17781300796196
1631,E,1551279792503095.0,1.4736481,9.661316,1.4110206136732981,163,1970-01-18 22:54:39.792503095,0.0066375732,0.016113281,0.0035247803,9.84856088910919,0.017779743494594834,97.29622650146484,-8.910455703735352,5.1134819984436035,18228167.0,50354.0,0.074612064677,-0.007271419724000047,0.07118729596260526,0.0038042358801393876,-0.000371503267656335,0.003615951608130195,18.22816701186821
1631,E,1551279842857099.0,1.5270233,9.651306,1.4110054136732981,163,1970-01-18 22:54:39.842857099,-0.0021209717,0.00030517578,0.0048065186,9.846879235492318,0.005262534965303837,97.29341888427734,-8.910966873168945,5.113885879516602,18278521.0,50354.0,0.0755479038378,-0.0072353159060000545,0.07105014929050525,0.0037805775272971203,-0.00036523608295651255,0.003581112159137563,18.27852101600729
1631,E,1551279893211103.0,1.5638123,9.637161,1.3989967136732981,163,1970-01-18 22:54:39.893211103,0.00044250488,0.006088257,0.0048675537,9.840288701583978,0.007807417171463076,97.29277801513672,-8.91707706451416,5.114256381988525,18328875.0,50354.0,0.0778179679012,-0.007843466341000018,0.07074742356020526,0.0038612925527728038,-0.00037963850063272084,0.0035700374916623387,18.32887501991354
1631,E,1551279943565107.0,1.5858765,9.595337,1.3949531136732982,163,1970-01-18 22:54:39.943565107,-0.00088500977,0.0076904297,0.01071167,9.80338483023071,0.013216119909131331,97.29346466064453,-8.927469253540039,5.114453315734863,18379229.0,50354.0,0.0792997149176,-0.009252597854,0.07034327480310526,0.003955751900328928,-0.00043042760823751547,0.003552240512693069,18.37922902405262
1631,E,1551279993919111.0,1.569397,9.61142,1.4552406136732983,163,1970-01-18 22:54:39.993919111,-0.005630493,0.0042266846,0.005844116,9.809087463971693,0.009149918357689437,97.28475952148438,-8.93476676940918,5.115928649902344,18429583.0,50354.0,0.0794403209095,-0.009900679011,0.07175932747340526,0.003996597882018897,-0.000482222051630105,0.0035777172175157053,18.42958302795887
1631,E,1551280044273115.0,1.5540619,9.58168,1.456613913673298,163,1970-01-18 22:54:40.044273115,-0.00062561035,0.0036315918,0.003753662,9.77733480083932,0.005260211566286889,97.27687072753906,-8.940251350402832,5.117305278778076,18479937.0,50354.0,0.07863932472530001,-0.010244521300000007,0.07331176143500527,0.00397997123814736,-0.0005071957082300472,0.0036524548054470522,18.47993703186512
1631,E,1551280094627119.0,1.5720978,9.604645,1.4741462136732981,163,1970-01-18 22:54:40.094627119,0.0019836426,-0.008529663,0.0009918213,9.800637714975291,0.008813268312563589,97.26641082763672,-8.947510719299316,5.1185221672058105,18530291.0,50354.0,0.07870732276690001,-0.010415095475000035,0.07378774772620526,0.00396151654391112,-0.0005201471715441761,0.003703524342151798,18.5302910360042
1631,E,1551280144981123.0,1.5879974,9.636826,1.466074313673298,163,1970-01-18 22:54:40.144981123,0.008987427,0.00091552734,-0.002243042,9.83568245493169,0.009308236772041225,97.25711059570312,-8.956003189086914,5.1200995445251465,18580645.0,50354.0,0.0795617168504,-0.009026684633000064,0.07402593221700526,0.003984739610444763,-0.0004894856977791186,0.003721505019930212,18.58064503991045
1631,E,1551280195335126.0,1.5370941,9.653244,1.4095405136732981,163,1970-01-18 22:54:40.195335126,0.005783081,-0.007598877,-0.001953125,9.850526343536018,0.009746879232827039,97.25589752197266,-8.956389427185059,5.11997127532959,18630999.0,50354.0,0.0786804286955,-0.007803107610000035,0.07239935450810525,0.003984062498409125,-0.0004237236793020135,0.003686549443878108,18.630999042885378
1631,E,1551280245689130.0,1.5768585,9.630737,1.4259437136732982,163,1970-01-18 22:54:40.245689130,0.0066223145,-0.00289917,-0.0017242432,9.832749305753262,0.007431907604280108,97.25274658203125,-8.963081359863281,5.120382308959961,18681353.0,50354.0,0.07839998461020001,-0.007956410363000018,0.07138898639190526,0.003954813565797609,-0.00039677738400622234,0.003620159058839565,18.68135304702446
1631,E,1551280296043134.0,1.5711517,9.645874,1.428354613673298,163,1970-01-18 22:54:40.296043134,0.009277344,-0.0046691895,-0.0027160645,9.846369521681364,0.010735336447890513,97.24919128417969,-8.968385696411133,5.120797157287598,18731707.0,50354.0,0.0792574528054,-0.00814196485300006,0.07186266898760525,0.003969341301812561,-0.00040530879281323396,0.0036066469274899362,18.73170705093071
1631,E,1551280346397138.0,1.579773,9.6462555,1.4551185136732983,163,1970-01-18 22:54:40.346397138,0.008270264,-0.0034179688,-0.000869751,9.844897656464505,0.008990897850018675,97.24174499511719,-8.974963188171387,5.121860980987549,18782061.0,50354.0,0.0793308311719,-0.007751255578500043,0.07259720292720526,0.003992777225696483,-0.0004001436108038781,0.003637066195199185,18.78206105506979
1631,E,1551280396751142.0,1.5374908,9.665466,1.4746955136732982,163,1970-01-18 22:54:40.396751142,0.0051879883,-0.0035705566,-0.00010681152,9.854727088295235,0.006298849556509916,97.23113250732422,-8.974960327148438,5.123383522033691,18832415.0,50354.0,0.0784833506926,-0.007257987794500014,0.07376392776650527,0.003973287656802517,-0.00037788772040202247,0.0036849341874755507,18.83241505897604
1631,E,1551280447105146.0,1.4897919,9.607193,1.433802013673298,163,1970-01-18 22:54:40.447105146,0.011138916,-0.0020446777,-0.00010681152,9.795110254093595,0.01132552715120749,97.22809600830078,-8.969279289245605,5.123844623565674,18882769.0,50354.0,0.0762178965379,-0.008241464357000015,0.07322724224600526,0.0038949133015222987,-0.00039022970681831625,0.0037007966874049777,18.88276906288229
1631,E,1551280497459150.0,1.5007324,9.614914,1.407999413673298,163,1970-01-18 22:54:40.497459150,0.013671875,-0.0032806396,0.00021362305,9.807528673920473,0.014061592975484835,97.22891235351562,-8.96508502960205,5.123661994934082,18933123.0,50354.0,0.0752924303011,-0.009514212061000006,0.07154803453630526,0.0038145754988255036,-0.0004470346651759866,0.003645007143548232,18.93312306702137
1631,E,1551280547813154.0,1.5207367,9.6540985,1.4354957136732982,163,1970-01-18 22:54:40.547813154,0.007461548,-0.0075683594,0.00035095215,9.845646887014237,0.010633810698684737,97.22469329833984,-8.963061332702637,5.12400484085083,18983477.0,50354.0,0.07607152753070001,-0.008333272287500023,0.07159067682120526,0.003810890366331229,-0.0004493461134421853,0.0036038033358480426,18.98347707092762
1631,E,1551280598167158.0,1.5382538,9.639435,1.4062294136732982,163,1970-01-18 22:54:40.598167158,0.010879517,-0.011230469,-0.0008544922,9.83758629866737,0.015659421478238296,97.22532653808594,-8.96377182006836,5.123446464538574,19033831.0,50354.0,0.07701620381850001,-0.007715907070500022,0.07154611353120527,0.003854289812178809,-0.0004040701886963671,0.00360375497070264,19.0338310750667
1631,E,1551280648521162.0,1.5572357,9.646515,1.4129127136732982,163,1970-01-18 22:54:40.648521162,0.013763428,-0.014678955,-0.00074768066,9.846680571340807,0.020136104304769257,97.22500610351562,-8.967033386230469,5.122889041900635,19084185.0,50354.0,0.07793513914149999,-0.00790683685,0.07097754134020527,0.0039012099617039206,-0.00039333382368642906,0.003588318058697504,19.08418507897295
1631,E,1551280698875165.0,1.5367279,9.6601715,1.4121803136732982,163,1970-01-18 22:54:40.698875165,0.011383057,-0.019470215,-0.002243042,9.856932094564831,0.022664829499143335,97.22445678710938,-8.966853141784668,5.122121810913086,19134539.0,50354.0,0.0778967215572,-0.0073847539895,0.07112736714950527,0.003923378756811169,-0.0003849963825660915,0.003577775281045442,19.134539081947878
1631,E,1551280749229169.0,1.5669098,9.627808,1.4237007136732982,163,1970-01-18 22:54:40.749229169,0.014328003,-0.019165039,-0.002243042,9.828564111989555,0.024033760156357015,97.22298431396484,-8.971787452697754,5.121538162231445,19184893.0,50354.0,0.0781402863729,-0.007855740128500023,0.07139897662550526,0.003928543748656128,-0.0003837099204088866,0.00358838575722344,19.184893085854128
1631,E,1551280799583173.0,1.5626984,9.625046,1.4255775136732982,163,1970-01-18 22:54:40.799583173,0.013946533,-0.0140686035,-0.0014953613,9.82495793699683,0.019866240021147407,97.22126770019531,-8.976129531860352,5.12123441696167,19235247.0,50354.0,0.0787941456514,-0.008740094842000055,0.07173627792990526,0.003951138195075802,-0.00041783333705228056,0.0036037163039415714,19.23524708999321
1631,E,1551280849937177.0,1.5597992,9.594788,1.3805641136732982,163,1970-01-18 22:54:40.849937177,0.014389038,-0.004699707,-0.0019836426,9.800483915377281,0.015266515595112978,97.2267074584961,-8.980546951293945,5.1202802658081055,19285601.0,50354.0,0.07861512207520001,-0.009571439382000068,0.07065022775170526,0.003963093133552609,-0.0004610294971576511,0.003584865053545909,19.28560109389946
1631,E,1551280900291181.0,1.5559845,9.608856,1.3738655136732982,163,1970-01-18 22:54:40.900291181,0.016464233,0.0029907227,-0.0042877197,9.814505363991987,0.017274256301570624,97.2327651977539,-8.983894348144531,5.119637489318848,19335955.0,50354.0,0.07844608621490001,-0.009979055012000066,0.06934827472770526,0.003954330041119848,-0.0004922227973577414,0.0035247422969241194,19.33595509803854
1631,E,1551280950645185.0,1.5302734,9.620438,1.3605140136732983,163,1970-01-18 22:54:40.950645185,0.015289307,0.006286621,-0.005722046,9.823520268156912,0.017493608048770443,97.24031829833984,-8.983099937438965,5.11892032623291,19386309.0,50354.0,0.0777027151483,-0.00933326496200005,0.06884347336000526,0.003931358371921287,-0.000486226279985401,0.003479253641604288,19.38630910194479
1631,E,1551281000999189.0,1.5609436,9.61644,1.3550209136732982,163,1970-01-18 22:54:41.000999189,0.014022827,0.008544922,-0.0076293945,9.825141561895421,0.01810698841593055,97.24848175048828,-8.986736297607422,5.118220806121826,19436663.0,50354.0,0.07782757040900001,-0.009142322594000015,0.06836902286580528,0.003915785999476143,-0.0004651598678974137,0.0034545990174772324,19.43666310585104
1631,E,1551281051353193.0,1.5088959,9.633423,1.3353065136732982,163,1970-01-18 22:54:41.051353193,0.013442993,0.004928589,-0.0020446777,9.836215582643849,0.014463255415909908,97.25900268554688,-8.9826078414917,5.116937637329102,19487017.0,50354.0,0.07728934909150001,-0.008815399249000004,0.06773437363830526,0.003905378682264089,-0.0004521215628412115,0.0034266752137839906,19.48701710999012
1631,E,1551281101707197.0,1.4918518,9.649689,1.3487953136732982,163,1970-01-18 22:54:41.101707197,0.011245728,0.0046081543,-0.0066375732,9.847789308669169,0.013847702419100098,97.26685333251953,-8.975577354431152,5.116065979003906,19537371.0,50354.0,0.0755498248429,-0.007978289176000013,0.06757763170710526,0.003848031882146389,-0.0004228146934762254,0.0034067503585814007,19.53737111389637
1631,E,1551281152061201.0,1.5063629,9.659592,1.3482154136732982,163,1970-01-18 22:54:41.152061201,0.012039185,0.0033569336,-0.00579834,9.859775131409707,0.01377794343923047,97.27445983886719,-8.970624923706055,5.115174293518066,19587725.0,50354.0,0.0754860515019,-0.007319432263000027,0.06790263908240526,0.00380263025873303,-0.000385150732669704,0.0034109867776675067,19.58772511803545
1631,E,1551281202415205.0,1.489563,9.662918,1.3651985136732983,163,1970-01-18 22:54:41.202415205,0.010879517,-0.0015258789,-0.0024108887,9.85829162791972,0.011247425522960439,97.27932739257812,-8.963494300842285,5.114442348480225,19638079.0,50354.0,0.0754284263843,-0.006986365730000051,0.06831562244880526,0.0037995738097408574,-0.000360177076069763,0.0034295671705712877,19.6380791219417
1631,E,1551281252769208.0,1.5017242,9.653198,1.3339485136732983,163,1970-01-18 22:54:41.252769208,0.008270264,-0.0034637451,-0.0021972656,9.854666506431796,0.009231618106508379,97.2886962890625,-8.958413124084473,5.112892150878906,19688433.0,50354.0,0.07531163783440001,-0.007147347468000057,0.06795642470750526,0.0037951825968342103,-0.00035584449718604875,0.0034309213312544305,19.688433124916628
1631,E,1551281303123212.0,1.4840393,9.64975,1.3687538136732982,163,1970-01-18 22:54:41.303123212,0.0043945313,-0.009399414,6.1035156e-05,9.844095254489286,0.010376156040670536,97.29267120361328,-8.951163291931152,5.111846923828125,19738787.0,50354.0,0.0751725676395,-0.007478878204000065,0.06804593649560527,0.003788740841216381,-0.0003682444837439471,0.0034241314480107144,19.73878712905571
1631,E,1551281353477216.0,1.4532013,9.656052,1.3239540136732981,163,1970-01-18 22:54:41.353477216,0.005493164,-0.007446289,-0.0002746582,9.851504928455743,0.009257294838625602,97.30301666259766,-8.939395904541016,5.10991907119751,19789141.0,50354.0,0.0739509065862,-0.007407023046000038,0.06779430496910525,0.003754481710580449,-0.00037478233577125264,0.003420049759357017,19.78914113296196
1631,E,1551281403831220.0,1.4717102,9.668457,1.2987159136732982,163,1970-01-18 22:54:41.403831220,0.0045318604,-0.011734009,0.0009613037,9.869775899424965,0.012615420353710093,97.31648254394531,-8.930279731750488,5.107277870178223,19839495.0,50354.0,0.0736404968355,-0.0069360369070000155,0.06603096076080525,0.0037159087639481417,-0.0003611152204366824,0.0033693187152819565,19.83949513686821
1631,E,1551281454185224.0,1.5257568,9.651199,1.3447517136732983,163,1970-01-18 22:54:41.454185224,0.0053253174,-0.007385254,6.1035156e-05,9.85498724752961,0.009105202213324353,97.32327270507812,-8.929640769958496,5.1059041023254395,19889849.0,50354.0,0.075467226659,-0.0070582208880000325,0.06655458445370525,0.003754085154421027,-0.0003523334285047162,0.003338106271865731,19.88984914100729
1631,E,1551281504539228.0,1.5304413,9.653824,1.3605751136732982,163,1970-01-18 22:54:41.504539228,0.005630493,-0.0036773682,-0.002090454,9.85623660219841,0.007042406281061626,97.32752990722656,-8.929595947265625,5.105123996734619,19940203.0,50354.0,0.07694589956369999,-0.00742663592900003,0.06811201353210526,0.0038373052789089177,-0.0003646852400816106,0.0033905009374887514,19.94020314491354
1631,E,1551281554893232.0,1.5054016,9.66539,1.310663613673298,163,1970-01-18 22:54:41.554893232,0.005432129,-0.0035705566,-0.0018920898,9.870251113486757,0.006770295689089849,97.33867645263672,-8.925567626953125,5.103267669677734,19990557.0,50354.0,0.07643341669329999,-0.007069349122000022,0.06725377743840526,0.0038616310454024885,-0.0003649654156290283,0.0034081045192645436,19.99055714905262
1631,E,1551281605247236.0,1.5132904,9.647156,1.2889045136732982,163,1970-01-18 22:54:41.605247236,0.0036468506,-0.004714966,-0.000579834,9.85653770340381,0.005988875616293292,97.35302734375,-8.923171043395996,5.10084342956543,20040911.0,50354.0,0.07600160848399999,-0.0072372293580000085,0.06544932674220526,0.0038378566288888817,-0.00036019672639096075,0.003341066053955231,20.04091115295887
1631,E,1551281655601240.0,1.5124207,9.658936,1.3155159136732981,163,1970-01-18 22:54:41.655601240,0.0011901855,-0.0037384033,0.00030517578,9.86435795067481,0.003935140787133256,97.36279296875,-8.920577049255371,5.099156379699707,20091265.0,50354.0,0.07617832836470001,-0.007399721716000002,0.06557149309930527,0.0038314342700397205,-0.00036851451719009827,0.003298711181149711,20.09126515686512
1631,E,1551281705955244.0,1.4744568,9.667786,1.3183998136732982,163,1970-01-18 22:54:41.705955244,-0.00021362305,-0.008529663,0.0010375977,9.866896313510214,0.008595196023832475,97.37165832519531,-8.912416458129883,5.097353458404541,20141619.0,50354.0,0.07520061481750001,-0.006880320206000032,0.06631409626740525,0.00381126765249825,-0.0003595286154701949,0.003320483483485671,20.1416191610042
1631,E,1551281756309248.0,1.4464569,9.682556,1.312052113673298,163,1970-01-18 22:54:41.756309248,-0.0005493164,-0.008422852,-0.00061035156,9.87807322534168,0.008462784018749822,97.38092803955078,-8.900030136108398,5.095504283905029,20191973.0,50354.0,0.0735398442249,-0.006285639466000049,0.06622688817480527,0.0037448385373105054,-0.00033147936666194606,0.0033369843653015346,20.19197316491045
1631,E,1551281806663251.0,1.4573364,9.655472,1.3177742136732982,163,1970-01-18 22:54:41.806663251,-0.0032958984,-0.008468628,0.002029419,9.852367328882902,0.009311237723475198,97.38954162597656,-8.890235900878906,5.093720436096191,20242327.0,50354.0,0.0731088039141,-0.006595669044000048,0.06621113744360527,0.003692173014195603,-0.00032431270435627247,0.003334392170994722,20.242327167885378
1631,E,1551281857017255.0,1.4787292,9.637665,1.3191322136732981,163,1970-01-18 22:54:41.857017255,-0.0043792725,-0.0057678223,0.0041656494,9.837928772298053,0.00835454586661381,97.39801025390625,-8.884273529052734,5.092068672180176,20292681.0,50354.0,0.0739213236112,-0.007725889751000042,0.06638939312130525,0.0037017775207044785,-0.0003605738857817173,0.0033384835580327517,20.29268117202446
1631,E,1551281907371259.0,1.4743652,9.648132,1.3452247136732982,163,1970-01-18 22:54:41.907371259,-0.0054473877,-0.006378174,0.0014648438,9.8440940481121,0.008514746249113107,97.40220642089844,-8.877541542053223,5.091057777404785,20343035.0,50354.0,0.07435005770880002,-0.007910688931000023,0.06708051435980526,0.0037330285674936404,-0.00039368214147671567,0.0033603718606519195,20.34303517593071
1631,E,1551281957725263.0,1.4945984,9.670197,1.3437294136732982,163,1970-01-18 22:54:41.957725263,-0.0070648193,-0.007369995,0.0037231445,9.868959278712222,0.010866936229202678,97.40601348876953,-8.873506546020508,5.090031147003174,20393389.0,50354.0,0.07474959655720001,-0.007091630767000028,0.06769979806420526,0.0037538819954550827,-0.0003777134030365473,0.003393363925899313,20.39338918006979
1631,E,1551282008079267.0,1.4880371,9.667862,1.3209327136732982,163,1970-01-18 22:54:42.008079267,-0.008102417,-0.0063171387,0.007369995,9.868673428532398,0.012644059035647996,97.41302490234375,-8.868805885314941,5.088529586791992,20443743.0,50354.0,0.0750938139835,-0.00659488855700005,0.06708819838020526,0.003772607547183204,-0.00034458549702034996,0.0033935573864809243,20.44374318397604
1631,E,1551282058433271.0,1.4816437,9.6571045,1.3503059136732982,163,1970-01-18 22:54:42.058433271,-0.008666992,-0.008544922,0.005706787,9.85331959541569,0.013442464810350704,97.4157943725586,-8.863523483276367,5.087582588195801,20494097.0,50354.0,0.0747676535016,-0.006924518429500027,0.06725377492070526,0.0037730621668723625,-0.0003403781096991125,0.0033823278617970244,20.49409718788229
1631,E,1551282108787275.0,1.5221405,9.657028,1.4027809136732983,163,1970-01-18 22:54:42.108787275,-0.009170532,-0.0032806396,0.0041656494,9.852751570844163,0.010593105695301664,97.41075897216797,-8.864299774169922,5.088099002838135,20544451.0,50354.0,0.0756262748034,-0.007197286047500005,0.06931446705210526,0.0037864679329349853,-0.0003555446713174298,0.003438378628149451,20.54445119202137
1631,E,1551282159141279.0,1.5197906,9.621765,1.374781013673298,163,1970-01-18 22:54:42.159141279,-0.003479004,0.0032958984,0.0053100586,9.82136159152287,0.007152841213851494,97.41085052490234,-8.865524291992188,5.088186740875244,20594805.0,50354.0,0.07658669930470001,-0.00808702863900003,0.06993067664480526,0.0038322660491196345,-0.0003848131908620114,0.003505774982857116,20.59480519592762
1631,E,1551282209495283.0,1.4802704,9.627609,1.3324684136732983,163,1970-01-18 22:54:42.209495283,0.0043945313,0.0032958984,0.0028381348,9.826542304017789,0.006183030062418692,97.41740417480469,-8.860651016235352,5.087353229522705,20645159.0,50354.0,0.075532535797,-0.008827710802000047,0.06816041883230527,0.0038299059821555012,-0.0004258623949060589,0.0034767195108272118,20.6451592000667
1631,E,1551282259841420.0,1.537384,9.650742,1.3435157136732983,163,1970-01-18 22:54:42.259841420,0.0044555664,0.0056762695,-0.003692627,9.856507626144465,0.008106022547622738,97.42169952392578,-8.863324165344238,5.087027072906494,20695505.0,50346.0,0.07596341421120001,-0.008096870277000064,0.06736254843769587,0.003813607549556419,-0.0004260424795016699,0.0034115196550877384,20.695505336858332
1631,E,1551282310195423.0,1.5167694,9.6188965,1.3787330136732983,163,1970-01-18 22:54:42.310195423,0.0099487305,0.008178711,-0.0046691895,9.817580472917912,0.0136992657748531,97.42161560058594,-8.863751411437988,5.08754825592041,20745859.0,50354.0,0.07689442015180001,-0.008317511485500056,0.06853805620840527,0.0038485016957572516,-0.0004132648896344656,0.003421569523174889,20.74585934006609
1631,E,1551282360549427.0,1.477478,9.632111,1.3522743136732982,163,1970-01-18 22:54:42.360549427,0.022232056,0.015472412,-0.0033111572,9.827942223772652,0.027287792308796105,97.42570495605469,-8.858251571655273,5.0878682136535645,20796213.0,50354.0,0.07538616678980001,-0.008786584172500035,0.06875857148060527,0.0038339683374286637,-0.0004306298163814683,0.003456717195326218,20.79621334397234
1631,E,1551282410903431.0,1.4483795,9.652023,1.311426513673298,163,1970-01-18 22:54:42.410903431,0.02279663,0.015426636,-0.008255005,9.848512613197034,0.02873695434772831,97.4352798461914,-8.847911834716797,5.087375640869141,20846567.0,50354.0,0.0736643142775,-0.00795255828200004,0.06706399573010526,0.0037526439618314126,-0.00042144138957694844,0.0034196047746640587,20.84656734787859
1631,E,1551282461257435.0,1.423523,9.655304,1.3103279136732982,163,1970-01-18 22:54:42.461257435,0.017181396,0.008117676,-0.010604858,9.848251467826085,0.021761434818273268,97.44451904296875,-8.834020614624023,5.086557388305664,20896921.0,50354.0,0.0723058892425,-0.007368628121000061,0.06600791121730526,0.0036750918140230405,-0.00038574151006833354,0.003350351401214954,20.89692135201767
1631,E,1551282511611439.0,1.440506,9.673904,1.3111213136732982,163,1970-01-18 22:54:42.511611439,0.007858276,0.0010375977,-0.009719849,9.868846411954426,0.01254211207341181,97.45259857177734,-8.822525024414062,5.085487365722656,20947275.0,50354.0,0.07210765813300002,-0.006817730184000049,0.06600022719690526,0.0036358998822729645,-0.0003571699430449878,0.0033235689008545787,20.94727535592392
1631,E,1551282561965443.0,1.4219666,9.644455,1.3790687136732982,163,1970-01-18 22:54:42.561965443,0.0032043457,-0.01159668,-0.009719849,9.82841744848913,0.015466941616567557,97.4510269165039,-8.809374809265137,5.085250377655029,20997629.0,50354.0,0.07206847265020001,-0.0070908754570000124,0.06773091431850527,0.003629922444728627,-0.00035017696422345857,0.0033669489499334915,20.997629360063
1631,E,1551282612319447.0,1.4472198,9.624207,1.3597206136732982,163,1970-01-18 22:54:42.612319447,0.0017089844,-0.024520874,-0.005203247,9.814723845550759,0.025125040671535807,97.45272827148438,-8.800710678100586,5.083835124969482,21047983.0,50354.0,0.07223750599280002,-0.008342096826000015,0.06895449889460527,0.0036331916242948125,-0.0003885559431690917,0.003441328648466484,21.04798336396925
1631,E,1551282662673451.0,1.4619751,9.680328,1.286249513673298,163,1970-01-18 22:54:42.662673451,-0.0021820068,-0.024841309,-0.0002746582,9.881645044107467,0.024938468750818572,97.46379089355469,-8.79322338104248,5.080908298492432,21098337.0,50354.0,0.0732447999973,-0.0074389223050000475,0.06661758989620527,0.003662808017912749,-0.0003973187186611886,0.003413298479486237,21.0983373678755
1631,E,1551282713027455.0,1.4468231,9.662155,1.2794899136732982,163,1970-01-18 22:54:42.713027455,-0.007797241,-0.034240723,0.0029449463,9.862530673862416,0.03524055600419343,97.47576141357422,-8.78421688079834,5.077327251434326,21148691.0,50354.0,0.07323481228140001,-0.006483505509000045,0.06459762156230525,0.0036879171983408305,-0.0003505249650730803,0.0033036053788909193,21.148691372014582
1631,E,1551282763381459.0,1.5023193,9.597,1.3337654136732982,163,1970-01-18 22:54:42.763381459,-0.0116119385,-0.032730103,0.0034942627,9.799739334009216,0.034904249453827293,97.4805679321289,-8.78503131866455,5.074875831604004,21199045.0,50354.0,0.0742505582048,-0.008581454565000042,0.06579392937660526,0.0037132391727310583,-0.00037929049978310017,0.0032828680779889504,21.199045375920832
1631,E,1551282813735463.0,1.5096893,9.630661,1.3667549136732982,163,1970-01-18 22:54:42.813735463,-0.009597778,-0.010314941,0.012145996,9.829547074861837,0.01860216571270079,97.47972106933594,-8.786811828613281,5.074349403381348,21249399.0,50354.0,0.07583334052219999,-0.00937437900300005,0.06799100028160525,0.0037786623182496796,-0.0004520740217415384,0.0033683031740047663,21.249399380059913
1631,E,1551282864089466.0,1.4924164,9.684006,1.3496955136732982,163,1970-01-18 22:54:42.864089466,-0.008102417,-0.009429932,0.019805908,9.881387098811794,0.023384755086829048,97.48043823242188,-8.785232543945312,5.073589324951172,21299753.0,50354.0,0.0755840152089,-0.0071838289410000354,0.06839207240930525,0.003812234765241905,-0.00041688600140609014,0.0034337166211390537,21.29975338303484
1631,E,1551282914443470.0,1.4939575,9.652618,1.3026680136732982,163,1970-01-18 22:54:42.914443470,-0.0066833496,0.010391235,0.009170532,9.857075384548743,0.01538647405561356,97.4885025024414,-8.784065246582031,5.072756767272949,21350107.0,50354.0,0.07518793568030001,-0.006631017552000024,0.06677855652800527,0.003795985407537389,-0.0003478163901542625,0.0034031909247546673,21.35010738694109
1631,E,1551282964797474.0,1.4246368,9.647705,1.2481330136732982,163,1970-01-18 22:54:42.964797474,-0.0038452148,0.013320923,0.008056641,9.84948433744172,0.016035651861803096,97.50454711914062,-8.77287483215332,5.070881366729736,21400461.0,50354.0,0.0734814486911,-0.007544967829000022,0.06422151746550527,0.003743049090318738,-0.0003569087839374382,0.0032981888629346153,21.40046139108017
1631,E,1551283015151478.0,1.4414673,9.648514,1.2987312136732982,163,1970-01-18 22:54:43.015151478,-0.007095337,-0.0029144287,0.012023926,9.845765299605793,0.01426227535298729,97.51272583007812,-8.764598846435547,5.06935453414917,21450815.0,50354.0,0.07215990292570001,-0.007648294237000019,0.06412240065190526,0.0036668123096561746,-0.00038252075903568307,0.003231314826442045,21.45081539498642
1631,E,1551283065505482.0,1.4866943,9.595398,1.305719713673298,163,1970-01-18 22:54:43.065505482,-0.00843811,0.004058838,0.0075683594,9.799532323093409,0.012039764544620978,97.52066802978516,-8.764042854309082,5.068234920501709,21501169.0,50354.0,0.07372232460320001,-0.008965227576000039,0.06557226099780526,0.0036728768424951156,-0.0004182786386859025,0.003265322496354762,21.50116939889267
1631,E,1551283115859486.0,1.4590759,9.644531,1.4000190136732982,163,1970-01-18 22:54:43.115859486,-0.010345459,0.004486084,0.012680054,9.83129031319124,0.016968713593512416,97.51351928710938,-8.75897216796875,5.0693793296813965,21551523.0,50354.0,0.07416565632540001,-0.009065507567000034,0.06812238393840526,0.0037233756958393624,-0.00045395981869531286,0.0033660300755589726,21.55152340303175
1631,E,1551283166213490.0,1.5305023,9.6319275,1.3941902136732982,163,1970-01-18 22:54:43.166213490,-0.017349243,-0.004562378,0.012161255,9.830524127105521,0.021672739763651434,97.50739288330078,-8.76449203491211,5.06988000869751,21601877.0,50354.0,0.0752686103414,-0.008145804345500027,0.07034980571690526,0.003762306531870024,-0.00043332920002101406,0.0034863143189517534,21.601877406938
1631,E,1551283216567494.0,1.6195679,9.610306,1.3962043136732982,163,1970-01-18 22:54:43.216567494,-0.0053863525,0.001739502,0.006011963,9.823377974931574,0.008257261021405903,97.50205993652344,-8.782928466796875,5.07069730758667,21652231.0,50354.0,0.07930931742540001,-0.009007487170500053,0.07025376301500527,0.0038918084873847242,-0.00043186842049833403,0.003539976049963312,21.652231411077082
1631,E,1551283266921498.0,1.5360565,9.672455,1.3920539136732981,163,1970-01-18 22:54:43.266921498,0.002746582,0.010040283,0.008026123,9.871366277302513,0.013144186768832144,97.49667358398438,-8.787623405456543,5.071985721588135,21702585.0,50354.0,0.0794491555188,-0.007987126303000063,0.07019997738990527,0.003997062073316124,-0.00042787338342231246,0.003536203822174433,21.702585414983332
1631,E,1551283317275502.0,1.4851379,9.6484375,1.3051857136732983,163,1970-01-18 22:54:43.317275502,0.0020751953,0.00093078613,0.0032806396,9.851309785070544,0.003991916148672292,97.50453186035156,-8.784870147705078,5.0708208084106445,21752939.0,50354.0,0.0760646114088,-0.007027089527500053,0.06790840209770527,0.003915370109936186,-0.0003780129119645014,0.003477154670359571,21.752939418889582
1631,E,1551283367629506.0,1.517395,9.669922,1.3281807136732982,163,1970-01-18 22:54:43.367629506,-0.0031280518,-0.006210327,0.001739502,9.874203100611107,0.0071678962547191095,97.50824737548828,-8.786291122436523,5.06991720199585,21803293.0,50354.0,0.07559477082330002,-0.007090862868500044,0.06630026654130526,0.0038183282664575823,-0.00035544768747409447,0.0033789716503243687,21.803293423028663
1631,E,1551283417983509.0,1.5295258,9.669571,1.3365730136732983,163,1970-01-18 22:54:43.417983509,-0.0025787354,-0.0035247803,0.0035858154,9.874629648612707,0.005650842814072819,97.51065063476562,-8.789556503295898,5.069334506988525,21853647.0,50354.0,0.07671232498160001,-0.006558784739000057,0.06709050459340526,0.0038346357510799685,-0.0003436571778140301,0.0033583794448586073,21.85364742600359
1631,E,1551283468337513.0,1.5323639,9.651489,1.3319801136732983,163,1970-01-18 22:54:43.468337513,0.0014343262,0.004989624,0.0002593994,9.857967478735013,0.005198165768624813,97.51412963867188,-8.793424606323242,5.069053649902344,21904001.0,50354.0,0.0770891969769,-0.007022872380000055,0.06718616208720526,0.0038722609183491547,-0.0003419453812850658,0.0033806836370177313,21.90400142990984
1631,E,1551283518691517.0,1.5477142,9.673431,1.3619178136732981,163,1970-01-18 22:54:43.518691517,0.0017852783,0.003616333,0.0043640137,9.877961119894401,0.005942196441479159,97.5127944946289,-8.7991943359375,5.069422721862793,21954355.0,50354.0,0.07754712632369999,-0.006925689160000022,0.06782426811680527,0.0038932787117392067,-0.000351182933892582,0.0033991576012463737,21.95435543404892
1631,E,1551283569045521.0,1.531311,9.622192,1.3742317136732982,163,1970-01-18 22:54:43.569045521,0.0007019043,0.009414673,0.00390625,9.823639238178945,0.010217021405761442,97.51055145263672,-8.803662300109863,5.070204734802246,22004709.0,50354.0,0.07752061746040001,-0.007663299729000015,0.06888803665000526,0.0039041405852522854,-0.000367306973258354,0.003442005697113988,22.00470943795517
1631,E,1551283619399525.0,1.516922,9.635986,1.398218513673298,163,1970-01-18 22:54:43.619399525,0.004470825,0.01184082,0.0030975342,9.831891625699047,0.013030272927809096,97.50477600097656,-8.805689811706543,5.071683883666992,22055063.0,50354.0,0.07674536224100001,-0.008606052494000014,0.06980197937390525,0.0038839545709421484,-0.00040961348091847174,0.0034917985334339953,22.05506344186142
1631,E,1551283669753529.0,1.5146027,9.608856,1.400324213673298,163,1970-01-18 22:54:43.669753529,0.008224487,0.015090942,-0.0009765625,9.804681224768276,0.0172143077460855,97.49951934814453,-8.80776309967041,5.073300361633301,22105417.0,50354.0,0.07632469737190001,-0.00894181296600003,0.07045891024640526,0.003853844890873984,-0.00044180260868642113,0.0035313484179705585,22.1054174460005
1631,E,1551283720107533.0,1.5017548,9.650238,1.3986305136732982,163,1970-01-18 22:54:43.720107533,0.0056915283,0.012817383,0.00022888184,9.843483225342403,0.014026089556789223,97.49372863769531,-8.807051658630371,5.074854373931885,22155771.0,50354.0,0.0759428327775,-0.008582990362000055,0.07046928317040527,0.0038336396065714443,-0.00044122197338905815,0.0035481491256550385,22.15577144990675
1631,E,1551283770461537.0,1.5053558,9.614105,1.365229013673298,163,1970-01-18 22:54:43.770461537,0.001373291,0.0035095215,0.0018005371,9.812857158334198,0.0041766736978269756,97.49352264404297,-8.807598114013672,5.075056552886963,22206125.0,50354.0,0.0757100235762,-0.00845083628900003,0.06958569132000526,0.0038181639644171055,-0.0004288606535922292,0.0035261640927450664,22.206125454045832
1631,E,1551283820815541.0,1.5112762,9.612793,1.327143113673298,163,1970-01-18 22:54:43.820815541,0.005569458,0.011428833,0.00289917,9.817456475909827,0.013040025799228812,97.49907684326172,-8.80900764465332,5.0747904777526855,22256479.0,50354.0,0.07594974386400001,-0.00939358905400003,0.06778585305020525,0.003818337964841916,-0.0004492690968607125,0.0034586033726087904,22.256479457952082
1631,E,1551283871169545.0,1.5393066,9.612213,1.349115713673298,163,1970-01-18 22:54:43.871169545,0.0042419434,0.007019043,-0.0012359619,9.818356202277272,0.008293892346956534,97.50123596191406,-8.814266204833984,5.07484245300293,22306833.0,50354.0,0.0768045231556,-0.009441223938000023,0.06738016849610526,0.0038458941807524697,-0.0004742040866995853,0.00340307492447146,22.306833461858332
1631,E,1551283921523548.0,1.5006256,9.638657,1.340174113673298,163,1970-01-18 22:54:43.921523548,0.008895874,0.013305664,0.0030212402,9.839438738297858,0.016288190846465055,97.50435638427734,-8.813459396362305,5.075068473815918,22357187.0,50354.0,0.0765363729994,-0.008790046010000016,0.06770824998310526,0.0038606637424944356,-0.00045900868348079703,0.0034011211120510833,22.35718746506609
1631,E,1551283971877552.0,1.5159302,9.6311035,1.3986305136732982,163,1970-01-18 22:54:43.971877552,0.006576538,0.004623413,0.0015716553,9.826901855143081,0.008191269756028737,97.49891662597656,-8.815083503723145,5.07616662979126,22407541.0,50354.0,0.0759478253766,-0.008314439891500028,0.06895488410270526,0.003839094662512552,-0.0004306396415420666,0.0034407677268784515,22.40754146897234
1631,E,1551284022231556.0,1.5139465,9.674698,1.3759407136732982,163,1970-01-18 22:54:44.022231556,0.007522583,0.004837036,0.0009613037,9.872179492245632,0.008995014011151884,97.49615478515625,-8.815321922302246,5.076876640319824,22457895.0,50354.0,0.07628320567590001,-0.007407035634500052,0.06985537979090527,0.0038327206688087935,-0.000395819589318104,0.003494826014049432,22.45789547287859
1631,E,1551284072585560.0,1.5082855,9.694931,1.3323310136732982,163,1970-01-18 22:54:44.072585560,0.001739502,0.0001373291,0.003616333,9.896759392062057,0.004015294616413571,97.49917602539062,-8.8142728805542,5.076411724090576,22508249.0,50354.0,0.076090735064,-0.005800050667000042,0.06818615727940526,0.003836318706008463,-0.00033251481181286786,0.0034754717788192083,22.50824947701767
1631,E,1551284122939564.0,1.5153809,9.659332,1.350626313673298,163,1970-01-18 22:54:44.122939564,-0.0013427734,0.0052490234,0.005065918,9.860589580172352,0.007417466699636685,97.49996185302734,-8.815208435058594,5.076507091522217,22558603.0,50354.0,0.0761268489528,-0.0061869204490000475,0.06754881663060526,0.0038323821127909745,-0.0003017959717875343,0.003417399438132335,22.55860348092392
1631,E,1551284173293568.0,1.51297,9.657791,1.3397773136732982,163,1970-01-18 22:54:44.173293568,0.0045928955,-0.0051879883,0.006134033,9.860121514065735,0.009253986844595476,97.5027084350586,-8.815762519836426,5.075828552246094,22608957.0,50354.0,0.0762447906093,-0.0071219942290000685,0.06773629212570526,0.003836260769254992,-0.00033507854484800893,0.0034060731831576296,22.608957485063
1631,E,1551284223647572.0,1.5324097,9.662964,1.433710413673298,163,1970-01-18 22:54:44.223647572,0.005783081,0.008010864,-0.0009460449,9.856364401662663,0.009925369959445996,97.49153137207031,-8.818987846374512,5.0779829025268555,22659311.0,50354.0,0.0766735247069,-0.007030551365000033,0.06982810051140527,0.0038500244247159678,-0.0003563186404201406,0.0034634587134245317,22.65931148896925
1631,E,1551284274001576.0,1.4994049,9.616913,1.3940681136732982,163,1970-01-18 22:54:44.274001576,0.00030517578,-0.003829956,0.0023345947,9.811028081596566,0.004495778868216574,97.48711395263672,-8.818376541137695,5.078461170196533,22709665.0,50354.0,0.0763319961842,-0.008059736771000015,0.07119497998300525,0.003852219999475225,-0.00037992818440007325,0.003550538097607774,22.7096654928755
1631,E,1551284324355580.0,1.5099182,9.646637,1.315256513673298,163,1970-01-18 22:54:44.324355580,0.005004883,0.0030670166,0.0030975342,9.85196610900383,0.006637029666088152,97.49392700195312,-8.818490982055664,5.077585220336914,22760019.0,50354.0,0.0757657276887,-0.008470801650000026,0.06821266614270527,0.003829364393948003,-0.00041618936582551807,0.003509866306507014,22.760019497014582
1631,E,1551284374709584.0,1.5587921,9.681427,1.4180244136732982,163,1970-01-18 22:54:44.374709584,-0.000869751,-0.004196167,0.0012054443,9.880503382861011,0.004451671624714978,97.48467254638672,-8.824992179870605,5.078779697418213,22810373.0,50354.0,0.07726091922310001,-0.00684653267200005,0.06881581390780526,0.003852751889298389,-0.00038564452622499596,0.0034499660422317043,22.810373500920832
1631,E,1551284425063588.0,1.5268707,9.60759,1.3272041136732982,163,1970-01-18 22:54:44.425063588,0.0030059814,-0.0005493164,0.0019073486,9.814767835371077,0.0036021731449746948,97.49052429199219,-8.828207015991211,5.0778703689575195,22860727.0,50354.0,0.0776877323156,-0.007829618991000051,0.06911661863300526,0.0039011421997898507,-0.0003695014704193536,0.003472724854079987,22.860727505059913
1631,E,1551284475417591.0,1.5154114,9.656113,1.395227813673298,163,1970-01-18 22:54:44.475417591,0.0036468506,0.006713867,0.001083374,9.851759753027059,0.007716814667742472,97.48531341552734,-8.828812599182129,5.079022407531738,22911081.0,50354.0,0.0765955364317,-0.008466949569000046,0.06854266863480525,0.0038843898572507723,-0.0004102987066351225,0.0034658478755416654,22.91108150803484
1631,E,1551284525771595.0,1.5592194,9.627563,1.3739112136732983,163,1970-01-18 22:54:44.525771595,0.00077819824,-0.0019683838,0.0028686523,9.833327715507178,0.0035650095796697133,97.48379516601562,-8.836311340332031,5.07914400100708,22961435.0,50354.0,0.0774099796516,-0.00796408934800004,0.06971861329150525,0.003877396878429244,-0.00041368426681331124,0.0034810042950587194,22.96143551194109
1631,E,1551284576125599.0,1.5151672,9.642563,1.3593238136732981,163,1970-01-18 22:54:44.576125599,0.011047363,-0.0040893555,-0.0017089844,9.843005552104136,0.011903263642320647,97.48468780517578,-8.83666706085205,5.078901767730713,23011789.0,50354.0,0.07740383142820001,-0.008305237698000007,0.06881465828350526,0.0038977473215561255,-0.00040961284703714323,0.0034878521784440395,23.01178951608017
1631,E,1551284626479603.0,1.5493927,9.618271,1.428491913673298,163,1970-01-18 22:54:44.626479603,0.0013427734,0.0037078857,-0.0012512207,9.81585529555329,0.004137270840556676,97.4753646850586,-8.84276294708252,5.080534934997559,23062143.0,50354.0,0.0771564246023,-0.008539182382000014,0.07018883656740527,0.0038913635660798988,-0.0004240919643541605,0.003499690989861374,23.06214351998642
1631,E,1551284676833607.0,1.5036774,9.582672,1.3474830136732983,163,1970-01-18 22:54:44.676833607,0.00044250488,-0.0026397705,0.002822876,9.784111746389412,0.0038900935429459875,97.47883605957031,-8.8428316116333,5.07985782623291,23112497.0,50354.0,0.07686714590770001,-0.010047058089000022,0.06989072074580527,0.0038778514347302707,-0.0004679457763383679,0.0035267830144747017,23.11249752389267
1631,E,1551284727187611.0,1.4958344,9.6185,1.3504737136732983,163,1970-01-18 22:54:44.727187611,0.0054626465,0.005935669,0.0041046143,9.817617106320828,0.009050996177951229,97.48126220703125,-8.84109878540039,5.079789638519287,23162851.0,50354.0,0.07551870858859999,-0.010041292556000045,0.06792645652440527,0.003836618658653345,-0.0005057644041891666,0.003469823072132091,23.16285152803175
1631,E,1551284777541615.0,1.4706726,9.650238,1.3306831136732982,163,1970-01-18 22:54:44.777541615,-0.00030517578,-0.0026397705,0.0011291504,9.847511318096318,0.0028872999801179333,97.48568725585938,-8.83483600616455,5.078971862792969,23213205.0,50354.0,0.074687746739,-0.008340183374000061,0.06750348544210526,0.0037817479257829852,-0.0004627904194896127,0.003409719648890836,23.213205531938
1631,E,1551284827895619.0,1.4853363,9.665482,1.366114013673298,163,1970-01-18 22:54:44.827895619,0.008575439,0.0009765625,0.0009613037,9.860050007179465,0.008684234748252776,97.48495483398438,-8.830622673034668,5.079193592071533,23263559.0,50354.0,0.07442343607530001,-0.007157317560000019,0.06789726127520526,0.003754172249715632,-0.00039018058101532,0.003408984600101727,23.263559536077082
1631,E,1551284878249623.0,1.4768372,9.645386,1.3447059136732982,163,1970-01-18 22:54:44.878249623,-0.00030517578,-0.00091552734,0.00819397,9.841841010064767,0.008250604034122961,97.48731994628906,-8.826013565063477,5.07873010635376,23313913.0,50354.0,0.0745786422095,-0.00727947636400001,0.06825031331080526,0.00375142532497641,-0.00036347516062454875,0.0034277874853519867,23.313913539983332
1631,E,1551284928603627.0,1.5089264,9.6562195,1.3739875136732982,163,1970-01-18 22:54:44.928603627,-0.007904053,-0.007217407,0.0042877197,9.8535497167717,0.011530375442986497,97.48480224609375,-8.825743675231934,5.078672885894775,23364267.0,50354.0,0.07517257015720001,-0.007512678326500015,0.06844854442030526,0.0037702862737564067,-0.0003724220786427191,0.0034416671410961697,23.364267543889582
1631,E,1551284978957631.0,1.5144196,9.608383,1.335855813673298,163,1970-01-18 22:54:44.978957631,-0.0039978027,-0.007385254,0.00932312,9.812471757955361,0.012547707743131544,97.48905944824219,-8.827475547790527,5.077568531036377,23414621.0,50354.0,0.07611878224200001,-0.008444302857500023,0.06822572545260526,0.0038090623793546594,-0.000401748915269569,0.0034410480925902687,23.414621548028663
1631,E,1551285029311634.0,1.4630127,9.611252,1.362512913673298,163,1970-01-18 22:54:45.029311634,0.00036621094,-0.007385254,0.0053100586,9.804003964801215,0.009103450413580865,97.48946380615234,-8.821554183959961,5.077113151550293,23464975.0,50354.0,0.0749628130171,-0.00957644960500003,0.06793682944840526,0.003803781323838362,-0.0004537084847483639,0.0034281646447427423,23.46497555100359
1631,E,1551285079665638.0,1.5414124,9.730087,1.3186897136732982,163,1970-01-18 22:54:45.079665638,0.0014801025,-0.012619019,0.002105713,9.93807424758332,0.012878834231840872,97.49403381347656,-8.824105262756348,5.075793266296387,23515329.0,50354.0,0.07564241074269999,-0.006512307997000046,0.06750463854870525,0.003791787718600485,-0.000405066650145556,0.0034100098397632514,23.51532955490984
1631,E,1551285130019642.0,1.5526886,9.616089,1.3391212136732982,163,1970-01-18 22:54:45.130019642,-0.012374878,-0.050109863,-0.0043792725,9.825563173345191,0.05180071430996786,97.497314453125,-8.830267906188965,5.07276725769043,23565683.0,50354.0,0.07790018087700001,-0.0063905268480000405,0.06691570571780527,0.0038657418292091877,-0.00032485467289256715,0.003384301007597935,23.56568355904892
1631,E,1551285180373646.0,1.6496277,9.620804,1.4029792136732981,163,1970-01-18 22:54:45.180373646,-0.0017700195,-0.0013122559,-0.00012207031,9.837797884783136,0.00220678176040327,97.49125671386719,-8.850825309753418,5.0736212730407715,23616037.0,50354.0,0.0806247174851,-0.00914194493900003,0.06903786245930525,0.0039911813660625925,-0.00039106104218130077,0.0034229029859951117,23.61603756295517
1631,E,1551285230727650.0,1.5075989,9.6091,1.3773597136732982,163,1970-01-18 22:54:45.230727650,0.0036468506,0.010803223,0.0126953125,9.806743492732805,0.017064000291816265,97.489501953125,-8.851334571838379,5.074367046356201,23666391.0,50354.0,0.0794894941082,-0.00931790699200005,0.07000059317380526,0.004031195505284514,-0.0004647636920667891,0.0035005711974748235,23.66639156686142
1631,E,1551285281081654.0,1.5453339,9.654388,1.4146522136732982,163,1970-01-18 22:54:45.281081654,0.0036468506,0.020324707,0.0052337646,9.852305477324862,0.021302242272183053,97.48139953613281,-8.856048583984375,5.076602458953857,23716745.0,50354.0,0.0768636891056,-0.00847236262400002,0.07029448429480527,0.003936504093773842,-0.0004479056181220338,0.0035322091654272077,23.7167455710005
1631,E,1551285331435658.0,1.5125427,9.689301,1.3128456136732982,163,1970-01-18 22:54:45.331435658,0.0046691895,0.012756348,0.0039978027,9.894465806966837,0.014160090794629163,97.48778533935547,-8.85476016998291,5.07625675201416,23767099.0,50354.0,0.07698815915820001,-0.006453142047000005,0.06867021279910526,0.0038735279837376927,-0.00037577943110176764,0.0034987141787333853,23.76709957490675
1631,E,1551285381789662.0,1.522232,9.6705475,1.376032213673298,163,1970-01-18 22:54:45.381789662,0.0036773682,0.008804321,-0.0011749268,9.869374984796782,0.009613509147796682,97.4851303100586,-8.855203628540039,5.0771284103393555,23817453.0,50354.0,0.0764065226219,-0.006046294315500036,0.06769787705910527,0.0038620179031775784,-0.00031469830929866353,0.0034333393983601666,23.817453579045832
1631,E,1551285432143666.0,1.5292358,9.611481,1.3563941136732982,163,1970-01-18 22:54:45.432143666,0.0049743652,0.01373291,-0.00074768066,9.81511986335525,0.014625188975887084,97.48658752441406,-8.85796070098877,5.077620506286621,23867807.0,50354.0,0.07682680480060002,-0.008005568455500059,0.06879429764360526,0.003857955484516283,-0.00035378374898546944,0.003436463482490143,23.867807582952082
1631,E,1551285482497670.0,1.4457703,9.659546,1.503977213673298,163,1970-01-18 22:54:45.482497670,0.009750366,0.029159546,0.0073394775,9.831628600650065,0.03161038895732032,97.46562957763672,-8.848494529724121,5.082301616668701,23918161.0,50354.0,0.0749017285797,-0.008282553221000032,0.07201556890860526,0.0038200692849158138,-0.0004100860394492428,0.003545170010185004,23.918161586858332
1631,E,1551285532851673.0,1.5135498,9.618454,1.3979743136732983,163,1970-01-18 22:54:45.532851673,0.0026550293,0.009231567,0.0061798096,9.81421955710409,0.011421955023182311,97.46128845214844,-8.849440574645996,5.083405494689941,23968515.0,50354.0,0.07450680215770002,-0.008106994000000024,0.07306243360400526,0.0037616585783755204,-0.00041263963038311844,0.0036526288692599954,23.96851559006609
1631,E,1551285583205677.0,1.5961914,9.672821,1.326303813673298,163,1970-01-18 22:54:45.583205677,0.0049438477,0.023345947,0.0034637451,9.889700923561794,0.024113738854134134,97.46644592285156,-8.860730171203613,5.083767890930176,24018869.0,50354.0,0.07829395419240001,-0.0077727693250000205,0.06858915041220526,0.003847064642626469,-0.00039980480123352616,0.003566361930776133,24.01886959397234
1631,E,1551285633559681.0,1.4862213,9.626968,1.349863413673298,163,1970-01-18 22:54:45.633559681,0.009063721,0.018875122,0.0090789795,9.824534055872054,0.02282211948181293,97.46919250488281,-8.857307434082031,5.084280967712402,24069223.0,50354.0,0.0776059045479,-0.007558412347000023,0.06737786228290525,0.003925090743504534,-0.00038599316095594513,0.003423241478624798,24.06922359787859
1631,E,1551285683913685.0,1.4911041,9.645294,1.3379310136732983,163,1970-01-18 22:54:45.683913685,0.009597778,0.013290405,0.0043945313,9.844787443786183,0.016972451589207398,97.47334289550781,-8.853973388671875,5.0843424797058105,24119577.0,50354.0,0.0749601215958,-0.008251459626000048,0.06767060029730526,0.0038411548402199356,-0.00039804514666422284,0.003400115142381961,24.11957760201767
1631,E,1551285734267689.0,1.5258942,9.684311,1.3524116136732982,163,1970-01-18 22:54:45.734267689,0.0038146973,0.0044403076,0.007369995,9.886446636959764,0.0094119643737782,97.47428131103516,-8.854982376098633,5.084394931793213,24169931.0,50354.0,0.0759589661991,-0.00680773491500006,0.06773475632870525,0.0037996898734121974,-0.0003791453409587597,0.0034091006637730664,24.16993160592392
1631,E,1551285784621693.0,1.5191498,9.672684,1.3381904136732983,163,1970-01-18 22:54:45.784621693,0.005584717,0.0035705566,0.0069122314,9.875865257927577,0.009576893093850349,97.47758483886719,-8.855189323425293,5.08405876159668,24220285.0,50354.0,0.076665072788,-0.006118136885000049,0.06774128724250526,0.003842615429578217,-0.00032543467430860276,0.0034108803489923674,24.220285610063
1631,E,1551285834975697.0,1.5283508,9.641998,1.3089851136732982,163,1970-01-18 22:54:45.834975697,0.00340271,-0.014511108,0.0018005371,9.851104838854704,0.015013081781574376,97.48571014404297,-8.856938362121582,5.082113742828369,24270639.0,50354.0,0.07672692260620001,-0.00718345128600005,0.06664793825200527,0.003861950268039774,-0.0003348940853812695,0.0033835175302752924,24.27063961396925
1631,E,1551285885329701.0,1.6142273,9.635635,1.350855213673298,163,1970-01-18 22:54:45.885329701,0.0012512207,-0.003753662,0.0005340576,9.85305839453936,0.00399258677682405,97.48744201660156,-8.871249198913574,5.081669330596924,24320993.0,50354.0,0.07912068882369999,-0.008116233959000041,0.06696679992160526,0.003923775312970592,-0.0003852001754133673,0.0033640182629969925,24.3209936178755
1631,E,1551285935683705.0,1.5734711,9.603882,1.3274635136732982,163,1970-01-18 22:54:45.935683705,0.00032043457,-0.0077819824,0.0049743652,9.818463923198335,0.009241549519995652,97.49314880371094,-8.880208015441895,5.080376625061035,24371347.0,50354.0,0.08025668261680001,-0.00907588049100001,0.06743203059840526,0.004012644080757469,-0.00043284586550765134,0.0033837593560023045,24.371347622014582
1631,E,1551285986037709.0,1.5485382,9.60817,1.3026527136732982,163,1970-01-18 22:54:45.986037709,0.0064086914,-0.0021209717,0.003250122,9.822012713172398,0.007492205244620495,97.50253295898438,-8.8851318359375,5.078852653503418,24421701.0,50354.0,0.0786028281461,-0.009767366796000038,0.06621843625590526,0.0039996059024775335,-0.00047441643694480024,0.0033649178039909765,24.421701625920832
1631,E,1551286036391713.0,1.5334625,9.64238,1.3475746136732982,163,1970-01-18 22:54:46.036391713,0.0019836426,0.0027008057,0.0037231445,9.847180254789137,0.00500909117121734,97.50418090820312,-8.887179374694824,5.07872200012207,24472055.0,50354.0,0.07759553162390001,-0.008798102650000068,0.06672477342060526,0.0039326061039292905,-0.0004674228242419447,0.0033471111900255056,24.472055630059913
1631,E,1551286086745716.0,1.5977325,9.609879,1.3745979136732982,163,1970-01-18 22:54:46.086745716,-0.0055999756,-0.005508423,0.0019073486,9.82211794340502,0.008083342708895023,97.50214385986328,-8.899102210998535,5.078711032867432,24522409.0,50354.0,0.07883409651500001,-0.00875507515700007,0.06853613772100525,0.003938428747653086,-0.00044193635764684246,0.003405463959812328,24.52240963303484
1631,E,1551286137099720.0,1.5513306,9.662613,1.4081062136732982,163,1970-01-18 22:54:46.137099720,0.0071411133,0.005432129,0.0060424805,9.862114667974186,0.01081735158109221,97.49481964111328,-8.903221130371094,5.08012580871582,24572763.0,50354.0,0.07928396166870001,-0.008245668916000043,0.07006014181420525,0.003980938350891015,-0.0004280277335259238,0.0034894385298579952,24.57276363694109
1631,E,1551286187453724.0,1.5359344,9.616119,1.4357246136732982,163,1970-01-18 22:54:46.187453724,-0.0025939941,0.0055999756,-0.00064086914,9.810749095172966,0.00620477601255956,97.4840087890625,-8.905828475952148,5.082059383392334,24623117.0,50354.0,0.077728070905,-0.008088564436000043,0.07159912874010525,0.003953091944108045,-0.0004112469931033062,0.0035665554547458754,24.62311764108017
1631,E,1551286237807728.0,1.5528107,9.60379,1.3815864136732983,163,1970-01-18 22:54:46.237807728,-0.00065612793,0.0071868896,0.0015106201,9.808058332947544,0.007373185137349954,97.48171997070312,-8.911038398742676,5.082751274108887,24673471.0,50354.0,0.0777653353827,-0.00956955110700005,0.07093143973550525,0.003914857490105423,-0.00044457837502611335,0.003588492122510446,24.67347164498642
1631,E,1551286288161732.0,1.5176544,9.606857,1.3826393136732982,163,1970-01-18 22:54:46.288161732,0.0037994385,0.010009766,-0.000869751,9.805424883637613,0.010741862738465766,97.47946166992188,-8.910881996154785,5.083624362945557,24723825.0,50354.0,0.0773050998227,-0.009802740481000041,0.06959491113740526,0.0039042083471663557,-0.0004877361853110784,0.003538031935927268,24.72382564889267
1631,E,1551286338515736.0,1.5217438,9.629913,1.3858436136732981,163,1970-01-18 22:54:46.338515736,-0.0010681152,0.0043640137,0.00012207031,9.828241831806716,0.004494484043229236,97.4761734008789,-8.910823822021484,5.0843400955200195,24774179.0,50354.0,0.07652292848140001,-0.009145041710000038,0.06970209466180527,0.003872928268612326,-0.00047704831222280907,0.0035070807150067236,24.77417965303175
1631,E,1551286388869740.0,1.5240936,9.615921,1.3309730136732982,163,1970-01-18 22:54:46.388869740,0.0021362305,0.00093078613,-0.0035095215,9.821993360820219,0.004212669548860066,97.4814224243164,-8.911054611206055,5.083609580993652,24824533.0,50354.0,0.0766850482198,-0.008916837382000027,0.06840129222670527,0.003857317229406113,-0.00045474392989928563,0.00347702897169203,24.824533656938
1631,E,1551286439223744.0,1.5296478,9.669754,1.3582862136732983,163,1970-01-18 22:54:46.439223744,0.0040283203,0.0023345947,-0.003692627,9.872011166579334,0.005942490304055126,97.48160552978516,-8.9109525680542,5.083748817443848,24874887.0,50354.0,0.0768840472278,-0.00791376052500005,0.06770747956690526,0.0038664091160842255,-0.00042374396350454093,0.0034268105474477323,24.874887661077082
1631,E,1551286489577748.0,1.5211792,9.617081,1.3775733136732982,163,1970-01-18 22:54:46.489577748,0.0023498535,-0.0054626465,-0.0018005371,9.816631779366169,0.006213232017549394,97.47996520996094,-8.910918235778809,5.083767890930176,24925241.0,50354.0,0.07681067137900001,-0.007884555205000037,0.06888073532000526,0.003869571930363404,-0.00039775419513421223,0.0034388814862077468,24.925241664983332
1631,E,1551286539931752.0,1.549469,9.609055,1.4171699136732983,163,1970-01-18 22:54:46.539931752,0.0046081543,-0.005630493,-0.00390625,9.808228514812265,0.008258106716321696,97.47281646728516,-8.915152549743652,5.084660053253174,24975595.0,50354.0,0.0773097097314,-0.009412773928000029,0.07036325023490525,0.003880288835216541,-0.0004354948555815427,0.0035057458243159824,24.975595668889582
1631,E,1551286590285756.0,1.5478973,9.63179,1.411478413673298,163,1970-01-18 22:54:46.590285756,0.000869751,-0.0035552979,-0.001373291,9.830958063306719,0.003909288698782224,97.46605682373047,-8.918660163879395,5.085549354553223,25025949.0,50354.0,0.0779823913351,-0.009042445435000032,0.07121687893760525,0.00390978922855127,-0.0004646470579022526,0.003564562912176297,25.025949673028663
1631,E,1551286640639759.0,1.5302582,9.624191,1.3893837136732983,163,1970-01-18 22:54:46.640639759,0.0020599365,-0.0042266846,0.0012664795,9.823510981474405,0.004869514494878278,97.46290588378906,-8.91977310180664,5.085838317871094,25076303.0,50354.0,0.07749872102350001,-0.00866136636300003,0.07051730578020526,0.003914547965852473,-0.0004457288696382476,0.0035684415686403157,25.07630367600359
1631,E,1551286690993763.0,1.5564575,9.632385,1.3676857136732983,163,1970-01-18 22:54:46.690993763,-9.1552734e-05,-0.0022888184,-0.00064086914,9.838407185390084,0.002378609851548962,97.46273040771484,-8.924296379089355,5.085756301879883,25126657.0,50354.0,0.07771424117890001,-0.008646386048000061,0.06941473697230527,0.003907796749369826,-0.0004357572824517493,0.003523069040379958,25.12665767990984
1631,E,1551286741347767.0,1.5330658,9.621017,1.370096513673298,163,1970-01-18 22:54:46.741347767,0.00018310547,-0.0033569336,0.0012359619,9.823290806253395,0.0035819174510594866,97.46244812011719,-8.925692558288574,5.085629463195801,25177011.0,50354.0,0.0777849281241,-0.00872629784600005,0.06892914313790525,0.0039150025855416316,-0.0004373920623992408,0.003483083869534771,25.17701168404892
1631,E,1551286791701771.0,1.5265503,9.665543,1.3730720136732981,163,1970-01-18 22:54:46.791701771,0.0036468506,0.002243042,0.0017700195,9.865514820968846,0.004632896042743093,97.46102142333984,-8.925189971923828,5.085977077484131,25227365.0,50354.0,0.07703195454970001,-0.007891478880000044,0.06906475401300527,0.003897824655078263,-0.0004183857646305044,0.003474272348568475,25.22736568795517
1631,E,1551286842055775.0,1.5122375,9.635788,1.3508094136732982,163,1970-01-18 22:54:46.842055775,-0.00044250488,-0.0036010742,0.0006713867,9.837019759035291,0.0036897569111889127,97.46329498291016,-8.92314624786377,5.085441589355469,25277719.0,50354.0,0.0765075604406,-0.007519589413000053,0.06857916269630526,0.0038656643689107834,-0.00038800446641286347,0.0034654608909903115,25.27771969186142
1631,E,1551286892409779.0,1.5601349,9.651276,1.3353828136732981,163,1970-01-18 22:54:46.892409779,0.0054779053,0.004135132,0.00048828125,9.861667379374282,0.006880783510058549,97.46768188476562,-8.92768383026123,5.085001468658447,25328073.0,50354.0,0.0773531199148,-0.007878789672000059,0.06763026170790526,0.0038737503493079064,-0.00038768499022304783,0.0034293446782248083,25.3280736960005
1631,E,1551286942763783.0,1.5353394,9.644363,1.3739112136732983,163,1970-01-18 22:54:46.942763783,0.003479004,-0.00019836426,0.0008087158,9.846024794464903,0.003577266897623238,97.46641540527344,-8.92880630493164,5.085210800170898,25378427.0,50354.0,0.07793475645110001,-0.007662896897000048,0.06821189572650527,0.003909682863264265,-0.0003912930427477157,0.003420097997726154,25.37842769990675
1631,E,1551286993117787.0,1.5308838,9.652374,1.400324213673298,163,1970-01-18 22:54:46.993117787,0.0019836426,0.0043640137,-0.0010070801,9.849851166221685,0.004898332763924727,97.46105194091797,-8.929097175598145,5.086277961730957,25428781.0,50354.0,0.0771983015064,-0.00763525255100003,0.06984692535430526,0.003905785000195978,-0.000385161508652298,0.0034759069383515665,25.428781704045832
1631,E,1551287043471791.0,1.5234222,9.632431,1.3890174136732982,163,1970-01-18 22:54:47.043471791,0.006088257,0.005279541,0.0008087158,9.830568411250162,0.008099039925441759,97.45806121826172,-8.92881965637207,5.087043762207031,25479135.0,50354.0,0.076898262162,-0.007935664515000026,0.07022725415170526,0.0038796891834793077,-0.00039202897897068343,0.003526647617422827,25.479135707952082
1631,E,1551287093825795.0,1.5107117,9.641647,1.349466713673298,163,1970-01-18 22:54:47.093825795,0.006225586,0.0066375732,-0.00038146973,9.842699013950133,0.009108282943763908,97.46073913574219,-8.926347732543945,5.087005138397217,25529489.0,50354.0,0.0763903892003,-0.008205738194000008,0.06894681487420526,0.003859348375348628,-0.0004063920960044938,0.003503985535865349,25.529489711858332
1631,E,1551287144179798.0,1.4990845,9.653885,1.326700513673298,163,1970-01-18 22:54:47.144179798,0.0040740967,0.0034179688,0.0041656494,9.855892067755587,0.006755250518111425,97.46634674072266,-8.922135353088379,5.086306095123291,25579843.0,50354.0,0.07577763892740001,-0.007665590835999999,0.06737786228290525,0.003831134444171104,-0.00039959245098831017,0.0034322463967845713,25.57984371506609
1631,E,1551287194533802.0,1.5180054,9.644516,1.3631538136732981,163,1970-01-18 22:54:47.194533802,0.0025787354,-0.0001373291,0.0035247803,9.8448631233034,0.004369532207020342,97.46662902832031,-8.921005249023438,5.086252689361572,25630197.0,50354.0,0.07596127241230001,-0.007593358023000033,0.06772246239960526,0.003820330570799628,-0.0003841745554230438,0.0034014208745315674,25.63019771897234
1631,E,1551287244887806.0,1.5126038,9.61795,1.356699313673298,163,1970-01-18 22:54:47.244887806,0.00289917,-0.0027923584,0.001373291,9.818839291775674,0.004253043650567386,97.4684066772461,-8.919574737548828,5.085854530334473,25680551.0,50354.0,0.0763016478284,-0.00849809351800004,0.06847774218720525,0.0038335235429001044,-0.0004051344754477589,0.0034291125508821283,25.68055172287859
1631,E,1551287295241810.0,1.5861511,9.62886,1.3534034136732982,163,1970-01-18 22:54:47.295241810,0.004333496,-0.0013580322,-0.00010681152,9.841538752903395,0.004542559602146961,97.470458984375,-8.928442001342773,5.085504531860352,25730905.0,50354.0,0.0780173521173,-0.008892264630000037,0.06823225636640526,0.003885289461632889,-0.00043783704709219804,0.0034419476335842514,25.73090572701767
1631,E,1551287345595814.0,1.5492096,9.606674,1.3634132136732982,163,1970-01-18 22:54:47.345595814,0.006149292,0.0023345947,-0.00010681152,9.81263879619944,0.006578414186970656,97.47148895263672,-8.932334899902344,5.085506439208984,25781259.0,50354.0,0.0789389763439,-0.00917616048200005,0.06840129222670527,0.003951689481667632,-0.0004549087390448263,0.0034400228529287437,25.78125973092392
1631,E,1551287395949818.0,1.4982605,9.600418,1.3677772136732982,163,1970-01-18 22:54:47.395949818,0.005340576,0.004989624,-0.0016021729,9.798032192528584,0.007482316330832746,97.47193145751953,-8.928878784179688,5.085737705230713,25831613.0,50354.0,0.0767261547077,-0.009892244716000052,0.06876318138930526,0.003919181004486134,-0.0004800852376700486,0.0034533899522302975,25.831613735063
1631,E,1551287446303822.0,1.4863892,9.637512,1.3534645136732981,163,1970-01-18 22:54:47.446303822,0.0041046143,0.002609253,-0.002456665,9.83442420494811,0.0054489689567842545,97.47366333007812,-8.922876358032227,5.085640907287598,25881967.0,50354.0,0.07514452549690001,-0.00911583639000007,0.06851270296940526,0.0038236481155112145,-0.0004785664580057651,0.003456194940499255,25.88196773896925
1631,E,1551287496657826.0,1.4841003,9.6604,1.3704322136732983,163,1970-01-18 22:54:47.496657826,0.0060577393,0.0017089844,0.0017547607,9.85433004806579,0.006534219021464794,97.47257995605469,-8.91645336151123,5.085931777954102,25932321.0,50354.0,0.0747880141415,-0.007605669576000076,0.06857954790440525,0.0037748515504759978,-0.0004209973557059857,0.003451571600249927,25.9323217428755
1631,E,1551287547011830.0,1.4921875,9.674484,1.3771614136732981,163,1970-01-18 22:54:47.547011830,0.00390625,0.00021362305,0.0015106201,9.868501456478057,0.004193613830160726,97.47015380859375,-8.911039352416992,5.086336612701416,25982675.0,50354.0,0.0749339979406,-0.006674825532000065,0.06917616475570526,0.003769551098191032,-0.00035954002533411956,0.003468275577643602,25.982675747014582
1631,E,1551287597365834.0,1.5057678,9.66449,1.3798469136732983,163,1970-01-18 22:54:47.597365834,0.0057373047,0.0014343262,-0.00038146973,9.86042840823111,0.0059261687474754556,97.46766662597656,-8.90785026550293,5.0868377685546875,26033029.0,50354.0,0.07547952058810001,-0.006571851602000028,0.06941319865760526,0.00378696115599708,-0.0003335115902027204,0.0034892644026569193,26.033029750920832
1631,E,1551287647719838.0,1.4866638,9.700272,1.3547920136732983,163,1970-01-18 22:54:47.647719838,0.008666992,9.1552734e-05,-0.0002593994,9.895805805988886,0.008671356311436363,97.46836853027344,-8.901151657104492,5.086801052093506,26083383.0,50354.0,0.0753404503932,-0.005922587126000019,0.06885000427380526,0.0037971944093961904,-0.00031457248385485716,0.0034810526602041232,26.083383755059913
1631,E,1551287698073841.0,1.5292358,9.658142,1.3208107136732983,163,1970-01-18 22:54:47.698073841,0.0051116943,-0.001953125,-0.0010223389,9.865469739718158,0.0055668027366461165,97.47465515136719,-8.901494026184082,5.085779190063477,26133737.0,50354.0,0.07593130422920001,-0.006082410722000041,0.06736364986640526,0.003808568966128165,-0.0003022498308190975,0.0034294511702880805,26.13373775803484
1631,E,1551287748427845.0,1.5128632,9.664322,1.2885536136732982,163,1970-01-18 22:54:47.748427845,0.005783081,-0.0023498535,0.0013885498,9.87332181114463,0.0063948344678422505,97.48539733886719,-8.899365425109863,5.084038257598877,26184091.0,50354.0,0.07659092652300001,-0.0069875238720000345,0.06569596566960526,0.0038400522036481396,-0.00032906174327313993,0.0033500419403501374,26.18409176194109
1631,E,1551287798781849.0,1.5163879,9.6757965,1.3575843136732981,163,1970-01-18 22:54:47.798781849,0.0027618408,-0.0033874512,0.00074768066,9.875975547152748,0.004434142149983931,97.4854507446289,-8.897704124450684,5.083880424499512,26234445.0,50354.0,0.0762674549447,-0.006543036525500014,0.06662181459680526,0.0038485154702122834,-0.0003406589191278587,0.0033313647537674173,26.23444576608017
1631,E,1551287849135853.0,1.5180206,9.628357,1.3602241136732982,163,1970-01-18 22:54:47.849135853,0.0019073486,-0.0048980713,-0.0025177002,9.829413340006896,0.0058281983012664984,97.48600006103516,-8.897208213806152,5.083586692810059,26284799.0,50354.0,0.07639730280450001,-0.007448527330500037,0.06842626277530525,0.003843640605851609,-0.0003522656032025133,0.003400105443997626,26.28479976998642
1631,E,1551287899489857.0,1.5291901,9.636841,1.369699813673298,163,1970-01-18 22:54:47.899489857,0.0036315918,0.0029754639,-0.0020751953,9.838237065032446,0.00513305756398392,97.4850082397461,-8.898242950439453,5.083926677703857,26335153.0,50354.0,0.0767196237939,-0.008429309954000042,0.06873129471880526,0.0038550248609679175,-0.0003997563093118585,0.0034532158250292207,26.33515377389267
1631,E,1551287949843861.0,1.488739,9.669464,1.3459724136732982,163,1970-01-18 22:54:47.949843861,0.0026245117,0.0030212402,-0.00090026855,9.867063579164,0.004102004079916552,97.4868392944336,-8.892709732055664,5.083819389343262,26385507.0,50354.0,0.0759824009507,-0.007394359015000035,0.06837247966790526,0.003844578876994794,-0.00039839251363251496,0.0034518617277342106,26.38550777803175
1631,E,1551288000197865.0,1.4937744,9.679749,1.3465675136732982,163,1970-01-18 22:54:48.000197865,0.004501343,-0.00018310547,-0.0033111572,9.87782581063256,0.0055910087122007564,97.48844909667969,-8.887675285339355,5.083617210388184,26435861.0,50354.0,0.07509073987180001,-0.006314064299000065,0.06779007775080526,0.0038035684664880828,-0.00034513697377658054,0.003428164708130875,26.435861781938
1631,E,1551288050551869.0,1.5457764,9.656433,1.3511451136732981,163,1970-01-18 22:54:48.050551869,0.0015106201,-0.005065918,-0.0009765625,9.862400851120173,0.005375795065444205,97.48968505859375,-8.890835762023926,5.083195686340332,26486215.0,50354.0,0.0765267704916,-0.006642145786000059,0.06792031081870525,0.0038172740584193226,-0.00032619850131004814,0.0034167804530145663,26.486215786077082
1631,E,1551288100905873.0,1.525528,9.656525,1.3404945136732982,163,1970-01-18 22:54:48.100905873,0.0015106201,0.0031585693,0.0001373291,9.860722804653097,0.003503911013586577,97.49238586425781,-8.89108943939209,5.082943916320801,26536569.0,50354.0,0.0773262308788,-0.007226856434000034,0.06776741089770526,0.003873557015502561,-0.0003491798688929424,0.003416209769654068,26.536569789983332
1631,E,1551288151259877.0,1.4700623,9.673813,1.3185524136732982,163,1970-01-18 22:54:48.151259877,0.0005340576,0.0015106201,-0.00030517578,9.872126177616957,0.001631049620134341,97.49784088134766,-8.882902145385742,5.082181930541992,26586923.0,50354.0,0.0754199769831,-0.006789280174000008,0.06694682448980527,0.003845691275339057,-0.00035288427137961705,0.0033917003043513532,26.586923793889582
1631,E,1551288201613881.0,1.4927979,9.673798,1.3486732136732982,163,1970-01-18 22:54:48.201613881,0.0013275146,-0.0030670166,-0.0004119873,9.871573351531085,0.0033672866485124206,97.49885559082031,-8.878233909606934,5.081889629364014,26637277.0,50354.0,0.0745959312554,-0.006354397853000022,0.06715273961970526,0.0037769505217207146,-0.00033091838168577975,0.0033762247255851464,26.637277798028663
1631,E,1551288251967884.0,1.4933472,9.661621,1.3795875136732982,163,1970-01-18 22:54:48.251967884,0.0026397705,-0.0011901855,-0.0008087158,9.855759670266076,0.0030064848348611605,97.49560546875,-8.874106407165527,5.082356929779053,26687631.0,50354.0,0.0751821751827,-0.006661355837000039,0.06868942033240526,0.0037709633857920437,-0.00032769763065313155,0.0034200980611142867,26.68763180100359
1631,E,1551288302321888.0,1.4734039,9.647339,1.372690513673298,163,1970-01-18 22:54:48.302321888,-0.001083374,-0.0073547363,0.002029419,9.839630684568524,0.0077061265720188305,97.49359130859375,-8.867606163024902,5.0822858810424805,26737985.0,50354.0,0.07469389244470001,-0.007327514080000016,0.06929410389450527,0.0037734297546550507,-0.0003521977779003104,0.003474011189460926,26.73798580490984
1631,E,1551288352675892.0,1.5050812,9.616058,1.360544513673298,163,1970-01-18 22:54:48.352675892,-0.0022277832,-0.0036468506,0.0014953613,9.815332394745177,0.004527542678148963,97.49391174316406,-8.86647891998291,5.08203125,26788339.0,50354.0,0.07498931936270001,-0.008474653731000006,0.06881465828350526,0.0037685742236749104,-0.0003978511789775476,0.003477164305355772,26.78833980904892
1631,E,1551288403029896.0,1.5050201,9.63295,1.3402351136732982,163,1970-01-18 22:54:48.403029896,-0.00062561035,-0.0020751953,0.0025787354,9.834511823173836,0.003368634754078033,97.4969253540039,-8.86500072479248,5.0814409255981445,26838693.0,50354.0,0.0757853204301,-0.008836925584000038,0.06799752867770525,0.003796053106063326,-0.0004358536324137561,0.003444520431122397,26.83869381295517
1631,E,1551288453383900.0,1.5162048,9.640457,1.3053993136732982,163,1970-01-18 22:54:48.453383900,-0.0017242432,-0.0030822754,0.001449585,9.848200177356032,0.003817686855468426,97.50477600097656,-8.864842414855957,5.080061435699463,26889047.0,50354.0,0.07606537930730001,-0.008222631961000065,0.06660913797730526,0.0038231450672885203,-0.0004295084803104676,0.0033889920463732004,26.88904781686142
1631,E,1551288503737904.0,1.5127411,9.619904,1.3198341136732983,163,1970-01-18 22:54:48.503737904,0.001083374,-0.0015411377,-6.1035156e-05,9.825615363969087,0.0018848156208248154,97.51083374023438,-8.864617347717285,5.0790581703186035,26939401.0,50354.0,0.0762597709243,-0.008551091103000046,0.06609550200030527,0.0038350903073809937,-0.00042231202558233084,0.0033411047207163006,26.9394018210005
1631,E,1551288554091908.0,1.4993591,9.639008,1.3951057136732983,163,1970-01-18 22:54:48.554091908,0.0030517578,-0.0020446777,-0.0023345947,9.832549734880613,0.004352501002872511,97.5054931640625,-8.862157821655273,5.0798234939575195,26989755.0,50354.0,0.0758356467354,-0.008587572576000024,0.06835404003310527,0.003829306330418267,-0.0004315001354461848,0.0033850361197751773,26.98975582490675
1631,E,1551288604445912.0,1.4999237,9.6519165,1.409113313673298,163,1970-01-18 22:54:48.604445912,0.0020599365,-0.00093078613,-0.0014953613,9.843545899164086,0.0027103148565010516,97.4979019165039,-8.859641075134277,5.080967426300049,27040109.0,50354.0,0.07551294305560001,-0.0077815938635000135,0.07060182245150526,0.0038105034451680077,-0.0004121265034472925,0.0034984917497750396,27.040109829045832
1631,E,1551288654799916.0,1.4855347,9.649078,1.3652748136732982,163,1970-01-18 22:54:48.654799916,0.0037078857,9.1552734e-05,0.00090026855,9.844107805417782,0.003816710852224264,97.49707794189453,-8.855183601379395,5.081125259399414,27090463.0,50354.0,0.0751648861368,-0.00752806147350004,0.06985076988220526,0.0037936157055770557,-0.0003854511924196504,0.00353617491718583,27.090463832952082
1631,E,1551288705153920.0,1.482727,9.64592,1.3409675136732981,163,1970-01-18 22:54:48.705153920,0.007003784,9.1552734e-05,-0.0006713867,9.843737986581695,0.007036485793540392,97.5000228881836,-8.850353240966797,5.0807342529296875,27140817.0,50354.0,0.0747319248209,-0.007679035354000045,0.06813506307560527,0.003773952009482014,-0.00038286907682596967,0.0034740693163787958,27.140817836858332
1631,E,1551288755507923.0,1.4951324,9.643127,1.3499702136732983,163,1970-01-18 22:54:48.755507923,0.0048980713,-0.0034179688,0.0,9.841704577116761,0.005972739168727957,97.5015640258789,-8.84752368927002,5.080367565155029,27191171.0,50354.0,0.0749735661138,-0.007828863681000034,0.06774973916140525,0.003769135145262942,-0.00039044237400419704,0.003421171665921214,27.19117184006609
1631,E,1551288805861927.0,1.4960785,9.620026,1.3483680136732983,163,1970-01-18 22:54:48.805861927,0.005065918,-0.0027618408,0.0009613037,9.819423574976524,0.005849392668551354,97.50373077392578,-8.845455169677734,5.079928398132324,27241525.0,50354.0,0.0753097168293,-0.008480796919000059,0.06793606154990527,0.003783682214658429,-0.00041062832492620244,0.0034161614045086653,27.24152584397234
1631,E,1551288856215931.0,1.4935303,9.650635,1.325815513673298,163,1970-01-18 22:54:48.856215931,0.004852295,-0.0011444092,0.0009613037,9.851982114712465,0.005077257526234348,97.508544921875,-8.842350006103516,5.079165935516357,27291879.0,50354.0,0.07526938075760001,-0.008291768003000069,0.06732791866800526,0.0037911299399453822,-0.0004222828670411972,0.0034055412299463335,27.29187984787859
1631,E,1551288906569935.0,1.5067596,9.640305,1.3359016136732982,163,1970-01-18 22:54:48.906569935,0.0025787354,-0.0020446777,0.00033569336,9.842550381440654,0.0033080618482789195,97.51184844970703,-8.841437339782715,5.0785746574401855,27342233.0,50354.0,0.07553829881230001,-0.0077812036200000595,0.06701405211520525,0.0037968849485313727,-0.0004046692065522743,0.0033823277984088916,27.34223385201767
1631,E,1551288956923939.0,1.4720459,9.647232,1.351480813673298,163,1970-01-18 22:54:48.956923939,0.004486084,-0.0052337646,0.0024414063,9.842051345547798,0.007312845292015199,97.51280212402344,-8.83553695678711,5.078193187713623,27392587.0,50354.0,0.07499738607350001,-0.007866880951000027,0.06766022737330527,0.0037900369383697874,-0.0003939718252440692,0.0033906943346822295,27.39258785592392
1631,E,1551289007277943.0,1.4589844,9.664597,1.303125713673298,163,1970-01-18 22:54:49.007277943,0.0025482178,-0.0061035156,0.002243042,9.863511005479559,0.006984092929611132,97.52031707763672,-8.827377319335938,5.076741695404053,27442941.0,50354.0,0.0737945498631,-0.007255281267000005,0.06683502853900525,0.0037461345710757786,-0.0003807306781625868,0.003386187058104242,27.442941860063
1631,E,1551289057631947.0,1.4936981,9.67038,1.2958625136732982,163,1970-01-18 22:54:49.057631947,0.0030059814,-0.0026855469,0.0016174316,9.875346228781705,0.004343290378264402,97.52861022949219,-8.824252128601074,5.075354099273682,27493295.0,50354.0,0.0743396873025,-0.006672484071000028,0.06543472659990525,0.0037295756891183108,-0.00035065934791482685,0.0033301556251323495,27.49329586396925
1631,E,1551289107985951.0,1.4733429,9.680893,1.3100227136732983,163,1970-01-18 22:54:49.107985951,0.002090454,-0.0022888184,0.0013885498,9.880687071269406,0.0033965803599171032,97.53435516357422,-8.81808853149414,5.074365615844727,27543649.0,50354.0,0.074701191257,-0.00626219967900006,0.06560837236890527,0.0037524021994925316,-0.00032565653277375227,0.003299272102737742,27.5436498678755
1631,E,1551289158339955.0,1.4757233,9.642395,1.2932380136732982,163,1970-01-18 22:54:49.158339955,0.0017700195,-0.0017852783,0.0009613037,9.845588891282045,0.0026915223280635867,97.54317474365234,-8.813187599182129,5.07293701171875,27594003.0,50354.0,0.0742486397174,-0.006966778024000041,0.06554229533240526,0.0037501098944424695,-0.0003330659716284336,0.003301980360715895,27.594003872014582
1631,E,1551289208693959.0,1.4817047,9.635101,1.2722724136732981,163,1970-01-18 22:54:49.208693959,-0.0001373291,-0.0009765625,0.0043640137,9.842210907701114,0.004474052879873096,97.55484771728516,-8.809536933898926,5.071068286895752,27644357.0,50354.0,0.07445916475600001,-0.008119683208000009,0.06459185602930526,0.0037440163932267925,-0.00037983183443806526,0.003276387528833786,27.644357875920832
1631,E,1551289259047963.0,1.4703827,9.613998,1.2867988136732982,163,1970-01-18 22:54:49.259047963,-0.0023956299,0.0017700195,0.00630188,9.8178559919369,0.006970344552642592,97.56442260742188,-8.804961204528809,5.069629669189453,27694711.0,50354.0,0.0743247044698,-0.00883463447700001,0.06442973629090526,0.003745931475497967,-0.0004268588563552455,0.0032483766298459405,27.694711880059913
1631,E,1551289309401966.0,1.4623413,9.579987,1.2661232136732983,163,1970-01-18 22:54:49.309401966,1.5258789e-05,0.003982544,0.00491333,9.786204667975984,0.006324689813064175,97.57759094238281,-8.79996109008789,5.067777633666992,27745065.0,50354.0,0.07383719214800001,-0.010222239655000047,0.06427491788250526,0.0037302720711463507,-0.0004797949200213655,0.0032403970781239573,27.74506588303484
1631,E,1551289359755970.0,1.4849396,9.614777,1.2878822136732981,163,1970-01-18 22:54:49.359755970,-0.00061035156,0.0036468506,0.0034637451,9.820661407781015,0.0050665154142949965,97.58650970458984,-8.79758358001709,5.066567420959473,27795419.0,50354.0,0.0742036912193,-0.010202626772000055,0.06430219464430526,0.0037272253205385126,-0.0005142368620325815,0.003237185962087509,27.79541988694109
1631,E,1551289410109974.0,1.5122223,9.67244,1.3526405136732982,163,1970-01-18 22:54:49.410109974,-0.0024108887,0.0032958984,0.0038146973,9.872685667703776,0.005588134400454014,97.58450317382812,-8.798124313354492,5.066989421844482,27845773.0,50354.0,0.0754595451563,-0.007874937591000036,0.06648044070640526,0.0037680713022284814,-0.00045513883796725337,0.0032927144102248384,27.84577389108017
1631,E,1551289460463978.0,1.5065002,9.66095,1.347513513673298,163,1970-01-18 22:54:49.460463978,0.0015563965,0.0076141357,0.0048980713,9.861217669044127,0.009186323257055045,97.58370208740234,-8.798151016235352,5.0674662590026855,27896127.0,50354.0,0.0760023763825,-0.006712439970000045,0.06798177794650527,0.0038133567985823677,-0.0003672664048532991,0.0033853552790243284,27.89612789498642
1631,E,1551289510817982.0,1.4596252,9.676331,1.334360513673298,163,1970-01-18 22:54:49.510817982,-0.0014801025,0.0038604736,0.0052337646,9.870960734340619,0.006669801474932846,97.58441162109375,-8.791071891784668,5.067502498626709,27946481.0,50354.0,0.0746781391958,-0.00661447626300006,0.06752154238650526,0.0037936833407148595,-0.0003355317699982437,0.0034115670960242067,27.94648189889267
1631,E,1551289561171986.0,1.4917145,9.650452,1.3228706136732982,163,1970-01-18 22:54:49.561171986,-0.003829956,0.004837036,0.003768921,9.851917490663727,0.0072298164382972405,97.58714294433594,-8.78923511505127,5.067266464233398,27996835.0,50354.0,0.07430587962690001,-0.006878784409000063,0.06690110809320526,0.0037509706418991187,-0.0003397198239389471,0.0033843590711276723,27.99683590303175
1631,E,1551289611525990.0,1.5428925,9.616104,1.3493293136732982,163,1970-01-18 22:54:49.611525990,-0.003829956,0.0005187988,0.0030975342,9.822700340627907,0.004953022640467847,97.5866470336914,-8.795588493347168,5.06731653213501,28047189.0,50354.0,0.07640230043900001,-0.008395119588000047,0.06727797757080527,0.003794379849519165,-0.0003845510809324718,0.003378226839762794,28.047189906938
1631,E,1551289661879994.0,1.5048676,9.6440735,1.3361610136732982,163,1970-01-18 22:54:49.661879994,0.0014190674,0.00920105,0.0038604736,9.845918079298004,0.010078508312470636,97.58775329589844,-8.79574203491211,5.067584991455078,28097543.0,50354.0,0.0767334560377,-0.008555711082500054,0.06761258997160527,0.0038554989408138766,-0.00042677106379118105,0.00339613981901527,28.097543911077082
1631,E,1551289712233998.0,1.5074005,9.640274,1.3655494136732982,163,1970-01-18 22:54:49.712233998,0.0005950928,-0.0027770996,0.0011291504,9.83876945750904,0.003056370110891703,97.58466339111328,-8.796212196350098,5.067920207977295,28147897.0,50354.0,0.07583987395370001,-0.007947182992500058,0.06802096342930526,0.003841338729193478,-0.0004154933641262779,0.0034148459739747248,28.147897914983332
1631,E,1551289762588002.0,1.5014954,9.656815,1.3080238136732982,163,1970-01-18 22:54:49.762588002,0.0055389404,-0.0010375977,0.0045318604,9.861611761878185,0.007231474844517238,97.58995056152344,-8.795469284057617,5.067073822021484,28198251.0,50354.0,0.0757549720743,-0.007626390247000043,0.06731255314490527,0.003816703438446956,-0.00039209585345089407,0.003407291946788899,28.198251918889582
1631,E,1551289812942006.0,1.5025177,9.676514,1.3510078136732981,163,1970-01-18 22:54:49.812942006,0.00088500977,0.0022277832,0.0016174316,9.875406873164774,0.0028917719930651956,97.58820343017578,-8.794464111328125,5.067447185516357,28248605.0,50354.0,0.0756320378187,-0.006713975767000059,0.06694643928170527,0.003811470748076061,-0.00036104739513448056,0.003380238652324774,28.248605923028663
1631,E,1551289863296009.0,1.5068207,9.648788,1.3123420136732982,163,1970-01-18 22:54:49.863296009,-0.0024871826,0.00064086914,0.003829956,9.853986902282314,0.004611437249088737,97.59251403808594,-8.794693946838379,5.066774368286133,28298959.0,50354.0,0.0757661128968,-0.006916071546000065,0.06705515860310526,0.0038117512405641436,-0.0003431637011994041,0.003373758229945875,28.29895992600359
1631,E,1551289913650013.0,1.4830322,9.658432,1.3257697136732982,163,1970-01-18 22:54:49.913650013,0.0019226074,0.0016479492,0.00289917,9.858041155942535,0.003849330132531555,97.59478759765625,-8.791290283203125,5.066504001617432,28349313.0,50354.0,0.0752755264633,-0.0073713220600000575,0.06641973895940527,0.003802775354169238,-0.0003597137088182651,0.0033604974959313277,28.34931392990984
1631,E,1551289964004017.0,1.5146179,9.650223,1.3285621136732981,163,1970-01-18 22:54:49.964004017,0.005218506,0.0037994385,-0.0011291504,9.854434922202083,0.006553130428515704,97.5969009399414,-8.792511940002441,5.066414833068848,28399667.0,50354.0,0.0754718365677,-0.007335193065000039,0.06682811241710526,0.0037953663590314874,-0.0003702659313021275,0.0033547811541064054,28.39966793404892
1631,E,1551290014358021.0,1.4764252,9.669968,1.3158058136732982,163,1970-01-18 22:54:50.014358021,0.0033416748,0.00030517578,0.0018157959,9.86967315794335,0.003815368589810224,97.6003646850586,-8.787873268127441,5.065913677215576,28450021.0,50354.0,0.0753054921287,-0.007044751193000005,0.06657725130680527,0.0037961208045892625,-0.0003620438565836671,0.003358746842476896,28.45002193795517
1631,E,1551290064712025.0,1.4796753,9.640121,1.3165535136732982,163,1970-01-18 22:54:50.064712025,0.0009460449,0.0046844482,0.0030975342,9.840820375843832,0.005695065760065364,97.60407257080078,-8.784557342529297,5.065563201904297,28500375.0,50354.0,0.0744257422885,-0.007299089247000001,0.06627491078460526,0.0037697832889218444,-0.0003611348707578802,0.0033448188849754435,28.50037594186142
1631,E,1551290115066029.0,1.5023193,9.6714325,1.3140815136732982,163,1970-01-18 22:54:50.115066029,0.0020599365,-0.0024414063,0.0006713867,9.875243514630592,0.0032641328414525087,97.60753631591797,-8.783721923828125,5.0649261474609375,28550729.0,50354.0,0.07507767804420001,-0.007262217530500024,0.06623149808350526,0.003764047613716389,-0.00036661002073711815,0.0033361138560724186,28.5507299460005
1631,E,1551290165420033.0,1.5276489,9.639206,1.3698677136732982,163,1970-01-18 22:54:50.165420033,0.0025787354,0.00050354004,0.0023651123,9.840292812104892,0.0035351357861767704,97.6033935546875,-8.787521362304688,5.065584182739258,28601083.0,50354.0,0.0762855093714,-0.007285254485500046,0.06757378969690526,0.003810870969562562,-0.00036626170294683377,0.0033688157304473955,28.60108394990675
1631,E,1551290215774037.0,1.5225372,9.63855,1.3978370136732983,163,1970-01-18 22:54:50.215774037,7.6293945e-05,-0.004425049,0.001449585,9.835319955653945,0.004657056590881161,97.59523010253906,-8.790515899658203,5.066610336303711,28651437.0,50354.0,0.0767945354397,-0.008113137188000033,0.06968250192040526,0.0038540962882090647,-0.00038768530716371154,0.003455701654049027,28.651437954045832
1631,E,1551290266128041.0,1.5455017,9.627335,1.3898109136732981,163,1970-01-18 22:54:50.266128041,0.0052337646,0.0020599365,0.0001373291,9.828922723203583,0.005626232269818961,97.5888442993164,-8.796944618225098,5.0677266120910645,28701791.0,50354.0,0.0772440153853,-0.008412013355000015,0.07018461186680526,0.0038782285941210254,-0.00041605371522111226,0.003521434323820599,28.701791957952082
1631,E,1551290316482045.0,1.5526886,9.651611,1.297769913673298,163,1970-01-18 22:54:50.316482045,0.0068511963,0.00010681152,-0.00010681152,9.865821692242436,0.0068528613106309914,97.59567260742188,-8.803390502929688,5.0667405128479,28752145.0,50354.0,0.0780031371831,-0.008083176558000005,0.06766522249010526,0.003908657560214607,-0.0004152993964396015,0.003470645279603936,28.752145961858332
1631,E,1551290366836048.0,1.5255127,9.629822,1.3757881136732981,163,1970-01-18 22:54:50.366836048,-0.00012207031,0.0051116943,0.0025177002,9.830012995334476,0.005699397693995044,97.59098815917969,-8.806659698486328,5.067689895629883,28802499.0,50354.0,0.0774998741301,-0.008020561358999995,0.06731217045450526,0.003915099315832437,-0.00040544380953630904,0.0033983258221664597,28.80249996506609
1631,E,1551290417190052.0,1.5134583,9.6271515,1.3553871136732982,163,1970-01-18 22:54:50.417190052,0.0027160645,0.0012054443,0.0030975342,9.828154110246883,0.004292414291367084,97.5896224975586,-8.808113098144531,5.067958354949951,28852853.0,50354.0,0.076512172867,-0.008636378190500015,0.06876279869890525,0.0038775613072459868,-0.0004193717670377618,0.003425959498375416,28.85285396897234
1631,E,1551290467544056.0,1.5062714,9.663681,1.2828010136732981,163,1970-01-18 22:54:50.467544056,0.0072021484,0.008987427,-0.00045776367,9.872468719103558,0.011526245409218192,97.59832000732422,-8.807352066040039,5.067124366760254,28903207.0,50354.0,0.0760277346569,-0.007783910147500024,0.06642166248220525,0.003840497251729231,-0.00041341359948582704,0.0034035391791568193,28.90320797287859
1631,E,1551290517898060.0,1.5050812,9.696854,1.3341774136732982,163,1970-01-18 22:54:50.517898060,-0.00016784668,-0.004501343,-0.0002746582,9.897913882245547,0.004512837072005066,97.59840393066406,-8.80578327178955,5.066890716552734,28953561.0,50354.0,0.0758168244102,-0.006029010305000024,0.06588766586530526,0.0038229904636323774,-0.0003477678982325937,0.0033311519598052727,28.95356197701767
1631,E,1551290568252064.0,1.5130157,9.681915,1.2886757136732983,163,1970-01-18 22:54:50.568252064,0.0009765625,0.0015258789,0.0016784668,9.890549846077088,0.0024696622304626395,97.60540008544922,-8.805718421936035,5.065889358520508,29003915.0,50354.0,0.0759866256513,-0.005569932887000033,0.06603557318720527,0.003821955462198386,-0.00029202659274498545,0.0033214313896250576,29.00391598092392
1631,E,1551290618606068.0,1.4266357,9.610001,1.2952369136732982,163,1970-01-18 22:54:50.618606068,0.0032958984,-0.0074768066,0.002029419,9.806332434307219,0.008419271029874685,97.61292266845703,-8.794760704040527,5.064385414123535,29054269.0,50354.0,0.0740116032978,-0.007756630868000023,0.06505516821870527,0.003776505410251491,-0.0003355228956596364,0.0033004715963766097,29.054269985063
1631,E,1551290668960072.0,1.542984,9.601074,1.3712715136732982,163,1970-01-18 22:54:50.668960072,0.004547119,-0.0077209473,-0.0061035156,9.805164448199777,0.010841689033032705,97.60933685302734,-8.800887107849121,5.064630031585693,29104623.0,50354.0,0.0747661151869,-0.009791964725000012,0.06713468267530527,0.0037457766182892923,-0.0004418209912449619,0.003328143875958503,29.10462398896925
1631,E,1551290719314076.0,1.5588226,9.616043,1.3273567136732982,163,1970-01-18 22:54:50.719314076,0.0037994385,-0.0046539307,-0.0002746582,9.828039568502396,0.006014170017759058,97.61193084716797,-8.808975219726562,5.064035892486572,29154977.0,50354.0,0.0780941847682,-0.009639845291000036,0.06794336287990527,0.003848563771969553,-0.0004892346807728332,0.0034008599529435357,29.1549779928755
1631,E,1551290769668080.0,1.5553894,9.628738,1.3567451136732982,163,1970-01-18 22:54:50.769668080,0.0027160645,0.007797241,-0.000869751,9.836075831948751,0.008302435810185,97.6097640991211,-8.8162202835083,5.064776420593262,29205331.0,50354.0,0.078406515524,-0.008943348763000044,0.06757763170710526,0.00394021813125672,-0.00046786907669756,0.003412012080717164,29.205331997014582
1631,E,1551290820022084.0,1.4988708,9.6137085,1.3546089136732982,163,1970-01-18 22:54:50.820022084,0.0044403076,0.0040893555,-0.003036499,9.81284859606322,0.0067571803413109385,97.6083755493164,-8.815346717834473,5.065245628356934,29255686.0,50355.0,0.0768986361855,-0.009002303246250041,0.06826511602351892,0.003910195457165935,-0.00045182665346289405,0.00342018078098779,29.255686000920832
1631,E,1551290870376088.0,1.4780121,9.69017,1.3427528136732982,163,1970-01-18 22:54:50.870376088,0.0066223145,0.008071899,0.0033874512,9.886164422834632,0.010976585463407676,97.60733795166016,-8.810134887695312,5.065826892852783,29306040.0,50354.0,0.07494898077329999,-0.007455451005500043,0.06791147620940526,0.003823067452171708,-0.00041435687879631187,0.003428518062648332,29.306040005059913
1631,E,1551290920730091.0,1.4463806,9.708008,1.2941535136732982,163,1970-01-18 22:54:50.920730091,7.6293945e-05,0.00090026855,0.0041656494,9.905406238142502,0.004262503859456684,97.61276245117188,-8.800002098083496,5.0650129318237305,29356394.0,50354.0,0.0736274350079,-0.0050812724940000435,0.06638939060360527,0.0037407084201232727,-0.0003156370875469137,0.003381292923751166,29.35639400803484
1631,E,1551290971084095.0,1.4560242,9.648972,1.2848609136732982,163,1970-01-18 22:54:50.971084095,0.002243042,0.003921509,0.0022583008,9.850237726713477,0.005050682404796964,97.62068176269531,-8.792654991149902,5.063997268676758,29406748.0,50354.0,0.07307384564960001,-0.0061185145400000345,0.06493184623730526,0.0036934981431138783,-0.00028197703815502,0.003306274779943604,29.40674801194109
1631,E,1551291021438099.0,1.4832611,9.696014,1.3058723136732981,163,1970-01-18 22:54:51.021438099,-0.00032043457,0.0043640137,0.0030059814,9.897537997782033,0.005308786873155179,97.62425994873047,-8.78848648071289,5.063640117645264,29457102.0,50354.0,0.0740023859981,-0.006420487478000025,0.06522689046490526,0.0037029382841941433,-0.0003156944538071875,0.0032770065139515543,29.45710201608017
1631,E,1551291071792103.0,1.4318695,9.6822815,1.2388557136732983,163,1970-01-18 22:54:51.071792103,0.0022888184,-0.0014801025,0.001159668,9.88569965161073,0.002962131487444271,97.63793182373047,-8.777036666870117,5.061488628387451,29507456.0,50354.0,0.0733942431162,-0.005581854196500033,0.06406861754450525,0.0037110049312107317,-0.000302182956338888,0.0032552730051529292,29.50745601998642
1631,E,1551291122146107.0,1.5160675,9.632294,1.365244213673298,163,1970-01-18 22:54:51.122146107,0.005508423,-0.006958008,-0.0019683838,9.8323224391622,0.009090166888407244,97.63407135009766,-8.779218673706055,5.061795711517334,29557810.0,50354.0,0.07422020984899999,-0.007186132636500033,0.06556342387080527,0.0037164890823048404,-0.0003214596044944427,0.0032637459067132737,29.55781002389267
1631,E,1551291172500111.0,1.5197144,9.685287,1.3375343136732982,163,1970-01-18 22:54:51.172500111,0.0008239746,-0.0064086914,0.0017242432,9.888381667576184,0.006687546202803041,97.63306427001953,-8.780795097351074,5.0616278648376465,29608164.0,50354.0,0.0764318808963,-0.007110463163000022,0.06804785498300525,0.0037929676886944183,-0.0003599453924440129,0.0033639311677023877,29.60816402803175
1631,E,1551291222854115.0,1.4882355,9.649857,1.3721717136732983,163,1970-01-18 22:54:51.222854115,0.00044250488,0.0066375732,0.0040283203,9.844396942832672,0.007776924391658578,97.62760925292969,-8.778897285461426,5.06276273727417,29658518.0,50354.0,0.0757311546323,-0.006668279512,0.06822226865050526,0.0038310087455035624,-0.00034690740432847557,0.0034308729027208943,29.658518031938
1631,E,1551291273208119.0,1.4972382,9.655991,1.2896369136732981,163,1970-01-18 22:54:51.273208119,0.00044250488,-0.0025024414,0.0061798096,9.862636156495407,0.006681921147507649,97.63426971435547,-8.778010368347168,5.061585903167725,29708872.0,50354.0,0.0751652713449,-0.007405864904000011,0.06701635581070527,0.003799119316827964,-0.0003543447339616323,0.003404902848059898,29.708872036077082
1631,E,1551291323562123.0,1.4351959,9.629654,1.351602913673298,163,1970-01-18 22:54:51.323562123,0.00044250488,-0.00010681152,0.0053100586,9.819352421113189,0.00532953483946418,97.6322250366211,-8.76893424987793,5.061860084533691,29759226.0,50354.0,0.0738298933357,-0.007914515835000021,0.06649849513310525,0.0037512512611634664,-0.00038572122586580387,0.0033615034022123178,29.759226039983332
1631,E,1551291373916127.0,1.4661102,9.627991,1.3534645136732981,163,1970-01-18 22:54:51.373916127,0.0025177002,-0.005126953,0.004196167,9.822046571538626,0.007087473375835569,97.63014221191406,-8.764496803283691,5.06191873550415,29809580.0,50354.0,0.0730461836797,-0.008619471835000033,0.06810548261830525,0.0036978989910167264,-0.0004162762075675914,0.0033889243478472625,29.809580043889582
1631,E,1551291424270131.0,1.5091248,9.630325,1.3487342136732983,163,1970-01-18 22:54:51.424270131,-0.000579834,-0.00630188,-0.0031738281,9.831460130145993,0.007079765801939045,97.62859344482422,-8.76593017578125,5.061861515045166,29859934.0,50354.0,0.074907491595,-0.008602578068000065,0.06803325735840526,0.003725029682391122,-0.00043359955040783347,0.0034275650563936402,29.859934048028663
1631,E,1551291474624134.0,1.5631714,9.655869,1.3022712136732981,163,1970-01-18 22:54:51.474624134,0.0024871826,-0.002166748,0.0018920898,9.871036162865336,0.0038027461120236253,97.63349151611328,-8.774653434753418,5.061016082763672,29910288.0,50354.0,0.07735120142740001,-0.00790069366200008,0.06674436364430526,0.003833417114224966,-0.00041550287234621365,0.0033932961639852426,29.91028805100359
1631,E,1551291524978138.0,1.5388794,9.672897,1.3361000136732981,163,1970-01-18 22:54:51.524978138,-0.0016174316,0.0042419434,0.0030822754,9.879401118901846,0.005487311767243345,97.63275146484375,-8.779500007629395,5.061304092407227,29960642.0,50354.0,0.0781003329916,-0.006828858418000039,0.06642627239090525,0.0039138032820671634,-0.00037084593271816303,0.0033528371034584952,29.96064205490984
1631,E,1551291575332142.0,1.4818573,9.614319,1.3485206136732981,163,1970-01-18 22:54:51.575332142,-0.0016937256,-0.00093078613,0.0030975342,9.811654730004816,0.003650998130383714,97.63140106201172,-8.777326583862305,5.061431407928467,30010996.0,50354.0,0.0760530878959,-0.007874962768000015,0.06759069353470526,0.0038811206776845878,-0.0003701981059999234,0.0033741451511090964,30.01099605904892
1631,E,1551291625686146.0,1.4978943,9.656448,1.3344062136732981,163,1970-01-18 22:54:51.625686146,0.0014953613,0.018188477,0.0030975342,9.85720728858751,0.018510848687114168,97.63134765625,-8.776680946350098,5.062324047088623,30061350.0,50354.0,0.0750212060332,-0.008289099241000053,0.06754804873210526,0.0038035974982529508,-0.00040696258920059475,0.003402388114051489,30.06135006295517
1631,E,1551291676040150.0,1.3635559,9.640045,1.2447914136732983,163,1970-01-18 22:54:51.676040150,0.0015106201,-0.0071411133,0.0020446777,9.833795124475042,0.007580117357062368,97.6448745727539,-8.756584167480469,5.059909343719482,30111704.0,50354.0,0.07204273168540001,-0.007641395739000039,0.06493645866370527,0.0037026287599411928,-0.00040108207211146234,0.003335562442704322,30.11170406686142
1631,E,1551291726394154.0,1.3534088,9.752609,1.2264350136732982,163,1970-01-18 22:54:51.726394154,-0.008270264,-0.03112793,-0.0033111572,9.945350526992506,0.032377601126669465,97.6580810546875,-8.732842445373535,5.056336402893066,30162058.0,50354.0,0.06840502025190001,-0.005220350242000029,0.062218067761305264,0.003536053050525403,-0.0003238201785636387,0.0032013695118024905,30.1620580710005
1631,E,1551291776748158.0,1.5743713,9.641998,1.340677613673298,163,1970-01-18 22:54:51.776748158,-0.019607544,-0.04711914,-0.0030517578,9.854158633785275,0.05112711963059719,97.6561508178711,-8.743889808654785,5.054192066192627,30212412.0,50354.0,0.0737127195777,-0.0051711795610000656,0.06463219461870526,0.00357809833568984,-0.0002616275458501334,0.0031937090559415247,30.21241207490675
1631,E,1551291827102162.0,1.5796051,9.634125,1.3758338136732982,163,1970-01-18 22:54:51.827102162,-0.013320923,-0.024917603,0.0032958984,9.842758610247484,0.028446385976089488,97.6494369506836,-8.756168365478516,5.053869724273682,30262766.0,50354.0,0.0794076638228,-0.008154251229000079,0.06839360820630525,0.0038551118928743886,-0.00033549437099983365,0.00334919063772529,30.262766079045832
