Subject-id_accel,Activity_accel,Timestamp_accel,accel_x,accel_y,accel_z,Segment_accel,DateTime,gyro_x,gyro_y,gyro_z,accel_magnitude,gyro_magnitude,Roll,Pitch,Yaw,Time_Difference,Difference_Microseconds,vx,vy,vz,dx,dy,dz,Time_diff
1647,E,1216522731642385.0,-0.61770403,9.20142866984704,0.9002562068840616,242,1970-01-15 01:55:22.731642385,-0.17150758,0.12250541,-0.008522116,9.738397104715204,0.21093850273916792,-100.55391693115234,1.023783564567566,61.27582931518555,15005268.0,39937.0,-0.024047734470695,-0.025482834428818813,0.036132815317878764,-0.0009257696387964121,-0.0010732304062990754,0.0014426207179739686,15.005268638953567
1647,E,1216522771497541.0,-0.52253455,9.16910666984704,0.7973054068840617,242,1970-01-15 01:55:22.771497541,-0.14913702,0.1470065,-0.0010652645,9.785867273596178,0.20941321965240248,-100.60599517822266,1.073309063911438,61.267791748046875,15045123.0,39855.0,-0.022722104302950002,-0.024500157018246264,0.033828159058364275,-0.0009320059621618108,-0.0009960360620613893,0.0013941473168825834,15.045123795047402
1647,E,1216522811461135.0,-0.2789245,9.21818766984704,0.8505764068840613,242,1970-01-15 01:55:22.811461135,-0.13422333,0.11504856,0.008522116,9.71667057712822,0.17698785250824406,-100.64994049072266,1.0869667530059814,61.2613639831543,15085087.0,39964.0,-0.0160147547371,-0.024232284504232926,0.03292797440271463,-0.0007740399173382791,-0.0009737716465021791,0.0013339210588192787,15.085087388986722
1647,E,1216522851301708.0,-0.15263036,9.40194366984704,0.8032911068840614,242,1970-01-15 01:55:22.851301708,-0.08735169,0.023435818,0.010652645,9.54448808410114,0.09106609773500372,-100.70307159423828,1.0830233097076416,61.25918960571289,15124927.0,39840.0,-0.0085965728112,-0.01951898371329396,0.032945040874261006,-0.0004902576447621361,-0.0008715252628931355,0.001312190464317355,15.124927961966023
1647,E,1216522891203948.0,-0.23104046,9.34807366984704,0.7883273068840615,242,1970-01-15 01:55:22.891203948,-0.027696876,-0.0958738,-0.0063915867,9.601884962515507,0.09999877422820237,-100.7521743774414,1.0910059213638306,61.26304244995117,15164830.0,39903.0,-0.00765480836523,-0.016958429047093614,0.031755174782294705,-0.0003242394315415431,-0.0007277791006888727,0.0012908663526717712,15.164830202003941
1647,E,1216522931171708.0,-0.33159694,9.28103566984704,0.7583998068840616,242,1970-01-15 01:55:22.931171708,0.0,-0.16831179,-0.027696876,9.676755278072374,0.1705754249391262,-100.8007583618164,1.1130560636520386,61.270633697509766,15204797.0,39967.0,-0.011243464482900003,-0.019401793510223406,0.03090902127798529,-0.00037765363546060594,-0.0007266045074741448,0.0012522499619706054,15.204797961981967
1647,E,1216522970529000.0,-0.39205053,9.21818766984704,0.8487809068840617,242,1970-01-15 01:55:22.970529000,0.0063915867,-0.18855181,-0.04474111,9.720951643854912,0.19389276510187742,-100.83274841308594,1.1425938606262207,61.27968215942383,15244155.0,39358.0,-0.014240658562129999,-0.021662183898160232,0.0316277092662429,-0.0005015020574031454,-0.0008080980114195815,0.0012306603203798665,15.244155253982171
1647,E,1216523010963896.0,-0.58119243,9.15713666984704,0.9241982068840615,242,1970-01-15 01:55:23.010963896,0.004261058,-0.1917476,-0.05006743,9.774604045598561,0.1982222143652024,-100.85132598876953,1.1985822916030884,61.289188385009766,15284590.0,40435.0,-0.019676539543799998,-0.024759880162234967,0.03584520523260703,-0.0006857209527066397,-0.00093853808014104,0.0013641336488804984,15.284590149996802
1647,E,1216523050824313.0,-0.6865373,9.10506166984704,0.8799054068840615,242,1970-01-15 01:55:23.050824313,0.004261058,-0.1736381,-0.04261058,9.841255090246534,0.17884073337700715,-100.87420654296875,1.268145203590393,61.2975959777832,15324450.0,39860.0,-0.0252658535189,-0.026662387089897037,0.03595578502239869,-0.0008957018937396109,-0.0010248457863349908,0.001430993735782264,15.324450567131862
1647,E,1216523090779573.0,-0.7062895,9.08111966984704,0.9235997068840616,242,1970-01-15 01:55:23.090779573,0.010652645,-0.15446335,-0.026631612,9.85724351323758,0.15710394042301123,-100.88929748535156,1.3392881155014038,61.305084228515625,15364405.0,39955.0,-0.027825197397,-0.02824456228626157,0.036029523410302675,-0.0010606264696723922,-0.0010969035811622086,0.0014380864992142915,15.364405827131122
1647,E,1216523130624573.0,-0.61411273,9.16132566984704,0.9104316068840614,242,1970-01-15 01:55:23.130624573,0.026631612,-0.15659387,-0.015978966,9.775292865232679,0.15964401095476333,-100.90745544433594,1.3965380191802979,61.312461853027344,15404250.0,39845.0,-0.026305713427174998,-0.027045882719944736,0.03653848884854543,-0.0010784230708946263,-0.001101523890636145,0.0014457362242269011,15.404250826919451
1647,E,1216523169899261.0,-0.52133745,9.23375066984704,0.9361692068840615,242,1970-01-15 01:55:23.169899261,0.025566347,-0.18002969,-0.02130529,9.693882966618357,0.18307988082365742,-100.92362213134766,1.4393541812896729,61.32106018066406,15443525.0,39275.0,-0.022297402909749995,-0.02366168837925752,0.036262623480371514,-0.0009544436970663644,-0.0009957699274605843,0.0014296318433591065,15.44352551503107
1647,E,1216523210467020.0,-0.55844754,9.20382266984704,0.9319794068840614,242,1970-01-15 01:55:23.210467020,0.03195793,-0.19920446,-0.035153728,9.72605854542615,0.20479138352497764,-100.9387435913086,1.4858195781707764,61.330745697021484,15484093.0,40568.0,-0.021902358737159996,-0.023578662377645283,0.03789352648167261,-0.0008965479652459222,-0.0009582232747530165,0.001504183345830103,15.484093273989856
1647,E,1216523250395302.0,-0.52492875,9.14336866984704,0.8954678068840616,242,1970-01-15 01:55:23.250395302,0.043675844,-0.21198763,-0.046871636,9.790686026627354,0.22145718521521432,-100.9563217163086,1.5252230167388916,61.34107208251953,15524021.0,39928.0,-0.021628524253559996,-0.025011072094347386,0.0364831561756668,-0.0008690505480267339,-0.0009700454589988616,0.0014848560925711238,15.524021555902436
1647,E,1216523290282541.0,-0.4770447,9.19185166984704,0.9912359068840615,242,1970-01-15 01:55:23.290282541,0.04261058,-0.24074976,-0.053263225,9.721719969320056,0.2502260570072482,-100.96112823486328,1.557081937789917,61.35320281982422,15563908.0,39887.0,-0.019982857500075,-0.025224133155311135,0.03762747551553456,-0.0008298765920036194,-0.0010018658158965647,0.0014780253831334742,15.563908795127645
1647,E,1216523330206552.0,-0.54049104,9.35944566984704,1.0050026068840616,242,1970-01-15 01:55:23.330206552,0.058589544,-0.26418558,-0.06498113,9.55826120389449,0.2782971480309154,-100.96782684326172,1.5985125303268433,61.366519927978516,15603832.0,39924.0,-0.02031204844188,-0.020934202505026825,0.039848913211839275,-0.0008043669124133058,-0.0009214126964516663,0.0015465836717758366,15.603832805994898
1647,E,1216523370089625.0,-0.45190558,8.91831466984704,0.9972214068840615,242,1970-01-15 01:55:23.370089625,0.0479369,-0.28975195,-0.068176925,9.987529853679945,0.3014999701705924,-100.96348571777344,1.622793197631836,61.381446838378906,15643715.0,39883.0,-0.019789877197730003,-0.026367442185990537,0.03992735017055703,-0.0007996925501422828,-0.0009432657476059227,0.0015908583562400558,15.64371587894857
1647,E,1216523410011083.0,-0.35793316,8.73336266984704,1.0702445068840616,242,1970-01-15 01:55:23.410011083,0.040480047,-0.314253,-0.07137272,10.15196808863762,0.324788619527102,-100.94453430175781,1.6322226524353027,61.39802932739258,15683637.000000002,39922.00000000186,-0.016165191089140756,-0.03889046862236831,0.041268687104727426,-0.0007176991180742607,-0.0013026131576457118,0.0016207541000520288,15.683637337060645
1647,E,1216523449071135.0,-0.46746787,9.02306016984704,1.2115024068840616,242,1970-01-15 01:55:23.449071135,0.05965481,-0.32170987,-0.051132694,9.846852194379053,0.33116535025157845,-100.91240692138672,1.6599903106689453,61.415130615234375,15722697.0,39059.99999999814,-0.016120082115899232,-0.03600506194077292,0.044562517225889324,-0.0006305313856944009,-0.0014627097118980784,0.0016762834205768652,15.722697389079258
1647,E,1216523487461968.0,-0.41060558,9.14157366984704,1.2563937068840616,242,1970-01-15 01:55:23.487461968,0.08735169,-0.33768883,-0.03834952,9.720032450463611,0.35090561314526647,-100.87610626220703,1.6803375482559204,61.43299102783203,15761088.0,38391.0,-0.016855058909475,-0.027552571130152317,0.04737249985183602,-0.000632974319552571,-0.0012200205456129455,0.0017647386203154768,15.761088222032413
1647,E,1216523530822280.0,-0.28790274,9.155340669847039,1.2168893068840616,242,1970-01-15 01:55:23.530822280,0.082025364,-0.35579833,-0.03834952,9.708766386577675,0.367139343648092,-100.84703063964844,1.682288408279419,61.45155715942383,15804448.0,43360.0,-0.0151436603776,-0.028250897115432414,0.05362077573849291,-0.000693732234143786,-0.001209819191564277,0.002189534214798331,15.804448534036055
1647,E,1216523568732491.0,-0.23104046,9.11164566984704,1.3024821068840615,242,1970-01-15 01:55:23.568732491,0.054328486,-0.3568636,-0.05752428,9.73600325368425,0.3655301029813148,-100.80655670166016,1.6747668981552124,61.47072982788086,15842358.0,37910.0,-0.009836568356,-0.02526727393109877,0.047754685147974776,-0.000473500235645388,-0.0010144369321869987,0.0019215718611029949,15.842358744936064
1647,E,1216523608678843.0,-0.29628247,9.08471166984704,1.5496834068840615,242,1970-01-15 01:55:23.608678843,0.06711166,-0.38456047,-0.070307456,9.727327786857051,0.396653335248512,-100.72984313964844,1.676722764968872,61.492401123046875,15882305.0,39947.0,-0.010532484542355,-0.028035656675620326,0.05696772788924761,-0.0004068412780652936,-0.001064646084473304,0.002091673116798961,15.882305097067729
1647,E,1216523648536968.0,-0.3609259,9.12002566984704,1.6053486068840614,242,1970-01-15 01:55:23.648536968,0.09374327,-0.38242993,-0.06924219,9.687046688947847,0.39979361288806736,-100.64630889892578,1.6883904933929443,61.5141487121582,15922163.0,39858.0,-0.01309750560573,-0.027806189557236696,0.06287663300238491,-0.0004709220736611859,-0.0011128721535746077,0.0023883782682093445,15.922163221985102
1647,E,1216523689016499.0,-0.4830302,9.10446366984704,1.7507964068840616,242,1970-01-15 01:55:23.689016499,0.1107875,-0.36005938,-0.066046394,9.689670178901707,0.38246405509882575,-100.54248809814453,1.7177714109420776,61.535362243652344,15962642.0,40479.0,-0.01708124948595,-0.02783964800926171,0.06792669700615993,-0.0006108029136780574,-0.0011262439294271445,0.0026473939977079432,15.962642753031105
1647,E,1216523729296863.0,-0.48003745,9.06256516984704,1.7663587068840616,242,1970-01-15 01:55:23.729296863,0.11611383,-0.32490566,-0.056459017,9.729279883535844,0.3496194073816709,-100.43804168701172,1.745808482170105,61.55482864379883,16002923.0,40281.0,-0.019396664004825,-0.028860755654141413,0.07083726256884688,-0.0007346834166609538,-0.0011419744799827706,0.0027947755278204247,16.002923117019236
1647,E,1216523769085145.0,-0.39205053,8.99612566984704,1.8447688068840615,242,1970-01-15 01:55:23.769085145,0.08841695,-0.30253512,-0.0479369,9.782634674230335,0.3188149969219248,-100.32508087158203,1.7600733041763306,61.573455810546875,16042711.0,39788.0,-0.01734931827412,-0.030662804435126,0.07183977075890303,-0.0007310245714573318,-0.0011841617044158858,0.0028384169010222567,16.04271139902994
1647,E,1216523809027749.0,-0.25558102,8.953029669847039,1.8489587068840616,242,1970-01-15 01:55:23.809027749,0.07243799,-0.30360037,-0.033023197,9.82051115352835,0.31386458640547166,-100.2143783569336,1.7545517683029175,61.59194564819336,16082654.000000002,39943.00000000186,-0.012934173500825605,-0.032969844133301285,0.07376927904122352,-0.0006048067559833544,-0.0012708394408844051,0.0029080311380833635,16.082654003053904
1647,E,1216523848883895.0,-0.16340427,8.97338166984704,1.8274108068840615,242,1970-01-15 01:55:23.848883895,0.043675844,-0.3057309,-0.033023197,9.800611270104543,0.31059538648219354,-100.11133575439453,1.7357499599456787,61.61035919189453,16122509.999999998,39855.999999996275,-0.008349538859119219,-0.03335127482257331,0.07326269167036432,-0.0004241418199089408,-0.0013216472585525453,0.0029300531123402493,16.122510148910806
1647,E,1216523888784521.0,-0.2124854,9.00211166984704,1.9112078568840616,242,1970-01-15 01:55:23.888784521,0.007456851,-0.32170987,-0.043675844,9.764284308739457,0.32474670811474815,-100.00090026855469,1.724312663078308,61.6298942565918,16162410.000000002,39900.000000003725,-0.007498998916500699,-0.03240890787310617,0.07458544234218101,-0.00031617832862364687,-0.0013119156447789283,0.0029495702735505545,16.162410774966702
1647,E,1216523928737802.0,-0.2633622,8.99971666984704,1.9495151068840615,242,1970-01-15 01:55:23.928737802,-0.008522116,-0.32597092,-0.0479369,9.764161359538583,0.32958703483051915,-99.88842010498047,1.720429539680481,61.64975357055664,16202364.0,39953.99999999814,-0.009506007505199556,-0.03192667525792993,0.0771256626471922,-0.00033970901328629014,-0.0012852319442086483,0.0030307327443725674,16.20236405590549
1647,E,1216523966756343.0,-0.2621651,9.04700266984704,1.9698658068840615,242,1970-01-15 01:55:23.966756343,-0.008522116,-0.34194988,-0.04580637,9.715140764270581,0.3451095049773459,-99.77639770507812,1.7168660163879395,61.67034149169922,16240382.0,38018.0,-0.009989748445700001,-0.029526312071755288,0.07450351178981825,-0.0003705948248706497,-0.0011681598361499865,0.002882318976873132,16.240382597083226
1647,E,1216524008539989.0,-0.29209262,9.05717766984704,1.9411354068840616,242,1970-01-15 01:55:24.008539989,-0.011717909,-0.33449304,-0.039414786,9.708620506650492,0.33701102141502687,-99.67170715332031,1.718039631843567,61.690311431884766,16282166.0,41784.0,-0.011579552286240002,-0.03125066434311134,0.08170863735804362,-0.00045062583089169054,-0.0012697525912593937,0.00326358421999713,16.28216624306515
1647,E,1216524048400197.0,-0.31184477,9.02844766984704,1.9315585568840614,242,1970-01-15 01:55:24.048400197,-0.0053263223,-0.28868666,-0.03089267,9.738747276996671,0.2903837365124431,-99.57038116455078,1.7219585180282593,61.707847595214844,16322026.000000002,39860.00000000186,-0.012036472182700562,-0.030181486979898434,0.07718279069790229,-0.0004706673676660074,-0.0012243427758676418,0.00316670616115515,16.32202645111829
1647,E,1216524088360770.0,-0.28491,9.100872669847039,1.9973991568840614,242,1970-01-15 01:55:24.088360770,0.0,-0.24927188,-0.02876214,9.659606377055438,0.2509257476946397,-99.46270751953125,1.721922755241394,61.723602294921875,16361987.0,39960.99999999814,-0.011923458681984444,-0.029384914952741113,0.07850253959994032,-0.0004787313986418165,-0.001190166493815049,0.003110670742015899,16.36198702408001
1647,E,1216524129134625.0,-0.25198972,9.07633166984704,2.0590498468840615,242,1970-01-15 01:55:24.129134625,0.010652645,-0.23648871,-0.027696876,9.677663698602151,0.23834325193535374,-99.34779357910156,1.7168728113174438,61.73891067504883,16402760.0,40773.0,-0.010945506141779998,-0.02900582372882669,0.08269679761531883,-0.0004662181513796738,-0.0011903827941317818,0.0032862902881388802,16.40276087890379
1647,E,1216524168150510.0,-0.2088941,9.07752866984704,1.9908150468840615,242,1970-01-15 01:55:24.168150510,0.03089267,-0.21624869,-0.022370555,9.681509073460626,0.21958664512545614,-99.24481964111328,1.7056082487106323,61.75278854370117,16441776.0,39016.0,-0.00899092156056,-0.028211292493247938,0.07900476434762854,-0.0003889198316172487,-0.001116191503260232,0.0031544740707731777,16.441776764113456
1647,E,1216524208012645.0,-0.24779987,8.98714766984704,1.9596904568840614,242,1970-01-15 01:55:24.208012645,0.022370555,-0.18961707,-0.025566347,9.775292704544306,0.19263621950536022,-99.14820098876953,1.6996276378631592,61.76518630981445,16481638.0,39862.0,-0.009102367516070001,-0.030600535873557332,0.07873752519560247,-0.00036061734458631253,-0.0011721785511787958,0.003143961572886137,16.481638899073005
1647,E,1216524247921447.0,-0.2681506,9.02365866984704,2.0584513068840615,242,1970-01-15 01:55:24.247921447,0.010652645,-0.15659387,-0.026631612,9.730610472763,0.1591991260176747,-99.04069519042969,1.6966516971588135,61.77629089355469,16521546.999999998,39908.99999999814,-0.010295533653614521,-0.03171156489457304,0.08018000982510727,-0.00038707541889045175,-0.0012434068147775996,0.003171119952570605,16.521547700976953
1647,E,1216524287876707.0,-0.25079262,9.00031566984704,2.1069338068840615,242,1970-01-15 01:55:24.287876707,-0.002130529,-0.12676647,-0.023435818,9.74940945854639,0.12893220945679115,-98.92916107177734,1.6910450458526611,61.78601837158203,16561502.0,39955.00000000186,-0.010367188177550484,-0.03148505262876301,0.08321398111030655,-0.0004127895253821182,-0.0012625104265725049,0.003264203453912382,16.561502960976213
1647,E,1216524327724261.0,-0.27593175,8.98355566984704,2.0859846068840615,242,1970-01-15 01:55:24.327724261,-0.02130529,-0.10759171,-0.015978966,9.768479767163422,0.11083870622276928,-98.82427978515625,1.6893863677978516,61.79458999633789,16601350.0,39848.0,-0.01049445634788,-0.03219974742793519,0.08353970647591608,-0.00041564740552467694,-0.001268855956329655,0.0033224004714678995,16.601350514916703
1647,E,1216524367677957.0,-0.29029694,8.979964669847039,2.0650353468840614,242,1970-01-15 01:55:24.367677957,-0.03195793,-0.066046394,-0.010652645,9.774208733237696,0.07414117813863064,-98.72562408447266,1.6897791624069214,61.80088806152344,16641304.000000002,39954.00000000186,-0.011311550540130527,-0.032691954173932954,0.08292492561642965,-0.00043561859960180666,-0.0012963415229005802,0.003325463955308946,16.64130421099253
1647,E,1216524410244416.0,-0.28072014,9.04819966984704,2.0973570368840617,242,1970-01-15 01:55:24.410244416,-0.041545313,-0.027696876,-0.011717909,9.703287427161056,0.05128780911444382,-98.62605285644531,1.6887149810791016,61.80533981323242,16683869.999999998,42565.999999996275,-0.012152956513638938,-0.03345337835828801,0.08858819710372921,-0.0004993951036253318,-0.0014077711122831354,0.0036503137908528217,16.683870669919997
1647,E,1216524448233636.0,-0.33399114,9.00869466984704,2.1189049068840617,242,1970-01-15 01:55:24.448233636,-0.049002163,-0.002130529,-0.010652645,9.742608299255787,0.05019193140330859,-98.52576446533203,1.6952030658721924,61.80855178833008,16721858.999999998,37989.0,-0.011676133407960003,-0.029310520464680814,0.08008578749090363,-0.0004526216485158111,-0.0011921688761928812,0.0032038780003827536,16.721859890036285
1647,E,1216524487590822.0,-0.35913026,9.02964466984704,2.0752107068840617,242,1970-01-15 01:55:24.487590822,-0.03834952,0.053263225,-0.004261058,9.7261724602083,0.06577091634537555,-98.4342041015625,1.7052103281021118,61.8087272644043,16761216.999999998,39358.0,-0.013639936030599998,-0.03073192013416023,0.08253600116334289,-0.0004981949304814223,-0.001181575188544593,0.0032002341789269173,16.761217076098546
1647,E,1216524527229105.0,-0.33758244,9.070944669847039,2.0638382468840613,242,1970-01-15 01:55:24.527229105,-0.040480047,0.09161274,0.0031957934,9.685227434260588,0.1002084898144129,-98.34724426269531,1.712087869644165,61.80682373046875,16800855.0,39638.00000000186,-0.013808149001300648,-0.029716819876604482,0.08203181121473428,-0.0005439935972472644,-0.001198033578273402,0.003261569473521264,16.800855359062552
1647,E,1216524567149052.0,-0.30107087,9.02545466984704,2.0560570368840616,242,1970-01-15 01:55:24.567149052,-0.036218993,0.12783173,0.0,9.7299883639586,0.13286371456769883,-98.26286315917969,1.7127660512924194,61.803077697753906,16840775.0,39920.0,-0.0127475200676,-0.03001186917970621,0.08223310986401174,-0.0005300511546152568,-0.0011921846335639613,0.0032787278247317702,16.84077530610375
1647,E,1216524607091446.0,-0.26635495,9.06316266984704,2.0734150468840618,242,1970-01-15 01:55:24.607091446,-0.027696876,0.16085494,0.002130529,9.689950605877572,0.16323592685552654,-98.17813110351562,1.7083553075790405,61.79768371582031,16880717.0,39942.0,-0.01133206105122,-0.030183823108969554,0.08246968698493318,-0.00048089331452395417,-0.0012021681706971435,0.0032892795558702786,16.880717700114474
1647,E,1216524646951968.0,-0.20709845,9.007497669847039,1.9770484068840615,242,1970-01-15 01:55:24.646951968,-0.020240024,0.1768339,0.0053263223,9.752460399104086,0.17806812311577289,-98.1085433959961,1.6951261758804321,61.79098892211914,16920578.0,39861.0,-0.0094361629887,-0.030480504099727183,0.08072776186532558,-0.00041392108922762554,-0.0012090703734329304,0.0032526067543100826,16.920578222023323
1647,E,1216524686854260.0,-0.18914193,9.00031566984704,1.8992368668840616,242,1970-01-15 01:55:24.686854260,-0.036218993,0.19068234,0.008522116,9.766791950220368,0.19427865735310995,-98.05278015136719,1.6796081066131592,61.7831916809082,16960480.0,39902.0,-0.00790539182138,-0.031765716059763444,0.07733576749694782,-0.00034598136001590606,-0.0012418743384019974,0.003153525474306717,16.960480513982475
1647,E,1216524726967227.0,-0.18016368,9.03682766984704,1.9219817568840614,242,1970-01-15 01:55:24.726967227,-0.051132694,0.19281286,0.011717909,9.728025592260108,0.1998215723299402,-97.99636840820312,1.6634204387664795,61.77528762817383,17000593.0,40113.0,-0.007406977966965001,-0.03134543460742569,0.07664027132760537,-0.0003071125446599415,-0.0012657887933564791,0.003088220422684651,17.000593481119722
1647,E,1216524766662752.0,-0.16998832,9.05837466984704,1.9513107568840615,242,1970-01-15 01:55:24.766662752,-0.056459017,0.18855181,0.007456851,9.703538734792026,0.1969644899003843,-97.93761444091797,1.646028757095337,61.76767349243164,17040289.0,39696.0,-0.006949816896000001,-0.029867223961751902,0.0768771098132697,-0.00028495366444012933,-0.001214948847281037,0.0030470129808840883,17.040289005963132
1647,E,1216524806756287.0,-0.23582886,9.04221466984704,1.8908571668840617,242,1970-01-15 01:55:24.806756287,-0.05006743,0.18322548,0.008522116,9.726988709215927,0.19013403306392243,-97.88865661621094,1.6387977600097656,61.76002883911133,17080382.0,40093.0,-0.008135214098869999,-0.030057935801822647,0.07702201928381767,-0.00030240207383866143,-0.001201289715200497,0.0030851388914447616,17.08038254105486
1647,E,1216524846463018.0,-0.2825158,9.10925266984704,1.8794847068840614,242,1970-01-15 01:55:24.846463018,-0.04261058,0.19068234,0.015978966,9.662753498944321,0.19603760779565016,-97.8432388305664,1.6392213106155396,61.7518196105957,17120089.0,39707.0,-0.01029095570731,-0.028758443171383624,0.07485448239085543,-0.0003658239622469946,-0.0011677109799445506,0.003015280125998122,17.12008927203715
1647,E,1216524884112120.0,-0.24420857,9.11404066984704,1.8740978068840615,242,1970-01-15 01:55:24.884112120,-0.018109497,0.18961707,0.025566347,9.657511334583718,0.19218799446350002,-97.79861450195312,1.634463906288147,61.743568420410156,17157738.0,37649.0,-0.009915322903065,-0.025915814526928836,0.07065931403042804,-0.00038037309170100425,-0.001029215564041883,0.002739224460732451,17.15773837408051
1647,E,1216524923807388.0,-0.24660277,9.10027366984704,1.8447688068840615,242,1970-01-15 01:55:24.923807388,0.0,0.1768339,0.022370555,9.674368914089644,0.1782432885699151,-97.75828552246094,1.6300429105758667,61.735816955566406,17197433.0,39695.0,-0.009741378070650002,-0.027502396142921798,0.07381020511676283,-0.00039013637257580855,-0.0010602179362698605,0.0028673587812738707,17.19743364211172
1647,E,1216524963737696.0,-0.24660277,9.05119266984704,1.8004760068840615,242,1970-01-15 01:55:24.963737696,-0.0010652645,0.16298546,0.01917476,9.727989380349067,0.16411296835084105,-97.72468566894531,1.6254733800888062,61.72856140136719,17237363.0,39930.0,-0.0098468486061,-0.02891997452800772,0.07277731270688058,-0.00039107894560131383,-0.001126472630445108,0.0029266197933490406,17.23736395011656
1647,E,1216525004690144.0,-0.21906945,8.99672466984704,1.8351919068840614,242,1970-01-15 01:55:25.004690144,-0.002130529,0.13848437,0.018109497,9.777658344501436,0.1396796827377187,-97.68600463867188,1.6169203519821167,61.72267532348633,17278316.0,40953.0,-0.00953533721283,-0.031781220593754184,0.07444575403627297,-0.0003968793279213202,-0.0012429480219107577,0.003014613126166184,17.27831639791839
1647,E,1216525045896916.0,-0.23463176,8.96320566984704,1.7777311068840616,242,1970-01-15 01:55:25.045896916,-0.0127831735,0.0958738,0.023435818,9.817650413486904,0.09952101595391913,-97.65657806396484,1.611261010169983,61.7186164855957,17319523.0,41207.0,-0.009347832880235,-0.03379117524611303,0.07443885931417152,-0.00038905939501246466,-0.001351020857686704,0.0030675441311658834,17.31952317012474
1647,E,1216525088889311.0,-0.2621651,8.93088366984704,1.7914978068840615,242,1970-01-15 01:55:25.088889311,-0.036218993,0.056459017,0.027696876,9.84891385725028,0.07257102035041063,-97.6264877319336,1.6101216077804565,61.7165412902832,17362515.0,42992.0,-0.01067914530256,-0.03667025555393608,0.07672414473035959,-0.00043049992301736137,-0.0015146389164778559,0.0032493999349412403,17.362515565007925
1647,E,1216525124877332.0,-0.27114335,9.08650716984704,1.7448109068840616,242,1970-01-15 01:55:25.124877332,-0.033023197,0.013848438,0.03834952,9.699948568750854,0.052469004749195046,-97.6063461303711,1.6117255687713623,61.71621322631836,17398503.0,35988.0,-0.0095963522493,-0.028477469230544745,0.0636323389955436,-0.0003648373029481688,-0.001172268159771948,0.0025255745681639023,17.398503585951403
1647,E,1216525165642751.0,-0.31902736,9.08231666984704,1.7077007068840615,242,1970-01-15 01:55:25.165642751,-0.039414786,-0.023435818,0.035153728,9.709994094172316,0.05778016539482129,-97.59233856201172,1.6204034090042114,61.717586517333984,17439269.0,40766.0,-0.012029449581929998,-0.02917166367551557,0.07037254422343564,-0.000440798718725961,-0.0011750622760242273,0.0027314215346524538,17.439269005088136
1647,E,1216525205595768.0,-0.45130703,9.041016669847039,1.6951311068840615,242,1970-01-15 01:55:25.205595768,-0.04580637,-0.05219796,0.024501082,9.757716835491964,0.07364206393026491,-97.58006286621094,1.647728443145752,61.720420837402344,17479222.0,39953.0,-0.015388584941835,-0.029498631539601246,0.06797666972773891,-0.0005477163666639916,-0.0011720271523647811,0.002763733072495639,17.479222021996975
1647,E,1216525245783062.0,-0.4770447,9.02904666984704,1.7352341068840615,242,1970-01-15 01:55:25.245783062,-0.034088463,-0.08628642,0.02876214,9.766004753131813,0.09713202501491652,-97.56139373779297,1.678530216217041,61.7250862121582,17519409.0,40187.0,-0.018653835486754998,-0.030741782283857065,0.06892804342284979,-0.0006840313748818731,-0.0012104407551616595,0.0027508948536913544,17.519409316126257
1647,E,1216525285443634.0,-0.5662287,9.09309166984704,1.7154818068840616,242,1970-01-15 01:55:25.285443634,-0.002130529,-0.10226539,0.03089267,9.70963869684601,0.10685085963809951,-97.54560089111328,1.722346305847168,61.73043441772461,17559069.0,39660.0,-0.020688111521999997,-0.029305996723866447,0.06842769657002189,-0.0007801508091836117,-0.0011907474577231574,0.0027237643240586454,17.55906988796778
1647,E,1216525325297020.0,-0.6428431,9.13798266984704,1.6873500068840614,242,1970-01-15 01:55:25.325297020,0.011717909,-0.10013486,0.025566347,9.673387081989585,0.10400931533990737,-97.5344467163086,1.776463270187378,61.73554992675781,17598923.0,39854.0,-0.0240931737586,-0.027278581632916122,0.06780822955295739,-0.0008923566717865161,-0.0011275608929156064,0.002714773299852608,17.598923274083063
1647,E,1216525365201761.0,-0.6422446,9.05238966984704,1.7561833068840615,242,1970-01-15 01:55:25.365201761,0.023435818,-0.09374327,0.015978966,9.749889596603767,0.09794062277753385,-97.51139831542969,1.8278790712356567,61.74077606201172,17638828.0,39905.0,-0.025640712334250002,-0.028125595892253916,0.06870709844295848,-0.0009923153622675897,-0.0011054518520709554,0.0027238220818385115,17.638828014954925
1647,E,1216525405161184.0,-0.64463884,9.12601166984704,1.7537891068840614,242,1970-01-15 01:55:25.405161184,0.025566347,-0.09267801,0.010652645,9.677367471051651,0.09672812663326286,-97.49040222167969,1.8787904977798462,61.74592590332031,17678787.0,39959.0,-0.02571128768948,-0.028402830433582157,0.07012749384088023,-0.0010259872844741137,-0.001129409693777042,0.0027738457365349555,17.678787437966093
1647,E,1216525445015199.0,-0.7092823,9.07273966984704,1.7813224068840616,242,1970-01-15 01:55:25.445015199,0.01917476,-0.0958738,0.002130529,9.731492954502217,0.09779568549438897,-97.46534729003906,1.9370366334915161,61.75148391723633,17718641.0,39854.0,-0.026979586556780004,-0.027922682053916084,0.07044416713485739,-0.0010499710511052232,-0.0011223984873383775,0.0028011714882635237,17.718641452956945
1647,E,1216525484914726.0,-0.8086416,8.95961366984704,1.7448109068840616,242,1970-01-15 01:55:25.484914726,-0.0010652645,-0.07563378,-0.010652645,9.855413305042505,0.07638771047124913,-97.4453353881836,2.006209373474121,61.755985260009766,17758540.0,39899.0,-0.030281822843049998,-0.031273767049772985,0.07034459654301717,-0.0011423364868219086,-0.001180939561394045,0.0028086654409917584,17.758540980052203
1647,E,1216525524859732.0,-0.82121116,8.97816966984704,1.7274529068840616,242,1970-01-15 01:55:25.524859732,-0.02130529,-0.053263225,-0.011717909,9.840113404104894,0.05855079769496745,-97.4297103881836,2.0754737854003906,61.75928497314453,17798485.0,39945.0,-0.0325522342491,-0.033198622247960045,0.06934978902048383,-0.0012549532052729658,-0.001287674795248973,0.0027900461156670237,17.798485985957086
1647,E,1216525562455456.0,-0.7918822,8.99313266984704,1.7693514068840615,242,1970-01-15 01:55:25.562455456,-0.02876214,-0.024501082,-0.015978966,9.818049792647512,0.04102305535890129,-97.40908813476562,2.13859486579895,61.76142120361328,17836081.0,37596.0,-0.03032292898128,-0.03061625861843073,0.06573292749021317,-0.0011819273184046832,-0.0011995921305264139,0.002539284904968082,17.836081709945574
1647,E,1216525604670504.0,-0.7870938,8.98654866984704,1.8166369068840615,242,1970-01-15 01:55:25.604670504,-0.04261058,0.004261058,-0.02130529,9.818927141397664,0.04783025742351659,-97.38272094726562,2.198979377746582,61.762420654296875,17878296.0,42215.0,-0.03332823592,-0.03420087612240727,0.07569124833286066,-0.0013435169631537678,-0.0013681276715422383,0.0029851107911855307,17.878296758048236
1647,E,1216525644532651.0,-0.789488,9.01707466984704,1.8519514068840615,242,1970-01-15 01:55:25.644532651,-0.043675844,0.046871636,-0.027696876,9.785083434785674,0.06979718153756788,-97.35252380371094,2.2580199241638184,61.761539459228516,17918158.0,39862.0,-0.0314228518558,-0.03181738321655735,0.07311863368171247,-0.0012905539304594697,-0.0013158099268849041,0.002965929758432457,17.91815890511498
1647,E,1216525684419831.0,-0.7134721,9.07214166984704,1.7759355068840614,242,1970-01-15 01:55:25.684419831,-0.043675844,0.08628642,-0.029827405,9.733004135269214,0.10120572965283517,-97.33512115478516,2.3046300411224365,61.75823974609375,17958046.0,39888.0,-0.029975036234400003,-0.030131069321141308,0.07235457660819143,-0.0012245194800709488,-0.0012354999374118623,0.0029013177060218435,17.958046084968373
1647,E,1216525724381291.0,-0.59376204,8.94225666984704,1.8196296068840616,242,1970-01-15 01:55:25.724381291,-0.056459017,0.10333065,-0.03089267,9.848947266258358,0.1217341401980467,-97.3103256225586,2.331240177154541,61.75442123413086,17998007.0,39961.0,-0.026119191734270002,-0.03168111397374245,0.07184118875564399,-0.001120790721928011,-0.0012350383283234252,0.002881103489852114,17.998007545014843
1647,E,1216525764233009.0,-0.55725044,8.97038766984704,1.7088978068840615,242,1970-01-15 01:55:25.764233009,-0.06924219,0.10759171,-0.03089267,9.831525092225657,0.13162375923992256,-97.30329132080078,2.351973295211792,61.74971389770508,18037859.0,39852.0,-0.022935074676479997,-0.03362224888725577,0.07030943724674363,-0.0009774553125006045,-0.0013012348083682504,0.0028324933737235757,18.037859263131395
1647,E,1216525804185509.0,-0.5069722,9.07633166984704,1.7531906068840615,242,1970-01-15 01:55:25.804185509,-0.08841695,0.10013486,-0.037284255,9.718514584330585,0.13868908718939327,-97.29277801513672,2.3654489517211914,61.745609283447266,18077811.0,39952.0,-0.021258911456640002,-0.03102833447027108,0.06915867815343203,-0.0008828190669952051,-0.0012914600531499564,0.002786015073233909,18.077811762923375
1647,E,1216525844045979.0,-0.44113165,9.041016669847039,1.7406210068840615,242,1970-01-15 01:55:25.844045979,-0.08841695,0.080960095,-0.054328486,9.751808434387916,0.1316194454507529,-97.28369903564453,2.367927074432373,61.74250411987305,18117672.0,39861.0,-0.018896183782425,-0.02954998891572719,0.06963341236820558,-0.0008003111256621851,-0.0012073562742446386,0.0027661957601414983,18.11767223291099
1647,E,1216525883996656.0,-0.4165911,9.009892669847039,1.7364312068840615,242,1970-01-15 01:55:25.883996656,-0.09161274,0.060720075,-0.0628506,9.782101262458667,0.12660971352417327,-97.2750244140625,2.3662502765655518,61.740440368652344,18157622.0,39950.0,-0.01713301193125,-0.03094308593961082,0.06945411797001826,-0.0007196831843806581,-0.0012083491702353766,0.0027782734185060214,18.157622910104692
1647,E,1216525923894884.0,-0.4297592,9.007497669847039,1.7938920068840616,242,1970-01-15 01:55:25.923894884,-0.099069595,0.03195793,-0.06178534,9.77846847382858,0.12105173349549574,-97.25848388671875,2.366807460784912,61.74013137817383,18197521.0,39899.0,-0.01688426530985,-0.03157227141827302,0.07042818295306717,-0.0006786276723213244,-0.0012471501216111036,0.0027905819622650926,18.19752113800496
1647,E,1216525963798425.0,-0.40761283,9.040418669847039,1.7855123068840615,242,1970-01-15 01:55:25.963798425,-0.09374327,0.017044231,-0.05006743,9.745776275105952,0.10763388884305519,-97.24382781982422,2.3649771213531494,61.74040603637695,18237424.0,39903.0,-0.016706828056545,-0.03096639714859363,0.07141448516614471,-0.0006701926992996298,-0.0012477402459118402,0.0028299739929804556,18.237424679100513
1647,E,1216526003657125.0,-0.29987377,9.10506166984704,1.7956876068840615,242,1970-01-15 01:55:26.003657125,-0.07137272,-0.007456851,-0.03195793,9.676517929271318,0.0785555795403452,-97.22795104980469,2.3487179279327393,61.74177932739258,18277283.0,39859.0,-0.0140998541947,-0.028987849570066896,0.07137152368144181,-0.0006139617739261871,-0.0011948581599795448,0.0028456537633279756,18.277283379109576
1647,E,1216526043622124.0,-0.25737667,9.10206966984704,1.6825616068840614,242,1970-01-15 01:55:26.043622124,-0.05006743,-0.033023197,-0.01917476,9.691651181740557,0.06296785297247563,-97.22791290283203,2.327301025390625,61.743629455566406,18317248.0,39965.0,-0.011135256917300001,-0.027832998004563084,0.06950411491412152,-0.00050426060779554,-0.0011354225866600435,0.0028150474482358445,18.317248377949
1647,E,1216526083462279.0,-0.207697,9.12660966984704,1.6987224068840616,242,1970-01-15 01:55:26.083462279,-0.039414786,-0.0479369,-0.024501082,9.664117824613998,0.06672162135474917,-97.22540283203125,2.298992395401001,61.746341705322266,18357088.0,39840.0,-0.0092642675064,-0.027316707553293944,0.06735517755426101,-0.00040635852652010405,-0.001098582134712512,0.00272623710597018,18.357088532997295
1647,E,1216526123474415.0,-0.16998832,9.11703366984704,1.7579790068840615,242,1970-01-15 01:55:26.123474415,-0.023435818,-0.06391586,-0.037284255,9.665794495270866,0.07761823494368929,-97.2132339477539,2.2652690410614014,61.750282287597656,18397100.0,40012.0,-0.00755597251192,-0.02713527134608027,0.06915476848384507,-0.00033650572180650987,-0.0010893662898608806,0.00273101798043835,18.397100669099018
1647,E,1216526163278375.0,-0.19153613,9.091893669847039,1.7938920068840616,242,1970-01-15 01:55:26.163278375,-0.0053263223,-0.08522116,-0.041545313,9.687050496859515,0.09495803732837493,-97.19470977783203,2.2354423999786377,61.75550842285156,18436904.0,39804.0,-0.0071950596039,-0.027685128085408482,0.07068933691601317,-0.00029357504116904964,-0.0010910355894854892,0.002783177385667979,18.436904628993943
1647,E,1216526203278582.0,-0.22864626,9.041016669847039,1.7705485068840616,242,1970-01-15 01:55:26.203278582,0.017044231,-0.08735169,-0.035153728,9.74103924712111,0.09569016746006584,-97.17808532714844,2.211988687515259,61.76066207885742,18476904.0,40000.0,-0.0084036478,-0.029341793206118467,0.07128881027536248,-0.000311974148078,-0.001140538425830539,0.0028395629438275126,18.47690483601764
1647,E,1216526240854050.0,-0.2160767,9.02126566984704,1.8172354068840615,242,1970-01-15 01:55:26.240854050,0.013848438,-0.08628642,-0.026631612,9.755148242326351,0.0913584603043133,-97.15491485595703,2.1876449584960938,61.76597213745117,18514480.0,37576.0,-0.00835545497248,-0.02889063940182767,0.0674072841718755,-0.00031487002288935423,-0.001094070943838092,0.002605822222474707,18.51448030397296
1647,E,1216526282978166.0,-0.1352724,9.05598066984704,1.8711050068840616,242,1970-01-15 01:55:26.282978166,0.0,-0.09374327,-0.025566347,9.713419864298162,0.09716706627874133,-97.12565612792969,2.1522324085235596,61.77188491821289,18556604.0,42124.0,-0.0074001147441999995,-0.03207223759336333,0.07768382579478421,-0.0003318438093727141,-0.0012840001152727128,0.0030559089581177865,18.556604420067742
1647,E,1216526322869677.0,-0.10474633,8.98954166984704,1.8681123068840615,242,1970-01-15 01:55:26.322869677,-0.00958738,-0.11824436,-0.037284255,9.77942806480629,0.12435337630309451,-97.09697723388672,2.1126668453216553,61.7790641784668,18596495.0,39891.0,-0.004787293579215,-0.031004834173631774,0.0745805589317621,-0.0002430839527146739,-0.001258103734928601,0.0030369892855633294,18.59649593103677
1647,E,1216526362886602.0,-0.13108255,9.01767366984704,1.8016731068840615,242,1970-01-15 01:55:26.362886602,-0.02876214,-0.13528858,-0.04261058,9.758921234855427,0.14472706071682792,-97.080078125,2.0778164863586426,61.78670120239258,18636512.0,40017.0,-0.004718582145479999,-0.031869231875731034,0.07342690145137948,-0.00019019831443755988,-0.0012580157505486756,0.002961407271076088,18.63651285599917
1647,E,1216526402687019.0,-0.142455,9.041016669847039,1.8429731068840616,242,1970-01-15 01:55:26.402687019,-0.0479369,-0.1555286,-0.0479369,9.73137558044533,0.16966154007664788,-97.05887603759766,2.0454254150390625,61.79556655883789,18676313.0,39801.0,-0.005443534013775001,-0.030672832894918,0.07253028197709253,-0.00020223119262725416,-0.0012446183599683013,0.002904620928818308,18.676313272910193
1647,E,1216526442598269.0,-0.16220717,9.07872566984704,1.8519514068840615,242,1970-01-15 01:55:26.442598269,-0.056459017,-0.17789917,-0.046871636,9.693237701916082,0.1924387838992226,-97.0378646850586,2.0170366764068604,61.805519104003906,18716224.0,39911.0,-0.006079685933435001,-0.029539281740234825,0.07373406613449979,-0.00022995161565654923,-0.0012015628536017923,0.002918778198740881,18.71622452302836
1647,E,1216526482533113.0,-0.18375498,9.067353669847039,1.8148412068840616,242,1970-01-15 01:55:26.482533113,-0.0628506,-0.19600865,-0.043675844,9.708948014547099,0.21042140609808413,-97.02295684814453,1.9927608966827393,61.81614685058594,18756159.0,39935.0,-0.006907999230125,-0.029031160784658498,0.073216681515415,-0.0002593316035033843,-0.0011695053111158073,0.002934239053699673,18.7561593670398
1647,E,1216526522390665.0,-0.15861586,9.04520766984704,1.8776891068840615,242,1970-01-15 01:55:26.522390665,-0.053263225,-0.20240025,-0.034088463,9.723801468430937,0.21204918214217544,-96.99835205078125,1.9658596515655518,61.827327728271484,18796016.0,39857.0,-0.00682293728494,-0.02964242134190658,0.07358659035792804,-0.0002736369683404728,-0.001169276481409252,0.002925569003527916,18.79601691896096
1647,E,1216526562281603.0,-0.2208651,9.02006766984704,1.8740978068840615,242,1970-01-15 01:55:26.562281603,-0.04474111,-0.19387813,-0.03195793,9.750386373490057,0.2015237095386394,-96.97411346435547,1.9487638473510742,61.838043212890625,18835907.0,39891.0,-0.00756893748768,-0.030610850712131783,0.0748312658885621,-0.00028705313827729224,-0.0012017816377538223,0.0029602683517643696,18.835907856933773
1647,E,1216526602244624.0,-0.2172738,9.06615666984704,1.8681123068840615,242,1970-01-15 01:55:26.602244624,-0.053263225,-0.17150758,-0.033023197,9.705103186513982,0.1825988846487235,-96.95252990722656,1.9315265417099,61.84757995605469,18875870.0,39963.0,-0.00875467243035,-0.030247508356402792,0.07477497138825774,-0.0003261702115771165,-0.0012160413017279236,0.0029893570301467755,18.87587087810971
1647,E,1216526642106394.0,-0.15083471,9.06256516984704,1.8758934068840616,242,1970-01-15 01:55:26.642106394,-0.05219796,-0.15659387,-0.03089267,9.706602348843957,0.16793041478382467,-96.93025207519531,1.904923439025879,61.856361389160156,18915732.0,39862.0,-0.0073367707128100005,-0.02932404501305732,0.07462177788111247,-0.000320718553286322,-0.0011873206302067097,0.0029776266096878177,18.915732647990808
1647,E,1216526682067072.0,-0.11492168,9.08111966984704,1.8752949068840614,242,1970-01-15 01:55:26.682067072,-0.035153728,-0.15339808,-0.020240024,9.687720631739351,0.15867077270721586,-96.90806579589844,1.8742170333862305,61.86488723754883,18955693.0,39961.0,-0.005309945550395,-0.029097905060492466,0.074950618103244,-0.0002526877142969676,-0.0011672997734445615,0.0029885312579654346,18.955693325959146
1647,E,1216526721963009.0,-0.074818805,9.03383466984704,1.8633239068840615,242,1970-01-15 01:55:26.721963009,-0.00958738,-0.13954964,-0.011717909,9.735604210460739,0.14036854801103515,-96.88621520996094,1.838636875152588,61.872596740722656,18995589.0,39896.0,-0.0037849431947800005,-0.029623690831782522,0.07457796809704652,-0.00018142484068875092,-0.0011713783948591016,0.0029827962375233953,18.99558926303871
1647,E,1216526761819258.0,-0.049679685,9.08890066984704,1.8764920068840616,242,1970-01-15 01:55:26.761819258,-0.010652645,-0.13848437,-0.0127831735,9.679303077255378,0.13948049721923142,-96.86387634277344,1.8002302646636963,61.88026809692383,19035445.0,39856.0,-0.0024810059087200004,-0.029438930150576376,0.07452705152957116,-0.00012486783373454803,-0.0011769999109364482,0.0029713648311192374,19.035445512039587
1647,E,1216526801752957.0,-0.06823475,9.04520766984704,1.8393818068840615,242,1970-01-15 01:55:26.801752957,-0.0031957934,-0.14487597,-0.014913702,9.726790731952514,0.14567662230516323,-96.84651184082031,1.7654049396514893,61.88810348510742,19075379.0,39934.0,-0.0023543975236449996,-0.029269458781328323,0.07419485243950812,-9.654850033403195e-05,-0.001172230401803341,0.0029695302565506056,19.075379210989922
1647,E,1216526841795717.0,-0.09696517,9.03682766984704,1.8232209068840615,242,1970-01-15 01:55:26.841795717,-0.018109497,-0.15233281,-0.008522116,9.73711485406254,0.15364200384402232,-96.83251953125,1.7360249757766724,61.896156311035156,19115421.0,40042.0,-0.00330746759832,-0.03039117046398485,0.0733289689323516,-0.00011335620160686125,-0.001194465458120415,0.0029535744276860034,19.115421971073374
1647,E,1216526881566810.0,-0.11492168,9.007497669847039,1.8399803068840614,242,1970-01-15 01:55:26.881566810,-0.025566347,-0.1470065,0.0,9.764655890936908,0.1492130997639765,-96.81637573242188,1.7103590965270996,61.90397644042969,19155193.0,39772.0,-0.0042135818991,-0.03093614629484356,0.0728464193369929,-0.00014956359030569413,-0.0012195550210660619,0.002906843771124185,19.15519306412898
1647,E,1216526921605457.0,-0.14784196,9.06376166984704,1.8699079068840616,242,1970-01-15 01:55:26.921605457,-0.03089267,-0.12996227,-0.0031957934,9.705990621983668,0.1336217114795993,-96.79741668701172,1.6900371313095093,61.91105651855469,19195231.0,40038.0,-0.005260265309159999,-0.030603859278664266,0.07426825215142405,-0.00018965694726215694,-0.001231969371576053,0.0029450886085266186,19.19523171102628
1647,E,1216526961366863.0,-0.16280572,9.01946966984704,1.8531485068840616,242,1970-01-15 01:55:26.961366863,-0.02876214,-0.10652645,-0.0053263223,9.752033174298042,0.11046952048517988,-96.78063201904297,1.6720712184906006,61.91691207885742,19234993.0,39762.0,-0.0061759865260799995,-0.030154877735542047,0.07401808456212405,-0.0002273641227364064,-0.0012079444505794356,0.0029480806602020498,19.234993116930127
1647,E,1216527001221656.0,-0.15442601,9.046404669847039,1.9052223568840616,242,1970-01-15 01:55:27.001221656,-0.020240024,-0.09161274,0.0,9.719729455842135,0.0938219201563695,-96.75665283203125,1.6535757780075073,61.922176361083984,19274847.0,39854.0,-0.0063214766837099996,-0.030570522032916134,0.07489305620230739,-0.00024903694938148527,-0.0012100750411860662,0.0029673523020128257,19.27484791004099
1647,E,1216527041360091.0,-0.16519992,9.03563066984704,1.8866673068840614,242,1970-01-15 01:55:27.041360091,-0.0010652645,-0.07563378,0.0063915867,9.732510128955296,0.07591084142655104,-96.73490142822266,1.6373183727264404,61.92652130126953,19314986.0,40139.0,-0.006414732602135,-0.030464791750009722,0.07610132960699435,-0.0002556093522622662,-0.0012249482299664305,0.0030303818259997816,19.314986345125362
1647,E,1216527081023530.0,-0.16220717,9.01887066984704,1.9614861068840614,242,1970-01-15 01:55:27.081023530,-0.020240024,-0.0628506,0.004261058,9.741751498903843,0.06616655580548182,-96.7034683227539,1.6208287477493286,61.930545806884766,19354649.0,39663.0,-0.006492973705335,-0.030649556681856895,0.07631465442514253,-0.00025597917763659124,-0.0012119892009265628,0.0030226375873333225,19.35464978404343
1647,E,1216527120982488.0,-0.30107087,8.96799366984704,2.0195455068840618,242,1970-01-15 01:55:27.120982488,-0.051132694,-0.040480047,0.0053263223,9.790374377975224,0.06543360230083105,-96.66523742675781,1.6248806715011597,61.93366622924805,19394608.0,39959.0,-0.00925606360018,-0.032229643925082166,0.07953902112728022,-0.0003146578908455369,-0.0012562949885263392,0.00311387851069963,19.394608742091805
1647,E,1216527160837904.0,-0.27353755,9.08052166984704,1.8860687668840614,242,1970-01-15 01:55:27.160837904,-0.034088463,0.020240024,0.011717909,9.690378111730771,0.04133994766028648,-96.64833068847656,1.6251659393310547,61.93312454223633,19434464.0,39856.0,-0.01145079659376,-0.03091798631057642,0.07783108124765116,-0.00041264630994483636,-0.0012584059753362044,0.0031360714001276327,19.43446415802464
1647,E,1216527200797802.0,-0.18914193,9.07932366984704,1.8028702068840616,242,1970-01-15 01:55:27.200797802,-0.023435818,0.058589544,0.015978966,9.698485237535435,0.06509454344172187,-96.64356994628906,1.6129264831542969,61.93029022216797,19474424.0,39960.0,-0.009244336010400001,-0.028774290112912316,0.0737050006958871,-0.0004134887494311169,-0.001192651682941305,0.0030276909172318946,19.47442405601032
1647,E,1216527240655092.0,-0.12988544,9.13020066984704,1.8028702068840616,242,1970-01-15 01:55:27.240655092,-0.013848438,0.05539375,0.015978966,9.646957648575308,0.05929227714071623,-96.63929748535156,1.5923646688461304,61.92759323120117,19514281.0,39857.0,-0.006357736943045,-0.027710094196406534,0.07185699783577804,-0.00031092591085272867,-0.0011256490527082605,0.0029008322877382884,19.514281345997006
1647,E,1216527280603425.0,-0.18854338,9.14396766984704,1.7579790068840615,242,1970-01-15 01:55:27.280603425,0.011717909,0.03089267,0.011717909,9.639394021882184,0.03505675173762484,-96.64066314697266,1.5809777975082397,61.925933837890625,19554229.0,39948.0,-0.006360297250679999,-0.026482161582950466,0.07112440219580449,-0.0002540300149854631,-0.0010824361169368768,0.002855910484230829,19.554229679051787
1647,E,1216527320636811.0,-0.39743748,9.02545466984704,1.6669993068840616,242,1970-01-15 01:55:27.320636811,0.015978966,0.03834952,0.0063915867,9.77427256327077,0.042034098291781785,-96.65300750732422,1.5998090505599976,61.92362594604492,19594263.0,40034.0,-0.01172957887462,-0.02863587302634363,0.06855779090669652,-0.00036210505040013013,-0.00110329769877424,0.0027960184593327627,19.594263064907864
1647,E,1216527360393321.0,-0.42078096,9.012885669847039,1.6424587068840615,242,1970-01-15 01:55:27.360393321,0.014913702,0.09374327,0.011717909,9.790793293907752,0.09564271309916918,-96.66852569580078,1.6214334964752197,61.918453216552734,19634019.0,39756.0,-0.01626454615032,-0.031042670727561127,0.06578540639768275,-0.0005564672172457574,-0.0011862900927401188,0.002670474076016451,19.634019575081766
1647,E,1216527400322125.0,-0.40880993,9.01587766984704,1.7023137068840615,242,1970-01-15 01:55:27.400322125,-0.0053263223,0.15126756,0.00958738,9.779902020727052,0.15166463751600595,-96.67608642578125,1.6403932571411133,61.910675048828125,19673948.0,39929.0,-0.016562367323405,-0.03136895430467759,0.06677670885467368,-0.0006553729140461828,-0.00124601688795613,0.0026465363499556705,19.67394837900065
1647,E,1216527440183426.0,-0.34955344,9.08351466984704,1.7100949068840616,242,1970-01-15 01:55:27.440183426,-0.007456851,0.18535602,0.010652645,9.709566580059848,0.18581156482461642,-96.6836929321289,1.6504120826721191,61.90120315551758,19713809.0,39861.0,-0.015114561145785,-0.029907860973727187,0.06801100987670558,-0.0006313370228551913,-0.0012212775669062466,0.0026863866281757543,19.713809679960832
1647,E,1216527480109518.0,-0.29328972,9.09728066984704,1.6951311068840615,242,1970-01-15 01:55:27.480109518,-0.0031957934,0.20133498,0.007456851,9.695870599589371,0.2014983669757452,-96.69337463378906,1.6516846418380737,61.89088821411133,19753735.0,39926.0,-0.012833078003080001,-0.028331582633687135,0.06797852691285305,-0.0005579187203287921,-0.0011626340127348122,0.0027147591229299594,19.75373577210121
1647,E,1216527519967331.0,-0.32202014,9.07633166984704,1.6873500068840614,242,1970-01-15 01:55:27.519967331,0.0063915867,0.21411815,0.004261058,9.718517448379767,0.21425590109783554,-96.70308685302734,1.6568249464035034,61.879947662353516,19793593.0,39858.0,-0.01226251019994,-0.02842647968223672,0.06740946611628493,-0.0005001299772979856,-0.0011311314238940464,0.0026981473130776906,19.79359358502552
1647,E,1216527559891603.0,-0.3250129,9.091893669847039,1.7579790068840615,242,1970-01-15 01:55:27.559891603,0.0031957934,0.23329292,0.0063915867,9.69471803817721,0.23340233931588067,-96.70269012451172,1.662392020225525,61.86833572387695,19833517.0,39924.0,-0.01291607354448,-0.02858108576902683,0.06877565777283927,-0.000502614888706112,-0.001137985021538123,0.002718527443074697,19.833517857128754
1647,E,1216527599781447.0,-0.29508537,9.08650716984704,1.8465645068840615,242,1970-01-15 01:55:27.599781447,0.0063915867,0.24607609,0.0031957934,9.689213897236261,0.24617982765792815,-96.68904113769531,1.6631847620010376,61.856483459472656,19873407.0,39890.0,-0.012367859995149999,-0.028353795252301615,0.07189262038210521,-0.0005042880544479203,-0.0011355662019703959,0.002805628807800368,19.873407701030374
1647,E,1216527640339155.0,-0.3357868,9.02784866984704,1.7873079068840616,242,1970-01-15 01:55:27.640339155,0.015978966,0.27377295,-0.004261058,9.755316553162048,0.27427196743635873,-96.68303680419922,1.6691159009933472,61.84307861328125,19913965.0,40558.0,-0.012793456735429998,-0.030127377926843755,0.07369129867880377,-0.0005102463419794317,-0.0011859397108998889,0.0029522962946361728,19.913965408923104
1647,E,1216527678907333.0,-0.3513491,9.012885669847039,1.7202702068840616,242,1970-01-15 01:55:27.678907333,0.022370555,0.30253512,-0.0010652645,9.77848157102254,0.30336294327567,-96.6864242553711,1.6770524978637695,61.82793426513672,19952533.0,38568.0,-0.0132507286956,-0.030068878993339394,0.06764013634590449,-0.0005022360718519825,-0.0011608246184488119,0.0027254353930164735,19.952533587114885
1647,E,1216527719950196.0,-0.25677812,9.014681169847039,1.6915398068840615,242,1970-01-15 01:55:27.719950196,0.004261058,0.30040458,0.010652645,9.777223878348352,0.3006235971206382,-96.69483947753906,1.6715279817581177,61.81271743774414,19993576.0,41043.0,-0.012479682745230003,-0.032268687099218006,0.07001545919754254,-0.000528026638382993,-0.0012792603625684169,0.0028248993039448485,19.993576450040564
1647,E,1216527759577591.0,-0.17896658,9.00630166984704,1.7202702068840616,242,1970-01-15 01:55:27.759577591,-0.015978966,0.25566345,0.010652645,9.780342048052589,0.25638370826912477,-96.69966125488281,1.654991865158081,61.799835205078125,20033203.0,39627.0,-0.00863362761345,-0.03128585650572138,0.06759989770779472,-0.0004183285747917063,-0.0012592379497164668,0.0027266418740439003,20.03320384491235
1647,E,1216527799292019.0,-0.2088941,8.94824166984704,1.7029123068840615,242,1970-01-15 01:55:27.799292019,-0.03195793,0.20026971,0.0,9.840641536684853,0.2028035158308874,-96.70658874511719,1.642856478691101,61.78975296020508,20072918.0,39715.0,-0.0077019434530999995,-0.03267465563202483,0.0679758467671505,-0.00032438360245401666,-0.0012700958697752954,0.0026921953459112247,20.072918273042887
1647,E,1216527839237436.0,-0.29927522,9.02246266984704,1.6879485068840616,242,1970-01-15 01:55:27.839237436,-0.043675844,0.14487597,-0.0031957934,9.77115199337887,0.151350054932295,-96.7173080444336,1.6446620225906372,61.78232192993164,20112863.0,39945.0,-0.010149411743700001,-0.03254110757546004,0.06772396760298384,-0.000356536191668088,-0.0013025218306614917,0.002710264542507508,20.112863690126687
1647,E,1216527879099883.0,-0.39205053,9.06017066984704,1.7094963068840616,242,1970-01-15 01:55:27.879099883,-0.04261058,0.101200126,0.002130529,9.734415443470754,0.10982561715816633,-96.72520446777344,1.6607624292373657,61.777137756347656,20152726.0,39863.0,-0.013779159186125002,-0.030243393589887504,0.06771617130561935,-0.0004769323114878071,-0.0012513892849771247,0.0026995251286568243,20.1527261370793
1647,E,1216527919002748.0,-0.47764325,9.01827166984704,1.6831601068840616,242,1970-01-15 01:55:27.919002748,-0.035153728,0.07350325,0.0063915867,9.782982146624875,0.08172738056125439,-96.73556518554688,1.6890941858291626,61.773189544677734,20192629.0,39903.0,-0.01735169545167,-0.030357357659593593,0.06768858443929472,-0.000621107246305967,-0.0012090758885540222,0.002701527984244653,20.192629002034664
1647,E,1216527959011551.0,-0.5638345,9.01946966984704,1.6915398068840615,242,1970-01-15 01:55:27.959011551,-0.037284255,0.05965481,0.0127831735,9.78535642536369,0.07149980106106749,-96.74455261230469,1.7297314405441284,61.76993942260742,20232637.0,40008.0,-0.020833720911,-0.03125142224075966,0.06750749707501753,-0.0007638610689188508,-0.0012324220331266665,0.0027044624146123023,20.232637804932892
1647,E,1216527996588946.0,-0.5758055,9.01827166984704,1.6640065068840615,242,1970-01-15 01:55:27.996588946,-0.036218993,0.06498113,0.0063915867,9.790636161911372,0.07466736295433611,-96.75727081298828,1.7707077264785767,61.7663459777832,20270215.0,37578.0,-0.02141269596,-0.029353277968487967,0.06304735968938927,-0.0007937679265892191,-0.0011387017122315537,0.0024529952037464398,20.27021520002745
1647,E,1216528038761757.0,-0.5781997,9.01707466984704,1.6550283068840614,242,1970-01-15 01:55:28.038761757,-0.039414786,0.07456851,0.0010652645,9.793086431023383,0.08435118746941773,-96.77110290527344,1.8106719255447388,61.76226043701172,20312388.0,42173.0,-0.0243339306498,-0.03299306940804082,0.06998682760052152,-0.0009646362420075477,-0.0013146662539551743,0.002805225390288704,20.31238801102154
1647,E,1216528078610300.0,-0.5823896,8.96978966984704,1.6095385068840615,242,1970-01-15 01:55:28.078610300,-0.051132694,0.08735169,-0.0010652645,9.84595277663929,0.10122255148932324,-96.7909164428711,1.8496102094650269,61.75738525390625,20352236.0,39848.0,-0.023123581213199997,-0.032140114895935185,0.06504322919751608,-0.000945543466358412,-0.001297713564072418,0.002690338851644101,20.352236554026604
1647,E,1216528118558218.0,-0.5374983,9.01767366984704,1.6137284068840616,242,1970-01-15 01:55:28.118558218,-0.0628506,0.09161274,-0.0063915867,9.795448858186127,0.11128317227331011,-96.81112670898438,1.8811482191085815,61.7523193359375,20392184.0,39948.0,-0.0223686409146,-0.03220880725295046,0.0643815333356045,-0.0009086616447806769,-0.0012853053710018417,0.00258513020683655,20.392184471944347
1647,E,1216528158472747.0,-0.4997896,8.99792166984704,1.5448950068840615,242,1970-01-15 01:55:28.158472747,-0.07882957,0.07882957,-0.015978966,9.822166203097131,0.11262117725898162,-96.84120178222656,1.9057810306549072,61.74763870239258,20432099.0,39915.0,-0.020701673264249997,-0.031620756008055424,0.06303822678027732,-0.0008595757952243988,-0.001273878508781525,0.002542979862512711,20.432099001016468
1647,E,1216528198373216.0,-0.57879823,8.97278266984704,1.5945746068840616,242,1970-01-15 01:55:28.198373216,-0.098004326,0.07350325,-0.023435818,9.844728781764948,0.12472695474758415,-96.86380767822266,1.9407987594604492,61.743534088134766,20471999.0,39900.0,-0.0215178272085,-0.03250444842310312,0.06263241879467406,-0.0008422790344313624,-0.001279297828401613,0.00250712937922028,20.47199946991168
1647,E,1216528239625249.0,-0.5566519,9.01827166984704,1.5353182068840616,242,1970-01-15 01:55:28.239625249,-0.10546118,0.082025364,-0.018109497,9.806410881024874,0.1348264614529281,-96.89569091796875,1.972242832183838,61.73866271972656,20513251.0,41252.0,-0.023419794381379998,-0.033186113189469915,0.0645571691767813,-0.0009268833829128647,-0.001354933523820931,0.002623412441499238,20.513251502998173
1647,E,1216528278174676.0,-0.4914099,9.00270966984704,1.5700341068840615,242,1970-01-15 01:55:28.278174676,-0.10865697,0.10439592,-0.014913702,9.813606007005585,0.15141751467241862,-96.92166137695312,1.9933300018310547,61.73286437988281,20551800.0,38549.0,-0.0202008671641,-0.030434795168066485,0.05985411317172369,-0.0008407664409583542,-0.0012262611981373353,0.0023979652616262595,20.551800929941237
1647,E,1216528316561809.0,-0.3854665,9.095484669847039,1.6023559068840616,242,1970-01-15 01:55:28.316561809,-0.10439592,0.111852765,-0.010652645,9.712693795594172,0.1533721878186774,-96.94388580322266,1.9991577863693237,61.72677993774414,20590188.0,38388.0,-0.016830765621599998,-0.028825657843911882,0.060890853924265353,-0.0007107851596887258,-0.0011374451351119127,0.0023175788984404135,20.590188062982634
1647,E,1216528357971864.0,-0.28550854,9.05717766984704,1.5730268068840616,242,1970-01-15 01:55:28.357971864,-0.10013486,0.098004326,-0.0127831735,9.751099365375358,0.14069558495796866,-96.9688720703125,1.9898990392684937,61.7213020324707,20631598.0,41410.0,-0.0138925382032,-0.029967126256634134,0.065746299088569,-0.000636126005692484,-0.0012173045948018052,0.0026220222531307355,20.631598117994145
1647,E,1216528397844260.0,-0.24241292,9.100872669847039,1.5413037068840616,242,1970-01-15 01:55:28.397844260,-0.082025364,0.07669904,-0.0127831735,9.710989404549695,0.11302350463945629,-96.997802734375,1.974819302558899,61.71671676635742,20671470.0,39872.0,-0.010524642226559999,-0.02874670842785888,0.0620872931224813,-0.0004867809090476953,-0.0011705190082700527,0.002548490494319498,20.67147051403299
1647,E,1216528437736497.0,-0.21428105,9.12361766984704,1.4461341068840616,242,1970-01-15 01:55:28.437736497,-0.07456851,0.05006743,-0.0127831735,9.701466143932224,0.09072276315873598,-97.03996276855469,1.9561669826507568,61.71299743652344,20711362.0,39892.0,-0.00910921792562,-0.027435915684461937,0.05958743463341898,-0.0003916169745953823,-0.001120618620544351,0.0024269241198191867,20.711362750967965
1647,E,1216528477701134.0,-0.22744916,9.08411266984704,1.4700761068840615,242,1970-01-15 01:55:28.477701134,-0.06924219,0.02130529,-0.013848438,9.737316914105374,0.07375754532941049,-97.07640838623047,1.9399187564849854,61.710899353027344,20751327.0,39965.0,-0.008826873921325,-0.0278210284870631,0.05827317059662152,-0.0003584079553315785,-0.001104171886907499,0.002355149544009284,20.751327387988567
1647,E,1216528517557228.0,-0.16579847,9.06675466984704,1.4988067068840616,242,1970-01-15 01:55:28.517557228,-0.066046394,-0.004261058,-0.01917476,9.749116715100227,0.0689054003452574,-97.1072006225586,1.9148685932159424,61.71031188964844,20791183.0,39856.0,-0.007836638770640001,-0.028878315654576426,0.059163896712771155,-0.00033207048092547854,-0.0011299045300545926,0.0023402858773415775,20.791183481924236
1647,E,1216528557462852.0,-0.25498247,9.08052166984704,1.4706747068840615,242,1970-01-15 01:55:28.557462852,-0.060720075,-0.027696876,-0.02130529,9.741463683141431,0.07005683285839505,-97.14128112792969,1.9036216735839844,61.710777282714844,20831089.0,39906.0,-0.00839584209582,-0.02898619519408407,0.05925006264891535,-0.0003238866907284764,-0.0011545705849633227,0.0023627137311437304,20.83108910592273
1647,E,1216528597566551.0,-0.2717419,9.05298866984704,1.4832444068840616,242,1970-01-15 01:55:28.597566551,-0.05539375,-0.036218993,-0.01917476,9.767336144181874,0.0689054019221581,-97.17182922363281,1.895169734954834,61.7117805480957,20871192.0,40103.0,-0.010561613705054998,-0.029405317423624216,0.05923050910972152,-0.000380125424991245,-0.0011708374152539778,0.002375713184618307,20.871192805003375
1647,E,1216528636243634.0,-0.2657564,9.06256516984704,1.4251849068840616,242,1970-01-15 01:55:28.636243634,-0.06178534,-0.035153728,-0.013848438,9.76620771021216,0.07242231745983711,-97.21056365966797,1.886326551437378,61.71242141723633,20909869.0,38677.0,-0.01039441087455,-0.028706962071076068,0.05624466028430486,-0.0004052580813326913,-0.0011238043170082616,0.0022331165633263793,20.90986988809891
1647,E,1216528674910299.0,-0.21787235,9.12301866984704,1.4371559068840616,242,1970-01-15 01:55:28.674910299,-0.06391586,-0.040480047,-0.018109497,9.703473964534442,0.07779347817301152,-97.24803924560547,1.8707027435302734,61.71342468261719,20948536.0,38667.0,-0.009350236438125,-0.027345614835274517,0.05533906612298601,-0.0003817331388196021,-0.001083692495618929,0.002157303974495358,20.948536552954465
1647,E,1216528717106341.0,-0.12569559,9.13738366984704,1.4371559068840616,242,1970-01-15 01:55:28.717106341,-0.054328486,-0.051132694,-0.02130529,9.68763931991193,0.0775889951522375,-97.28437042236328,1.841802716255188,61.715003967285156,20990732.0,42196.0,-0.00724859639812,-0.028262831437134327,0.06064223064687986,-0.00035020217517909696,-0.0011732269994552816,0.0024469733992506302,20.990732595091686
1647,E,1216528756969468.0,-0.12868834,9.06675466984704,1.4186009068840615,242,1970-01-15 01:55:28.756969468,-0.0479369,-0.06711166,-0.026631612,9.760284353475221,0.08666697206712684,-97.32061004638672,1.8137640953063965,61.71742248535156,21030595.0,39863.0,-0.005070253300795001,-0.027821616682387484,0.05691951693361935,-0.00024553315277392435,-0.001117847177694249,0.0023431819719007202,21.030595721909776
1647,E,1216528797047746.0,-0.17238252,9.11164566984704,1.4766603068840616,242,1970-01-15 01:55:28.797047746,-0.04474111,-0.08948222,-0.023435818,9.707993407124068,0.10275248019142713,-97.3482666015625,1.7932720184326172,61.72120666503906,21070674.0,40079.0,-0.0060333094989700005,-0.02848814639270053,0.05801958709330629,-0.00022250984672589073,-0.0011284194971432262,0.002303322175147576,21.070674000075087
1647,E,1216528836801762.0,-0.15861586,9.13379266984704,1.5317269068840615,242,1970-01-15 01:55:28.836801762,-0.037284255,-0.09267801,-0.02130529,9.677995842325764,0.10214325523718747,-97.36727142333984,1.771456003189087,61.725406646728516,21110428.0,39754.0,-0.006579254799260001,-0.026924622121900815,0.05979771264806898,-0.0002506999405559177,-0.001101439599764731,0.0023418544669593163,21.110428015934303
1647,E,1216528876669620.0,-0.15322891,9.07693066984704,1.5341211068840614,242,1970-01-15 01:55:28.876669620,-0.020240024,-0.10546118,-0.014913702,9.733875883297964,0.10841650043170449,-97.3833999633789,1.7496625185012817,61.730255126953125,21150295.0,39867.0,-0.006216157722795,-0.027693146308208107,0.06111308138244688,-0.00025505735550838336,-0.0010887232870015761,0.002410175312807288,21.150295874103904
1647,E,1216528916563270.0,-0.16400282,9.07273966984704,1.4820473068840616,242,1970-01-15 01:55:28.916563270,-0.027696876,-0.10439592,-0.017044231,9.745561670292604,0.10934409386513355,-97.4070053100586,1.7298612594604492,61.734867095947266,21190189.0,39894.0,-0.00632782131831,-0.028929725734122225,0.060163511349432756,-0.00025021474993292144,-0.001129456428628363,0.002419104195222803,21.190189524088055
1647,E,1216528956535350.0,-0.16400282,9.10925266984704,1.5347196068840616,242,1970-01-15 01:55:28.956535350,-0.029827405,-0.098004326,-0.017044231,9.701964601665015,0.10385098850819699,-97.4232177734375,1.7106187343597412,61.73939514160156,21230161.0,39972.0,-0.00655552072104,-0.028340301098874143,0.06029310353856971,-0.0002574864739984491,-0.0011445987562842654,0.0024074459051516175,21.230161604005843
1647,E,1216528996562335.0,-0.13467385,9.08650716984704,1.5778152068840616,242,1970-01-15 01:55:28.996562335,-0.033023197,-0.099069595,-0.020240024,9.718144780913882,0.10637187017762453,-97.43243408203125,1.6873431205749512,61.74421691894531,21270188.0,40027.0,-0.005977565535044999,-0.028103760448282552,0.06229271549534834,-0.0002508309217861571,-0.0011296432257740206,0.002453371289235319,21.270188589114696
1647,E,1216529036269985.0,-0.11372458,9.07752866984704,1.5808080068840615,242,1970-01-15 01:55:29.036269985,-0.04580637,-0.10972224,-0.020240024,9.726371626328657,0.12061033145927043,-97.44140625,1.6616182327270508,61.74958038330078,21309896.0,39708.0,-0.00493170242922,-0.02850963243871377,0.06271130528615232,-0.0002165926061625173,-0.001124002302378425,0.002481829828595914,21.309896239079535
1647,E,1216529076232438.0,-0.10654198,9.05717766984704,1.5676399068840616,242,1970-01-15 01:55:29.076232438,-0.0479369,-0.113983296,-0.017044231,9.748227499822343,0.12482244973968014,-97.45179748535156,1.6356306076049805,61.75511169433594,21349858.0,39962.0,-0.00440114613536,-0.02927803262657264,0.06290913776500087,-0.00018647964716887296,-0.0011546553356694877,0.002510022072605092,21.34985869191587
1647,E,1216529116091963.0,-0.16460137,9.073937669847039,1.5951732068840616,242,1970-01-15 01:55:29.116091963,-0.04261058,-0.10226539,-0.01917476,9.728742587037255,0.11243461629251954,-97.45799255371094,1.618690013885498,61.76018524169922,21389718.0,39860.0,-0.0054038869655,-0.029274871279897044,0.06303486535739869,-0.0001954143097001398,-0.0011669593748559407,0.002510063982229423,21.389718217076734
1647,E,1216529155989675.0,-0.25198972,9.10206966984704,1.6424587068840615,242,1970-01-15 01:55:29.155989675,-0.017044231,-0.08522116,-0.010652645,9.696567095412487,0.0875592985788659,-97.45640563964844,1.6154751777648926,61.764549255371094,21429615.0,39897.0,-0.008310367358865,-0.028406517584112688,0.0645859002318034,-0.0002735788023895952,-0.0011506571857536983,0.0025458428423561982,21.429615929024294
1647,E,1216529195942589.0,-0.30286652,9.10625866984704,1.7436138068840614,242,1970-01-15 01:55:29.195942589,0.020240024,-0.03089267,-0.007456851,9.681423629638632,0.03767784837388777,-97.43828582763672,1.619737148284912,61.7666130065918,21469568.0,39953.0,-0.011084085678359999,-0.027800728922101225,0.06764187757128891,-0.0003874332910981252,-0.0011228240598313824,0.0026414482032834736,21.46956884302199
1647,E,1216529235800150.0,-0.3477578,9.152347669847039,1.7262558068840614,242,1970-01-15 01:55:29.235800150,0.0479369,0.036218993,-0.00958738,9.639267199142362,0.06084143070974292,-97.42272186279297,1.6302257776260376,61.765254974365234,21509426.0,39858.0,-0.012966292073279997,-0.026732634256236718,0.06915103153278492,-0.0004792999782124335,-0.0010867953947810967,0.0027261458855350872,21.509426404023543
1647,E,1216529275697688.0,-0.24899697,9.100872669847039,1.7956876068840615,242,1970-01-15 01:55:29.275697688,0.06178534,0.098004326,-0.02130529,9.679235884489717,0.11779724757231799,-97.39580535888672,1.6246380805969238,61.7612190246582,21549323.0,39897.0,-0.011904362529345,-0.026866234053612714,0.07025748818955341,-0.0004961322533404647,-0.0010692170244790313,0.002780990855681066,21.549323942046613
1647,E,1216529315714645.0,-0.2777274,9.11044916984704,1.7914978068840615,242,1970-01-15 01:55:29.315714645,0.082025364,0.16085494,-0.026631612,9.670978812889395,0.18251497149399729,-97.3694076538086,1.6228153705596924,61.754032135009766,21589340.0,40017.0,-0.010538964557145,-0.027785366970481038,0.07177419935137948,-0.00044905731001003516,-0.0010934965590905796,0.002841841020162755,21.589340898906812
1647,E,1216529355512474.0,-0.27832595,9.12062366984704,1.7998775068840616,242,1970-01-15 01:55:29.355512474,0.07989483,0.21092236,-0.0010652645,9.659946149057406,0.22554946374831722,-97.3427963256836,1.622125267982483,61.744232177734375,21629138.0,39798.0,-0.01106490561165,-0.02724028156292752,0.07146477736867188,-0.0004298954124888517,-0.0010949553801662968,0.0028503123977523023,21.62913872790523
1647,E,1216529395422682.0,-0.2801216,9.09608366984704,1.8711050068840616,242,1970-01-15 01:55:29.395422682,0.084155895,0.26525086,0.027696876,9.676650288270931,0.2796557711440084,-97.30581665039062,1.6227368116378784,61.73182678222656,21669048.0,39910.0,-0.01114382086025,-0.027603605036404653,0.0732544560622429,-0.0004431751367467645,-0.0010944097570896737,0.0028878723031139043,21.669048936106265
1647,E,1216529434786626.0,-0.21188685,9.08111966984704,1.8890615068840615,242,1970-01-15 01:55:29.434786626,0.08522116,0.30679616,0.036218993,9.687931039699516,0.32046582556713477,-97.26689910888672,1.6133638620376587,61.71736145019531,21708412.0,39364.0,-0.009683710312900001,-0.028003483868141155,0.07400759732398421,-0.00040992746854993836,-0.0010944587238192708,0.0028984117347477223,21.708412880077958
1647,E,1216529475221792.0,-0.19692309,9.043411669847039,1.8321992068840616,242,1970-01-15 01:55:29.475221792,0.07456851,0.34088463,0.039414786,9.731104356217294,0.35116423367034805,-97.23728942871094,1.6018280982971191,61.70094680786133,21748848.0,40436.0,-0.00826531936692,-0.02983102537406515,0.0752364491109639,-0.00036289348206660076,-0.0011692981078589271,0.0030174161308217807,21.748848045943305
1647,E,1216529515121160.0,-0.20949265,8.94644566984704,1.8513529068840615,242,1970-01-15 01:55:29.515121160,0.046871636,0.36432046,0.043675844,9.82571337989666,0.3699107016362739,-97.20552825927734,1.5922092199325562,61.68342208862305,21788747.0,39899.0,-0.00810779080513,-0.03212154100177298,0.07348502289361716,-0.0003266353613773114,-0.0012359227229147827,0.00296691900575539,21.788747414015234
1647,E,1216529555031219.0,-0.25198972,8.93686866984704,1.7891036068840616,242,1970-01-15 01:55:29.555031219,0.022370555,0.39521313,0.040480047,9.8429685486079,0.3979101582776282,-97.1846923828125,1.5886168479919434,61.664119720458984,21828657.0,39910.0,-0.00920888069335,-0.034256462351404636,0.0726453097322429,-0.00034555417975216837,-0.0013245730569126594,0.0029160307875490377,21.828657472971827
1647,E,1216529592674594.0,-0.23223756,8.96919066984704,1.7849137068840615,242,1970-01-15 01:55:29.592674594,-0.013848438,0.43569317,0.040480047,9.810840372032269,0.4377887068264906,-97.1673812866211,1.5821001529693604,61.64275360107422,21866300.0,37643.0,-0.00911388375052,-0.0318825041379479,0.06726836687108673,-0.00034486191098029924,-0.001244834557779349,0.002633385264189569,21.866300848079845
1647,E,1216529634847147.0,-0.17178397,8.95901616984704,1.7801253068840615,242,1970-01-15 01:55:29.634847147,-0.040480047,0.43888897,0.046871636,9.820241944327137,0.4432370837983884,-97.15234375,1.5672029256820679,61.62116241455078,21908473.0,42173.0,-0.008519399992345,-0.035252266474790836,0.07517419516382154,-0.0003718242376439228,-0.0014156373405255153,0.003003615084349093,21.90847340109758
1647,E,1216529675790435.0,-0.1316811,9.01707466984704,1.7555848068840616,242,1970-01-15 01:55:29.675790435,-0.07137272,0.41438788,0.05752428,9.764748088953416,0.42440596489753907,-97.14373779296875,1.547616958618164,61.6005859375,21949416.0,40943.0,-0.006212385180505,-0.0332438563752027,0.07238128959400413,-0.00030158174016599873,-0.0014022183789236427,0.003020682106219828,21.949416689109057
1647,E,1216529714696347.0,-0.1388637,8.98654866984704,1.6083414068840616,242,1970-01-15 01:55:29.714696347,-0.084155895,0.38136467,0.058589544,9.813234672235383,0.3949100667919062,-97.15678405761719,1.5297307968139648,61.58106994628906,21988322.0,38906.0,-0.005262907994400001,-0.031054315172931123,0.06543845663643132,-0.00022322887813142701,-0.0012507923311258471,0.002681007523420661,21.988322600955144
1647,E,1216529754539377.0,-0.17417817,9.03682766984704,1.5508805068840614,242,1970-01-15 01:55:29.754539377,-0.10333065,0.3898868,0.049002163,9.77163591023692,0.4063128745466245,-97.17977142333984,1.5170272588729858,61.56095504760742,22028165.0,39843.0,-0.006236263613205,-0.03140870824878442,0.06293643935513167,-0.00022908074718090305,-0.0012443571210957064,0.0025574204904959224,22.028165630996227
1647,E,1216529794495165.0,-0.19093758,9.06256516984704,1.5730268068840616,242,1970-01-15 01:55:29.794495165,-0.12463594,0.39627838,0.033023197,9.743451271437307,0.41672677324022367,-97.2005386352539,1.5063326358795166,61.54071807861328,22068121.0,39956.0,-0.007294282453499999,-0.02997912984859167,0.06240942031445956,-0.0002703132493206325,-0.0012264062295093794,0.0025041595844790933,22.068121419055387
1647,E,1216529834528071.0,-0.20350714,9.09428866984704,1.6256993068840615,242,1970-01-15 01:55:29.834528071,-0.13528858,0.37923414,0.023435818,9.705303900352733,0.40332464638958665,-97.21422576904297,1.4974998235702515,61.52158737182617,22108154.0,40033.0,-0.00789540273788,-0.02888673511776345,0.06402730125623964,-0.00030404433363325774,-0.001178288586099047,0.0025308206373199,22.108154325047508
1647,E,1216529874295045.0,-0.31483752,9.02186366984704,1.5383109068840615,242,1970-01-15 01:55:29.874295045,-0.14168017,0.38136467,0.017044231,9.791692131085311,0.40718888480141396,-97.23919677734375,1.5045748949050903,61.502105712890625,22147921.0,39767.0,-0.01030650604711,-0.029504084953692777,0.06291159708545847,-0.0003619176533263486,-0.0011610138708907998,0.002523989585177154,22.147921299096197
1647,E,1216529911761349.0,-0.37110126,9.08171866984704,1.5053907068840615,242,1970-01-15 01:55:29.911761349,-0.14807177,0.37603834,0.033023197,9.73903243013495,0.40548811790358213,-97.26985168457031,1.5208227634429932,61.482627868652344,22185387.0,37466.0,-0.01284969116574,-0.02803239203051082,0.05701766233071825,-0.000433785042388319,-0.001077830823345086,0.0022466348166432382,22.185387603007257
1647,E,1216529951737742.0,-0.41299978,9.09249266984704,1.4048342068840616,242,1970-01-15 01:55:29.951737742,-0.13209279,0.386691,0.03834952,9.744830118458509,0.41042553567634465,-97.31382751464844,1.5429896116256714,61.46221160888672,22225363.0,39976.0,-0.015672611587519997,-0.028498663742194744,0.05816957557639724,-0.0005701037874321608,-0.0011299427427848387,0.0023023625112874244,22.22536399611272
1647,E,1216529991428375.0,-0.3681085,9.10865366984704,1.3617386068840616,242,1970-01-15 01:55:29.991428375,-0.13315806,0.39414784,0.036218993,9.733720655942664,0.41760675781596646,-97.36341857910156,1.5578933954238892,61.44127655029297,22265054.0,39691.0,-0.015501484370739999,-0.027760950315601152,0.05490402077563528,-0.0006186655213396488,-0.0011165001707839884,0.002244002056404261,22.265054628951475
1647,E,1216530031327225.0,-0.39444473,9.07992266984704,1.3258255068840614,242,1970-01-15 01:55:30.031327225,-0.15978967,0.37284255,0.03089267,9.768774313166467,0.4068152686280842,-97.41758728027344,1.5759471654891968,61.42132568359375,22304953.0,39899.0,-0.015212555661884999,-0.02815719631127297,0.053615560287617166,-0.0006127297416308523,-0.0011155390661328252,0.0021649113824213544,22.30495347897522
1647,E,1216530071414519.0,-0.44592008,9.04281266984704,1.2408314068840616,242,1970-01-15 01:55:30.071414519,-0.17044231,0.36751625,0.02876214,9.821456342106105,0.4061354893992622,-97.4823226928711,1.6006802320480347,61.4013671875,22345040.0,40087.0,-0.016843852069235,-0.029609554218841743,0.05144478785111137,-0.0006425226083587037,-0.0011578478642503543,0.002105777087918605,22.345040773041546
1647,E,1216530111258789.0,-0.52073884,8.97397966984704,1.0804198068840616,242,1970-01-15 01:55:30.111258789,-0.18002969,0.42077947,0.018109497,9.92083095083999,0.45803275596464715,-97.56713104248047,1.6340795755386353,61.37825393676758,22384885.0,39845.0,-0.0192582623337,-0.03154145461244472,0.04624512730629544,-0.0007192443741924724,-0.0012182809734413045,0.001946227334723437,22.384885042905807
1647,E,1216530151180977.0,-0.47165772,9.067353669847039,1.0403170068840615,242,1970-01-15 01:55:30.151180977,-0.21092236,0.44421527,0.014913702,9.834127246360064,0.4919734409055913,-97.6596450805664,1.6598109006881714,61.353797912597656,22424807.0,39922.0,-0.01980922773416,-0.03111254520636652,0.042332027539625505,-0.0007798261692445534,-0.0012506364903832911,0.0017680885878794278,22.42480723094195
1647,E,1216530191117331.0,-0.48482585,9.16252266984704,0.9421547068840614,242,1970-01-15 01:55:30.191117331,-0.21624869,0.4314321,0.02876214,9.760487981056137,0.4834505285285204,-97.76685333251953,1.6881084442138672,61.32941436767578,22464743.0,39936.0,-0.01909906392576,-0.027358629248988676,0.03958599518052188,-0.0007769207678652825,-0.0011675524115245326,0.001635739077675903,22.464743585092947
1647,E,1216530231156550.0,-0.48602295,9.14217216984704,0.7380491068840613,242,1970-01-15 01:55:30.231156550,-0.20985709,0.4495416,0.033023197,9.823048590206964,0.49721039801469247,-97.89962005615234,1.715526819229126,61.30329895019531,22504782.0,40039.0,-0.019435907551599997,-0.02593136165674441,0.03363684024973093,-0.0007714508614910084,-0.0010668389729373234,0.0014658845538959462,22.50478280405514
1647,E,1216530271097904.0,-0.46926352,9.14995366984704,0.7111142068840617,242,1970-01-15 01:55:30.271097904,-0.20240025,0.47510794,0.039414786,9.82057687273807,0.5179256135841632,-98.0328369140625,1.739923357963562,61.275794982910156,22544724.0,39942.0,-0.01907802609237,-0.026119554855469556,0.028941240539263183,-0.0007691617688037248,-0.0010395088536654252,0.0012497468514370013,22.544724158011377
1647,E,1216530310998737.0,-0.4213795,9.16372066984704,0.6536534068840614,242,1970-01-15 01:55:30.310998737,-0.19387813,0.48149952,0.04580637,9.817893423271881,0.521084197212988,-98.17094421386719,1.756964087486267,61.247711181640625,22584624.0,39900.0,-0.017768328248999998,-0.025662196923103137,0.027227113894674054,-0.0007350847691103314,-0.0010330459479825252,0.0011205586709570477,22.584624991053715
1647,E,1216530350834779.0,-0.40162733,9.17509166984704,0.5961927068840613,242,1970-01-15 01:55:30.350834779,-0.19600865,0.4889564,0.035153728,9.819237102390074,0.527952210496443,-98.31426239013672,1.7700637578964233,61.219173431396484,22624461.0,39837.0,-0.016393061543354997,-0.025120966411803496,0.02489505981709035,-0.000680443642579023,-0.0010115244388863378,0.0010381955170777793,22.62446103291586
1647,E,1216530391638632.0,-0.3693056,9.155340669847039,0.5088041068840616,242,1970-01-15 01:55:30.391638632,-0.2034655,0.51984906,0.029827405,9.857861177465043,0.5590446573952457,-98.4660873413086,1.7773789167404175,61.18886184692383,22665264.0,40803.0,-0.015728188171395,-0.025901084621731272,0.02254359249609036,-0.0006553216760554721,-0.0010409263741606597,0.0009678196651673564,22.665264886105433
1647,E,1216530430752592.0,-0.41240123,9.24212966984704,0.44416080688406145,242,1970-01-15 01:55:30.430752592,-0.19707392,0.5411543,0.02130529,9.791354812623197,0.5763159044609479,-98.62600708007812,1.790558934211731,61.157291412353516,22704378.0,39114.0,-0.015287840474310003,-0.02351787256660292,0.018637134818563186,-0.0006065804722240528,-0.0009664865457322519,0.0008053714840926795,22.704378846101463
1647,E,1216530470778477.0,-0.24121583,9.21160466984704,0.3124798068840615,242,1970-01-15 01:55:30.470778477,-0.17896444,0.5390238,0.03089267,9.84876594983228,0.5687963473956936,-98.79849243164062,1.7786073684692383,61.12533950805664,22744404.0,40026.0,-0.01308083822178,-0.022940214659702408,0.015142648603341444,-0.0005677423667448492,-0.0009297656996600486,0.0006760348056225774,22.744404731085524
1647,E,1216530510464206.0,-0.12988544,9.22237766984704,0.1712218068840614,242,1970-01-15 01:55:30.510464206,-0.18002969,0.50387007,0.023435818,9.874156638931032,0.5355791018034871,-98.98674011230469,1.7505850791931152,61.09475326538086,22784090.0,39686.0,-0.00736376250061,-0.02313728843345041,0.009598091122000864,-0.00040568221213438475,-0.0009143158938774313,0.0004909304983699675,22.784090460045263
1647,E,1216530552571028.0,-0.046088383,9.34448166984704,0.17840440688406156,242,1970-01-15 01:55:30.552571028,-0.16618125,0.43782368,0.018109497,9.754072511310778,0.46865097514237386,-99.17343139648438,1.7113600969314575,61.06761932373047,22826197.0,42107.0,-0.003704864882530499,-0.021751226891750717,0.007360855491567177,-0.0002330333466109485,-0.0009450603573991219,0.0003570451825287547,22.826197281945497
1647,E,1216530590447278.0,0.002992752,9.27085966984704,0.11076810688406136,242,1970-01-15 01:55:30.590447278,-0.15446335,0.34834146,0.017044231,9.843564132512077,0.3814330938166423,-99.36117553710938,1.666510820388794,61.04499816894531,22864073.0,37876.0,-0.0008161450598779999,-0.01864746570887354,0.005476349065740712,-8.561888628933215e-05,-0.0007650704404706222,0.0002431109799062968,22.86407353193499
1647,E,1216530630176497.0,-0.02633622,9.19963266984704,0.028766706884061577,242,1970-01-15 01:55:30.630176497,-0.15978967,0.28549087,0.023435818,9.935222074962804,0.32800459304313856,-99.55280303955078,1.6277915239334106,61.02544021606445,22903802.0,39729.0,-0.000463706320086,-0.022437104918146992,0.002771789308096878,-2.5423607737294876e-05,-0.0008161244532204494,0.0001638451447270968,22.903802751097828
1647,E,1216530672309413.0,-0.1364695,9.31335766984704,-0.0209127931159383,242,1970-01-15 01:55:30.672309413,-0.16192019,0.2545982,0.01917476,9.841819361945182,0.30233435596030717,-99.7513198852539,1.6061174869537354,61.00736999511719,22945935.0,42133.0,-0.0034297467003799997,-0.022899489008834706,0.00016545447439616901,-8.202142805564698e-05,-0.0009550833559627598,6.187744614388977e-05,22.945935667026788
1647,E,1216530712263581.0,-0.16460137,9.44563666984704,0.03056240688406131,242,1970-01-15 01:55:30.712263581,-0.16085494,0.26205507,0.0010652645,9.700694472365155,0.30748708301904887,-99.943359375,1.588403344154358,60.989322662353516,22985889.0,39954.0,-0.00601449276999,-0.016800770075931386,0.0001927703342457934,-0.0001886675718995815,-0.0007930920757363723,7.156257002240484e-06,22.98588983505033
1647,E,1216530752299205.0,-0.10175357,9.40613266984704,-0.005949193115938556,242,1970-01-15 01:55:30.752299205,-0.13741912,0.27164245,-0.00958738,9.748356546066352,0.30457438014193067,-100.13288116455078,1.5611201524734497,60.97101974487305,23025925.0,40036.0,-0.00533189318892,-0.014978081358003936,0.0004927073132102814,-0.0002271319541254604,-0.0006361490480045173,1.3721891546775705e-05,23.025925459107384
1647,E,1216530792061186.0,-0.050278235,9.33849666984704,-0.09214039311593858,242,1970-01-15 01:55:30.792061186,-0.12996227,0.27377295,-0.013848438,9.83830634977483,0.3033703990344069,-100.32632446289062,1.5266237258911133,60.952640533447266,23065687.0,39762.0,-0.003022544315205,-0.017005624097542048,-0.0019501190638759492,-0.0001660945720195091,-0.0006358680481617097,-2.897480301498414e-05,23.06568744010292
1647,E,1216530831983841.0,-0.01616086,9.38757766984704,-0.09273899311593858,242,1970-01-15 01:55:30.831983841,-0.12463594,0.27803403,-0.018109497,9.791604788014602,0.30522941086880456,-100.51692199707031,1.4877293109893799,60.93428039550781,23105610.0,39923.0,-0.0013262239948425001,-0.017444867068196656,-0.003690469868267616,-8.680793862101317e-05,-0.0006876834794048931,-0.00011259461596898377,23.105610094964504
1647,E,1216530871875455.0,0.055066638,9.39775266984704,-0.20227379311593863,242,1970-01-15 01:55:30.871875455,-0.10226539,0.23861924,0.004261058,9.815952265017586,0.25964496587707814,-100.7171630859375,1.4408555030822754,60.917518615722656,23145501.0,39891.0,0.0007759951950990001,-0.01624899370963174,-0.005884177527787907,-1.097458852528398e-05,-0.0006720409001441763,-0.00019097112963802545,23.145501709077507
1647,E,1216530911901549.0,0.06404489,9.45521366984704,-0.2806835931159384,242,1970-01-15 01:55:30.911901549,-0.07350325,0.23116238,0.004261058,9.786561688637134,0.24260447296599102,-100.92440795898438,1.393859624862671,60.901100158691406,23185527.0,40026.0,0.0023837790098639997,-0.014950384643702382,-0.009665426170658555,6.323656116392452e-05,-0.0006243931589852757,-0.00031119421881700904,23.185527802910656
1647,E,1216530951676340.0,0.20410569,9.54499666984704,-0.31599829311593863,242,1970-01-15 01:55:30.951676340,-0.036218993,0.17257284,0.02876214,9.715165289548432,0.17866298233539943,-101.13365936279297,1.3290587663650513,60.88743209838867,23225302.0,39775.0,0.00533284465975,-0.01192831686933401,-0.011866511012436453,0.00015346435322944842,-0.0005345501763405113,-0.0004282164007288019,23.225302594015375
1647,E,1216530991596861.0,0.27832595,9.49651366984704,-0.3064214931159386,242,1970-01-15 01:55:30.991596861,-0.015978966,0.10865697,0.03089267,9.759640857524737,0.11408777999303413,-101.33295440673828,1.2557811737060547,60.87733459472656,23265223.0,39921.0,0.00962957675022,-0.011147732864536351,-0.012423810143081384,0.0002986574125537062,-0.0004606094907129193,-0.0004848469554247138,23.26522311498411
1647,E,1216531031480299.0,0.32920274,9.43127166984704,-0.31180859311593867,242,1970-01-15 01:55:31.031480299,0.00958738,0.029827405,0.034088463,9.82461629874895,0.046299192800747554,-101.52355194091797,1.1780719757080078,60.87146759033203,23305106.0,39883.0,0.012115033371635,-0.013404968648490515,-0.01232843526459298,0.0004336201427449715,-0.0004896176972220253,-0.0004935969017971384,23.30510655301623
1647,E,1216531071336862.0,0.30166942,9.33909566984704,-0.3142026931159383,242,1970-01-15 01:55:31.071336862,0.020240024,-0.025566347,0.034088463,9.91166333707827,0.047173297321126004,-101.70489501953125,1.1072101593017578,60.86875915527344,23344963.0,39857.0,0.012572335840559999,-0.016533334470906533,-0.012475465917671959,0.000491982237345228,-0.000596625473714904,-0.0004943045447107668,23.344963116105646
1647,E,1216531111466079.0,0.19093758,9.25469966984704,-0.3489185931159384,242,1970-01-15 01:55:31.111466079,-0.025566347,0.004261058,0.007456851,9.999981180873505,0.026970341878440735,-101.88487243652344,1.0527228116989136,60.86509704589844,23385092.0,40129.0,0.0098839131515,-0.02018899340670814,-0.01330519704759949,0.0004505734079011878,-0.0007368151477003996,-0.0005172761120666889,23.385092332959175
1647,E,1216531148826289.0,0.088585466,9.383387669847039,-0.15139689311593862,242,1970-01-15 01:55:31.148826289,-0.040480047,0.096939065,-0.049002163,9.813973584515608,0.11591819747940789,-102.04016876220703,1.0102252960205078,60.85810852050781,23422452.0,37360.0,0.00522149049928,-0.017968528494514618,-0.009345893282811463,0.00028216894019657035,-0.0007127825091148411,-0.0004231223673720766,23.42245254293084
1647,E,1216531188628217.0,0.23223756,9.32053966984704,-0.10111869311593846,242,1970-01-15 01:55:31.188628217,0.0053263223,0.024501082,-0.041545313,9.86074556759459,0.04852510443762249,-102.17951202392578,0.9490793943405151,60.85496139526367,23462254.0,39802.0,0.006384699040426,-0.017832742012748155,-0.0050253126816005855,0.0002309747780296891,-0.0007124810843650363,-0.00028600136989776414,23.46225447091274
1647,E,1216531228605977.0,0.24720132,9.46119866984704,-0.09453459311593848,242,1970-01-15 01:55:31.228605977,0.029827405,-0.15765914,-0.0053263223,9.72517574922874,0.16054422513381508,-102.31930541992188,0.8904807567596436,60.86044692993164,23502232.0,39978.0,0.00958350377232,-0.016356232327855068,-0.003910913538488988,0.00031918840602397977,-0.0006834034080943178,-0.00017862622591337048,23.50223223096691
1647,E,1216531268260404.0,0.23283611,9.25529766984704,-0.13403889311593842,242,1970-01-15 01:55:31.268260404,0.058589544,-0.26738137,0.03834952,9.932895329430227,0.27639865660569923,-102.45049285888672,0.8394858837127686,60.87107849121094,23541886.0,39654.0,0.00951770212461,-0.0175172270728855,-0.0045319265115194235,0.0003787196093184311,-0.0006716090795384832,-0.00016739618967151677,23.541886657942086
1647,E,1216531308166342.0,0.22146365,9.39655666984704,-0.11069559311593835,242,1970-01-15 01:55:31.308166342,0.0777643,-0.3206446,0.07243799,9.791023718685258,0.33779802879663184,-102.5804443359375,0.7932100296020508,60.88404846191406,23581792.0,39906.0,0.00906464311128,-0.01891835036008403,-0.0048831872037846365,0.00037077353449171317,-0.000726999076520041,-0.0001878597639614619,23.581792596029118
1647,E,1216531348081967.0,0.078410104,9.45341766984704,-0.0646070931159386,242,1970-01-15 01:55:31.348081967,0.06178534,-0.28975195,0.05752428,9.720633204339187,0.3017990449905971,-102.70411682128906,0.7678779363632202,60.89582443237305,23621708.0,39916.0,0.005984880382332,-0.014969012128385572,-0.0034986910118158,0.0003003583898855083,-0.0006763239805448764,-0.0001672855254269535,23.621708221035078
1647,E,1216531388155092.0,0.078410104,9.31275866984704,-0.05443159311593826,242,1970-01-15 01:55:31.388155092,0.04580637,-0.24607609,0.029827405,9.851706898066512,0.25207407580173535,-102.8179702758789,0.7415145635604858,60.905975341796875,23661781.0,40073.0,0.0031421280975919997,-0.01670690776971958,-0.0023851186366850006,0.0001828733054079972,-0.0006346745690383838,-0.00011789095202218628,23.661781345959753
1647,E,1216531427908633.0,0.05865794,9.20202766984704,0.05390580688406166,242,1970-01-15 01:55:31.427908633,0.007456851,-0.19600865,0.010652645,9.92586688039619,0.1964394928397921,-102.9112777709961,0.7172534465789795,60.91420364379883,23701534.0,39753.0,0.0027244329765659997,-0.021570249319070648,-1.045079003789527e-05,0.00011660670119050147,-0.000760815912875339,-4.761553571025764e-05,23.701534887077287
1647,E,1216531467852644.0,-0.06344634,9.23195466984704,0.09101610688406137,242,1970-01-15 01:55:31.467852644,-0.01917476,-0.16831179,0.0063915867,9.886665210527626,0.16952103838345645,-102.99970245361328,0.7107455134391785,60.921241760253906,23741478.0,39944.0,-9.56339248000001e-05,-0.023287704711629876,0.002894380461776953,5.2502374661870545e-05,-0.0008959030579011509,5.759784340397246e-05,23.74147889809683
1647,E,1216531507734779.0,-0.16460137,9.41271716984704,0.13351300688406154,242,1970-01-15 01:55:31.507734779,-0.020240024,-0.16085494,0.008522116,9.702459719220744,0.1623471488971754,-103.0875015258789,0.7195382714271545,60.92790603637695,23781361.0,39883.0,-0.004547613408965001,-0.019050676508740528,0.004477447322207023,-9.259331670627476e-05,-0.0008442908291060164,0.00014700530375431645,23.781361032975838
1647,E,1216531547670560.0,-0.25079262,9.31156166984704,0.1873824068840615,242,1970-01-15 01:55:31.547670560,-0.023435818,-0.16192019,0.00958738,9.786329629611474,0.16388808178214065,-103.1614990234375,0.7405889630317688,60.934749603271484,23821296.0,39935.0,-0.008294379495324999,-0.017485962268408494,0.006407479174414996,-0.0002564224933164106,-0.0007295453347827231,0.00021734476982130017,23.82129681413062
1647,E,1216531587884362.0,-0.34237084,9.32951866984704,0.20653640688406139,242,1970-01-15 01:55:31.587884362,-0.02130529,-0.17789917,0.020240024,9.766585205096625,0.1803099793139403,-103.23153686523438,0.7753303050994873,60.942264556884766,23861510.0,40214.0,-0.011926737690219999,-0.01928099760977117,0.007920525588435647,-0.0004065860032497533,-0.0007392732622705585,0.00028809319176663784,23.86151061602868
1647,E,1216531627671862.0,-0.3549404,9.27325466984704,0.21850740688406134,242,1970-01-15 01:55:31.627671862,0.0063915867,-0.20559604,0.029827405,9.817856411406982,0.20784671787944894,-103.29448699951172,0.8115662932395935,60.951053619384766,23901298.0,39788.0,-0.01387230980856,-0.019838827180126,0.008455821631103033,-0.0005132462509407292,-0.0007782497943702143,0.00032579105158550244,23.901298115961254
1647,E,1216531667391654.0,-0.40222588,9.152347669847039,0.1640392068840617,242,1970-01-15 01:55:31.667391654,0.0127831735,-0.20772657,0.020240024,9.950749529992493,0.20910140119142331,-103.35836791992188,0.8525910377502441,60.96000289916992,23941017.0,39719.0,-0.015036943737659998,-0.023322950334845473,0.007597184476128039,-0.000574123320801156,-0.0008571713205585759,0.00031880467478655547,23.94101790804416
1647,E,1216531707277903.0,-0.3669114,9.23853866984704,0.2669898068840615,242,1970-01-15 01:55:31.707277903,0.0053263223,-0.21624869,0.018109497,9.838675063920096,0.21707100109768826,-103.4100112915039,0.8880966901779175,60.96951675415039,23980904.0,39887.0,-0.01533928934368,-0.02411395828431116,0.008596227136084565,-0.0006058084044577043,-0.0009460579870461501,0.00032295330448816207,23.98090415704064
1647,E,1216531748405873.0,-0.320823,9.32712366984704,0.3142754068840614,242,1970-01-15 01:55:31.748405873,-0.0053263223,-0.23222765,0.0010652645,9.7391635826749,0.23229116625954793,-103.45767211914062,0.9158511757850647,60.98005676269531,24022032.0,41128.0,-0.0141425702016,-0.021270119646530958,0.011953137855927679,-0.0006062649596891379,-0.0009332781785698374,0.00042257714169573977,24.022032127017155
1647,E,1216531788373216.0,-0.4201824,9.27085966984704,0.1281262068840614,242,1970-01-15 01:55:31.788373216,-0.020240024,-0.2034655,-0.029827405,9.847653929883604,0.20663383641312133,-103.52880859375,0.9550377726554871,60.9891471862793,24061999.0,39967.0,-0.014807881410900002,-0.020023799931223378,0.008840732648735283,-0.0005785313497983939,-0.0008251970418820538,0.00041553431122993235,24.0619994699955
1647,E,1216531828824152.0,-0.3453636,9.22596966984704,0.20474060688406137,242,1970-01-15 01:55:31.828824152,-0.04580637,-0.15446335,-0.0479369,9.866731234724416,0.16809252335368577,-103.58702087402344,0.9808083772659302,60.99626922607422,24102450.0,40451.0,-0.015483550623000001,-0.022312178190017434,0.006732397741867167,-0.0006126593586016445,-0.0008562663254911561,0.0003149743487151299,24.102450405946
1647,E,1216531868661599.0,-0.32202014,9.23794016984704,0.3017057068840616,242,1970-01-15 01:55:31.868661599,-0.0479369,-0.13635385,-0.05219796,9.828497990952208,0.15367155175761746,-103.63077545166016,1.0023062229156494,61.00279235839844,24142287.0,39837.0,-0.013293283025189999,-0.022629211858053517,0.010087650900790357,-0.0005731913610214725,-0.0008951650776725011,0.0003350301388887739,24.14228785294108
1647,E,1216531908057070.0,-0.32441434,9.24871366984704,0.3064941068840614,242,1970-01-15 01:55:31.908057070,-0.033023197,-0.14061491,-0.051132694,9.81692969932207,0.15322413925392614,-103.67242431640625,1.0237767696380615,61.009521484375,24181683.0,39396.0,-0.012733466387040001,-0.02193069266570604,0.011980319931604488,-0.0005126749099221066,-0.0008777409993090159,0.0004346948894565137,24.18168332404457
1647,E,1216531948946601.0,-0.33518824,9.08770366984704,0.2861434068840616,242,1970-01-15 01:55:31.948946601,-0.014913702,-0.15978967,-0.033023197,9.977923769849433,0.16384654004938434,-103.70885467529297,1.0466053485870361,61.01702117919922,24222572.0,40889.0,-0.013485244946810002,-0.025833315698624414,0.012116177650232391,-0.0005360284438648964,-0.000976511269004554,0.000492640844811864,24.222572854952887
1647,E,1216531986852954.0,-0.38367084,9.32772266984704,0.4064520068840616,242,1970-01-15 01:55:31.986852954,0.004261058,-0.17044231,-0.010652645,9.716938948916889,0.1708280319470768,-103.7354965209961,1.078521490097046,61.02491760253906,24260479.0,37907.0,-0.013624895572780004,-0.0224518168706083,0.013127107174854123,-0.0005138320483380493,-0.0009151722601509522,0.0004784485989322773,24.26047920808196
1647,E,1216532026671965.0,-0.48602295,9.41092166984704,0.44416080688406145,242,1970-01-15 01:55:32.026671965,0.015978966,-0.15126756,-0.015978966,9.631575313036423,0.15294616509481992,-103.75862884521484,1.1248865127563477,61.032005310058594,24300298.0,39819.0,-0.017315168512005,-0.017149160518860746,0.016935275815716445,-0.000616001205896027,-0.000788435659335634,0.0005985270141507647,24.300298219081014
1647,E,1216532066349569.0,-0.6793547,9.27505066984704,0.32624640688406137,242,1970-01-15 01:55:32.066349569,0.066046394,-0.08522116,-0.033023197,9.80453763697147,0.11276215594005662,-103.79032897949219,1.1954808235168457,61.035823822021484,24339975.0,39677.0,-0.023119344509525,-0.01813293773897901,0.015283723510338904,-0.0008021600865776228,-0.0006999439062881541,0.000639176618129949,24.339975822949782
1647,E,1216532106527590.0,-0.40641573,9.213399669847039,0.44835070688406153,242,1970-01-15 01:55:32.106527590,0.098004326,-0.00958738,-0.017044231,9.817863833457722,0.09993633763731807,-103.80021667480469,1.22419273853302,61.036170959472656,24380153.0,40178.0,-0.02181204216827,-0.02232992112588567,0.015560881418487821,-0.0009026266269702237,-0.0008128583717362666,0.0006196372684152,24.38015384390019
1647,E,1216532149563423.0,-0.44651863,9.14636166984704,0.6153463068840614,242,1970-01-15 01:55:32.149563423,0.08628642,-0.04261058,-0.00958738,9.84465284495917,0.09671052507156189,-103.7844467163086,1.2586164474487305,61.038612365722656,24423189.0,43036.0,-0.01835344155848,-0.026687455492462823,0.022888632342262467,-0.0008642808788322064,-0.001054755910073623,0.0008273566371038247,24.42318967706524
1647,E,1216532188091182.0,-0.60453594,9.09368966984704,0.5333448068840614,242,1970-01-15 01:55:32.188091182,0.066046394,-0.060720075,0.0010652645,9.923358838196714,0.08972284244752737,-103.77983856201172,1.315229058265686,61.04157638549805,24461717.0,38528.0,-0.02024751523648,-0.026198050992133265,0.022128385615629118,-0.0007436088316981095,-0.001018786396919259,0.0008672078339408235,24.46171743609011
1647,E,1216532227996445.0,-0.6302736,8.90813866984704,0.5100012068840614,242,1970-01-15 01:55:32.227996445,0.051132694,0.010652645,-0.026631612,10.110402153781086,0.05862826962236055,-103.77312469482422,1.3702682256698608,61.041473388671875,24501622.0,39905.0,-0.024637537346850005,-0.031887520052253926,0.02081736133970847,-0.000895569011668892,-0.0011589523562631355,0.0008568750161263732,24.501622698968276
1647,E,1216532267851238.0,-0.54288524,9.49232466984704,0.7416404068840614,242,1970-01-15 01:55:32.267851238,0.002130529,-0.02130529,-0.043675844,9.484398643406964,0.0486418943393067,-103.7557601928711,1.4161738157272339,61.04343795776367,24541477.0,39855.0,-0.023378122784100005,-0.023903766798246264,0.02494208825836427,-0.0009568320672595064,-0.0011117808687133427,0.0009118714318655945,24.54147749207914
1647,E,1216532307803839.0,-0.5153519,9.19783766984704,0.5387316068840615,242,1970-01-15 01:55:32.307803839,0.022370555,-0.066046394,-0.025566347,9.816035493106698,0.07427116526846518,-103.75686645507812,1.4555468559265137,61.04689407348633,24581430.0,39953.0,-0.021139874227210004,-0.01817537202110124,0.02557735153303891,-0.0008893137672964345,-0.0008405939166246956,0.0010092015889929657,24.581430092919618
1647,E,1216532348392643.0,-0.6344634,9.219385669847039,0.48965050688406153,242,1970-01-15 01:55:32.348392643,0.035153728,-0.051132694,-0.025566347,9.813996824946745,0.06711166133333334,-103.7650375366211,1.5111802816390991,61.04942321777344,24622018.0,40588.0,-0.023334351698199998,-0.02400326954424839,0.02086998661681029,-0.0009025599409302706,-0.0008559733519272054,0.0009426022804130396,24.622018896974623
1647,E,1216532388254673.0,-0.55605334,9.40373866984704,0.5752434068840615,242,1970-01-15 01:55:32.388254673,0.02130529,-0.07243799,-0.004261058,9.609953494880303,0.07562628109661061,-103.76803588867188,1.5569777488708496,61.05287170410156,24661880.0,39862.0,-0.02372818914494,-0.019470108785557324,0.02122440059531246,-0.0009380035015446234,-0.0008664679034913578,0.0008389832315248185,24.66188092692755
1647,E,1216532429464152.0,-0.56203884,9.26906566984704,0.5728491068840613,242,1970-01-15 01:55:32.429464152,0.0053263223,-0.1107875,-0.010652645,9.741414538591028,0.11142584399944881,-103.76726531982422,1.6015377044677734,61.05840301513672,24703090.0,41210.0,-0.0230382893689,-0.019104866580603508,0.02365644624619217,-0.0009636232897776731,-0.000794837367419744,0.0009247698491692028,24.703090406022966
1647,E,1216532470965767.0,-0.8158242,9.29420366984704,0.7332607068840615,242,1970-01-15 01:55:32.470965767,-0.004261058,-0.08841695,-0.015978966,9.698168471242873,0.0899502141020855,-103.74488830566406,1.6823720932006836,61.063533782958984,24744592.0,41502.0,-0.02859203594304,-0.021513197932008194,0.027103084745502316,-0.0010713808805480668,-0.0008428654567012053,0.0010533110276086523,24.7445920209866
1647,E,1216532507859831.0,-0.7858967,9.12481466984704,0.6566461068840614,242,1970-01-15 01:55:32.507859831,0.004261058,-0.037284255,-0.0063915867,9.877373403838227,0.03806737010522274,-103.72805786132812,1.7545074224472046,61.06591033935547,24781486.0,36894.0,-0.029546945442300004,-0.021785568687663327,0.025639610993580565,-0.001072489789615367,-0.0007987323478330807,0.0009729445082988621,24.78148608491756
1647,E,1216532545778631.0,-0.7715315,9.18466866984704,0.6686171068840614,242,1970-01-15 01:55:32.545778631,-0.020240024,0.004261058,-0.007456851,9.815418363622436,0.021986809992269023,-103.71320343017578,1.822914481163025,61.066280364990234,24819404.0,37918.0,-0.0295272812438,-0.024466905362739946,0.02512566526982984,-0.0011199882637417699,-0.0008769006555215957,0.0009624588726779978,24.819404884940013
1647,E,1216532587705248.0,-0.7733272,9.14636166984704,0.7961084068840614,242,1970-01-15 01:55:32.587705248,-0.020240024,0.051132694,-0.0010652645,9.82486478524854,0.055003143143580194,-103.67943572998047,1.8895386457443237,61.06494903564453,24861331.0,41927.0,-0.03238564535745,-0.026602045473823163,0.03070577330787804,-0.0012979116368053044,-0.0010705839508622908,0.001170422362623779,24.861331501975656
1647,E,1216532627560767.0,-0.7344214,9.16132566984704,0.7488230068840616,242,1970-01-15 01:55:32.627560767,-0.026631612,0.070307456,-0.00958738,9.817481282115027,0.07579115371977709,-103.6540298461914,1.948244571685791,61.062530517578125,24901187.0,39856.0,-0.0300464141008,-0.025753206694576394,0.030787393213571157,-0.001244146080884006,-0.0010433354652118665,0.0012254358224394397,24.901187021052465
1647,E,1216532667483320.0,-0.7386112,9.276846669847039,0.7206910068840617,242,1970-01-15 01:55:32.667483320,-0.03195793,0.096939065,-0.008522116,9.711645071618763,0.10242615912976813,-103.63737487792969,2.007014036178589,61.05856704711914,24941109.0,39922.0,-0.0294032037286,-0.023191241927366518,0.029332969228825508,-0.0011866738214926535,-0.0009769801389426026,0.0012000625547126799,24.941109573934227
1647,E,1216532707549622.0,-0.56682724,9.25170666984704,0.7081216068840614,242,1970-01-15 01:55:32.707549622,-0.03089267,0.128897,-0.008522116,9.727361709948893,0.13282100786338868,-103.62207794189453,2.0384252071380615,61.053001403808594,24981175.0,40066.0,-0.02615184826852,-0.021464290945908533,0.02862340309161681,-0.0011129343566583048,-0.000894584290050319,0.0011610400066954208,24.98117587598972
1647,E,1216532747271912.0,-0.6655881,9.22118166984704,0.6746026068840614,242,1970-01-15 01:55:32.747271912,-0.026631612,0.112918034,-0.010652645,9.770825458728032,0.11650409437285768,-103.61072540283203,2.0832669734954834,61.048091888427734,25020898.0,39723.0,-0.02447761727541,-0.022386128241166054,0.027462976971755572,-0.0010055771299007656,-0.0008709351006840819,0.0011139596376286707,25.0208981661126
1647,E,1216532787219933.0,-0.5770026,9.36363566984704,0.6967490068840614,242,1970-01-15 01:55:32.787219933,-0.015978966,0.12144015,-0.011717909,9.621686760155463,0.12304611646770465,-103.60073852539062,2.115135908126831,61.042728424072266,25060846.0,39948.0,-0.0248195066418,-0.02027725845695047,0.027391377133404483,-0.0009846607531223525,-0.0008521584859081794,0.001095660868896467,25.06084618694149
1647,E,1216532826130300.0,-0.55006784,9.26667066984704,0.5973898068840615,242,1970-01-15 01:55:32.826130300,-0.026631612,0.09374327,-0.025566347,9.737259060955678,0.10075059070266464,-103.60245513916016,2.140871047973633,61.0384521484375,25099756.0,38910.0,-0.0219271554102,-0.018865390161251702,0.025177470621858832,-0.0009094563102216599,-0.0007615202288671233,0.0010227269330786478,25.099756554001942
1647,E,1216532866181077.0,-0.50278234,9.08411266984704,0.4938404068840616,242,1970-01-15 01:55:32.866181077,-0.02876214,0.10652645,-0.023435818,9.93640421323136,0.11280240605727887,-103.61259460449219,2.157467842102051,61.03322982788086,25139807.0,40051.0,-0.021083851279590005,-0.025016188230956252,0.02185243064581355,-0.0008613169144663899,-0.0008787505480931603,0.0009417972878357734,25.139807330910116
1647,E,1216532907766655.0,-0.51116204,9.213399669847039,0.5189796068840615,242,1970-01-15 01:55:32.907766655,-0.026631612,0.15233281,-0.039414786,9.805475454140561,0.15958713330228236,-103.6234359741211,2.1745266914367676,61.02593994140625,25181392.0,41585.0,-0.021082438521149997,-0.0270819746769109,0.021059060136273698,-0.0008767425806818864,-0.0010832510522618276,0.0008922371720865492,25.181392909027636
1647,E,1216532946838368.0,-0.47285482,9.20980866984704,0.5141912068840617,242,1970-01-15 01:55:32.946838368,-0.007456851,0.17044231,-0.039414786,9.8081900680271,0.1750991462583359,-103.6336441040039,2.1853244304656982,61.01774978637695,25220464.0,39072.0,-0.01922375337696,-0.022989801875736487,0.020184025017774058,-0.0007874217649214769,-0.0009782022267325193,0.0008057249115694771,25.220464621903375
1647,E,1216532986689160.0,-0.46028528,9.24512366984704,0.35557540688406153,242,1970-01-15 01:55:32.986689160,-0.014913702,0.16085494,-0.02876214,9.81305260789713,0.16408531600093898,-103.66767883300781,2.1946253776550293,61.009002685546875,25260315.0,39851.0,-0.01859328306255,-0.02281604566542563,0.01733053466263674,-0.0007535233595754564,-0.0009127044151814258,0.0007474963589120254,25.260315414052457
1647,E,1216533026595918.0,-0.37588966,9.36004466984704,0.4028607068840615,242,1970-01-15 01:55:33.026595918,-0.00958738,0.15233281,-0.04474111,9.68633039011945,0.15905649870971197,-103.69821166992188,2.191394090652466,61.0009880065918,25300222.0,39907.0,-0.01668461666529,-0.019850373533914206,0.015133454996072241,-0.0007039175722194554,-0.0008513443954940274,0.0006477702176550497,25.300222171936184
1647,E,1216533064241242.0,-0.19931729,9.24512366984704,0.4058536068840617,242,1970-01-15 01:55:33.064241242,0.002130529,0.12996227,-0.07563378,9.791426833027277,0.15038350792045363,-103.7226333618164,2.1605660915374756,60.994651794433594,25337867.0,37645.0,-0.010826832816374999,-0.018725218926108206,0.015222025170900499,-0.0005178342578686394,-0.0007260890890787719,0.0005713660254428444,25.33786749606952
1647,E,1216533106446488.0,-0.06464344,9.17868366984704,0.4489492068840617,242,1970-01-15 01:55:33.106446488,-0.008522116,0.07563378,-0.07669904,9.843144118745345,0.10805479107900516,-103.73832702636719,2.111344337463379,60.991310119628906,25380072.0,42205.0,-0.005570231304825,-0.024820605614105724,0.018038476377541825,-0.00034601904561762294,-0.0009189257623598644,0.0007018797339260042,25.380072742002085
1647,E,1216533146315947.0,-0.2172738,9.08052166984704,0.5064099068840617,242,1970-01-15 01:55:33.146315947,-0.040480047,-0.004261058,-0.04474111,9.926518856733347,0.06048601279993311,-103.74356842041016,2.087796688079834,60.99192810058594,25419942.0,39870.0,-0.0056200201794,-0.02672874155319857,0.01904508393296754,-0.00022307766333802537,-0.001027636235780211,0.0007392607747900043,25.41994220111519
1647,E,1216533186198570.0,-0.42078096,9.12780666984704,0.5429216068840614,242,1970-01-15 01:55:33.186198570,-0.066046394,-0.037284255,-0.023435818,9.878478054811499,0.07938185810774011,-103.74639892578125,2.0959386825561523,60.99403762817383,25459824.0,39882.0,-0.012723449969159998,-0.027751324578160402,0.020924719716050144,-0.00036578713823243495,-0.0010863869987254293,0.0007970378545650616,25.459824824007228
1647,E,1216533226144887.0,-0.41180268,9.06076966984704,0.6775954068840617,242,1970-01-15 01:55:33.226144887,-0.12144015,0.041545313,-0.039414786,9.912319775677899,0.13426558911246123,-103.73085021972656,2.100663185119629,60.99327850341797,25499771.0,39947.0,-0.01662960933354,-0.02819107047912032,0.02437799657449761,-0.0005862833299824785,-0.0011173654276765965,0.0009048538038292557,25.499771140981466
1647,E,1216533266013890.0,-0.43275195,9.04400966984704,0.7583998068840616,242,1970-01-15 01:55:33.266013890,-0.1555286,0.21944448,-0.080960095,9.911885047269918,0.2808906588030998,-103.70576477050781,2.1041831970214844,60.98480224609375,25539640.0,39869.0,-0.016835774271735,-0.029806476252868398,0.028625846588860655,-0.0006671156894793545,-0.0011561520953288292,0.0010566051115399654,25.53964014397934
1647,E,1216533305914516.0,-0.25558102,9.19544366984704,0.8098751068840615,242,1970-01-15 01:55:33.305914516,-0.08948222,0.28229508,-0.03195793,9.746845838336665,0.29785716237522253,-103.67549133300781,2.08426833152771,60.972740173339844,25579540.0,39900.0,-0.0137322427515,-0.027142905873103165,0.031287084529674054,-0.0006098319396135383,-0.0011361401734131325,0.0011952629758147674,25.579540770035237
1647,E,1216533345847904.0,0.007182605,9.14696066984704,0.5979882068840614,242,1970-01-15 01:55:33.345847904,-0.029827405,0.1587244,0.03834952,9.837961972720215,0.16599335808587168,-103.67146301269531,2.0311191082000732,60.96477508544922,25619474.0,39934.0,-0.004959771152304999,-0.025110412549328345,0.028110806786008108,-0.00037322344161727443,-0.00104334200894069,0.0011859976959002257,25.619474157923833
1647,E,1216533385721183.0,0.2148796,9.28043766984704,0.6027766068840616,242,1970-01-15 01:55:33.385721183,-0.04261058,0.03089267,0.054328486,9.709439936402925,0.07564127827263033,-103.67182922363281,1.9509541988372803,60.96269226074219,25659347.0,39873.0,0.0044271431499825,-0.023377573000689017,0.023939047709688185,-1.0618738168302505e-05,-0.0009666807239179211,0.0010376919241534492,25.65934743708931
1647,E,1216533425918319.0,0.2669535,9.30198466984704,0.7302678068840613,242,1970-01-15 01:55:33.425918319,-0.037284255,-0.040480047,0.040480047,9.660564370432498,0.0683182558409496,-103.65418243408203,1.8650954961776733,60.96483612060547,25699544.0,40197.0,0.009684122560349999,-0.020451784605658593,0.026792193150118618,0.0002836152738791177,-0.0008809043438511774,0.001019621844420827,25.6995445729699
1647,E,1216533465582850.0,0.46866497,9.15952966984704,0.7631882068840614,242,1970-01-15 01:55:33.465582850,0.0127831735,-0.08522116,0.0,9.79981448407747,0.08617456490448155,-103.62504577636719,1.7510770559310913,60.969871520996094,25739209.0,39665.0,0.014589153306275,-0.022579016858017217,0.029618966393056292,0.0004813997436248403,-0.0008534083700283506,0.0011187743216400164,25.739209104096517
1647,E,1216533505439307.0,0.25318682,9.23853866984704,0.8834968068840614,242,1970-01-15 01:55:33.505439307,0.023435818,-0.13848437,-0.013848438,9.689219955455107,0.14113446614723799,-103.5811996459961,1.670882225036621,60.97803497314453,25779065.0,39856.0,0.014385062471120001,-0.023952094126576416,0.03281513895437115,0.0005773981720119276,-0.0009272719797009819,0.0012441868513635341,25.77906556101516
1647,E,1216533545478008.0,0.048482586,9.31335766984704,0.7063258068840614,242,1970-01-15 01:55:33.545478008,-0.007456851,-0.14594123,0.00958738,9.651287748650033,0.14644577527540187,-103.56800079345703,1.6241068840026855,60.98540496826172,25819104.0,40039.0,0.0060392706734169995,-0.02098251122749439,0.03182745381633093,0.0004088849373870585,-0.0008995683318858204,0.0012941123859730704,25.81910426192917
1647,E,1216533583783162.0,0.007182605,9.219385669847039,0.5943969068840613,242,1970-01-15 01:55:33.583783162,-0.051132694,-0.04580637,-0.0031957934,9.768377267979306,0.06872400616764145,-103.57035064697266,1.5828379392623901,60.98767852783203,25857409.0,38305.0,0.0010661275706275,-0.020440633186509176,0.02491209177544397,0.00013608613986906227,-0.0007933567733892032,0.0010867041469464689,25.857409415999427
1647,E,1216533622584881.0,-0.12868834,9.13199666984704,0.6333027068840615,242,1970-01-15 01:55:33.622584881,-0.0628506,0.10865697,-0.010652645,9.845217465789867,0.12597624337722144,-103.56493377685547,1.5602011680603027,60.98276138305664,25896211.0,38802.0,-0.0023573327647350003,-0.024224431227595218,0.023818600206715352,-2.5050671970879618e-05,-0.0008665469146980394,0.000945424155145873,25.896211134968325
1647,E,1216533664466704.0,0.16879122,9.24452466984704,0.7075229068840616,242,1970-01-15 01:55:33.664466704,-0.07350325,0.16085494,0.027696876,9.71943198437647,0.17900881660724277,-103.55339813232422,1.4958019256591797,60.97502136230469,25938092.0,41881.0,0.0008397743586399996,-0.02562025488613616,0.028077558765111383,-3.177843180283236e-05,-0.0010437726495645919,0.0010867315169495377,25.938092957949266
1647,E,1216533702866860.0,0.2220622,9.24452466984704,0.6614344068840614,242,1970-01-15 01:55:33.702866860,-0.09374327,0.111852765,0.033023197,9.730931160668174,0.1496307897744944,-103.54972839355469,1.4260413646697998,60.96941375732422,25976493.0,38401.0,0.00750458109071,-0.021330808153203835,0.026284664903004844,0.00016021579680524465,-0.0009014838858868474,0.0010437818755396656,25.976493113907054
1647,E,1216533744859361.0,0.11731588,9.16910666984704,0.4561318068840614,242,1970-01-15 01:55:33.744859361,-0.10333065,0.15020229,0.010652645,9.851136211333744,0.18262373886262057,-103.5732192993164,1.372107744216919,60.961551666259766,26018485.0,41992.0,0.007125582167679999,-0.024908996391783136,0.023464420224275508,0.0003071749077731564,-0.0009708509362265464,0.0010445317913323783,26.01848561502993
1647,E,1216533784808890.0,0.0688333,9.210406669847039,0.11256390688406137,242,1970-01-15 01:55:33.784808890,-0.08628642,0.21518342,-0.018109497,9.901316967013033,0.23254505886151572,-103.64497375488281,1.3244779109954834,60.94972229003906,26058435.0,39950.0,0.0037183298705,-0.02437922103961081,0.011359696882518252,0.0002166071429626455,-0.000984532143192094,0.0006956117392082052,26.058435143902898
1647,E,1216533822398734.0,0.14305355,9.24572116984704,0.25262460688406163,242,1970-01-15 01:55:33.822398734,-0.22370553,0.19068234,-0.020240024,9.829786786448876,0.2946414388913703,-103.70360565185547,1.267311692237854,60.93962097167969,26096024.0,37589.0,0.003982307402325,-0.02149850531686967,0.006863535522014987,0.00014472962722410945,-0.0008622489280068723,0.00034249654142699994,26.09602498798631
1647,E,1216533862222434.0,0.033518825,9.31635066984704,0.2616029068840615,242,1970-01-15 01:55:33.862222434,-0.28975195,0.1736381,-0.039414786,9.75835496266459,0.3400880880828352,-103.76557159423828,1.2267546653747559,60.93063735961914,26135848.0,39824.0,0.003515909131,-0.020667225528011524,0.010239298254150868,0.0001493044876115674,-0.0008396040325832743,0.0003405516261510145,26.135848687961698
1647,E,1216533901882538.0,0.037708677,9.24272866984704,0.0018321068840614352,242,1970-01-15 01:55:33.901882538,-0.29614353,0.17150758,-0.05965481,9.901799456342337,0.34738240703071505,-103.85958862304688,1.185737133026123,60.921348571777344,26175508.0,39660.0,0.00141244136466,-0.02064145669386643,0.005223916323021878,9.772919032893782e-05,-0.0008191511684598398,0.00030663554506533557,26.175508792046458
1647,E,1216533943472380.0,0.16220717,9.385782669847039,-0.38064159311593837,242,1970-01-15 01:55:33.943472380,-0.29827404,0.20453078,-0.06711166,9.8859788756352,0.3678372164603326,-104.01029205322266,1.127012848854065,60.90948486328125,26217098.0,41590.0,0.004157250038365001,-0.020202106691061664,-0.007877343266191881,0.0001158217327259049,-0.0008493419005895797,-5.5178013283220226e-05,26.217098633991554
1647,E,1216533982331444.0,0.23463176,9.55936166984704,-0.7140342931159385,242,1970-01-15 01:55:33.982331444,-0.30253512,0.19068234,-0.083090626,9.840796088481987,0.367139354673892,-104.21125793457031,1.0585789680480957,60.897708892822266,26255957.0,38859.0,0.007710381990435,-0.012723518051913935,-0.02126900513154225,0.00023058215650356958,-0.0006397284259436444,-0.0005662989761937752,26.25595769798383
1647,E,1216534023340403.0,0.23702596,9.54858766984704,-0.8026198931159385,242,1970-01-15 01:55:34.023340403,-0.21837921,0.15446335,-0.06391586,9.883587830938541,0.2750157141200957,-104.41426086425781,0.9930071830749512,60.8875732421875,26296966.0,41009.0,0.00967110571974,-0.01008925276424279,-0.031098235761591517,0.00035639871475328326,-0.00046776445919988554,-0.0010737640908932613,26.296966657042503
1647,E,1216534063281911.0,-0.010175358,9.44563666984704,-0.7732907931159385,242,1970-01-15 01:55:34.063281911,-0.041545313,0.13954964,-0.002130529,9.965532607886418,0.14561817953201245,-104.59408569335938,0.9679811000823975,60.8778076171875,26336908.0,39942.0,0.004530433372542,-0.012097945711969557,-0.031472512314736814,0.0002836189372119638,-0.00044310054076843674,-0.001249600409832353,26.336908164899796
1647,E,1216534101695351.0,-0.1933318,9.49890866984704,-0.6212588931159386,242,1970-01-15 01:55:34.101695351,0.101200126,0.18002969,0.066046394,9.862811984266004,0.2168277679272542,-104.74474334716797,0.9729149341583252,60.86562728881836,26375321.0,38413.0,-0.003908660230127,-0.012588989933165668,-0.02678441854861255,1.1942085859793696e-05,-0.0004741496294682897,-0.0011189117426269196,26.375321605009958
1647,E,1216534142901288.0,-0.38307226,9.59946466984704,-0.2040692931159387,242,1970-01-15 01:55:34.142901288,0.18429075,0.30040458,0.10972224,9.63272810999045,0.36911375234628757,-104.83504486083984,1.0070966482162476,60.847991943359375,26416527.0,41206.0,-0.01187565284818,-0.010335014082282908,-0.017004236620935368,-0.00032520420235235915,-0.00047230325473028703,-0.0009021776624581956,26.41652754205279
1647,E,1216534183836079.0,-0.44113165,9.55756566984704,-0.1567837931159386,242,1970-01-15 01:55:34.183836079,0.2034655,0.30253512,0.17470337,9.659868018401594,0.40428576033917063,-104.91351318359375,1.051952600479126,60.82954406738281,26457462.0,40935.0,-0.016869393527925,-0.009066481522311452,-0.007385760542450948,-0.0005883392367029291,-0.00039710011128703504,-0.0004992022669416094,26.457462332909927
1647,E,1216534223691704.0,-0.3878607,9.25769266984704,0.09041740688406152,242,1970-01-15 01:55:34.223691704,0.21092236,0.22796659,0.19813919,9.869569324497066,0.36839672462992096,-104.94190216064453,1.0886046886444092,60.81525802612305,26497317.0,39855.0,-0.016519745054625,-0.01563793943574623,-0.0013225161616357303,-0.0006653620591037651,-0.0004922973486416944,-0.0001735341840206873,26.49731795792468
1647,E,1216534263602278.0,-0.40940848,8.94465066984704,0.08802320688406162,242,1970-01-15 01:55:34.263602278,0.16085494,0.25566345,0.16831179,10.17144396780277,0.3457845717224963,-104.9599380493164,1.123897671699524,60.80023193359375,26537228.0,39911.0,-0.01590990512149,-0.02789093748473482,0.0035608716680497815,-0.000647149884089463,-0.0008686405033866596,4.46675033082456e-05,26.537228531902656
1647,E,1216534303541912.0,-0.47884035,8.99432966984704,0.006021806884061398,242,1970-01-15 01:55:34.303541912,0.06391586,0.330232,0.12463594,10.149731850729548,0.35870953224471636,-104.99549102783203,1.1651618480682373,60.78190612792969,26577168.0,39940.0,-0.0177383291351,-0.033170562616309254,0.0018780789249494168,-0.0006719552381041023,-0.0012193981570178503,0.00010861584334219399,26.57716816593893
1647,E,1216534343397173.0,-0.1352724,9.16431866984704,0.010211806884061314,242,1970-01-15 01:55:34.343397173,-0.022370555,0.36325517,0.08948222,9.975264853192446,0.37478237413046167,-105.04088592529297,1.1550887823104858,60.76231002807617,26617023.0,39855.0,-0.012237731825625,-0.028722535210746244,0.00032349533836426535,-0.0005973479547948475,-0.0012333747069486485,4.38718711321834e-05,26.617023427039385
1647,E,1216534383352225.0,-0.03172317,9.19364766984704,-0.09453459311593848,242,1970-01-15 01:55:34.383352225,-0.08841695,0.25033715,0.04580637,9.977096762093211,0.26941505015496425,-105.10392761230469,1.1297436952590942,60.74845886230469,26656978.0,39955.0,-0.0033361539996749996,-0.024812727448761538,-0.001684558461947326,-0.0003111273040749307,-0.0010695007097803167,-2.719063855138059e-05,26.65697847912088
1647,E,1216534423200141.0,-0.024540568,9.038623169847039,-0.6308355931159384,242,1970-01-15 01:55:34.423200141,-0.27696875,0.039414786,0.04261058,10.295718564586108,0.2829856451481677,-105.23930358886719,1.1065560579299927,60.743629455566406,26696826.0,39848.0,-0.001120998715912,-0.027250635789935192,-0.014452275590483916,-8.880431070535539e-05,-0.0010373104491677937,-0.00032151028166064007,26.69682639511302
1647,E,1216534463119152.0,-0.10594343,9.36543116984704,0.19695960688406133,242,1970-01-15 01:55:34.463119152,-0.40906155,-0.06391586,0.056459017,9.729272189383769,0.41785668529837877,-105.27972412109375,1.09805428981781,60.74559020996094,26736745.0,39919.0,-0.002604395358081,-0.02387047740687605,-0.00865994774719515,-7.435700301986328e-05,-0.0010203518588517541,-0.00046130842170840535,26.7367454059422
