Subject-id_accel,Activity_accel,Timestamp_accel,accel_x,accel_y,accel_z,Segment_accel,DateTime,gyro_x,gyro_y,gyro_z,accel_magnitude,gyro_magnitude,Roll,Pitch,Yaw,Time_Difference,Difference_Microseconds,vx,vy,vz,dx,dy,dz,Time_diff
1630,E,1557131733420504.0,0.8902893,8.707249263659287,5.344084288736339,158,1970-01-19 00:32:11.733420504,-0.0047454834,0.0103302,0.004837036,10.288290651765275,0.012354333733753982,169.53553771972656,63.20218276977539,60.76148223876953,15005523.0,50354.0,0.044815029787600005,-0.05348960583470028,0.26861042895832965,0.0022385385574838984,-0.0026343473805576327,0.01353356012311298,15.005523812025785
1630,E,1557131783774508.0,0.84799194,8.739414263659286,5.30636478873634,158,1970-01-19 00:32:11.783774508,-0.0028839111,0.001876831,0.0066986084,10.272034816353525,0.007530656832694926,169.5263671875,63.21904754638672,60.75328063964844,15055877.0,50354.0,0.04376470677948,-0.05421455237270031,0.26814635642352963,0.0022301720275493737,-0.0027116675911877247,0.013513925585559073,15.055877816164866
1630,E,1557131834128512.0,0.8708496,8.742924263659287,5.286894388736339,158,1970-01-19 00:32:11.834128512,-0.006515503,0.018356323,0.0025634766,10.279231414534644,0.01964631735725771,169.5120849609375,63.2315673828125,60.740840911865234,15106231.0,50354.0,0.043275273452580004,-0.05331636289770032,0.2667064863112296,0.0021914055823025747,-0.0027073058537628765,0.013465990021533033,15.106231820071116
1630,E,1557131884482516.0,0.83535767,8.767338263659287,5.34298578873634,158,1970-01-19 00:32:11.884482516,0.0010681152,0.02067566,0.0012969971,10.230109229825693,0.020743818066920067,169.5063018798828,63.24991226196289,60.73568344116211,15156585.0,50354.0,0.042957180436790005,-0.05261332034970031,0.2676284932282296,0.0021710744915726687,-0.0026669916351198058,0.013452951779864965,15.156585824210197
1630,E,1557131934836520.0,0.87612915,8.796116263659288,5.300611788736339,158,1970-01-19 00:32:11.934836520,-0.0070343018,0.010070801,-0.0027923584,10.226026831562134,0.012597606916757438,169.49037170410156,63.2603759765625,60.721858978271484,15206939.0,50354.0,0.04309010366714001,-0.05127410536570028,0.26797385620802966,0.002166412471884646,-0.0026155737172366407,0.013484860351756701,15.206939828116447
1630,E,1557131985190523.0,0.8239441,8.793949263659288,5.27508408873634,158,1970-01-19 00:32:11.985190523,-0.007949829,0.017303467,-0.0038757324,10.234762306846509,0.019432731485453603,169.49246215820312,63.268436431884766,60.72425079345703,15257293.0,50354.0,0.04280274421525,-0.05060412021870026,0.2662642951071297,0.0021625242311349335,-0.002564988085538453,0.013450513935661766,15.257293831091374
1630,E,1557132035544527.0,0.8625488,8.820103263659288,5.30712748873634,158,1970-01-19 00:32:12.035544527,-0.0061035156,0.035995483,-0.0045166016,10.200535403445738,0.03678759830562271,169.4813232421875,63.27682113647461,60.71481704711914,15307647.0,50354.0,0.0424608317433,-0.050000199519700264,0.2664283408860297,0.0021466810519084134,-0.0025329149580537104,0.013411602496399775,15.307647834997624
1630,E,1557132085898531.0,0.82810974,8.788304263659287,5.20315408873634,158,1970-01-19 00:32:12.085898531,0.0039978027,0.06677246,-1.5258789e-05,10.2717793950489,0.06689203296141005,169.487548828125,63.273414611816406,60.72046661376953,15358001.0,50354.0,0.042565710061580005,-0.05014232368470029,0.26461735927602964,0.002140713243021464,-0.0025212883067171933,0.013370137592980169,15.358001839136705
1630,E,1557132136252535.0,0.8540497,8.759480263659286,5.28013478873634,158,1970-01-19 00:32:12.136252535,0.0073242188,0.05053711,0.006225586,10.265913101253103,0.051443187976891264,169.48060607910156,63.281494140625,60.714012145996094,15408355.0,50354.0,0.04235172822088,-0.05166862895570033,0.2639377640681297,0.002137966343637496,-0.002563294354627367,0.013307432340435901,15.408355843042955
1630,E,1557132186606539.0,0.83987427,8.814488263659287,5.2563614887363395,158,1970-01-19 00:32:12.186606539,0.010635376,0.05331421,0.0098724365,10.22587416327353,0.05525378912827615,169.47935485839844,63.283180236816406,60.71242904663086,15458709.0,50354.0,0.04264792379269001,-0.051009394387700316,0.2652773667779297,0.0021400362387456523,-0.0025851245937167982,0.013324049349311235,15.458709847182035
1630,E,1557132236960543.0,0.89660645,8.808827263659287,5.146605088736339,158,1970-01-19 00:32:12.236960543,0.005142212,0.051071167,0.007019043,10.284389558665332,0.05180707874056095,169.46705627441406,63.270565032958984,60.70125961303711,15509063.0,50354.0,0.043719375087440004,-0.049766984968700294,0.26191548952102967,0.0021744694839050333,-0.002537246903056098,0.013273134543038901,15.509063851088285
1630,E,1557132287314547.0,0.84117126,8.832966263659287,5.172758788736339,158,1970-01-19 00:32:12.287314547,-0.0018157959,0.039108276,-0.001083374,10.246510821546424,0.03916539372541158,169.47068786621094,63.261863708496094,60.70477294921875,15559417.0,50354.0,0.043752029404670004,-0.04930176436270029,0.2598106243431296,0.0022022675508978538,-0.0024942539019166725,0.01313549836875794,15.559417854994535
1630,E,1557132337668551.0,0.8703003,8.839863263659288,5.158110188736339,158,1970-01-19 00:32:12.337668551,-0.012573242,0.0289917,-0.005126953,10.249351755537061,0.03201391463636981,169.46585083007812,63.25100326538086,60.70124816894531,15609771.0,50354.0,0.04308971946612,-0.048520370990700286,0.26010028824582965,0.00218641471131988,-0.0024628679017925665,0.013089797046252228,15.609771859133616
1630,E,1557132388022555.0,0.8697815,8.851887263659288,5.126097288736339,158,1970-01-19 00:32:12.388022555,-0.022766113,0.036987305,-0.006713867,10.252998323803943,0.04394806756144669,169.46290588378906,63.23537826538086,60.69993591308594,15660125.0,50354.0,0.0438100394786,-0.048043996973700265,0.25892549166032963,0.0021878752309512158,-0.0024312010922397124,0.013067512060697372,15.660125863039866
1630,E,1557132438376559.0,0.86686707,8.893605263659287,5.08630228873634,158,1970-01-19 00:32:12.438376559,-0.02520752,0.040740967,4.5776367e-05,10.233765007158734,0.04790874191753802,169.46246337890625,63.21242904663086,60.700836181640625,15710479.0,50354.0,0.04372360104689,-0.046690934639700275,0.2571175841620297,0.0022038344675102623,-0.0023851413732305857,0.012992416519979542,15.710479867178947
1630,E,1557132488730563.0,0.82115173,8.825169263659287,4.97189178873634,158,1970-01-19 00:32:12.488730563,-0.009963989,0.07447815,0.032424927,10.343044000132746,0.08183918251772772,169.48046875,63.1796989440918,60.716941833496094,15760833.0,50354.0,0.042499249327600006,-0.04736361372570029,0.25323515228852966,0.002170832703878535,-0.00236801136419569,0.012849150845615734,15.760833871085197
1630,E,1557132539084566.0,1.0076599,8.793644263659287,5.08073278873634,158,1970-01-19 00:32:12.539084566,-0.038253784,0.028564453,0.038879395,10.337741572926555,0.0615701820776412,169.43275451660156,63.16096878051758,60.67533493041992,15811187.0,50354.0,0.046043990408510004,-0.049880331822700304,0.2530949289870297,0.0022292531468360416,-0.0024483108170720823,0.012747872456274758,15.811187874060124
1630,E,1557132589438570.0,0.8660126,8.855488263659288,5.13671738873634,158,1970-01-19 00:32:12.589438570,-0.06752014,-0.005432129,0.0061187744,10.244694752052846,0.06801409215192346,169.4269256591797,63.15068817138672,60.6729850769043,15861541.0,50354.0,0.04717345253250001,-0.04911699035970029,0.25724474311822965,0.002346935560925809,-0.0024924555805862997,0.012848821924594115,15.861541878199205
1630,E,1557132639792574.0,0.8384552,8.901524263659287,5.088423288736339,158,1970-01-19 00:32:12.639792574,-0.082962036,0.0048065186,-0.010559082,10.22341197959538,0.0837693037514349,169.43344116210938,63.132102966308594,60.682743072509766,15911895.0,50354.0,0.0429133858006,-0.046400895599700294,0.25743836683672966,0.002268116328712459,-0.0024048538147998285,0.012958176659336013,15.911895882105455
1630,E,1557132690146578.0,0.8185425,8.835026263659287,5.02491618873634,158,1970-01-19 00:32:12.690146578,-0.051223755,-0.020645142,-0.014144897,10.30973043441324,0.057010289208534966,169.45077514648438,63.1123046875,60.700706481933594,15962249.0,50354.0,0.041718231092899995,-0.0469160673737003,0.2546235480243296,0.0021307702185276492,-0.002349441176781307,0.01289218283045689,15.962249886011705
1630,E,1557132740500582.0,0.8143158,8.847508263659288,5.05839378873634,158,1970-01-19 00:32:12.740500582,-0.019500732,-0.0011444092,0.0053253174,10.28303523618949,0.0202471535373151,169.4671173095703,63.09521484375,60.7160530090332,16012602.999999998,50353.99999999814,0.04111047341909848,-0.048276028205698485,0.25386749530282027,0.002085378293498508,-0.0023966513904024344,0.012802278997847178,16.012603890150785
1630,E,1557132790854586.0,0.8216858,8.846150263659286,5.0507340887363394,158,1970-01-19 00:32:12.790854586,-0.0001373291,0.0016174316,0.018585205,10.288320164794346,0.018655958542900183,169.48098754882812,63.0772705078125,60.72800827026367,16062957.0,50354.00000000186,0.041189612283201525,-0.04799595925770208,0.2545175125711391,0.002072069257726884,-0.002423839828366126,0.012799609343243147,16.062957894057035
1630,E,1557132841208590.0,0.7733612,8.857990763659288,5.09602218873634,158,1970-01-19 00:32:12.841208590,0.018814087,-0.008255005,0.022491455,10.25345238469355,0.030462772776138073,169.50701904296875,63.066043853759766,60.74982833862305,16113311.0,50354.0,0.04015849831900001,-0.0477320413552003,0.25546488279792967,0.0020481013806316283,-0.0024101438714310432,0.012839826768207045,16.113311898196116
1630,E,1557132891562594.0,0.8968506,8.825443763659287,5.098799288736339,158,1970-01-19 00:32:12.891562594,0.033203125,-0.023956299,0.019256592,10.2911330944686,0.045245641856398615,169.49560546875,63.05558395385742,60.737667083740234,16163665.000000002,50354.00000000186,0.04205092248860156,-0.04825336890570207,0.25667502033833917,0.0020697865876730614,-0.0024166246741388286,0.012894146341262316,16.163665902102366
1630,E,1557132941916598.0,0.915329,8.831837263659287,5.078642388736339,158,1970-01-19 00:32:12.941916598,0.03262329,-0.0393219,0.013076782,10.296210433288033,0.05273986250939249,169.48031616210938,63.04287338256836,60.72211456298828,16214019.0,50353.99999999814,0.045625245789198306,-0.0489118355751985,0.25623744911372015,0.0022074228887300853,-0.0024463283532155434,0.012913597243394017,16.214019906008616
1630,E,1557132992270602.0,0.9216919,8.866444263659288,5.12666178873634,158,1970-01-19 00:32:12.992270602,0.017791748,-0.043624878,0.011077881,10.244350471520907,0.04839830291302112,169.46009826660156,63.03420639038086,60.702880859375,16264373.0,50354.0,0.0462506751993,-0.0478795659867003,0.2569389432762297,0.002313160062727422,-0.0024369171171239263,0.012920242031201767,16.264373910147697
1630,E,1557133042624605.0,0.9360657,8.805989263659287,5.129621988736339,158,1970-01-19 00:32:13.042624605,0.0045318604,-0.050567627,0.005218506,10.298035422458817,0.05103778466948044,169.43577575683594,63.03008270263672,60.680686950683594,16314727.000000002,50354.00000000186,0.04677276309520173,-0.048530341082702086,0.2582224566654392,0.0023420511059407565,-0.0024273122302864336,0.012970218566331878,16.314727913122624
1630,E,1557133092978609.0,0.89901733,8.814900263659286,5.18585078873634,158,1970-01-19 00:32:13.092978609,-0.004257202,-0.061019897,-0.0015716553,10.26168670430755,0.06118841147751288,169.4200439453125,63.033721923828125,60.66664505004883,16365081.0,50353.99999999814,0.04620188544630829,-0.049828064370698484,0.25971265811842,0.002340822726329511,-0.0024763695741001745,0.013040052384912739,16.365081917028874
1630,E,1557133143332613.0,0.93634033,8.796650263659288,5.17335378873634,158,1970-01-19 00:32:13.143332613,-0.0074157715,-0.06588745,-0.0015563965,10.286842239661766,0.06632173176650263,169.3939208984375,63.03630447387695,60.64345169067383,16415434.999999998,50353.99999999814,0.046208799805818296,-0.05006319237369845,0.26081369364702,0.002326623822592705,-0.0025149621710535883,0.013105291958397996,16.415435921167955
1630,E,1557133193686617.0,0.89237976,8.824314263659288,5.25288248873634,158,1970-01-19 00:32:13.193686617,-0.01361084,-0.08653259,0.0077209473,10.223064104286305,0.08793609682504153,169.37554931640625,63.04874801635742,60.627140045166016,16465789.0,50354.00000000186,0.0460416857059317,-0.049826176095702106,0.26250135075793934,0.0023225904737294157,-0.002514914629954191,0.013175502872984149,16.465789925074205
1630,E,1557133244040621.0,0.9144745,8.826069263659287,5.232557788736339,158,1970-01-19 00:32:13.244040621,-0.01737976,-0.038986206,0.00044250488,10.232401055927502,0.04268695499213852,169.35345458984375,63.05546951293945,60.608028411865234,16516143.0,50354.0,0.04549116970402,-0.04908549393270029,0.2639919298659297,0.0023045227006563544,-0.002490299116305087,0.013255521326267151,16.516143929213285
1630,E,1557133294394625.0,0.8776245,8.817890263659287,5.24429178873634,158,1970-01-19 00:32:13.294394625,-0.015731812,-0.041229248,-0.007156372,10.231308838631607,0.04470519499623318,169.34320068359375,63.065025329589844,60.599578857421875,16566496.999999998,50353.99999999814,0.04511967652299833,-0.04924723098069849,0.2637756418120199,0.002281309275457556,-0.0024757230151445497,0.013287604152135243,16.566497933119535
1630,E,1557133344748629.0,0.90122986,8.852101263659288,5.2540421887363395,158,1970-01-19 00:32:13.344748629,-0.012466431,-0.03263855,-0.0028686523,10.198500462394252,0.03505589841950362,169.32533264160156,63.07240295410156,60.584136962890625,16616851.0,50354.00000000186,0.04478621622172166,-0.048591823316702094,0.2643165545508394,0.002263560661633899,-0.0024632938700457456,0.0132957772278282,16.616851937025785
1630,E,1557133395102633.0,0.8957672,8.788029263659286,5.33888108873634,158,1970-01-19 00:32:13.395102633,-0.007095337,-0.021148682,-0.0040893555,10.218405117631242,0.022678919416190737,169.3052978515625,63.093631744384766,60.56659698486328,16667205.0,50354.0,0.045242994979620005,-0.049343633713700305,0.26669802935692966,0.0022666654504161794,-0.0024657210016544415,0.013369354179045905,16.667205941164866
1630,E,1557133445456637.0,0.9011688,8.800724263659287,5.24142318873634,158,1970-01-19 00:32:13.445456637,0.002609253,-0.0048065186,0.00018310547,10.24995892892066,0.005472143079571191,169.29013061523438,63.100547790527344,60.55293655395508,16717559.000000002,50354.00000000186,0.045241457672001675,-0.050637152442702185,0.26638032079393953,0.0022781270644099635,-0.0025172162530598388,0.013421313621748929,16.717559945071116
1630,E,1557133495810641.0,0.90356445,8.753163263659287,5.21061578873634,158,1970-01-19 00:32:13.495810641,0.0079956055,-0.010498047,0.00033569336,10.306229383249521,0.013200431362564912,169.276611328125,63.10673141479492,60.540470123291016,16767913.0,50353.99999999814,0.045437769035248314,-0.05151497372469839,0.2631509853358199,0.0022830308908083482,-0.002571884080516549,0.01333200969442846,16.767913949210197
1630,E,1557133546164645.0,0.91363525,8.806416263659287,5.25079208873634,158,1970-01-19 00:32:13.546164645,0.006729126,-0.003036499,0.002609253,10.241858153528277,0.007830048794157416,169.2578125,63.11372375488281,60.52333450317383,16818267.0,50354.0,0.0457516368469,-0.0513716662407003,0.2633868661311297,0.002295875671894848,-0.002590376934408843,0.013256643486383392,16.818267953116447
1630,E,1557133596518648.0,0.9222107,8.757313263659286,5.3162827887363395,158,1970-01-19 00:32:13.596518648,0.006942749,0.007171631,0.002609253,10.258080883753623,0.010317085639616015,169.2333221435547,63.13092803955078,60.50114822387695,16868621.0,50354.0,0.046221093483150004,-0.051267181690700325,0.26604724419012965,0.002315597431519669,-0.0025841382743688737,0.013329562595558349,16.868621956091374
1630,E,1557133646872652.0,0.87202454,8.787007263659287,5.3690477887363395,158,1970-01-19 00:32:13.646872652,0.020019531,0.010070801,0.003616333,10.204286863889225,0.02269979115781577,169.22216796875,63.15343475341797,60.490257263183594,16918975.0,50354.0,0.04517346063748,-0.051755842083700314,0.2690245679490297,0.0023010406890951016,-0.0025938106695680852,0.013471503014227615,16.918975959997624
1630,E,1557133697226656.0,0.93278503,8.744114263659288,5.31313948873634,158,1970-01-19 00:32:13.697226656,0.03187561,0.0137786865,0.0054779053,10.272238516094259,0.035155570838960225,169.1966094970703,63.169471740722656,60.465972900390625,16969329.0,50354.0,0.04543969054389,-0.05208815330670027,0.26894542908492963,0.002281367307293353,-0.0026144802719441154,0.013544470615323994,16.969329964136705
1630,E,1557133747580660.0,0.95391846,8.724552263659287,5.254072788736339,158,1970-01-19 00:32:13.747580660,0.024536133,-0.0026245117,0.007171631,10.317325727860819,0.02569712387519831,169.16796875,63.17937469482422,60.43915939331055,17019683.0,50354.0,0.04750153376773,-0.05366058284170027,0.26605070350992965,0.002339981204493657,-0.0026624359300082803,0.013469597630340774,17.019683968042955
1630,E,1557133797934664.0,0.9231415,8.761494263659287,5.22407378873634,158,1970-01-19 00:32:13.797934664,0.014038086,-0.013885498,0.01222229,10.294600413301687,0.023221956982465968,169.14979553222656,63.18429946899414,60.42198944091797,17070037.0,50354.0,0.04725873861292,-0.05322300658170029,0.26380829638102965,0.0023857793777276254,-0.002691008130912956,0.013340260040254683,17.070037972182035
1630,E,1557133848288668.0,0.87397766,8.752537263659287,5.260847788736339,158,1970-01-19 00:32:13.848288668,0.017608643,-0.010345459,0.01512146,10.28221620769273,0.025411638726255535,169.14480590820312,63.195091247558594,60.416358947753906,17120391.0,50354.0,0.04524606909132,-0.052518428236700304,0.26397887055602964,0.0023289935435696504,-0.0026622521044228718,0.013288097501974343,17.120391976088285
1630,E,1557133898642672.0,0.88908386,8.741108263659287,5.333067488736339,158,1970-01-19 00:32:13.898642672,0.018356323,-0.0178833,0.019638062,10.26247207681765,0.03228653731954192,169.13055419921875,63.215145111083984,60.40230178833008,17170745.0,50354.0,0.04438859988904,-0.05303168655870031,0.26672300494092965,0.0022567320609185237,-0.0026574352402038014,0.013361481119386943,17.170745979994535
1630,E,1557133948996676.0,0.90190125,8.791523263659286,5.412382788736339,158,1970-01-19 00:32:13.948996676,0.017791748,-0.018997192,0.0152282715,10.184299674212683,0.030155262453808625,169.10833740234375,63.24124526977539,60.38125228881836,17221099.0,50354.0,0.045091632114469996,-0.05205013603670033,0.2705382016359296,0.002252843801152371,-0.002645645047484402,0.013526625397985586,17.221099984133616
1630,E,1557133999350680.0,0.93914795,8.821095263659288,5.3634171887363395,158,1970-01-19 00:32:13.999350680,0.0113220215,-0.017242432,0.0069274902,10.18204288758137,0.021759589899448525,169.07859802246094,63.257904052734375,60.353981018066406,17271453.0,50354.0,0.0463520957084,-0.0500363033377003,0.27130231603282967,0.002302278735396398,-0.0025702302841292845,0.013641918713346354,17.271453988039866
1630,E,1557134049704684.0,0.9200592,8.819996263659286,5.29881148873634,158,1970-01-19 00:32:14.049704684,0.00035095215,-0.02722168,-0.006866455,10.209276628937026,0.028076524601542384,169.0599365234375,63.26726531982422,60.33732223510742,17321807.0,50354.0,0.046809258415550004,-0.0493194386167003,0.2684429314127297,0.0023455234127786892,-0.0025014795151859443,0.013589166094936846,17.321807992178947
1630,E,1557134100058688.0,0.98062134,8.820820263659288,5.324369788736339,158,1970-01-19 00:32:14.100058688,-0.020706177,-0.037353516,-0.026473999,10.20306776974888,0.05024841834893499,169.02227783203125,63.27872085571289,60.30503463745117,17372161.0,50354.0,0.047853433955580005,-0.04932636229170031,0.26745983502292964,0.0023833226058279405,-0.0024836053294708025,0.013492423950550595,17.372161996085197
1630,E,1557134150412691.0,0.9928436,8.770741263659287,5.35096578873634,158,1970-01-19 00:32:14.150412691,-0.05067444,-0.036132813,-0.045654297,10.237687114164066,0.07718674678447576,168.9807586669922,63.296112060546875,60.271060943603516,17422515.0,50354.0,0.049685926794380005,-0.050566455426700276,0.2687729238340297,0.002455748485601743,-0.0025150014716961715,0.013500732169741665,17.422515999060124
1630,E,1557134200766695.0,0.9024658,8.701893263659287,5.33350978873634,158,1970-01-19 00:32:14.200766695,-0.07699585,-0.020019531,-0.05001831,10.298697898,0.09397326148399109,168.96841430664062,63.31654739379883,60.26447677612305,17472870.0,50355.0,0.04771915241849999,-0.053561744188436636,0.26900838385181836,0.002452416381882286,-0.0026216877458101096,0.013539988874260436,17.472870003199205
1630,E,1557134251120699.0,0.9010925,8.704472263659287,5.35209518873634,158,1970-01-19 00:32:14.251120699,-0.08880615,0.0038452148,-0.039520264,10.288303672667949,0.09727882205963605,168.9544677734375,63.33735656738281,60.25688934326172,17523224.0,50354.0,0.0454081873191,-0.055229135118700305,0.26903147651782966,0.002344667032573555,-0.0027390279683157867,0.013546229564526628,17.523224007105455
1630,E,1557134301474703.0,0.8737488,8.646000263659287,5.396223788736339,158,1970-01-19 00:32:14.301474703,-0.08106995,0.014175415,-0.024902344,10.319918835358466,0.08598491681753877,168.9457550048828,63.36661148071289,60.25334548950195,17573578.0,50354.0,0.0446851794101,-0.05663635317970029,0.27061042689582965,0.0022682806941410685,-0.002816437398888832,0.0135865642022457,17.573578011011705
1630,E,1557134351828707.0,0.8142395,8.672306263659287,5.43795638873634,158,1970-01-19 00:32:14.351828707,-0.062164307,0.024337769,-0.010025024,10.273719508665126,0.06750725272804535,168.9525909423828,63.39948654174805,60.262542724609375,17623932.0,50354.0,0.0424984814291,-0.057446196561700295,0.27277215432822965,0.002195023028948539,-0.0028722563548392427,0.013680743247478143,17.623932015150785
1630,E,1557134402182711.0,0.80659485,8.702000263659286,5.4477067887363395,158,1970-01-19 00:32:14.402182711,-0.034362793,0.022003174,0.00030517578,10.2421734713269,0.040804832325250694,168.9613800048828,63.43117141723633,60.27202606201172,17674286.0,50354.0,0.040807746429950005,-0.05603628456170032,0.2740683418192297,0.002097400898807302,-0.0028571484272438574,0.013767803171504585,17.674286019057035
1630,E,1557134452536715.0,0.84072876,8.705555263659287,5.4301133887363395,158,1970-01-19 00:32:14.452536715,-0.022827148,0.01776123,0.0010986328,10.249104568028258,0.02894385895066585,168.9609832763672,63.45907211303711,60.272735595703125,17724640.0,50354.0,0.04147466652897,-0.05519917448870032,0.2738708786082296,0.002071624311066729,-0.002800575152511937,0.013795465752702145,17.724640023196116
1630,E,1557134502890719.0,0.83148193,8.702442263659288,5.36845278873634,158,1970-01-19 00:32:14.502890719,-0.023132324,0.008682251,0.00047302246,10.277287074085578,0.024712540264320088,168.96697998046875,63.47950744628906,60.27915573120117,17774994.0,50354.0,0.04210124854213,-0.055188046254700286,0.27187550065022964,0.002104190813745085,-0.0027792190566565973,0.013740256590590229,17.774994027102366
1630,E,1557134553244723.0,0.8207245,8.707264263659287,5.326612788736339,158,1970-01-19 00:32:14.553244723,-0.013946533,0.00088500977,0.00047302246,10.289986204024098,0.013982588289038225,168.97891235351562,63.49462890625,60.29045867919922,17825348.0,50354.0,0.041597601288110006,-0.05514501876170029,0.26926966604402963,0.0021072859421759527,-0.0027778555779179176,0.013624411861861366,17.825348031008616
1630,E,1557134603598727.0,0.8097687,8.718037263659287,5.32948178873634,158,1970-01-19 00:32:14.603598727,0.0038757324,-0.002105713,0.0023956299,10.278194968260902,0.005019399515136524,168.99441528320312,63.509464263916016,60.30410385131836,17875702.0,50354.0,0.0410509272964,-0.0547523834467003,0.26828849317702963,0.0020808420041722084,-0.002766886895400902,0.013534101774708608,17.875702035147697
1630,E,1557134653952730.0,0.83270264,8.705738263659287,5.353331188736339,158,1970-01-19 00:32:14.653952730,0.015274048,0.0032196045,0.009597778,10.280871224295748,0.018324293655691295,169.00103759765625,63.52670669555664,60.30913162231445,17926056.0,50354.0,0.04135250092718001,-0.054790803548700306,0.26896118233382965,0.002074671112385074,-0.002757968818983201,0.013526335080336906,17.926056038122624
1630,E,1557134704306734.0,0.8696594,8.721546263659286,5.36530928873634,158,1970-01-19 00:32:14.704306734,0.018585205,0.0066833496,0.013961792,10.264583486354116,0.024186951908396998,168.9952392578125,63.542972564697266,60.30284118652344,17976410.0,50354.0,0.042860369081080006,-0.05470245745570033,0.2698632113013297,0.0021202274281979625,-0.002756711832307795,0.013565981758552408,17.976410042028874
1630,E,1557134754660738.0,0.82466125,8.701344263659287,5.3405747887363395,158,1970-01-19 00:32:14.754660738,0.023727417,-0.008758545,0.011230469,10.289637506282014,0.027673558895972793,169.00511169433594,63.55885314941406,60.310340881347656,18026764.0,50354.0,0.04265791100505,-0.05481308519370032,0.2695420434185296,0.0021530937377284955,-0.00275727281728396,0.013580606098081899,18.026764046167955
1630,E,1557134805014742.0,0.86047363,8.700138263659287,5.32203538873634,158,1970-01-19 00:32:14.805014742,0.02017212,-0.036102295,0.010604858,10.301606596518397,0.04269371315265971,169.00421142578125,63.57262420654297,60.30824661254883,18077118.0,50354.0,0.04242664087376,-0.055352074409700296,0.26845253643822964,0.0021421737626527997,-0.0027736282233348174,0.013545089537053629,18.077118050074205
1630,E,1557134855368746.0,0.904068,8.743305263659288,5.36259318873634,158,1970-01-19 00:32:14.855368746,0.0024414063,-0.043518066,0.0049743652,10.249138713402115,0.043869429472526845,168.9869842529297,63.587799072265625,60.29241180419922,18127472.0,50354.0,0.04442586461851,-0.05429562231270028,0.26900689369502967,0.002186685530778882,-0.0027606000603798793,0.013531616072465072,18.127472054213285
1630,E,1557134905722750.0,0.84994507,8.758488263659286,5.43961978873634,158,1970-01-19 00:32:14.905722750,-0.006958008,-0.020584106,-0.00061035156,10.198064477098697,0.021736877056608074,168.98275756835938,63.611446380615234,60.28886795043945,18177826.0,50354.0,0.04416078706339,-0.0528265443627003,0.2719673161338297,0.002230346129395196,-0.0026970147903865606,0.013620107680861193,18.177826058119535
1630,E,1557134956076754.0,0.86824036,8.727558263659287,5.43757478873634,158,1970-01-19 00:32:14.956076754,-0.0037841797,0.0031738281,0.002609253,10.228386980943913,0.005585821517758216,168.973388671875,63.63445281982422,60.28059005737305,18228180.0,50354.0,0.04325875457111,-0.05322300658170033,0.27385512787702965,0.0022009617997318064,-0.002670009544127175,0.013742171672861406,18.228180062025785
1630,E,1557135006430758.0,0.8574524,8.734761263659287,5.425627288736339,158,1970-01-19 00:32:15.006430758,0.0032043457,0.0042419434,0.008514404,10.226017761064178,0.010037778172938872,168.9680938720703,63.6551399230957,60.275535583496094,18278534.0,50354.0,0.043447766618520005,-0.05382038126070031,0.2735028387045296,0.002183010083991315,-0.002695031375708121,0.01378083152462392,18.278534066164866
1630,E,1557135056784762.0,0.8832245,8.676686263659287,5.47291428873634,158,1970-01-19 00:32:15.056784762,0.010192871,-0.029373169,0.014953613,10.260844120128983,0.03450055388075633,168.95118713378906,63.68561553955078,60.25947189331055,18328888.0,50354.0,0.043825022311300005,-0.055101185604700315,0.27439258129602967,0.0021972670068860787,-0.0027423182889701916,0.01379436298935408,18.328888070071116
1630,E,1557135107138766.0,0.877594,8.743382263659287,5.429686088736339,158,1970-01-19 00:32:15.107138766,4.5776367e-05,-0.029556274,0.015350342,10.218232855107555,0.033304780854343054,168.93841552734375,63.706111907958984,60.24757385253906,18379242.0,50354.0,0.044332127374500006,-0.054884134687700314,0.2744947697036297,0.002219532557639387,-0.002769100409001771,0.013819336836118424,18.379242074210197
1630,E,1557135157492770.0,0.85702515,8.815769263659288,5.423384288736339,158,1970-01-19 00:32:15.157492770,-0.0072631836,0.0121154785,0.0076904297,10.153896486361221,0.016083574362122162,168.93389892578125,63.71943283081055,60.24374008178711,18429596.0,50354.0,0.04367250633955,-0.051382441996700286,0.2732477528936297,0.0022156926630186374,-0.002675473601183154,0.0137905134914312,18.429596078116447
1630,E,1557135207846773.0,0.8642578,8.720631263659287,5.46644458873634,158,1970-01-19 00:32:15.207846773,0.0069732666,0.024307251,0.008865356,10.222178551905884,0.026796705679213863,168.9254913330078,63.74273681640625,60.23577117919922,18479950.0,50354.0,0.04333674083215,-0.051955243923700274,0.27417322164812963,0.002190631816041891,-0.002601732918417925,0.013782417876037874,18.479950081091374
1630,E,1557135258200777.0,0.8882446,8.709675263659287,5.425077788736339,158,1970-01-19 00:32:15.258200777,0.007965088,0.047409058,0.0149383545,10.251514532634735,0.05034099564433324,168.91226196289062,63.759239196777344,60.22343444824219,18530304.0,50354.0,0.0441227529248,-0.05462637256170029,0.27421585889762967,0.00220196767431873,-0.00268340535825293,0.013806791880900582,18.530304084997624
1630,E,1557135308554781.0,0.92385864,8.717213263659287,5.32919178873634,158,1970-01-19 00:32:15.308554781,-0.004837036,0.06817627,0.010757446,10.288677261500558,0.06918904069880656,168.89439392089844,63.761199951171875,60.20768356323242,18580658.0,50354.0,0.04562332327348,-0.05471242754770029,0.2707602451520297,0.002259536960444096,-0.0027528229703543787,0.013720863371658273,18.580658089136705
1630,E,1557135358908785.0,0.9193115,8.709416263659287,5.32028078873634,158,1970-01-19 00:32:15.358908785,-0.0066223145,0.060333252,0.002166748,10.299105054992022,0.06073426663036212,168.87954711914062,63.763065338134766,60.19487762451172,18631012.0,50354.0,0.046405494614779996,-0.05471894839070028,0.26812177108302965,0.0023170095479727224,-0.0027551537520011113,0.01356743252275009,18.631012093042955
1630,E,1557135409262789.0,0.9260254,8.725697263659287,5.2998947887363395,158,1970-01-19 00:32:15.409262789,-0.0031585693,0.048980713,0.0001373291,10.293875173714618,0.04908264118089998,168.86436462402344,63.76179885864258,60.18161392211914,18681366.0,50354.0,0.0464600471313,-0.0545053467227003,0.26738416051402963,0.002338075744541056,-0.0027499400780700866,0.013482432839819163,18.681366097182035
1630,E,1557135459616793.0,0.89775085,8.762257263659286,5.28788618873634,158,1970-01-19 00:32:15.459616793,-0.0045166016,0.03715515,-0.0014801025,10.263781714718366,0.03745791725318065,168.85890197753906,63.75815200805664,60.1771125793457,18731720.0,50354.0,0.04591721464625,-0.05317496886570033,0.2665685616698297,0.002325782319773377,-0.002711067305569163,0.013443327686423028,18.731720101088285
1630,E,1557135509970797.0,0.8959198,8.790699263659286,5.25138718873634,158,1970-01-19 00:32:15.509970797,-0.008972168,0.037582397,-0.00440979,10.254087487946903,0.03888936372235901,168.85641479492188,63.74836349487305,60.1755485534668,18782074.0,50354.0,0.045159245955050005,-0.05153841351170033,0.26534728582462963,0.0022930320485589303,-0.0026363688281158164,0.013392045292368003,18.782074104994535
1630,E,1557135560324801.0,0.9251251,8.820973263659287,5.247251988736339,158,1970-01-19 00:32:15.560324801,-0.014343262,0.042297363,-0.0042419434,10.231435871987767,0.04486413005245077,168.84498596191406,63.735469818115234,60.16619110107422,18832428.0,50354.0,0.0458484474473,-0.05006012077970032,0.26432423857122966,0.0022913006967909665,-0.002557946297854594,0.01333553996971455,18.832428109133616
1630,E,1557135610678805.0,0.9581604,8.843907263659286,5.13810578873634,158,1970-01-19 00:32:15.610678805,-0.028533936,0.07546997,-0.0031585693,10.262559776658462,0.08074576419525607,168.83016967773438,63.70569610595703,60.154579162597656,18882782.0,50354.0,0.047415479033500005,-0.04872050296370033,0.26147215276342967,0.002348105877007102,-0.002486999763987598,0.013237975744632717,18.882782113039866
1630,E,1557135661032809.0,1.0203094,8.878605263659287,5.06878528873634,158,1970-01-19 00:32:15.661032809,-0.06491089,0.12632751,-0.016738892,10.269149995305192,0.1430113769207886,168.8013458251953,63.66215515136719,60.132545471191406,18933136.0,50354.0,0.0498119341546,-0.04726950209970033,0.25697889665752965,0.002447894581836794,-0.0024167403574812387,0.013053042071271493,18.933136117178947
1630,E,1557135711386813.0,0.86376953,8.850621263659287,5.11526348873634,158,1970-01-19 00:32:15.711386813,-0.07077026,0.11843872,-0.028839111,10.258503201962718,0.14095337675620376,168.81944274902344,63.631385803222656,60.153076171875,18983490.0,50354.0,0.04743545522061,-0.04710046372170031,0.2564037960704296,0.002448397522299662,-0.002375952629485404,0.01292543605481183,18.983490121085197
1630,E,1557135761740816.0,0.6940155,8.834904263659286,5.234892388736339,158,1970-01-19 00:32:15.761740816,-0.030914307,0.083724976,-0.017990112,10.206124775363548,0.09104509933688561,168.8826904296875,63.62274932861328,60.21187210083008,19033844.0,50354.0,0.039220353700310004,-0.04820072379870033,0.26058587452712967,0.002181733301202003,-0.0023993979982011274,0.013016248936634752,19.033844124060124
1630,E,1557135812094820.0,0.7742462,8.876362263659287,5.183332788736339,158,1970-01-19 00:32:15.812094820,0.026992798,0.1214447,0.02407837,10.197829755175581,0.126716984669837,168.9220733642578,63.60113525390625,60.24594497680664,19084198.0,50354.0,0.036966424820900005,-0.047552642641700324,0.2622996552932296,0.0019181545228285043,-0.002410782506869967,0.013164688984287187,19.084198128199205
1630,E,1557135862448824.0,0.9825897,8.908283763659288,5.01272448873634,158,1970-01-19 00:32:15.862448824,0.04537964,0.13302612,0.04600525,10.26495859403698,0.14789098470274142,168.9053192138672,63.551483154296875,60.22847366333008,19134552.0,50354.0,0.0442318574543,-0.04570516697020029,0.25670613407492965,0.002044329152842711,-0.002347951872598822,0.013067008758922145,19.134552132105455
1630,E,1557135912802828.0,0.9094238,8.843281263659287,4.958799788736339,158,1970-01-19 00:32:15.912802828,0.046218872,0.10154724,0.041015625,10.34049747879542,0.11887097027748453,168.91461181640625,63.50411605834961,60.23424530029297,19184906.0,50354.0,0.047635223889500006,-0.04653804730720027,0.25105306673392963,0.002312937506992853,-0.002322407405862114,0.012783853398764651,19.184906136011705
1630,E,1557135963156832.0,0.8608093,8.890904263659287,5.015516788736339,158,1970-01-19 00:32:15.963156832,0.060180664,0.07473755,0.057647705,10.268080014102758,0.11194048236116558,168.93374633789062,63.464012145996094,60.24775695800781,19235260.0,50354.0,0.0445691587587,-0.04697561097870028,0.2511233684710296,0.0023214297419337318,-0.0023543933746641185,0.01264329610915526,19.235260140150785
1630,E,1557136013510836.0,0.87257385,8.909352263659287,5.02255108873634,158,1970-01-19 00:32:16.013510836,0.07019043,0.070388794,0.0695343,10.24953465037566,0.12131074833191549,168.94761657714844,63.4243278503418,60.25579071044922,19285614.0,50354.0,0.04364138756755,-0.045312141411700306,0.2527284349511297,0.0022208769248559966,-0.0023235287419331157,0.012685476854759705,19.285614144057035
1630,E,1557136063864840.0,0.85806274,8.963124263659287,5.00524778873634,158,1970-01-19 00:32:16.063864840,0.09020996,0.071258545,0.06362915,10.208866526940065,0.13139362940584726,168.96826171875,63.380348205566406,60.269107818603516,19335968.0,50354.0,0.04357223742643,-0.043493858471700314,0.25246989233812966,0.0021957774364734345,-0.0022358686590643775,0.012719378286161681,19.335968148196116
1630,E,1557136114218844.0,0.8869171,8.961872263659288,4.92579508873634,158,1970-01-19 00:32:16.114218844,0.10971069,0.08532715,0.06452942,10.249576733493646,0.15323577934978178,168.98532104492188,63.32658767700195,60.278411865234375,19386322.0,50354.0,0.043933357431680004,-0.04217156243170028,0.2500338665261297,0.002203128361742636,-0.002156798302084917,0.012651537136925458,19.386322152102366
1630,E,1557136164572848.0,0.93092346,8.965458263659286,4.86389018873634,158,1970-01-19 00:32:16.164572848,0.109817505,0.074417114,0.057434082,10.279599370355731,0.1445560965013124,168.9926300048828,63.26608657836914,60.27909469604492,19436676.0,50354.0,0.04576777177912,-0.042112799313700294,0.24647490623092969,0.002258405330140312,-0.0021220273756639503,0.012500601371704485,19.436676156008616
1630,E,1557136214926852.0,0.92352295,8.974125263659287,4.79182278873634,158,1970-01-19 00:32:16.214926852,0.10084534,0.05078125,0.04777527,10.305810991325899,0.12260095584803163,169.00624084472656,63.19931411743164,60.28589630126953,19487030.0,50354.0,0.046689397264570005,-0.041804305532700314,0.24310188563382967,0.002327794145012983,-0.002112780948717828,0.012326074888779046,19.487030160147697
1630,E,1557136265280855.0,0.86968994,9.013096263659287,4.78828278873634,158,1970-01-19 00:32:16.265280855,0.09188843,0.028549194,0.037338257,10.268848595924823,0.10321184758404718,169.03619384765625,63.13359451293945,60.307823181152344,19537384.0,50354.0,0.04514772093153,-0.04060492360670029,0.24119831812402964,0.00231218312482321,-0.0020748171620426892,0.012193226230011624,19.537384163122624
1630,E,1557136315634859.0,0.89012146,8.932179263659288,4.772596788736339,158,1970-01-19 00:32:16.315634859,0.08622742,0.0118255615,0.024032593,10.348716257757651,0.09029162414615395,169.06051635742188,63.073577880859375,60.32517623901367,19587738.0,50354.0,0.0443067716178,-0.04166099804870027,0.24071426512202967,0.0022521957589144814,-0.00207120910951802,0.012133113108386037,19.587738167028874
1630,E,1557136365988863.0,0.91033936,9.043934263659287,4.71368278873634,158,1970-01-19 00:32:16.365988863,0.06411743,0.029006958,0.033065796,10.281836688340816,0.0777547124445347,169.07998657226562,62.999088287353516,60.33906936645508,19638092.0,50354.0,0.045330202065140004,-0.040884589722700294,0.23883606092202966,0.0022567900864153808,-0.002078250263320552,0.012073638558811283,19.638092171167955
1630,E,1557136416342867.0,0.86428833,9.086292763659287,4.66157378873634,158,1970-01-19 00:32:16.416342867,0.05873108,-0.0020141602,0.026184082,10.266843324639781,0.06433508179415325,169.1156005859375,62.919960021972656,60.36758041381836,19688446.0,50354.0,0.044679801351130005,-0.03700447413320031,0.23604083485102967,0.00226618185601143,-0.00196101296070001,0.011955975604878316,19.688446175074205
1630,E,1557136466696871.0,0.8224945,9.069874263659287,4.63122418873634,158,1970-01-19 00:32:16.466696871,0.08378601,-0.005584717,0.03439331,10.292666552484881,0.09074240634040012,169.1647186279297,62.84141159057617,60.406776428222656,19738800.0,50354.0,0.042468131310910005,-0.0363513827532003,0.2339647746788297,0.0021941235006321816,-0.0018468804088289084,0.01183333123113327,19.738800179213285
1630,E,1557136517050875.0,0.8594513,9.089939263659288,4.67878578873634,158,1970-01-19 00:32:16.517050875,0.10795593,0.026000977,0.055282593,10.25476521829572,0.12404313248190356,169.1985321044922,62.76643753051758,60.430908203125,19789154.0,50354.0,0.0423463494066,-0.03625957482270029,0.23439812120282966,0.0021353741810247497,-0.0018281260788884494,0.011791972629612539,19.789154183119535
1630,E,1557136567404879.0,0.8846283,9.072926263659287,4.62647878873634,158,1970-01-19 00:32:16.567404879,0.106781006,0.0332489,0.06213379,10.29754189713734,0.12793858078525858,169.22608947753906,62.6873779296875,60.44944381713867,19839508.0,50354.0,0.0439106920892,-0.03618273461870029,0.23427864626702968,0.002171693533739757,-0.0018238800248061425,0.011799874974588648,19.839508187025785
1630,E,1557136617758883.0,0.85772705,9.115147263659287,4.73185578873634,158,1970-01-19 00:32:16.617758883,0.11425781,0.01725769,0.053863525,10.206631147092644,0.12749099707649095,169.25604248046875,62.62126922607422,60.46979904174805,19889862.0,50354.0,0.04386728064695,-0.0355480728027003,0.23561478965702964,0.002209986019578049,-0.0018059665384486028,0.011830507036260042,19.889862191164866
1630,E,1557136668112887.0,0.7854004,9.081822263659287,4.72877378873634,158,1970-01-19 00:32:16.668112887,0.13847351,0.040100098,0.048324585,10.231236376733417,0.15204669133773327,169.30892944335938,62.5593376159668,60.509700775146484,19940216.0,50354.0,0.04136901980865001,-0.0353240982107003,0.23819027087202968,0.0021459943365706416,-0.001784348649604387,0.011928990008940129,19.940216195071116
1630,E,1557136718466891.0,0.68026733,9.107289263659286,4.78788618873634,158,1970-01-19 00:32:16.718466891,0.19821167,0.0843811,0.06336975,10.17263523481859,0.22455235776197363,169.39114379882812,62.50430679321289,60.5727424621582,19990570.0,50354.0,0.03690111643821,-0.035521939076700315,0.23960094825282965,0.0019706072202871944,-0.0017836906807848854,0.012029349523906585,19.990570199210197
1630,E,1557136768820895.0,1.0624542,9.193989263659287,4.45030078873634,158,1970-01-19 00:32:16.768820895,0.18981934,0.15306091,0.08166504,10.29968621463968,0.2571540448180143,169.3749237060547,62.39253234863281,60.548763275146484,20040924.0,50354.0,0.04387649996081,-0.03269791051770033,0.23258983353182966,0.0020337380480781268,-0.001717571153238225,0.011888347312992369,20.040924203116447
1630,E,1557136819174898.0,1.2062988,9.060856263659288,4.38142278873634,158,1970-01-19 00:32:16.819174898,0.10333252,0.09753418,0.02281189,10.464078136734809,0.14391284961112713,169.3219451904297,62.28538131713867,60.49713897705078,20091278.0,50354.0,0.057120394281,-0.033866954158700294,0.22235630451002966,0.0025427988063260504,-0.0016759035979577387,0.011454178917479893,20.091278206091374
1630,E,1557136869528902.0,0.80255127,9.087132263659287,4.42910628873634,158,1970-01-19 00:32:16.869528902,0.06541443,0.021438599,-0.0104522705,10.378305201840417,0.06962694261500264,169.38482666015625,62.19728469848633,60.55021667480469,20141632.0,50354.0,0.05057681821239,-0.03655729284770029,0.22182269058352966,0.00271149271894608,-0.0017730712668801475,0.011183094559470542,20.141632209997624
1630,E,1557136919882906.0,0.8450775,9.246678263659287,4.4808947887363395,158,1970-01-19 00:32:16.919882906,0.06881714,0.0045318604,0.022644043,10.21882663796075,0.07258849219986965,169.42808532714844,62.1054801940918,60.58491516113281,20191986.0,50354.0,0.041482349542290006,-0.03187885235370029,0.22432709712752963,0.0023177736665595788,-0.0017230168277356625,0.01123271320520134,20.191986214136705
1630,E,1557136970236910.0,1.0712128,9.283024263659287,4.36921548873634,158,1970-01-19 00:32:16.970236910,0.06594849,0.039749146,0.016708374,10.267154311847491,0.0787931957895686,169.41085815429688,61.993675231933594,60.56657028198242,20242340.0,50354.0,0.048246440883100004,-0.026946879469700275,0.2228192264559297,0.002259101756540044,-0.001481055450117756,0.011257802988860754,20.242340218042955
1630,E,1557137020590914.0,1.1181641,9.216938263659287,4.13715978873634,158,1970-01-19 00:32:17.020590914,-0.0006866455,0.0345459,-0.0049591064,10.450792897939074,0.03490678193616809,169.39208984375,61.86261749267578,60.55033493041992,20292694.0,50354.0,0.055121942211300005,-0.027695643449700286,0.21416501036092966,0.0026025057811677093,-0.0013757347995417481,0.011001952130338069,20.292694222182035
1630,E,1557137070944918.0,1.1181641,9.269383263659288,4.18925338873634,158,1970-01-19 00:32:17.070944918,-0.09915161,-0.00050354004,-0.030410767,10.37895070852653,0.1037116679438349,169.36785888671875,61.73869705200195,60.53403854370117,20343048.0,50354.0,0.0563040350914,-0.02803908290670028,0.20963410456922968,0.0028053718305500784,-0.0014032332054750973,0.010669990316596621,20.343048226088285
1630,E,1557137121298922.0,0.9752655,9.250584263659286,4.25106678873634,158,1970-01-19 00:32:17.121298922,-0.15351868,-0.00680542,-0.050369263,10.3473312921323,0.1617138259564777,169.38087463378906,61.629844665527344,60.55340576171875,20393402.0,50354.0,0.0527062770392,-0.0271919775647003,0.21250194110822967,0.0027445526285121164,-0.0013905524094884527,0.010628119222021394,20.393402229994535
1630,E,1557137171652926.0,0.8993225,9.228123263659286,4.31767138873634,158,1970-01-19 00:32:17.171652926,-0.19198608,-0.017578125,-0.05227661,10.324192207817637,0.19975106844613905,169.4097442626953,61.535179138183594,60.58837890625,20443756.0,50354.0,0.047196502076000006,-0.02823078058470033,0.21573512109422968,0.002515252269783391,-0.00139537878192746,0.01078172451507132,20.443756234133616
1630,E,1557137222006930.0,0.8663788,9.221012263659286,4.31986878873634,158,1970-01-19 00:32:17.222006930,-0.22270203,-0.02722168,-0.06315613,10.326237785868939,0.23307919423389167,169.4462432861328,61.4449577331543,60.63160705566406,20494110.0,50354.0,0.0444550616301,-0.02897531482870033,0.21746734904822967,0.0023075114194284797,-0.0014402778642231885,0.010906738590776701,20.494110238039866
1630,E,1557137272360934.0,0.59521484,9.188862263659287,4.45210128873634,158,1970-01-19 00:32:17.272360934,-0.19911194,-0.04899597,-0.070129395,10.26546993030448,0.21671248641891985,169.55392456054688,61.381675720214844,60.736331939697266,20544464.0,50354.0,0.03679854307428,-0.02996378902570032,0.22085189064052968,0.0020457220056421753,-0.0014839098177422453,0.011035563497643895,20.544464242178947
1630,E,1557137322714938.0,0.54522705,9.172184263659288,4.65499738873634,158,1970-01-19 00:32:17.322714938,-0.13175964,-0.016220093,-0.037460327,10.173882313578826,0.13793828420277374,169.66412353515625,61.34428787231445,60.83964538574219,20594818.0,50354.0,0.02871290546453,-0.031193131581700288,0.22928942340272968,0.0016493817398616193,-0.0015397477901325251,0.011333207863667141,20.594818246085197
1630,E,1557137373068941.0,0.66218567,9.168156263659286,4.56568778873634,158,1970-01-19 00:32:17.373068941,-0.05845642,0.05303955,-0.021575928,10.229253939184341,0.08182828100650828,169.7451629638672,61.29132843017578,60.91404724121094,20645172.0,50354.0,0.030399030051440002,-0.0317144465437003,0.23214919071322968,0.001488261200485577,-0.0015838240944632106,0.011617639987597508,20.645172249060124
1630,E,1557137423422945.0,0.9576721,9.229939263659286,4.546995788736339,158,1970-01-19 00:32:17.423422945,-0.023986816,0.067871094,-0.026107788,10.209187018729475,0.07657329388780162,169.7426300048828,61.225955963134766,60.913753509521484,20695526.0,50354.0,0.040783159075289996,-0.03026034890870034,0.22943003443002968,0.0017921539756436812,-0.001560339425105091,0.011621180151431841,20.695526253199205
1630,E,1557137473776949.0,1.1138458,9.193012763659286,4.268965288736339,158,1970-01-19 00:32:17.473776949,-0.06788635,0.07836914,-0.05543518,10.400324717687047,0.11757269156693871,169.7111053466797,61.12915802001953,60.890777587890625,20745880.0,50354.0,0.0521546061683,-0.029634536808200333,0.22195945204752965,0.002339894115537865,-0.0015079735376944082,0.011364633101045511,20.745880257105455
1630,E,1557137524130953.0,1.1120453,9.202778263659287,4.28283548873634,158,1970-01-19 00:32:17.524130953,-0.13769531,0.039871216,-0.09059143,10.384592541750532,0.16957747329984502,169.67933654785156,61.03788757324219,60.87131881713867,20796234.0,50354.0,0.056041260224700004,-0.03031836930520032,0.21530868817442964,0.002724047328176561,-0.0015094343172170884,0.011009099966368268,20.796234261011705
1630,E,1557137574484957.0,0.75083923,9.152394263659287,4.42501678873634,158,1970-01-19 00:32:17.574484957,-0.16825867,-0.0056152344,-0.08734131,10.320766140047791,0.18966026289144475,169.74008178710938,60.978729248046875,60.93386459350586,20846588.0,50354.0,0.04690184381181,-0.031341021279700294,0.21923759678992963,0.0025917985303272125,-0.0015523984767560428,0.010940571816547675,20.846588265150785
1630,E,1557137624838961.0,0.5079346,9.123234263659286,4.47270078873634,158,1970-01-19 00:32:17.624838961,-0.1007843,-0.034973145,-0.04977417,10.30639271232875,0.11772027861362681,169.86471557617188,60.9349479675293,61.04826736450195,20896942.0,50354.0,0.03169214871791,-0.0333437005677003,0.22401783544802967,0.0019787609499207605,-0.001628567241952005,0.011159842017455101,20.896942269057035
1630,E,1557137675192965.0,0.6118622,9.132694763659288,4.56864778873634,158,1970-01-19 00:32:17.675192965,-0.009643555,-0.030929565,-0.004989624,10.255136925308461,0.032780062412823836,169.95297241210938,60.9000244140625,61.12582015991211,20947296.0,50354.0,0.0281931240336,-0.033839674879200296,0.22763403313502964,0.0015077315120647673,-0.0016914758436266163,0.011371239095315684,20.947296273196116
1630,E,1557137725546969.0,0.75660706,9.182911263659287,4.5919787887363395,158,1970-01-19 00:32:17.725546969,0.056427002,0.0032043457,0.03262329,10.209822911470837,0.06525759294133682,169.9974822998047,60.86005401611328,61.16145706176758,20997650.0,50354.0,0.03445395055902,-0.03233718705020028,0.2306370953410297,0.001577265397018394,-0.0016661348527965184,0.011537892201641746,20.997650277102366
1630,E,1557137775900973.0,0.81121826,9.165837263659286,4.51266338873634,158,1970-01-19 00:32:17.775900973,0.093063354,0.004638672,0.048233032,10.268905378314281,0.10492249764262154,170.02952575683594,60.81157684326172,61.18424987792969,21048004.0,50354.0,0.03947313808164,-0.03150275832770032,0.22922757610222969,0.0018612623107058968,-0.0016072983047794034,0.011578012832926941,21.048004281008616
1630,E,1557137826254977.0,0.88430786,9.190815263659287,4.430159188736339,158,1970-01-19 00:32:17.826254977,0.10720825,0.008132935,0.052490234,10.295932177699722,0.11964521789503951,170.04458618164062,60.751121520996094,61.19148254394531,21098358.0,50354.0,0.04268826112324,-0.03130375931970032,0.22515344403302964,0.0020685775477812638,-0.001581279694808606,0.011439950943945424,21.098358285147697
1630,E,1557137876608980.0,1.0278778,9.215519263659287,4.3723587887363395,158,1970-01-19 00:32:17.876608980,0.084198,0.008575439,0.042175293,10.318239644702086,0.09456001637943263,170.0216827392578,60.68077850341797,61.166847229003906,21148712.0,50354.0,0.04814309836182,-0.030052915605700302,0.22162099511882966,0.0022868611377553556,-0.0015447770045968116,0.011248440054526363,21.148712288122624
1630,E,1557137926962984.0,1.0198975,9.193455263659287,4.15072478873634,158,1970-01-19 00:32:17.926962984,0.048980713,-0.0053100586,0.01826477,10.45314445747935,0.05254435070944072,170.01280212402344,60.58954620361328,61.15652084350586,21199066.0,50354.0,0.05155683872809999,-0.029986448325700313,0.21458567523002967,0.002510145316112916,-0.0015116110657008733,0.010982375339373232,21.199066292028874
1630,E,1557137977316988.0,0.8799286,9.154270263659287,4.39286678873634,158,1970-01-19 00:32:17.977316988,0.010986328,-0.02017212,0.020446777,10.345964699516617,0.030751983966985173,170.02874755859375,60.53471374511719,61.16935348510742,21249420.0,50354.0,0.0478319217197,-0.031528514398700316,0.21510200514602965,0.0025023108217942605,-0.0015487622165122348,0.010818246728828047,21.249420296167955
1630,E,1557138027670992.0,0.8726349,9.285755263659286,4.346388388736339,158,1970-01-19 00:32:18.027670992,-0.0029144287,-0.02331543,-0.0049743652,10.258028224166162,0.0240176493411669,170.0501708984375,60.466732025146484,61.18815612792969,21299774.0,50354.0,0.0441242912395,-0.029204677298700323,0.22002822760322963,0.0023151815736737785,-0.001529079567365456,0.010955273869928102,21.299774300074205
1630,E,1557138078024996.0,0.9174957,9.240650263659287,4.34101728873634,158,1970-01-19 00:32:18.078024996,-0.013748169,-0.005493164,-0.009994507,10.302925508695079,0.017862731363274372,170.05886840820312,60.40139389038086,61.196533203125,21350128.0,50354.0,0.0450701181162,-0.02702988803870032,0.21872281274172964,0.002245647644348459,-0.001415817651499736,0.01104643494276504,21.350128304213285
1630,E,1557138128379000.0,0.9452667,9.185185263659287,4.3679490887363395,158,1970-01-19 00:32:18.128379000,-0.021484375,-0.016326904,-0.00920105,10.338379067911477,0.028509743675949474,170.05770874023438,60.34485626220703,61.19661331176758,21400482.0,50354.0,0.0468987689448,-0.029561938928700304,0.21926564648562966,0.0023155006695347972,-0.0014248124275582457,0.011027235437967225,21.400482308119535
1630,E,1557138178733004.0,0.88571167,9.270237263659286,4.46003578873634,158,1970-01-19 00:32:18.178733004,-0.030029297,-0.02923584,-0.015213013,10.212972165704468,0.044586194986318106,170.06857299804688,60.29613494873047,61.20759582519531,21450836.0,50354.0,0.04609854242149,-0.02881702702970032,0.22226217526012967,0.002341393308269083,-0.0014698072259346528,0.011116345968092984,21.450836312025785
1630,E,1557138229087008.0,0.75497437,9.217945263659287,4.5035233887363395,158,1970-01-19 00:32:18.229087008,-0.017181396,-0.01966858,-0.008392334,10.224679588409382,0.02743145416657258,170.1135711669922,60.259735107421875,61.24752426147461,21501190.0,50354.0,0.04130755242908,-0.027992228509700328,0.22567552941122965,0.002200623250052801,-0.0014302866267154903,0.011277727590510813,21.501190316164866
1630,E,1557138279441012.0,0.9259949,9.070729263659286,4.51904178873634,158,1970-01-19 00:32:18.279441012,-0.010391235,-0.008895874,0.010482788,10.356900354359214,0.01723378029632631,170.10800170898438,60.23243713378906,61.24284744262695,21551544.0,50354.0,0.042321763310789996,-0.03301524142570032,0.22716112347322964,0.002105535282382707,-0.0015359850705635824,0.011401068409672033,21.551544320071116
1630,E,1557138329795016.0,0.9066467,9.147633263659287,4.37389978873634,158,1970-01-19 00:32:18.329795016,-0.025985718,-0.011688232,-0.0046539307,10.363744049781474,0.028870943493792347,170.1152801513672,60.184059143066406,61.2503662109375,21601898.0,50354.0,0.046140417563200004,-0.03478548664970031,0.22389759009602966,0.002227212327864446,-0.0017070189307543619,0.011356305231533243,21.601898324210197
1630,E,1557138380149020.0,0.9489136,9.167668263659287,4.47376878873634,158,1970-01-19 00:32:18.380149020,-0.05593872,-0.0064086914,-0.014419556,10.298997246856363,0.05812172843211022,170.10540771484375,60.14601516723633,61.24454116821289,21652252.0,50354.0,0.046717441673100005,-0.03234485344670029,0.22275775177502968,0.0023378823219923255,-0.0016901405726070778,0.011245441542287663,21.652252328116447
1630,E,1557138430503023.0,0.79422,9.118473263659286,4.59873828873634,158,1970-01-19 00:32:18.430503023,-0.07926941,-0.01586914,-0.036590576,10.264735408858247,0.08873747358415991,170.13304138183594,60.13098907470703,61.27277755737305,21702606.0,50354.0,0.04388687464720001,-0.03307901476670031,0.22841851068952965,0.0022811448719961937,-0.001647176730008787,0.01135926476007021,21.702606331091374
1630,E,1557138480857027.0,0.7542114,9.165074263659287,4.404249788736339,158,1970-01-19 00:32:18.480857027,-0.06581116,0.0009765625,-0.027359009,10.320927531646511,0.07127817217300178,170.18016052246094,60.09004592895508,61.31715393066406,21752960.0,50354.0,0.0389848573578,-0.03314432390470032,0.22666823082652965,0.0020864615966898854,-0.0016673049977298535,0.011457718891149826,21.752960334997624
1630,E,1557138531211031.0,0.8444214,9.115406263659287,4.49098078873634,158,1970-01-19 00:32:18.531211031,-0.06036377,-0.0031738281,-0.020889282,10.325826610982192,0.0639548279326649,170.1968231201172,60.06216049194336,61.334720611572266,21803314.0,50354.0,0.0402487780056,-0.03322154176370031,0.22395522024902967,0.001994865237544322,-0.001670893399933323,0.011345346627729359,21.803314339136705
1630,E,1557138581565035.0,0.86813354,9.115711263659287,4.519728188736339,158,1970-01-19 00:32:18.581565035,-0.0549469,-0.015991211,-0.014434814,10.312927567616185,0.05901901815577007,170.2047576904297,60.03841018676758,61.34425354003906,21853668.0,50354.0,0.04311699572438,-0.0344643540147003,0.22686261992582962,0.0020989000851997066,-0.0017041277980127925,0.011350240762082433,21.853668343042955
1630,E,1557138631919039.0,0.85676575,9.158558263659287,4.54318078873634,158,1970-01-19 00:32:18.631919039,-0.04307556,-0.014953613,-0.010131836,10.263327529210741,0.04670940496086698,170.21475219726562,60.01508712768555,61.354976654052734,21904022.0,50354.0,0.04342778942433,-0.033377916110700276,0.22817685932582965,0.002178938055689072,-0.0017080648349472104,0.011456528969119027,21.904022347182035
1630,E,1557138682273043.0,0.8858032,9.178776263659287,4.53124878873634,158,1970-01-19 00:32:18.682273043,-0.029281616,-0.016052246,-0.005859375,10.25452363585692,0.033903095914777415,170.21737670898438,59.98889923095703,61.358577728271484,21954376.0,50354.0,0.04387265845415,-0.03179012860570028,0.22846691347202966,0.002197963376236491,-0.001640735861824817,0.011496920267731704,21.954376351088285
1630,E,1557138732627047.0,0.8221741,9.135929263659287,4.52404648873634,158,1970-01-19 00:32:18.732627047,-0.024215698,-0.01890564,-0.002822876,10.289622449229169,0.030851124490821728,170.23764038085938,59.96701431274414,61.377174377441406,22004730.0,50354.0,0.0430017444821,-0.03235985893870028,0.22798516920092968,0.0021872368427259662,-0.0016151042364053734,0.011492094085457098,22.004730354994535
1630,E,1557138782981051.0,0.87091064,9.034458263659287,4.59658678873634,158,1970-01-19 00:32:18.782981051,-0.02973938,-0.04472351,-0.0059661865,10.344456760279451,0.05403904561386407,170.240234375,59.96172332763672,61.380672454833984,22055084.0,50354.0,0.04262679449898,-0.03599335322470029,0.22963018402692967,0.002155869725926651,-0.0017209288226379361,0.011521381748217815,22.055084359133616
1630,E,1557138833335055.0,0.7575836,9.287037263659286,4.61576708873634,158,1970-01-19 00:32:18.833335055,-0.03842163,-0.03742981,-0.008270264,10.10839649252467,0.05427347045401368,170.27337646484375,59.9427604675293,61.411048889160156,22105438.0,50354.0,0.04100059948048,-0.032188907108700315,0.23193943357312966,0.0021054868982208646,-0.0017166247684140272,0.011620938262316693,22.105438363039866
1630,E,1557138883689059.0,0.8904419,9.231526263659287,4.530729788736339,158,1970-01-19 00:32:18.883689059,-0.024627686,0.05609131,-0.037124634,10.210044236242496,0.07163097392095581,170.2771759033203,59.911128997802734,61.41656494140625,22155792.0,50354.0,0.0414923380135,-0.02722732607270032,0.23028135188412963,0.0020769246872859347,-0.001495922502808124,0.011637332715457418,22.155792367178947
1630,E,1557138934043063.0,0.86460876,9.094166263659288,4.51557778873634,158,1970-01-19 00:32:18.934043063,-0.016708374,0.045959473,-0.040298462,10.333221154231325,0.06336725463302832,170.28915405273438,59.88943099975586,61.4288330078125,22206146.0,50354.0,0.04418691046682,-0.03208323923970028,0.22775888587802964,0.002157146438989017,-0.0014932621028703101,0.011532079066137886,22.206146371085197
1630,E,1557138984397066.0,0.90457153,9.149159263659287,4.50459148873634,158,1970-01-19 00:32:18.984397066,-0.030853271,0.0440979,-0.029693604,10.295090053996837,0.061467546187547274,170.2887725830078,59.86225891113281,61.43077850341797,22256500.0,50354.0,0.04454265216133,-0.034156993198700275,0.22710080189892964,0.002233944198288933,-0.0016677303321016106,0.011452002359160504,22.256500374060124
1630,E,1557139034751070.0,0.84339905,9.054661263659288,4.6321244887363395,158,1970-01-19 00:32:19.034751070,-0.021148682,0.017120361,-0.03302002,10.307055695471533,0.042786624450964164,170.29954528808594,59.86008834838867,61.441890716552734,22306854.0,50354.0,0.04400865529266,-0.035151610583700275,0.23003509816482967,0.0022294562677691067,-0.001744982717429499,0.01150931055590527,22.306854378199205
1630,E,1557139085105074.0,0.8271637,9.098515263659287,4.602751288736339,158,1970-01-19 00:32:19.085105074,-0.024291992,0.015777588,-0.023666382,10.282524660938282,0.03740495682921893,170.31488037109375,59.8516960144043,61.45683670043945,22357208.0,50354.0,0.04205975835675,-0.036426674571700284,0.23250646744942965,0.002166944450451196,-0.00180212648535752,0.011645408997470207,22.357208382105455
1630,E,1557139135459078.0,0.7940674,9.073643263659287,4.51797348873634,158,1970-01-19 00:32:19.135459078,-0.01399231,-0.0004272461,-0.017471313,10.343975151303857,0.02238781044028277,170.34243774414062,59.83674240112305,61.481719970703125,22407562.0,50354.0,0.040817735404700003,-0.03594876475770029,0.22963248772242967,0.002086606660432027,-0.0018221964359963184,0.011635272474361903,22.407562386011705
1630,E,1557139185813082.0,0.81607056,9.133747263659288,4.5227494887363395,158,1970-01-19 00:32:19.185813082,-0.009399414,-0.006591797,-0.0037994385,10.291666928338188,0.012092828624762995,170.36215209960938,59.81816482543945,61.499237060546875,22457916.0,50354.0,0.040538443418919996,-0.03506172869370028,0.22761828240382967,0.002048304514242281,-0.001787831193625912,0.011512202639468833,22.457916390150785
1630,E,1557139236167086.0,0.81159973,9.102543263659287,4.50421008873634,158,1970-01-19 00:32:19.236167086,-0.0124053955,-0.025161743,-0.0035858154,10.327496674382857,0.028281888557738614,170.38291931152344,59.801109313964844,61.51771545410156,22508270.0,50354.0,0.04097985489133,-0.03433411339370028,0.22727176128202967,0.0020523861965571644,-0.001747179116234484,0.011452766629878881,22.508270394057035
1630,E,1557139286521090.0,0.7523346,9.101094263659286,4.678648488736339,158,1970-01-19 00:32:19.286521090,-0.011886597,-0.07080078,-0.001083374,10.236753823160692,0.07179982824542608,170.41067504882812,59.808616638183594,61.541908264160156,22558624.0,50354.0,0.03937517462641,-0.03515621797470032,0.23119683040502964,0.00202309857816814,-0.0017495580728622221,0.011542863732905093,22.558624398196116
1630,E,1557139336875094.0,0.76142883,9.140080263659287,4.582746988736339,158,1970-01-19 00:32:19.336875094,0.0016021729,-0.0053863525,0.0045318604,10.251683100499703,0.007219245801386653,170.44076538085938,59.79835891723633,61.56772994995117,22608978.0,50354.0,0.038112021877110006,-0.034211148925700305,0.23317415393632965,0.0019508951463691234,-0.0017464621964513867,0.011691468272762403,22.608978402102366
1630,E,1557139387229098.0,0.7785034,8.989216263659287,4.5208877887363395,158,1970-01-19 00:32:19.387229098,0.0110321045,-0.034179688,0.011413574,10.413977502866835,0.03768591345489373,170.46728515625,59.79267501831055,61.589752197265625,22659332.0,50354.0,0.03877087375471,-0.03702790133170028,0.2292022127924296,0.0019356806633223323,-0.0017935855683305745,0.011641249785129973,22.659332406008616
1630,E,1557139437583102.0,0.762619,9.057972263659288,4.781050288736339,158,1970-01-19 00:32:19.437583102,0.01828003,-0.046432495,0.0135650635,10.224727706195516,0.051712155596967305,170.48605346679688,59.81414031982422,61.60463333129883,22709686.0,50354.0,0.0388008386648,-0.03909513444770028,0.23419489497652965,0.0019530230035860034,-0.001916549671817968,0.011666948982299087,22.709686410147697
1630,E,1557139487937105.0,0.841095,9.046894263659286,4.60241578873634,158,1970-01-19 00:32:19.487937105,0.02178955,0.01927185,0.014144897,10.328349985824744,0.03234604771476121,170.4919891357422,59.809722900390625,61.60856246948242,22760040.0,50354.0,0.040376707378000004,-0.037642975441700297,0.23624752543252966,0.0019934530767195756,-0.0019320353926854386,0.011844328818638887,22.760040413122624
1630,E,1557139538291109.0,0.76109314,9.018345263659286,4.63201778873634,158,1970-01-19 00:32:19.538291109,0.013336182,-0.047439575,0.0059661865,10.332122094921598,0.049638315925004256,170.5175323486328,59.81586837768555,61.62971496582031,22810394.0,50354.0,0.040338290800780004,-0.03864066442070033,0.23249533418002966,0.0020321615091471444,-0.0019205932008156607,0.011801538976465407,22.810394417028874
1630,E,1557139588645113.0,0.7785797,9.174092263659286,4.71311808873634,158,1970-01-19 00:32:19.588645113,0.007232666,-0.02796936,0.0076904297,10.158474335172324,0.029895472320199224,170.5341033935547,59.81929397583008,61.643428802490234,22860748.0,50354.0,0.03876434309268,-0.03543820037470033,0.23528248598712964,0.0019915670135356427,-0.0018650835789538025,0.01177724217834857,22.860748421167955
1630,E,1557139638999117.0,0.7953186,9.057301263659287,4.57697918873634,158,1970-01-19 00:32:19.638999117,0.009887695,0.022491455,0.01373291,10.328449424362047,0.028146489612350417,170.55194091796875,59.8117790222168,61.65816879272461,22911102.0,50354.0,0.0396260374991,-0.034457405162700315,0.23389677915492965,0.001973634612159245,-0.0017597616606151363,0.011812526358481628,22.911102425074205
1630,E,1557139689353121.0,0.7791443,9.043110263659287,4.553648488736339,158,1970-01-19 00:32:19.689353121,0.014572144,0.0050201416,0.022369385,10.35114434100097,0.027165025082245213,170.57398986816406,59.803794860839844,61.676063537597656,22961456.0,50354.0,0.0396402524333,-0.037755138976700305,0.22988181303572966,0.001995687381628035,-0.0018180952237976894,0.01167655361558423,22.961456429213285
1630,E,1557139739707125.0,0.7494507,9.059391263659286,4.57789478873634,158,1970-01-19 00:32:19.739707125,0.014556885,0.002319336,0.024871826,10.322757578258026,0.028911761429535852,170.60226440429688,59.79841232299805,61.699275970458984,23011810.0,50354.0,0.038485436315,-0.03770251904670033,0.22990486509692967,0.001966970465615949,-0.0018997974560551576,0.011576049195345965,23.011810433119535
1630,E,1557139790062066.0,0.8045044,9.052555263659286,4.6669755887363396,158,1970-01-19 00:32:19.790062066,0.009933472,-0.005508423,0.023223877,10.288510354536744,0.025852757161139352,170.61068725585938,59.80352020263672,61.70552444458008,23062165.0,50355.0,0.03912470453025,-0.037465466308436675,0.23276272392881836,0.0019540293211312816,-0.0018925419512789616,0.011648813222695769,23.062165374169126
1630,E,1557139840416070.0,0.7962494,9.106983263659288,4.625395388736339,158,1970-01-19 00:32:19.840416070,0.007293701,-0.022125244,0.018920898,10.261460186934086,0.030012078859408275,170.623046875,59.80076217651367,61.71533966064453,23112519.0,50354.0,0.040302178422600005,-0.0362664984977003,0.23395402409982965,0.0019997306321039047,-0.0018563496779241107,0.011750527565117273,23.112519378075376
1630,E,1557139890770074.0,0.85043335,9.112995263659286,4.640501588736339,158,1970-01-19 00:32:19.890770074,-0.0019836426,-0.026428223,0.013595581,10.253087534022924,0.029786332967148284,170.61952209472656,59.79862976074219,61.711917877197266,23162873.0,50354.0,0.04145853159675,-0.0347448006177003,0.23328748820182965,0.0020584893961571754,-0.0017878514778284411,0.011763739555218878,23.162873382214457
1630,E,1557139941124078.0,0.8451233,9.070667763659287,4.637632788736339,158,1970-01-19 00:32:19.941124078,-0.008026123,-0.029037476,0.0049743652,10.290629993304401,0.030534209863768803,170.6180419921875,59.79949188232422,61.710750579833984,23213227.0,50354.0,0.04268902977705,-0.03565911596120032,0.23359558922162965,0.002118583152708163,-0.001772559407706981,0.011754715240290436,23.213227386120707
1630,E,1557139991478082.0,0.7772064,9.073277263659287,4.632353388736339,158,1970-01-19 00:32:19.991478082,-0.007156372,-0.022323608,0.0024261475,10.285643907221536,0.023567845171585042,170.63575744628906,59.80054473876953,61.72621154785156,23263581.0,50354.0,0.0408453948569,-0.03665909604720029,0.23339044199022962,0.002103146209008959,-0.0018207556237355021,0.011757307307820982,23.263581390026957
1630,E,1557140041832085.0,0.84872437,9.104954263659288,4.63171248873634,158,1970-01-19 00:32:20.041832085,-0.0017242432,-0.008911133,0.0046844482,10.264265366668157,0.010213978700531859,170.6337890625,59.797183990478516,61.724430084228516,23313935.0,50354.0,0.040936058996290006,-0.03579586483670028,0.23324138659712962,0.0020590116636617648,-0.001824198550173965,0.011748389548343945,23.313935393001884
1630,E,1557140092186089.0,0.8736572,9.073887263659287,4.64579638873634,158,1970-01-19 00:32:20.092186089,0.003753662,-0.00032043457,0.0011749268,10.286179626770135,0.0039462779564107394,170.62510681152344,59.79688262939453,61.71674728393555,23364289.0,50354.0,0.04336440078789,-0.03578050686670028,0.23357984100812967,0.0021224326759863,-0.001802078310376516,0.011753158047417615,23.364289397140965
1630,E,1557140142540093.0,0.8474121,9.080921263659286,4.62475448873634,158,1970-01-19 00:32:20.142540093,-0.0035247803,0.0206604,0.002960205,10.288366892805666,0.02116693218124188,170.6245574951172,59.79306411743164,61.7164192199707,23414643.0,50354.0,0.0433313617661,-0.036385585707700306,0.23340465944212965,0.0021827392138218066,-0.0018169257127456837,0.01175726876783618,23.414643401047215
1630,E,1557140192894097.0,0.85920715,9.115574263659287,4.6221604887363394,158,1970-01-19 00:32:20.192894097,-0.003189087,0.019424438,0.00047302246,10.260743626362263,0.019690170587302627,170.62110900878906,59.78643798828125,61.713653564453125,23464997.0,50354.0,0.042967552857250006,-0.035336032108700316,0.23280957838782965,0.0021727477734720833,-0.0018057351717635187,0.011737875865844885,23.464997405186296
1630,E,1557140243248101.0,0.84181213,9.098606263659287,4.65727078873634,158,1970-01-19 00:32:20.243248101,-0.0055999756,0.02708435,0.0009918213,10.256465002749492,0.02767499685879348,170.62086486816406,59.78529739379883,61.713768005371094,23515351.0,50354.0,0.042826562412560006,-0.03489077686370031,0.23362824127292964,0.002160038440148007,-0.0017681003694981308,0.011743504985598936,23.515351409092546
1630,E,1557140293602105.0,0.8592529,9.087147263659286,4.6327347887363395,158,1970-01-19 00:32:20.293602105,-0.009613037,0.032424927,0.0028839111,10.280001842201752,0.03394264742991332,170.61666870117188,59.78144454956055,61.71059799194336,23565705.0,50354.0,0.042827714260310006,-0.03560648344270033,0.2338944704240297,0.0021565177237928483,-0.0017749095227342488,0.011770819312394347,23.565705412998796
1630,E,1557140343956109.0,0.8712311,9.134892263659287,4.62692118873634,158,1970-01-19 00:32:20.343956109,-0.016342163,0.016067505,0.0028686523,10.242726388903327,0.023096756795314123,170.6090087890625,59.774234771728516,61.70469665527344,23616059.0,50354.0,0.043568395668000005,-0.034692910820700314,0.23313035854482966,0.0021751948596650614,-0.0017699278493696383,0.011758284118948971,23.616059417137876
1630,E,1557140394310113.0,0.8714447,9.093052263659287,4.64845138873634,158,1970-01-19 00:32:20.394310113,-0.021362305,0.024673462,-0.00035095215,10.268116111383005,0.03263818269129056,170.60064697265625,59.772300720214844,61.698509216308594,23666413.0,50354.0,0.0438753486166,-0.03454424063570031,0.23352605538302967,0.0022015711498533743,-0.0017431837622177986,0.011749008533461716,23.666413421044126
1630,E,1557140444664117.0,0.8493347,9.076527263659287,4.5506577887363395,158,1970-01-19 00:32:20.444664117,-0.0209198,0.027282715,-0.0015869141,10.329402991893776,0.03441660741810563,170.6031036376953,59.76029968261719,61.70167922973633,23716767.0,50354.0,0.04332406295380001,-0.03601369624070032,0.23160597176122963,0.0021954195851079613,-0.0017764371767371389,0.011710629047411016,23.716767425183207
1630,E,1557140495018121.0,0.844574,9.105061263659287,4.57067728873634,158,1970-01-19 00:32:20.495018121,-0.022003174,0.02003479,0.0024261475,10.294392046743715,0.029856635244282507,170.60543823242188,59.74940490722656,61.70468521118164,23767121.0,50354.0,0.04264753933990001,-0.035711345647700295,0.22964785324552967,0.0021645070309484855,-0.0018058213796242626,0.011612987552195178,23.767121429089457
1630,E,1557140545372125.0,0.8241577,9.127751263659286,4.598555088736339,158,1970-01-19 00:32:20.545372125,-0.015380859,0.0256958,0.0041503906,10.259196143416023,0.030233602222534604,170.61228942871094,59.74055480957031,61.71126174926758,23817475.0,50354.0,0.0420136580109,-0.034421678999700306,0.23085376356762963,0.0021315149657010917,-0.0017657391615476048,0.01159404920650491,23.817475432995707
1630,E,1557140595726128.0,0.8501892,9.118183263659287,4.584181388736339,158,1970-01-19 00:32:20.595726128,-0.010772705,0.018478394,0.0029296875,10.276774248757478,0.021589008469216856,170.61273193359375,59.730751037597656,61.712120056152344,23867829.0,50354.0,0.0421550319013,-0.03409130640570033,0.23119375629332964,0.0021191151059194594,-0.0017249514335517717,0.011632970407539371,23.867829436203465
1630,E,1557140646080132.0,0.8397827,9.129109263659288,4.5797410887363394,158,1970-01-19 00:32:20.646080132,-0.0050811768,0.017059326,0.0024261475,10.268750310814445,0.017964552678508043,170.6165008544922,59.72018051147461,61.71561050415039,23918183.0,50354.0,0.0425484225263,-0.03405711603970029,0.2307200762153296,0.0021325788721236853,-0.0017157728319078516,0.011629604561070515,23.918183440109715
1630,E,1557140696434136.0,0.8373718,9.107762263659287,4.54064798873634,158,1970-01-19 00:32:20.696434136,-0.0018463135,0.02394104,-0.00091552734,10.30661946616497,0.024029574697280218,170.6231231689453,59.706485748291016,61.72151184082031,23968537.0,50354.0,0.0422257188465,-0.034319485556700266,0.2296240358035297,0.002134358557342986,-0.0017215176983925767,0.01159008370829882,23.968537444015965
1630,E,1557140746788140.0,0.8698578,9.096699263659287,4.53376628873634,158,1970-01-19 00:32:20.746788140,-0.0058135986,0.022460938,-0.0029754639,10.322287993085695,0.023391131865345232,170.6210174560547,59.69258499145508,61.72010803222656,24018891.0,50354.0,0.0429829196392,-0.03513547212670028,0.22846652826392969,0.002145297891154469,-0.0017486674695949755,0.011533346131526427,24.018891448155046
1630,E,1557140797142144.0,0.87046814,9.102635263659288,4.583693088736339,158,1970-01-19 00:32:20.797142144,-0.010055542,0.02279663,-0.0066070557,10.2920985161392,0.02577699457449542,170.61663818359375,59.68449783325195,61.717018127441406,24069245.0,50354.0,0.04381618619138,-0.03526455460570028,0.22955027474662965,0.002185341087496513,-0.001772461473041649,0.011531489049396854,24.069245452061296
1630,E,1557140847496148.0,0.86587524,9.127339263659287,4.57830678873634,158,1970-01-19 00:32:20.847496148,-0.014083862,0.022109985,-0.0077056885,10.27316112566478,0.02732369376190381,170.61373901367188,59.67436218261719,61.71541213989258,24119599.0,50354.0,0.043715917278260005,-0.034493131325700276,0.23067167091512966,0.0022037957690551266,-0.0017562892586948718,0.011587007925926115,24.119599456200376
1630,E,1557140897850152.0,0.8484497,9.113209263659288,4.522932788736339,158,1970-01-19 00:32:20.897850152,-0.013748169,0.022583008,-0.007369995,10.311811790449392,0.02744669793400747,170.61814880371094,59.65925979614258,61.72007751464844,24169953.0,50354.0,0.043161559014380006,-0.034226909727700275,0.22914190884202965,0.0021873142206197977,-0.0017301644736014655,0.011576726497546,24.169953460106626
1630,E,1557140948204156.0,0.86920166,9.135380263659288,4.46809248873634,158,1970-01-19 00:32:20.948204156,-0.016967773,0.029937744,-0.008071899,10.322466276653376,0.035345853927374084,170.61924743652344,59.635765075683594,61.72209930419922,24220307.0,50354.0,0.04324530829072001,-0.03402446147070026,0.22636704341092967,0.002175465698140503,-0.0017183647726621305,0.011468348890872757,24.220307464012876
1630,E,1557140998558160.0,0.87361145,9.154072263659288,4.47386028873634,158,1970-01-19 00:32:20.998558160,-0.0211792,0.026916504,-0.00843811,10.30390579174336,0.03527404712524657,170.61866760253906,59.612239837646484,61.72282409667969,24270661.0,50354.0,0.04387880567047,-0.032995653719700264,0.22513154507842964,0.002193523817200881,-0.001687365440148714,0.0113673799623966,24.270661468151957
1630,E,1557141048912164.0,0.82336426,9.152439263659288,4.46414048873634,158,1970-01-19 00:32:21.048912164,-0.018661499,0.011856079,-0.0076293945,10.30614387139026,0.02338858299722051,170.63197326660156,59.589996337890625,61.7353515625,24321015.0,50354.0,0.042724757450669996,-0.03256615927670028,0.22503204557442968,0.0021804179087009418,-0.0016506497658103766,0.01133376872186704,24.321015472058207
1630,E,1557141099266167.0,0.84664917,9.153767263659287,4.4861893887363395,158,1970-01-19 00:32:21.099266167,-0.018112183,-0.0012817383,-0.005630493,10.295608962003922,0.01901043075572526,170.6373291015625,59.570960998535156,61.740875244140625,24371369.0,50354.0,0.042045928127110006,-0.032573838261700294,0.22534245532512967,0.0021342715507917673,-0.0016400297180243115,0.011339078809148206,24.371369475033134
1630,E,1557141149620171.0,0.8495636,9.133183263659287,4.47436378873634,158,1970-01-19 00:32:21.149620171,-0.020462036,-0.010955811,-0.0066070557,10.319503975598098,0.02413250705906702,170.64210510253906,59.55293655395508,61.745994567871094,24421723.0,50354.0,0.04270554891029,-0.03305864657370031,0.22559984734922967,0.00213378793737062,-0.001652429070700881,0.011353374354432346,24.421723479172215
1630,E,1557141199974175.0,0.82806396,9.161259263659288,4.4739060887363395,158,1970-01-19 00:32:21.199974175,-0.018569946,-0.01828003,-0.00390625,10.293975075838166,0.026348836412758647,170.6523895263672,59.5340690612793,61.755699157714844,24472077.0,50354.0,0.04223762907812,-0.03287002048970028,0.22529059070512966,0.0021386143922141987,-0.0016598860506552367,0.011352068558894606,24.472077483078465
1630,E,1557141250328179.0,0.8306427,9.151386763659287,4.47109848873634,158,1970-01-19 00:32:21.250328179,-0.013214111,-0.018585205,0.0015106201,10.304062452671879,0.022853983186719773,170.66160583496094,59.51595687866211,61.76411819458008,24522431.0,50354.0,0.04176125757882,-0.03241171097020028,0.2252083802470297,0.0021148399693617786,-0.0016435981529659164,0.011342212591662517,24.522431486984715
1630,E,1557141300682183.0,0.8191376,9.096684263659286,4.522474788736339,158,1970-01-19 00:32:21.300682183,-0.0007324219,-0.02330017,0.0064697266,10.323861316967008,0.02419280318911488,170.6715545654297,59.508636474609375,61.77243423461914,24572785.0,50354.0,0.0415365186131,-0.03403751574520031,0.22643119440692966,0.00209718811118397,-0.0016729921810136406,0.011370929571062734,24.572785491123796
1630,E,1557141351036187.0,0.8337555,9.128788263659287,4.43714778873634,158,1970-01-19 00:32:21.351036187,0.00045776367,-0.027999878,0.0033111572,10.341039751538394,0.028198696381137332,170.6813201904297,59.48920440673828,61.780635833740234,24623139.0,50354.0,0.0416148895787,-0.034606478179700334,0.22557641763302966,0.002093503004044949,-0.0017282498350472235,0.011380195648330057,24.623139495030046
1630,E,1557141401390191.0,0.87397766,9.161915263659287,4.42812978873634,158,1970-01-19 00:32:21.401390191,-0.008453369,-0.0393219,0.0022888184,10.32073091621805,0.04028535660420967,170.67990112304688,59.46662139892578,61.77957534790039,24673493.0,50354.0,0.04299559776932001,-0.032964157292700316,0.22320109356802964,0.0021302382399611,-0.0017012258892886312,0.01129887139950907,24.673493499169126
1630,E,1557141451744195.0,0.8844757,9.106282263659287,4.64317178873634,158,1970-01-19 00:32:21.451744195,0.00064086914,-0.040908813,0.014953613,10.260431475679738,0.04356090260861616,170.6654510498047,59.47365188598633,61.766536712646484,24723847.0,50354.0,0.04427258024472,-0.033530790854700315,0.22838815981602967,0.002197150917859485,-0.0016741433095071058,0.011369662632450463,24.723847503075376
1630,E,1557141502098199.0,0.90190125,9.159275263659287,4.616560488736339,158,1970-01-19 00:32:21.502098199,0.0037231445,0.0011138916,0.013580322,10.229572641369982,0.014125427607266082,170.64865112304688,59.47123336791992,61.75157928466797,24774201.0,50354.0,0.04497561247015,-0.033597258134700304,0.23313227954992966,0.0022470017479822822,-0.0016900828894061393,0.011619700101916758,24.774201507214457
1630,E,1557141552452203.0,0.8821869,9.117817263659287,4.57189798873634,158,1970-01-19 00:32:21.552452203,-0.0013122559,0.005065918,0.006881714,10.285961676031175,0.008645433957159398,170.6400146484375,59.46672439575195,61.74402618408203,24824555.0,50354.0,0.04491798735255,-0.033306841439700294,0.23133781908732964,0.0022632511627361184,-0.0016844445149846842,0.011693963673390277,24.824555511120707
1630,E,1557141602806207.0,0.8518677,9.091130263659288,4.6059403887363395,158,1970-01-19 00:32:21.602806207,-0.006668091,0.010345459,0.0046081543,10.289312932885764,0.013142566170941294,170.63827514648438,59.46860885620117,61.74275588989258,24874909.0,50354.0,0.0436582926642,-0.03502252810470028,0.23107043682962963,0.002230085001981715,-0.0017203285370193735,0.011642052659221285,24.874909515026957
1630,E,1557141653160210.0,0.8772888,9.127934263659286,4.60771038873634,158,1970-01-19 00:32:21.653160210,-0.0071411133,0.025665283,-0.0016937256,10.258852951986416,0.02669402474415616,170.6303253173828,59.466861724853516,61.73636245727539,24925263.0,50354.0,0.0435349732005,-0.0347678123957003,0.23197208562442967,0.002195264854675552,-0.0017571114027785857,0.011658021587825852,24.925263518001884
1630,E,1557141703514214.0,0.90049744,9.113102263659288,4.57624678873634,158,1970-01-19 00:32:21.703514214,-0.013931274,0.027542114,-0.006866455,10.289415719559617,0.03161956108359344,170.61785888671875,59.461978912353516,61.726505279541016,24975617.0,50354.0,0.04475932416448,-0.0342146233517003,0.23122448985722965,0.002222985524758102,-0.0017367707848123049,0.011661900180901737,24.975617522140965
1630,E,1557141753868218.0,0.8544464,9.095799263659288,4.55198528873634,158,1970-01-19 00:32:21.753868218,-0.015853882,0.025634766,-0.0056762695,10.312581930569337,0.03067094452052806,170.61900329589844,59.45656967163086,61.728424072265625,25025971.0,50354.0,0.04418422105968001,-0.03502368624670026,0.22982149901452967,0.002239331638108677,-0.0017432129207589312,0.011607754861824285,25.025971526047215
1630,E,1557141804222222.0,0.83270264,9.088139263659286,4.55917218873634,158,1970-01-19 00:32:21.804222222,-0.00793457,0.01789856,-0.0012664795,10.31377341104618,0.01961937362614873,170.62557983398438,59.453453063964844,61.73453140258789,25076325.0,50354.0,0.04247735138008,-0.0356521796977003,0.2293916118103297,0.0021818784093158377,-0.001779406276882173,0.011561608491237486,25.076325530186296
1630,E,1557141854576226.0,0.8795624,9.117573263659287,4.52230678873634,158,1970-01-19 00:32:21.854576226,-0.0041656494,0.014984131,-0.0009918213,10.31099169672417,0.015583983003071294,170.62112426757812,59.443206787109375,61.73096466064453,25126679.0,50354.0,0.043109696912080005,-0.03510397569970033,0.22864439621582966,0.0021548251148517127,-0.0017814277244403557,0.011531972574074614,25.126679534092546
1630,E,1557141904930230.0,0.87364197,9.161427263659286,4.5341937887363395,158,1970-01-19 00:32:21.904930230,-0.0038604736,0.021591187,0.0013427734,10.266850537645587,0.021974659334993422,170.6177520751953,59.43124771118164,61.728275299072266,25177033.0,50354.0,0.04414042642349,-0.03325880372370033,0.22801551503902967,0.002196696355219646,-0.0017211696975429585,0.011497326585663594,25.177033537998796
1630,E,1557141955284234.0,0.8345032,9.190891763659288,4.530989188736339,158,1970-01-19 00:32:21.955284234,-7.6293945e-05,0.02835083,0.0053100586,10.239971625319537,0.02884392665346342,170.62515258789062,59.41748046875,61.73463439941406,25227387.0,50354.0,0.04300597094509,-0.031412863849200306,0.22823411182382966,0.002194084846548739,-0.0016282385744829193,0.01148699685552621,25.227387542137876
1630,E,1557142005638238.0,0.8041229,9.180897263659286,4.49503948873634,158,1970-01-19 00:32:22.005638238,0.0036315918,0.01802063,0.005783081,10.26445686683527,0.019271107660206982,170.6421661376953,59.40163803100586,61.74906539916992,25277741.0,50354.0,0.0412556893197,-0.030922667659200306,0.22724832401272965,0.002121455820486618,-0.0015694216767870024,0.011467681287057056,25.277741546044126
1630,E,1557142055992242.0,0.82710266,9.173100263659286,4.48379378873634,158,1970-01-19 00:32:22.055992242,0.006378174,0.0012359619,0.008453369,10.278707973984089,0.010661526759460327,170.65272521972656,59.38581466674805,61.757686614990234,25328095.0,50354.0,0.04106936592412,-0.03137060425470034,0.22606008542692965,0.002072697915873656,-0.0015683577069762766,0.011412945824462303,25.328095550183207
1630,E,1557142106346246.0,0.8716583,9.182209263659287,4.502745188736339,158,1970-01-19 00:32:22.106346246,0.0037384033,0.00050354004,0.011154175,10.264906720973476,0.011774753998957223,170.64974975585938,59.37105941772461,61.75467300415039,25378449.0,50354.0,0.04276970468992,-0.031337572030700325,0.22625409183582967,0.0021108162808496853,-0.0015788037543375327,0.011387914040944493,25.378449554089457
1630,E,1557142156700250.0,0.89204407,9.158222263659287,4.4848467887363395,158,1970-01-19 00:32:22.156700250,-0.0027160645,0.013412476,0.016525269,10.296317611554928,0.021455909077480198,170.64158630371094,59.355255126953125,61.74739456176758,25428803.0,50354.0,0.04440473456949,-0.031712155436700314,0.22628060321682966,0.002194790857234166,-0.0015874029884467462,0.011393466017340804,25.428803557995707
1630,E,1557142207054253.0,0.8749542,9.152272263659286,4.47598128873634,158,1970-01-19 00:32:22.207054253,-0.006439209,0.024673462,0.027297974,10.304473170725755,0.037355354691339784,170.6376953125,59.338932037353516,61.743743896484375,25479157.0,50354.0,0.04448771544379,-0.03246587928570032,0.2256067685065297,0.0022380452139843508,-0.001615810380205881,0.01137716835787902,25.479157561203465
1630,E,1557142257408257.0,0.92770386,9.156025263659288,4.44149638873634,158,1970-01-19 00:32:22.257408257,-0.012481689,0.020584106,0.026428223,10.323562790090447,0.03574841186751778,170.62100219726562,59.31788635253906,61.729339599609375,25529511.0,50354.0,0.045385521976620005,-0.0325211931547003,0.22451533548572963,0.002262738498533663,-0.0016361795228319663,0.011332724212213114,25.529511565109715
1630,E,1557142307762261.0,0.92074585,9.156895263659287,4.43734598873634,158,1970-01-19 00:32:22.307762261,-0.025482178,0.010040283,0.004043579,10.324331988029728,0.027685722123018827,170.60784912109375,59.297664642333984,61.71907424926758,25579865.0,50354.0,0.04653841834867001,-0.032404799883700285,0.22354261453762966,0.0023143690455698267,-0.0016346417267278114,0.011280755007738117,25.579865569015965
1630,E,1557142358116265.0,0.822525,9.158528263659287,4.51792778873634,158,1970-01-19 00:32:22.358116265,-0.025802612,0.0069274902,-0.018692017,10.273384958338806,0.03260607928012703,170.6196746826172,59.28951644897461,61.730857849121094,25630219.0,50354.0,0.04389033019045,-0.032341781852700306,0.2254669278954297,0.0022767246019694243,-0.0016301246883773579,0.011304713249837136,25.630219573155046
1630,E,1557142408470269.0,0.79808044,9.183460763659287,4.50466778873634,158,1970-01-19 00:32:22.408470269,-0.011184692,0.011016846,-0.03253174,10.256866612739431,0.036121770974720774,170.6403350830078,59.278587341308594,61.749961853027344,25680573.0,50354.0,0.04080198316288,-0.0316729422592003,0.22716188885402963,0.0021322983732967892,-0.0016116987089653217,0.011395835719301138,25.680573577061296
1630,E,1557142458824273.0,0.84968567,9.241230263659286,4.42964038873634,158,1970-01-19 00:32:22.458824273,0.0043792725,0.02659607,-0.030426025,10.25035558730478,0.040648148351121495,170.65072631835938,59.25313186645508,61.75957107543945,25730927.0,50354.0,0.041485807351470005,-0.029590754005200316,0.22493907698422969,0.0020717597017797904,-0.0015424360808488145,0.011382546016909856,25.730927581200376
1630,E,1557142509178277.0,0.8461151,9.256520263659286,4.4086442887363395,158,1970-01-19 00:32:22.509178277,0.024734497,0.05340576,-0.019378662,10.247977644636782,0.06196372393530632,170.66317749023438,59.223384857177734,61.76992416381836,25781281.0,50354.0,0.04269517598629,-0.02775133497370033,0.22252149332472965,0.0021194246174947836,-0.0014437017742217817,0.01126571477866867,25.781281585106626
1630,E,1557142559532281.0,0.82995605,9.132649263659287,4.44242718873634,158,1970-01-19 00:32:22.559532281,0.043502808,0.05479431,-0.011367798,10.334724613723424,0.07088115083454676,170.67835998535156,59.20751953125,61.781620025634766,25831635.0,50354.0,0.042198443343549996,-0.03048507881070031,0.22284342658832965,0.0021373666538673816,-0.001466218189849855,0.011212952588651093,25.831635589012876
1630,E,1557142609886285.0,0.89790344,9.062504263659287,4.38711408873634,158,1970-01-19 00:32:22.609886285,0.036972046,0.01953125,0.011856079,10.428691823524566,0.04346226548677435,170.6747589111328,59.19090270996094,61.776695251464844,25881989.0,50354.0,0.04350231837973,-0.0353698196427003,0.22230136074292964,0.0021576880779070207,-0.0016580287783612673,0.011207410310639116,25.881989593151957
1630,E,1557142660240289.0,0.89642334,9.140248263659288,4.35633708873634,158,1970-01-19 00:32:22.660240289,0.014389038,-0.0018157959,0.036346436,10.37825074067744,0.03913316929687649,170.66949462890625,59.16642761230469,61.7706413269043,25932343.0,50354.0,0.04517576534006,-0.03517849961970028,0.22013387029522966,0.0022326481138131528,-0.0017761950340694592,0.011139191811847738,25.932343597058207
1630,E,1557142710594292.0,0.84243774,9.174046263659287,4.343687788736339,158,1970-01-19 00:32:22.710594292,-0.0020141602,0.0073242188,0.04135132,10.351597410897572,0.042043224044831976,170.67820739746094,59.139190673828125,61.777198791503906,25982697.0,50354.0,0.04377930541116,-0.03237020668570028,0.21904052634012963,0.002239621816303466,-0.0017006737786510698,0.011057093784088442,25.982697600033134
1630,E,1557142760948296.0,0.73373413,9.160237263659287,4.45983748873634,158,1970-01-19 00:32:22.760948296,0.0030059814,0.0043792725,0.037506104,10.294910839965413,0.03788036152236694,170.7112579345703,59.129417419433594,61.80451202392578,26033051.0,50354.0,0.03968327917099,-0.031866943632700304,0.22164635591092968,0.0021013374920247907,-0.0016172987335663714,0.011095173634434921,26.033051604172215
1630,E,1557142811302300.0,0.80181885,9.193394263659288,4.509413288736339,158,1970-01-19 00:32:22.811302300,0.011383057,-0.00065612793,0.029418945,10.246230283055938,0.03155120941325071,170.72418212890625,59.12233352661133,61.814361572265625,26083405.0,50354.0,0.038660617377459995,-0.031379819036700285,0.22581882682442964,0.001972464283400326,-0.0015923637437274987,0.011265830905728141,26.083405608078465
1630,E,1557142861656304.0,0.8801422,9.250538263659287,4.44010778873634,158,1970-01-19 00:32:22.861656304,0.010986328,-0.007217407,0.01928711,10.239578742353508,0.023340586515324183,170.719482421875,59.10200500488281,61.809349060058594,26133759.0,50354.0,0.04234673335585,-0.029106310759700278,0.22532209216752963,0.0020395220694125462,-0.0015228592898839772,0.01135837491746056,26.133759611984715
1630,E,1557142912010308.0,0.91386414,9.220585263659286,4.412870788736339,158,1970-01-19 00:32:22.912010308,-0.002822876,-0.02897644,0.0134887695,10.282128199748092,0.032086595434996,170.7065887451172,59.08163070678711,61.79792785644531,26184113.0,50354.0,0.04516769762218001,-0.02842172295270032,0.22289144164502966,0.0022033508287338617,-0.0014483833047771102,0.011284672140798806,26.184113616123796
1630,E,1557142962364312.0,0.91137695,9.175144263659288,4.407133788736339,158,1970-01-19 00:32:22.962364312,-0.021057129,-0.03491211,0.0050354004,10.323537336754312,0.041080571607063375,170.6947021484375,59.06486511230469,61.788360595703125,26234467.0,50354.0,0.045954094922930004,-0.0303199176907003,0.22206125524702963,0.002294173370908235,-0.0014789382864788976,0.011202574049651378,26.234467620030046
1630,E,1557143012718316.0,0.8816986,9.185459263659286,4.38612228873634,158,1970-01-19 00:32:23.012718316,-0.019973755,-0.028045654,-0.008117676,10.323076841196244,0.035375220999008854,170.69314575195312,59.045658111572266,61.78799819946289,26284821.0,50354.0,0.04514426312235,-0.031204284992700303,0.22138780826252968,0.002293583360506015,-0.001548994850959977,0.011164717071980176,26.284821624169126
1630,E,1557143063072320.0,0.8649292,9.181431263659286,4.43693408873634,158,1970-01-19 00:32:23.063072320,-0.012832642,-0.040985107,-0.020767212,10.298787611074808,0.04770464118672896,170.69512939453125,59.03419494628906,61.79059982299805,26335175.0,50354.0,0.0439748481206,-0.031045997193700336,0.22213809041562968,0.002243751863763752,-0.0015672753546070088,0.01116665155102002,26.335175628075376
1630,E,1557143113426324.0,0.9219818,9.216236263659287,4.41253528873634,158,1970-01-19 00:32:23.113426324,-0.025436401,-0.038009644,-0.029891968,10.286724442641715,0.0546376544495878,170.68304443359375,59.01645278930664,61.78190612792969,26385529.0,50354.0,0.044989058247,-0.030271124664700326,0.22280309051662966,0.002239844270617065,-0.0015437811770289535,0.011202284112331493,26.385529632214457
1630,E,1557143163780328.0,0.9099426,9.157810263659288,4.45133838873634,158,1970-01-19 00:32:23.163780328,-0.04322815,-0.034362793,-0.030578613,10.31540182808267,0.0631231024917749,170.67202758789062,59.00801086425781,61.774967193603516,26435883.0,50354.0,0.046122360618800005,-0.03086583058170029,0.22316574757772964,0.0022939121927842473,-0.0015392451222386284,0.011228157436701684,26.435883636120707
1630,E,1557143214134332.0,0.8517151,9.161427263659286,4.431807088736339,158,1970-01-19 00:32:23.214134332,-0.048614502,-0.05493164,-0.025283813,10.317390420180294,0.07758947143534728,170.67666625976562,58.99932861328125,61.781429290771484,26486237.0,50354.0,0.0443532559129,-0.032245756774700304,0.22365095368632965,0.002277904597418611,-0.001588960434872098,0.01124950408772522,26.486237640026957
1630,E,1557143264488335.0,0.83644104,9.173649263659287,4.576811388736339,158,1970-01-19 00:32:23.264488335,-0.029800415,-0.06373596,-0.0181427,10.231667696648696,0.07266013277295758,170.67918395996094,59.007728576660156,61.78506088256836,26536591.0,50354.0,0.04250270713678,-0.031846978271700306,0.22680998740732963,0.002186772581701793,-0.0016136627902632284,0.011341255113915061,26.536591643001884
1630,E,1557143314842339.0,0.79016113,9.105717263659287,4.624784788736339,158,1970-01-19 00:32:23.314842339,-0.009918213,-0.039031982,-0.0056762695,10.262386995231465,0.04067046352573724,170.69219970703125,59.02602005004883,61.796630859375,26586945.0,50354.0,0.04095296283409,-0.0332495889417003,0.23166858696022966,0.002101163402856594,-0.001638936272731787,0.011543115066852041,26.586945647140965
1630,E,1557143365196343.0,0.7513428,9.116871263659286,4.62951518873634,158,1970-01-19 00:32:23.365196343,0.0060272217,-0.038986206,0.008102417,10.24747996933975,0.040272829810397925,170.7147979736328,59.04425048828125,61.81536102294922,26637299.0,50354.0,0.03881044444561,-0.03467908864770033,0.23299551053282969,0.002008203305081007,-0.0017102403156683398,0.011698847982582757,26.637299651047215
1630,E,1557143415550347.0,0.81718445,9.101261263659287,4.65141178873634,158,1970-01-19 00:32:23.415550347,0.02279663,-0.023071289,0.026016235,10.255088760914056,0.041579023546178255,170.71778869628906,59.06355285644531,61.816200256347656,26687653.0,50354.0,0.03949081057325,-0.034791277359700314,0.23366589851182967,0.0019713906976098383,-0.001749055404968326,0.01174913429551739,26.687653655186296
1630,E,1557143465904351.0,0.8839874,9.069859263659287,4.6260361887363395,158,1970-01-19 00:32:23.465904351,0.030471802,0.01121521,0.034713745,10.300354746662181,0.04753268080380412,170.7041015625,59.078495025634766,61.80231475830078,26738007.0,50354.0,0.04283040366745,-0.03597489848370028,0.23357830772882965,0.0020726012109381037,-0.0017816800092092966,0.011763807380521081,26.738007659092546
1630,E,1557143516258355.0,0.87786865,9.130192263659287,4.630400188736339,158,1970-01-19 00:32:23.516258355,0.03590393,0.043029785,0.044555664,10.245605622141055,0.07159512400346843,170.69200134277344,59.087799072265625,61.789451599121094,26788361.0,50354.0,0.044358249770850004,-0.03524650269670028,0.23304929867562962,0.0021951487276160794,-0.001793141217518945,0.011748283246445071,26.788361662998796
1630,E,1557143566612359.0,0.9443054,9.056416263659287,4.58233508873634,158,1970-01-19 00:32:23.566612359,0.030471802,0.038253784,0.047058105,10.339073848987397,0.06787008143237258,170.6641845703125,59.095306396484375,61.76323318481445,26838715.0,50354.0,0.04587687605685001,-0.035584957107700294,0.23194903608092962,0.0022718497629640034,-0.0017833236634953932,0.011707263074165893,26.838715667137876
1630,E,1557143616966363.0,0.9844055,9.080845263659286,4.559309488736339,158,1970-01-19 00:32:23.616966363,0.017471313,-0.009933472,0.045654297,10.3333281594488,0.04988221605425086,170.62615966796875,59.09980773925781,61.72866439819336,26889069.0,50354.0,0.048559154329300004,-0.036827366526700316,0.23015918552702966,0.0023776159370320986,-0.0018231250721433044,0.011634498695423592,26.889069671044126
1630,E,1557143667320367.0,0.98217773,9.125813263659287,4.55496078873634,158,1970-01-19 00:32:23.667320367,-0.013916016,-0.01109314,0.036254883,10.296682676170269,0.04038724795917079,170.58895874023438,59.10063934326172,61.696372985839844,26939423.0,50354.0,0.04951266598171,-0.035080158257700306,0.22946998277592964,0.002469154219970299,-0.0018104157514968547,0.011572083570363607,26.939423675183207
1630,E,1557143717674371.0,0.94773865,9.138874263659288,4.542662188736339,158,1970-01-19 00:32:23.717674371,-0.034301758,0.020202637,0.0004272461,10.288461263724571,0.039811300944258256,170.56475830078125,59.09849548339844,61.67715835571289,26989777.0,50354.0,0.04858950469926,-0.03361916212470028,0.22905085370382963,0.002469918351234782,-0.0017296427892676998,0.0115441791000509,26.989777679089457
1630,E,1557143768028375.0,0.8729706,9.112355263659287,4.5317217887363395,158,1970-01-19 00:32:23.768028375,-0.04257202,0.009094238,-0.030853271,10.310141486423955,0.053357346102298656,170.56365966796875,59.09926223754883,61.67885971069336,27040131.0,50354.0,0.04583999678725001,-0.03395799419070027,0.22846576540082963,0.0023774515589258627,-0.0017013900645528397,0.011518895919198007,27.040131682995707
1630,E,1557143818382378.0,0.8665314,9.146244263659288,4.57592638873634,158,1970-01-19 00:32:23.818382378,-0.04045105,0.001876831,-0.034072876,10.25816221855514,0.052922309280835786,170.56260681152344,59.10331726074219,61.680572509765625,27090485.0,50354.0,0.043795441854,-0.03377243970070028,0.22930325816422967,0.0022567514386707516,-0.0017052491340837916,0.011525250706297499,27.090485686203465
1630,E,1557143868736382.0,0.94654846,9.070179263659288,4.52328348873634,158,1970-01-19 00:32:23.868736382,-0.06022644,-0.010421753,-0.04284668,10.357089905599702,0.07464365343208362,170.54225158691406,59.10559844970703,61.66672897338867,27140839.0,50354.0,0.04564791163522,-0.03483430485270027,0.22909080708512966,0.0022519153107980923,-0.0017273120076209657,0.011540987380783121,27.140839690109715
1630,E,1557143919090386.0,0.8255615,9.105992263659287,4.57819978873634,158,1970-01-19 00:32:23.919090386,-0.067840576,-0.05003357,-0.05795288,10.288266340927185,0.10229485900694656,170.552490234375,59.1161994934082,61.67967224121094,27191193.0,50354.0,0.04461641246292,-0.035847729456700284,0.22914804447692966,0.002272584887818871,-0.0017795615778077778,0.011537079565777968,27.191193694015965
1630,E,1557143969444390.0,0.7585449,9.103901263659287,4.70007178873634,158,1970-01-19 00:32:23.969444390,-0.05088806,-0.064086914,-0.058242798,10.22418802295713,0.10044376892309348,170.5758056640625,59.143184661865234,61.70307159423828,27241547.0,50354.0,0.0398830468328,-0.03499871066270031,0.23359904350602967,0.0021274428866883428,-0.0017837008228861486,0.011650583434146967,27.241547698155046
1630,E,1557144019798394.0,0.8139038,9.089024263659287,4.700239788736339,158,1970-01-19 00:32:24.019798394,-0.017456055,-0.060195923,-0.037460327,10.241248726488555,0.0730173890311882,170.58364868164062,59.16911315917969,61.71126174926758,27291901.0,50354.0,0.039589540919899996,-0.03542591399870031,0.23667164458602963,0.002000881341849728,-0.0017730807751000835,0.011840005114093777,27.291901702061296
1630,E,1557144070152398.0,0.84365845,9.084980263659286,4.65933078873634,158,1970-01-19 00:32:24.070152398,0.009246826,-0.042877197,-0.024047852,10.267373681871057,0.05002256490290146,170.58558654785156,59.1882438659668,61.712955474853516,27342255.0,50354.0,0.04173244476825,-0.03590228801570033,0.23564590842902966,0.0020474436336705526,-0.001795830142116565,0.011891539032260149,27.342255706200376
1630,E,1557144120506402.0,0.82987976,9.013035263659287,4.63918928873634,158,1970-01-19 00:32:24.120506402,0.018615723,-0.017349243,0.001663208,10.338465627557598,0.025501130099214075,170.5907440185547,59.20831298828125,61.71646499633789,27392609.0,50354.0,0.04213467151317,-0.037815463068700324,0.2341088399905297,0.0021115223866173113,-0.0018559918190519554,0.011827015300959245,27.392609710106626
1630,E,1557144170860406.0,0.8101959,9.081242263659288,4.7329239887363395,158,1970-01-19 00:32:24.170860406,0.033355713,0.002746582,0.031784058,10.231638090940796,0.046155970852842614,170.59547424316406,59.23346710205078,61.71830368041992,27442963.0,50354.0,0.04129218489182,-0.037909574694700285,0.23596169598692965,0.0021004379637084335,-0.0019065292757691375,0.011834965884304495,27.442963714012876
1630,E,1557144221214410.0,0.8254547,9.049946263659287,4.704039188736339,158,1970-01-19 00:32:24.221214410,0.04711914,0.009857178,0.055892944,10.27418197352684,0.07376583559785939,170.5959930419922,59.25584411621094,61.71535873413086,27493317.0,50354.0,0.0411807751562,-0.03698026644770029,0.23759442191922964,0.0020764217151289996,-0.0018855015304422194,0.011922722380523372,27.493317718151957
1630,E,1557144271568414.0,0.8899231,9.048420263659287,4.72372278873634,158,1970-01-19 00:32:24.271568414,0.0496521,0.004638672,0.067214966,10.271242502561977,0.08369408561370832,170.57740783691406,59.27901840209961,61.69556427001953,27543671.0,50354.0,0.0431880668706,-0.03780662594170032,0.23736276330682965,0.002124154335708744,-0.0018829095896879394,0.011957997052436496,27.543671722058207
1630,E,1557144321922417.0,0.8805847,9.084187263659286,4.739180088736339,158,1970-01-19 00:32:24.321922417,0.042663574,0.0023498535,0.06971741,10.231833449497552,0.08176930729211931,170.56044006347656,59.3012580871582,61.67740249633789,27594025.0,50354.0,0.044576074880599996,-0.036944540284700324,0.23824750574612966,0.0022096377968699623,-0.001882010112082089,0.011974439743946358,27.594025725033134
1630,E,1557144372276421.0,0.9479065,9.101399263659287,4.66250478873634,158,1970-01-19 00:32:24.372276421,0.023498535,0.01184082,0.06111145,10.260710674657544,0.0665356707828299,170.52908325195312,59.31084060668945,61.64793014526367,27644379.0,50354.0,0.046035922942400005,-0.035610688001700315,0.23670622016012965,0.0022813382691896714,-0.001826722982566709,0.011957909957141891,27.644379729172215
1630,E,1557144422630425.0,0.94366455,9.119313263659286,4.602232488736339,158,1970-01-19 00:32:24.422630425,0.00022888184,0.02720642,0.0335083,10.274905317680412,0.04316303794918844,170.5037078857422,59.311309814453125,61.62538528442383,27694733.0,50354.0,0.047624084325850004,-0.03472632069970031,0.23325829043492968,0.0023580780029927306,-0.0017708748680751636,0.01183229648325181,27.694733733078465
1630,E,1557144472984429.0,0.9038086,9.126515263659288,4.5336442887363395,158,1970-01-19 00:32:24.472984429,-0.018936157,0.028137207,-0.006576538,10.299675681951165,0.034547522512547,170.49522399902344,59.30422592163086,61.61918258666992,27745087.0,50354.0,0.04651383149755,-0.0340939751677003,0.23001396962642962,0.002370110306685742,-0.001732688589053545,0.011663805691564843,27.745087736984715
1630,E,1557144523338433.0,0.90882874,9.193531263659287,4.594175788736339,158,1970-01-19 00:32:24.523338433,-0.03363037,0.04220581,-0.034118652,10.212001817192846,0.06384680570232237,170.48452758789062,59.29911804199219,61.61246871948242,27795441.0,50354.0,0.04563677030918,-0.03222538858170029,0.22981112609052964,0.0023200757016880414,-0.0016697226211186587,0.011577016434865885,27.795441741123796
1630,E,1557144573692437.0,0.828125,9.114811263659288,4.6238083887363395,158,1970-01-19 00:32:24.573692437,-0.038528442,0.06303406,-0.047958374,10.258022397545666,0.08807802904104316,170.4957733154297,59.303955078125,61.62527084350586,27845795.0,50354.0,0.04373128431198001,-0.032520060189700294,0.23208118763622967,0.0022500195111969457,-0.001630096163717553,0.01162906278269862,27.845795745030046
1630,E,1557144624046441.0,0.8664856,9.035527263659286,4.534910788736339,158,1970-01-19 00:32:24.624046441,-0.02986145,0.0388031,-0.04057312,10.374018823703395,0.06358903075410804,170.4998779296875,59.30415344238281,61.63125991821289,27896149.0,50354.0,0.0426652110762,-0.036498126897700295,0.23058907273122967,0.002175204564388208,-0.001737670896299485,0.011648649145271524,27.896149749169126
1630,E,1557144674400445.0,0.8753662,9.113682263659287,4.65064878873634,158,1970-01-19 00:32:24.674400445,-0.027420044,0.01701355,-0.029083252,10.249542483982417,0.04344140010934201,170.49514770507812,59.313331604003906,61.629188537597656,27946503.0,50354.0,0.0438546027686,-0.03652655173070031,0.23126483348202964,0.00217830935317053,-0.0018385423338272422,0.01162809579673123,27.946503753075376
1630,E,1557144724754449.0,0.82876587,9.032429263659287,4.60944978873634,158,1970-01-19 00:32:24.724754449,-0.018173218,0.0030059814,-0.013656616,10.336344837889303,0.022930436917427587,170.5038604736328,59.32453536987305,61.637821197509766,27996857.0,50354.0,0.04290493312639,-0.0366045500767003,0.23314150188502963,0.0021843448352281635,-0.0018412217502049252,0.011692358305536452,27.996857757214457
1630,E,1557144775108453.0,0.8962097,9.088978263659287,4.598097388736339,158,1970-01-19 00:32:24.775108453,-0.01473999,-0.009918213,-0.0002593994,10.298853475534568,0.01776810463617854,170.49366760253906,59.329368591308594,61.62964630126953,28047211.0,50354.0,0.04342970992589,-0.037226522684700294,0.23181841528722968,0.0021736473081272537,-0.0018588449189137829,0.011706295834645974,28.047211761120707
1630,E,1557144825462457.0,0.89219666,9.204151263659288,4.59191778873634,158,1970-01-19 00:32:24.825462457,-0.0014953613,0.04560852,0.0043182373,10.202556800341528,0.04583688880571028,170.48606872558594,59.322444915771484,61.623252868652344,28097565.0,50354.0,0.04502670692572,-0.03290307789070027,0.23137701212322964,0.002227067207072985,-0.0017656529536868603,0.011661871275913135,28.097565765026957
1630,E,1557144875816460.0,0.9457092,9.137058763659287,4.42896878873634,158,1970-01-19 00:32:24.875816460,-0.0032196045,0.05543518,-0.0027008057,10.347812020126472,0.05559423878602865,170.47238159179688,59.29987716674805,61.61193084716797,28147919.0,50354.0,0.046272955837220006,-0.03169255514220029,0.22711886136102968,0.0022986516093825406,-0.0016263242528693374,0.011543550606713198,28.147919768001884
1630,E,1557144926170464.0,0.90242004,9.093235263659286,4.561750788736339,158,1970-01-19 00:32:24.926170464,-0.026870728,0.00491333,-0.014450073,10.31395725680549,0.0309027740606602,170.4637451171875,59.299991607666016,61.60603713989258,28198273.0,50354.0,0.04653034987548,-0.03448508727420033,0.22635934680202963,0.0023365088279286485,-0.0016661545031177185,0.011417220846921344,28.198273772140965
1630,E,1557144976524468.0,0.8731842,9.057545263659287,4.631010788736339,158,1970-01-19 00:32:24.976524468,-0.03529358,-0.041000366,-0.010971069,10.307596711826022,0.055199919894444754,170.45867919921875,59.31362533569336,61.603309631347656,28248627.0,50354.0,0.04470438795048,-0.0364869986637003,0.23144615823602965,0.002297016994244195,-0.0017868642076585245,0.011526169200343219,28.248627776047215
1630,E,1557145026878472.0,0.91311646,9.136418263659287,4.566038788736339,158,1970-01-19 00:32:25.026878472,-0.018630981,-0.026824951,0.0012512207,10.275628002233875,0.032684201113303515,170.4459228515625,59.31205368041992,61.59300231933594,28298981.0,50354.0,0.04497369171682,-0.035399780272700285,0.23155411721202965,0.002257825011783612,-0.0018098934332817576,0.01165695793495579,28.298981780186296
1630,E,1557145077232476.0,0.8432312,9.163487263659286,4.5105117887363395,158,1970-01-19 00:32:25.077232476,-0.0012054443,0.027359009,0.011260986,10.274593200216612,0.02961044199458494,170.4556427001953,59.30067443847656,61.60124206542969,28349335.0,50354.0,0.04421956503582,-0.03273247853870031,0.22852031388902966,0.0022456186252612174,-0.0017153658800946328,0.01158329395183137,28.349335784092546
1630,E,1557145127586480.0,0.8608093,9.115711263659287,4.52470278873634,158,1970-01-19 00:32:25.127586480,0.002456665,0.008911133,0.008346558,10.309792346872534,0.01245425729272035,170.45986938476562,59.29526138305664,61.6046028137207,28399689.0,50354.0,0.042902627668500004,-0.0332538186777003,0.22747959741702967,0.002193475445716665,-0.0016613370050173185,0.011480709766952656,28.399689787998796
1630,E,1557145177940484.0,0.8547516,9.173725263659287,4.59196338873634,158,1970-01-19 00:32:25.177940484,-0.008087158,-0.025787354,-0.0066833496,10.225466875558745,0.02783984397790512,170.46286010742188,59.29572296142578,61.60757064819336,28450043.0,50354.0,0.0431926767793,-0.03299605655170028,0.2295303043502297,0.0021676214800822606,-0.0016679731086506186,0.01150613829679429,28.450043792137876
1630,E,1557145228294488.0,0.8824463,9.030552263659287,4.591520788736339,158,1970-01-19 00:32:25.228294488,-0.020904541,-0.024887085,-0.009048462,10.351328146360432,0.03373783482654674,170.45791625976562,59.30569076538086,61.604347229003906,28500397.0,50354.0,0.0437374315283,-0.0351401046947003,0.23121258113622964,0.0021886393368604454,-0.0017154641317006275,0.011600123627892587,28.500397796044126
1630,E,1557145278648492.0,0.83628845,9.064198263659287,4.6064287887363395,158,1970-01-19 00:32:25.278648492,-0.01399231,-0.024536133,-0.0021972656,10.311023895044245,0.028330805457076797,170.46456909179688,59.31565475463867,61.610633850097656,28550751.0,50354.0,0.04327258480075,-0.0378976659737003,0.23157677651202965,0.002190651181116492,-0.001838871952118322,0.011651647657510224,28.550751800183207
1630,E,1557145329002496.0,0.8770447,9.067799263659287,4.58314378873634,158,1970-01-19 00:32:25.329002496,0.0016174316,-0.02255249,0.008331299,10.322933720792848,0.024096502509870176,170.46112060546875,59.32135772705078,61.607276916503906,28601105.0,50354.0,0.04313658871755,-0.03695989825470028,0.23136586878302967,0.002175523761670239,-0.0018846888945784415,0.01165550698059371,28.601105804089457
1630,E,1557145379356500.0,0.9384155,9.036396263659286,4.5769637887363395,158,1970-01-19 00:32:25.379356500,0.0026550293,-0.043533325,0.014053345,10.35846922156808,0.0458224407013475,170.44091796875,59.328182220458984,61.58924102783203,28651459.0,50354.0,0.0457078414554,-0.03765986920870031,0.23062402847802965,0.0022368362184643623,-0.001878701885426037,0.01163151964334169,28.651459807995707
1630,E,1557145429710503.0,0.89907837,9.176823263659287,4.6354357887363395,158,1970-01-19 00:32:25.429710503,-0.0074920654,-0.010360718,0.0011901855,10.204756592476562,0.012841030447663123,170.42996215820312,59.33106231689453,61.5800666809082,28701813.0,50354.0,0.04626258316499,-0.03491497196070032,0.23194058416202964,0.0023155393806675592,-0.0018272167761219998,0.011645989252438774,28.701813811203465
1630,E,1557145480064507.0,0.8717499,9.061543263659287,4.57256938873634,158,1970-01-19 00:32:25.480064507,-0.0019073486,0.02619934,0.0066070557,10.333168747560052,0.027086834073778807,170.42990112304688,59.33330535888672,61.58005142211914,28752167.0,50354.0,0.044584143353790004,-0.034281845941700306,0.23182994635322965,0.0022872480335633244,-0.0017421682843287406,0.011676350646782683,28.752167815109715
1630,E,1557145530418511.0,0.8499603,9.014607263659286,4.55807378873634,158,1970-01-19 00:32:25.530418511,0.0035247803,-0.0020446777,0.006881714,10.379059482832927,0.007997672826387773,170.4361572265625,59.338890075683594,61.585105895996094,28802521.0,50354.0,0.0433474977054,-0.038365958173700324,0.22988220327922965,0.002213854926947227,-0.0018290537642134418,0.011624526791296429,28.802521819015965
1630,E,1557145580772515.0,0.8561096,9.082325263659287,4.68694928873634,158,1970-01-19 00:32:25.580772515,0.013046265,-0.023910522,0.009994507,10.257043756205995,0.02901393222118915,170.4347381591797,59.35576629638672,61.58296203613281,28852875.0,50354.0,0.0429537218723,-0.037842729759700315,0.2327619460215297,0.0021728058053077535,-0.0019187061360992279,0.011647991746945219,28.852875823155046
1630,E,1557145631126519.0,0.92378235,9.077473263659288,4.63278078873634,158,1970-01-19 00:32:25.631126519,0.010192871,-0.004714966,0.012176514,10.293922508152493,0.016564812609745783,170.41754150390625,59.36381912231445,61.56739044189453,28903229.0,50354.0,0.04481233962515001,-0.03625995247770028,0.2346428441605297,0.002209686130321299,-0.001865683230691035,0.01176785040241371,28.903229827061296
1630,E,1557145681480523.0,0.84565735,9.065586263659288,4.654875288736339,158,1970-01-19 00:32:25.681480523,0.01222229,-0.0074005127,0.008026123,10.286516651719388,0.016388124098812844,170.42120361328125,59.376853942871094,61.56978225708008,28953583.0,50354.0,0.0445491833269,-0.03668139028070026,0.23383531706252966,0.0022498550633637633,-0.0018364441866282506,0.011794874665112967,28.953583831200376
1630,E,1557145731834527.0,0.9623413,9.112583263659287,4.60569628873634,158,1970-01-19 00:32:25.731834527,0.008026123,0.00630188,0.010070801,10.280696279985706,0.014337132723356159,170.39537048339844,59.37741470336914,61.546993255615234,29003937.0,50354.0,0.04551998201105,-0.03579742581070027,0.23315341060602962,0.0022676713757135676,-0.001824799152733191,0.011757375196511316,29.003937835106626
1630,E,1557145782188531.0,0.9040375,9.139149263659286,4.61237978873634,158,1970-01-19 00:32:25.782188531,-0.002670288,0.014953613,0.003692627,10.249180148678736,0.01563254534354025,170.3856658935547,59.37761688232422,61.53872299194336,29054291.0,50354.0,0.0469898190476,-0.03394533015970032,0.2320835014025297,0.0023291192612536313,-0.0017559133670667756,0.011713269733639498,29.054291839012876
1630,E,1557145832542535.0,0.9039459,9.006611263659288,4.624037288736339,158,1970-01-19 00:32:25.832542535,-0.0069885254,0.028869629,0.0036621094,10.357720054721069,0.02992834795176063,170.37579345703125,59.38784408569336,61.530548095703125,29104645.0,50354.0,0.0455195980618,-0.036613387203700304,0.2325452727595297,0.002329109594563364,-0.0017764568270583377,0.01169795864707817,29.104645843151957
1630,E,1557145882896539.0,0.9075165,9.151081263659288,4.57189798873634,158,1970-01-19 00:32:25.882896539,-0.012268066,0.029800415,0.00047302246,10.259582036805527,0.03223032621305973,170.36752319335938,59.38141632080078,61.52410125732422,29154999.0,50354.0,0.0456071888448,-0.036312975239700264,0.23152606248092963,0.0022942991139474683,-0.001836067027237496,0.011683924007349045,29.154999847058207
1630,E,1557145933250542.0,0.81599426,9.146839263659286,4.570753788736339,158,1970-01-19 00:32:25.933250542,-0.009140015,0.019012451,-0.0005645752,10.256115500430802,0.02110288872131209,170.3843231201172,59.37763214111328,61.539031982421875,29205353.0,50354.0,0.04339283040452,-0.032782454883700296,0.23018454380142966,0.0022407534846401295,-0.0017396156442168558,0.01162448793437096,29.205353850033134
1630,E,1557145983604546.0,0.94647217,9.050831263659287,4.63142278873634,158,1970-01-19 00:32:25.983604546,-0.011291504,0.006439209,0.00064086914,10.319656688629205,0.013014307065007395,170.36241149902344,59.385929107666016,61.52066421508789,29255707.0,50354.0,0.04437361730811,-0.03530644913370032,0.23168319969102966,0.002209695854060886,-0.0017142743364460954,0.011628444177909649,29.255707854172215
1630,E,1557146033958550.0,0.9328308,9.133076263659287,4.539305288736339,158,1970-01-19 00:32:26.033958550,-0.013366699,0.006225586,0.0070648193,10.293770576391816,0.01635048118379546,170.3482208251953,59.3775634765625,61.508888244628906,29306061.0,50354.0,0.04731521087569,-0.035652960184700294,0.23089142080652966,0.0023084496271835327,-0.0017865450484093723,0.011646241220267051,29.306061858078465
1630,E,1557146084312554.0,0.87464905,9.160130263659287,4.561140788736339,158,1970-01-19 00:32:26.084312554,-0.013412476,0.00015258789,0.012023926,10.2543912132836,0.018013677913414204,170.3485870361328,59.37147903442383,61.50947189331055,29356415.0,50354.0,0.045506920183450005,-0.032901139261700296,0.22912193089252963,0.002336982793675968,-0.0017259865617620278,0.011581756155727218,29.356415861984715
1630,E,1557146134666558.0,0.91482544,9.090214263659288,4.58791978873634,158,1970-01-19 00:32:26.134666558,-0.014144897,0.0031738281,0.006942749,10.304518235487778,0.016073364912984448,170.33731079101562,59.37274932861328,61.500221252441406,29406769.0,50354.0,0.04505359923473,-0.033980275835700284,0.23034589815902962,0.002280042197391518,-0.0016838733879072547,0.011568021532031108,29.406769866123796
1630,E,1557146185020562.0,0.89453125,9.110005263659287,4.573423788736339,158,1970-01-19 00:32:26.185020562,-0.0076293945,0.002105713,0.007736206,10.292978085634234,0.011067545841307152,170.33270263671875,59.371341705322266,61.49638366699219,29457123.0,50354.0,0.04555417338413,-0.03524227296070027,0.23065514725002964,0.002281231891225038,-0.0017428161110469768,0.011606623320263887,29.457123870030046
1630,E,1557146235374566.0,0.8960724,9.097309263659287,4.56333778873634,158,1970-01-19 00:32:26.235374566,-0.00074768066,0.0012207031,0.0036773682,10.309102212860136,0.003946160071013198,170.32891845703125,59.3697509765625,61.49309158325195,29507477.0,50354.0,0.045082028096050004,-0.03506364214570028,0.23003624623602967,0.002281947644666492,-0.0017700920246338468,0.011598827213798516,29.507477874169126
1630,E,1557146285728570.0,0.8847351,9.077183263659286,4.64457578873634,158,1970-01-19 00:32:26.285728570,-0.0035552979,0.0035705566,0.003479004,10.284884279011797,0.006123110845278237,170.32443237304688,59.379276275634766,61.48929977416992,29557831.0,50354.0,0.044835390427499996,-0.03589000163970031,0.2318276401400297,0.0022638508461674187,-0.0017863998895850308,0.011628347067290047,29.557831878075376
1630,E,1557146336082574.0,0.8825073,9.109974263659288,4.5231003887363395,158,1970-01-19 00:32:26.336082574,-0.0005187988,0.008453369,0.00047302246,10.317360561075503,0.008482473100028488,170.3267364501953,59.37178421020508,61.491336822509766,29608185.0,50354.0,0.0444938619048,-0.03557113493470031,0.23081458312022965,0.002249042585970317,-0.0017991770355336844,0.011647943255023552,29.608185882214457
1630,E,1557146386436578.0,0.88705444,9.067829263659288,4.61027378873634,158,1970-01-19 00:32:26.386436578,0.0027618408,-0.00030517578,0.00047302246,10.310216749590074,0.0028186250387214865,170.32379150390625,59.3780632019043,61.488670349121094,29658539.0,50354.0,0.04455225592798,-0.035806640592700265,0.22995096166622964,0.002241914108675902,-0.0017970782544533643,0.011600694121088686,29.658539886120707
1630,E,1557146436790582.0,0.9269562,9.108845263659287,4.64475878873634,158,1970-01-19 00:32:26.436790582,0.003250122,-0.0029449463,0.0001373291,10.261179917547661,0.004388036121828818,170.30856323242188,59.384708404541016,61.47540283203125,29708893.0,50354.0,0.04567134588328,-0.03583506542570028,0.23301395520302967,0.0022715596228020927,-0.0018037232324252706,0.011656067712017344,29.708893890026957
1630,E,1557146487144585.0,0.9235687,9.096958263659287,4.55926378873634,158,1970-01-19 00:32:26.487144585,-0.0010375977,-0.0012817383,-0.0030822754,10.313879366125274,0.0034956950236222466,170.29867553710938,59.381919860839844,61.46702575683594,29759247.0,50354.0,0.0465906654073,-0.0351016845927003,0.23172967643302966,0.002322880658262933,-0.0017859745552132715,0.011700850413701067,29.759247893001884
1630,E,1557146537498589.0,0.9430847,9.110523763659288,4.57787948873634,158,1970-01-19 00:32:26.537498589,-0.0054626465,-0.0027923584,-0.005935669,10.294627078497967,0.008536389089982591,170.28292846679688,59.38014602661133,61.45383834838867,29809601.0,50354.0,0.04699673265180001,-0.035059424998200285,0.23004585629692967,0.0023562499209339614,-0.0017664462561701039,0.011626122587542186,29.809601897140965
1630,E,1557146587852593.0,0.9134979,9.044148263659286,4.61776578873634,158,1970-01-19 00:32:26.587852593,-0.009933472,-0.0005645752,-0.005935669,10.32923452463741,0.011585541748610638,170.27352905273438,59.3882942199707,61.44633102416992,29859955.0,50354.0,0.0467431801202,-0.036389022368200304,0.23151876115092965,0.002360089783860644,-0.0017988575593438677,0.011620812373484755,29.859955901047215
1630,E,1557146638206597.0,0.8932953,9.082524263659288,4.58685178873634,158,1970-01-19 00:32:26.638206597,-0.008163452,-0.005935669,-0.0053100586,10.30978690890976,0.011404860252072314,170.2711639404297,59.39055252075195,61.44474792480469,29910309.0,50354.0,0.045489632396400005,-0.037093965779700304,0.23174465674802963,0.0023221455207304387,-0.0018500811925996937,0.011663583072442099,29.910309905186296
1630,E,1557146688560601.0,0.8869171,9.066334263659288,4.60766478873634,158,1970-01-19 00:32:26.688560601,-0.0093688965,-0.010528564,-0.0008544922,10.31279493453382,0.01411938520083892,170.2691192626953,59.39667510986328,61.44337463378906,29960663.0,50354.0,0.0448204075948,-0.036535388857700274,0.23149034387102968,0.002273735876858443,-0.0018537662617058347,0.011662867610586058,29.960663909092546
1630,E,1557146738914605.0,0.8965912,9.055271263659288,4.5925127887363395,158,1970-01-19 00:32:26.738914605,-0.010955811,-0.010971069,-0.0028686523,10.33072889276175,0.015767793621454376,170.2653045654297,59.40149688720703,61.440608978271484,30011017.0,50354.0,0.044903388469100004,-0.03722153763870027,0.23163287086802967,0.0022589760135008105,-0.0018569781383998766,0.011660053177485299,30.011017912998796
