Subject-id_accel,Activity_accel,Timestamp_accel,accel_x,accel_y,accel_z,Segment_accel,DateTime,gyro_x,gyro_y,gyro_z,accel_magnitude,gyro_magnitude,Roll,Pitch,Yaw,Time_Difference,Difference_Microseconds,vx,vy,vz,dx,dy,dz,Time_diff
1604,B,18566775533798.0,3.181037121920482,-2.230362,0.03002860885654246,22,1970-01-01 05:09:26.775533798,1.1817322,0.6239319,-0.79389954,2.824529243488033,1.5543675524040834,91.09557342529297,-1.4409631490707397,69.93205261230469,15005515.0,50354.0,0.030386313748983953,-0.55261494419865,0.047310949610862345,-0.0015275518924160942,-0.019912257698609884,0.0033127187419330793,15.005515233999176
1604,B,18566825887802.0,3.0313331219204818,7.663391,0.49916008485654245,22,1970-01-01 05:09:26.825887802,0.9496765,-0.25756836,-0.401062,7.812844666656181,1.0625806522656713,91.11508178710938,-1.6640815734863281,69.92023468017578,15055869.0,50354.0,0.15640884562918395,-0.356681828867,0.01332338374161434,0.004702941727664133,-0.02289336485547387,0.0015265906108153056,15.055869238000014
1604,B,18566876241805.0,-12.870797078079518,17.454239,0.6631310288565424,22,1970-01-01 05:09:26.876241805,-0.35150146,-1.0489044,0.0932312,22.616406247792128,1.1101557428464404,91.09903717041016,-1.6677271127700806,69.86768341064453,15106223.0,50354.0,-0.2477281840242161,0.13891737051000003,0.02926300336995434,-0.0022991469827717244,-0.005482655768054189,0.0010721974683079647,15.106223241000407
1604,B,18566926595809.0,-4.099251578079517,5.049759,-2.563034691143457,22,1970-01-01 05:09:26.926595809,-1.3782501,-1.2259674,-0.8901825,8.142383275344233,2.0481685202441278,91.03184509277344,-1.6220825910568237,69.80718994140625,15156577.0,50354.0,-0.42725491501611607,0.073113957646,-0.04783387450539765,-0.016994049484538445,0.0053383127489836125,-0.0004675588225770563,15.156577244997607
1604,B,18566976949813.0,1.198142251920482,13.698105,5.6361993088565425,22,1970-01-01 05:09:26.976949813,0.7460785,1.3206482,-2.2978973,14.63576514276383,2.753375527906206,91.06730651855469,-1.508418321609497,69.87535095214844,15206931.0,50354.0,-0.07304122950470604,-0.02145422807200004,0.07737306558016235,-0.012595956030600737,0.001300637011484597,0.0007437082136893509,15.206931248998444
1604,B,18567027303817.0,0.868506621920482,19.220078,1.7834161088565423,22,1970-01-01 05:09:27.027303817,2.3825226,-0.026519775,-1.6293945,19.27415677812006,2.886527961861285,91.06375885009766,-1.341691255569458,69.87876892089844,15257285.0,50354.0,0.05203201869669395,0.33531189339100004,0.18680365737176235,-0.0005289489005133204,0.007901994439736463,0.00665117735376061,15.257285252999282
1604,B,18567077657821.0,0.07205892192048213,9.7105255,3.7336877088565426,22,1970-01-01 05:09:27.077657821,0.61291504,-0.23448181,-0.7799072,10.338109048834077,1.0192653266401823,91.09465789794922,-1.3024805784225464,69.86776733398438,15307639.0,50354.0,0.023680618697283957,0.23491660431949998,0.13890412281856235,0.0019062170716681818,0.014356642886857259,0.008200344781851806,15.307639257000119
1604,B,18567128011825.0,2.4953987219204823,5.2425385,1.7801507088565425,22,1970-01-01 05:09:27.128011825,-0.27485657,-0.14585876,-0.6401367,5.48774609546505,0.7117555104302267,91.08106994628906,-1.270339846611023,69.86109161376953,15357993.0,50354.0,0.06464088109898397,-0.11699590767200006,0.13882190984276235,0.0022236704003706378,0.0029688893794941056,0.006992308324314172,15.357993260997318
1604,B,18567178365829.0,3.076590721920482,4.26503,1.4995415088565425,22,1970-01-01 05:09:27.178365829,-1.0232391,0.44885254,-0.13035583,4.653993223729246,1.1249353318516806,91.0294189453125,-1.2642372846603394,69.88365936279297,15408347.0,50354.0,0.14028597822758396,-0.25409714787550003,0.08257281096536234,0.005159443537265001,-0.00934300985951941,0.0055740548857861555,15.408347264998156
1604,B,18567228719833.0,0.683814221920482,3.6907043,0.3403313488565425,22,1970-01-01 05:09:27.228719833,-1.9618835,1.2988129,0.57881165,3.7851694576726143,2.422999121533968,90.92987060546875,-1.2942856550216675,69.94810485839844,15458701.0,50354.0,0.09467571527108395,-0.29316767752890005,0.046322478938642345,0.0059156305572159625,-0.013778486509206583,0.0032451967139131258,15.458701268998993
1604,B,18567279073837.0,-15.949410078079516,16.118591,4.110366108856542,22,1970-01-01 05:09:27.279073837,-1.3824615,-2.1808472,4.3016663,24.03653956042842,5.017133371287411,90.86349487304688,-1.507634162902832,69.83567810058594,15509055.0,50354.0,-0.38434190687051606,0.005269427768099932,0.11205520989284234,-0.007292925705898901,-0.007248414234227666,0.0039874750717102895,15.50905527299983
1604,B,18567329427841.0,-0.8906486780795182,17.520294,0.8002159888565424,22,1970-01-01 05:09:27.329427841,-1.5590515,0.74528503,0.4928894,17.686765346660593,1.7969505603178713,90.73823547363281,-1.3010869026184082,69.87357330322266,15559409.0,50354.0,-0.42398215930381605,0.35345700764499993,0.12363372547412234,-0.02035117501407116,0.009031655464395615,0.0059339403257340695,15.55940927699703
1604,B,18567379781844.0,-5.560906078079518,11.9683075,0.38432243885654244,22,1970-01-01 05:09:27.379781844,0.796051,-1.0040894,1.6974487,13.901679126317182,2.126787438115302,90.77924346923828,-1.3852835893630981,69.82225036621094,15609763.000000002,50354.00000000186,-0.16243079409582206,0.2489653199655091,0.029823123994533438,-0.014764118927743234,0.015167186942250348,0.0038635830990724897,15.609763279997424
1604,B,18567430135848.0,-2.020958678079518,4.168518,3.1500542088565426,22,1970-01-01 05:09:27.430135848,0.42573547,-0.32235718,0.82411194,6.075914893985491,0.98200067798563,90.80094146728516,-1.4262633323669434,69.80554962158203,15660117.0,50353.99999999814,-0.190888608965809,-0.08719234438649683,0.08898500085946905,-0.008895522610882356,0.004072958206152641,0.0029912321594491097,15.660117283998261
1604,B,18567480489852.0,0.826407621920482,-6.2448273,-0.9832770911434576,22,1970-01-01 05:09:27.480489852,0.9600525,1.3600311,-0.7314453,6.452924922468708,1.8183502475088649,90.84725189208984,-1.3906689882278442,69.87408447265625,15710471.0,50354.0,-0.030075211940916058,-0.5457444392461,0.05455294749266235,-0.005563206118968617,-0.015935449401517893,0.0036138549256616126,15.710471287999098
1604,B,18567530843856.0,5.739188421920482,3.432785,0.005919728856542461,22,1970-01-01 05:09:27.530843856,1.4954224,0.1199646,-0.55415344,5.468214769280955,1.5993016271919296,90.92185974121094,-1.3630552291870117,69.8805160522461,15760825.0,50354.0,0.16530201159578395,-0.5642679889871001,-0.024606926310297664,0.003404605134910609,-0.027946782905627285,0.0007539509753083959,15.760825291999936
1604,B,18567581197860.0,-1.764366878079518,8.987778,-0.37278816114345753,22,1970-01-01 05:09:27.581197860,-0.045776367,-0.6091919,0.5269928,9.604769136214252,0.8068033577354328,90.9203109741211,-1.3889132738113403,69.84962463378906,15811179.0,50354.0,0.10007408200928394,-0.18075668534900002,-0.009236646519687662,0.006681373908694794,-0.018757486225759994,-0.0008520796331405406,15.811179295997135
1604,B,18567631551864.0,5.966788521920482,5.5058136,-9.917481191143457,22,1970-01-01 05:09:27.631551864,0.32107544,0.7204132,0.058685303,12.590282382165338,0.790903648805362,90.93550109863281,-1.392430067062378,69.88560485839844,15861533.0,50354.0,0.10580436972698395,-0.12856404428680004,-0.2590781114825277,0.005183401779364018,-0.007787768010040538,-0.006755360662221776,15.861533299997973
1604,B,18567681905868.0,-4.079430378079517,15.665497,-5.5930945911434575,22,1970-01-01 05:09:27.681905868,-0.9965973,-0.30101013,-1.5483093,17.71087384821901,1.865763909286595,90.88597869873047,-1.3147815465927124,69.87178039550781,15911887.0,50354.0,0.04751801598748397,0.039560886976199965,-0.3905097664706377,0.0038601977051331594,-0.0022408324916089782,-0.016354674003226845,15.91188730399881
1604,B,18567732259872.0,1.220130161920482,13.110214,-10.943818191143457,22,1970-01-01 05:09:27.732259872,2.3842163,2.682541,-2.9609833,17.398965430204207,4.6527342160009075,91.00223541259766,-1.1689586639404297,70.00836181640625,15962241.0,50354.0,-0.07198860154223603,0.23101687584699993,-0.4163498531196377,-0.0006160959325119926,0.006812336334599704,-0.020314304642424362,15.962241307999648
1604,B,18567782613876.0,4.647193121920482,14.389038,0.8837731088565425,22,1970-01-01 05:09:27.782613876,1.6524811,0.58280945,-1.9685211,14.732184534236154,2.6354195039901565,91.08425903320312,-1.0710804462432861,70.03929138183594,16012595.000000002,50354.00000000186,0.14772159831726941,0.1988794676040073,-0.253281755036747,0.001906729659805086,0.01082350023906641,-0.01685931499855392,16.012595312000485
1604,B,18567832967880.0,1.403113561920482,7.8161316,1.5716546088565424,22,1970-01-01 05:09:27.832967880,-0.40625,-0.1430664,-0.33865356,7.891172806699208,0.5478989788360931,90.84112548828125,-1.008083701133728,70.0364990234375,16062949.0,50353.99999999814,0.1523285713790583,0.06559035501919752,0.06182030364886005,0.007554363122444163,0.006658556724184182,-0.004820424961592651,16.062949315997685
1604,B,18567883321884.0,3.0620186219204824,6.2113495,2.9140618088565424,22,1970-01-01 05:09:27.883321884,-1.0772858,-0.32513428,-0.4030304,6.84527745164781,1.195278418711272,90.78753662109375,-0.9877043962478638,70.0205307006836,16113302.999999998,50353.99999999814,0.1124186329925598,-0.14029930834529483,0.11293688224875816,0.0066655403644639835,-0.0018809473178910824,0.004399861669344171,16.113303319998522
1604,B,18567933675887.0,2.375296791920482,3.3563385,-0.44209359114345753,22,1970-01-01 05:09:27.933675887,-1.6048431,0.89382935,0.2505951,3.5894428645322534,1.8539822509083097,90.7065200805664,-1.0008152723312378,70.06505584716797,16163657.0,50354.00000000186,0.13689529017427904,-0.25258351922400935,0.06223674381736464,0.006276976643571733,-0.009891610949712736,0.004410346383466937,16.163657322998915
1604,B,18567984029891.0,-3.2398307780795177,17.238739,-12.142762191143458,22,1970-01-01 05:09:27.984029891,-1.694931,1.2663574,1.8760986,21.894277442494225,2.8277549604266845,90.62063598632812,-1.095347285270691,70.12728881835938,16214011.0,50354.0,-0.021766372169526038,0.02505306621749993,-0.3168489140306377,0.0028986007686056664,-0.005728534215344888,-0.006410370609459576,16.214011326999753
1604,B,18568034383895.0,-3.2082145780795175,18.7361,2.8798363088565426,22,1970-01-01 05:09:28.034383895,-1.0781097,0.47174072,1.7255707,19.46825246362319,2.0886488629826454,90.56627655029297,-1.18186354637146,70.14997863769531,16264365.000000002,50354.00000000186,-0.16234243793202202,0.4122693215030152,-0.23321268493834627,-0.004635307511926847,0.011010465755639817,-0.013848900877242621,16.26436533100059
1604,B,18568084737899.0,-3.6486137780795174,17.869034,0.40623405885654246,22,1970-01-01 05:09:28.084737899,-1.1372528,-2.1043854,2.1226807,18.599089181353364,3.198054908376885,90.51171112060547,-1.2870029211044312,70.04374694824219,16314719.0,50353.99999999814,-0.17263436752300962,0.4281382587179841,0.08273339364790927,-0.008433711030941019,0.021158941647223317,-0.003788617116819192,16.31471933499779
1604,B,18568135091903.0,1.5501777719204821,7.6324463,0.6603081588565425,22,1970-01-01 05:09:28.135091903,-0.8585968,0.41732788,1.3729858,7.63442031877674,1.6722562696540189,90.4238052368164,-1.3311015367507935,70.0650405883789,16365072.999999998,50353.99999999814,-0.05283232332706408,0.14858156951309445,0.02685233341536135,-0.005676574875532096,0.014520075115373328,0.002759039850271862,16.365073338998627
1604,B,18568185445907.0,-1.722893478079518,-1.5325317,1.8126366088565424,22,1970-01-01 05:09:28.185445907,0.69229126,0.25935364,0.12438965,3.814373379510518,0.7496694500116432,90.45812225341797,-1.3374228477478027,70.07795715332031,16415427.000000002,50354.000000003725,-0.004348463333966367,-0.3398916501158252,0.06226133041671695,-0.00143964066576487,-0.004816613899335308,0.0022436147143004015,16.415427342999465
1604,B,18568235799911.0,1.215323651920482,-4.9917755,-1.6320501911434577,22,1970-01-01 05:09:28.235799911,1.6368713,0.9002991,-0.989151,5.432640089354629,2.1138367541098106,90.5389175415039,-1.2883572578430176,70.12342071533203,16465781.0,50353.99999999814,-0.012779085513205576,-0.6577316823743756,0.004546624238762165,-0.00043122029732523204,-0.025117162642104857,0.0016820238743609356,16.465781347000302
1604,B,18568286153915.0,0.894782261920482,10.08197,3.3197015088565425,22,1970-01-01 05:09:28.286153915,1.1712646,-0.3692932,-0.68266296,10.489283976416006,1.4050860997587875,90.5978775024414,-1.2540408372879028,70.10528564453125,16516134.999999998,50353.99999999814,0.05312613659277199,-0.3653133730734865,0.04248999722606076,0.001015817705030206,-0.02575720536100987,0.0011842410186198031,16.5161353509975
1604,B,18568336507919.0,-3.607735478079518,9.293137,-1.3006903911434575,22,1970-01-01 05:09:28.336507919,-0.38075256,-0.25839233,0.2635193,10.759647584276262,0.5302655274689017,90.57913970947266,-1.2670845985412598,70.09223175048828,16566489.0,50354.00000000186,-0.06830402312323858,-0.005662131061000249,0.05083264291066422,-0.00038213364917757145,-0.009340050267594319,0.0023495841107224118,16.56648935499834
1604,B,18568386861923.0,3.6251594219204817,7.472702,-7.061539191143457,22,1970-01-01 05:09:28.386861923,-1.0089417,0.21278381,-0.059127808,10.833210327804737,1.0328293186562294,90.52845001220703,-1.264230489730835,70.10289001464844,16616843.0,50354.0,0.00043868263408393995,-0.07135567149700005,-0.21053585419323767,-0.0017086456774954466,-0.0019390772150027736,-0.004020847750461352,16.616843358999176
1604,B,18568437215927.0,1.188803871920482,9.381058,-4.7770086911434575,22,1970-01-01 05:09:28.437215927,-0.24824524,0.74050903,-1.2878723,10.76396006539161,1.5061853749792848,90.51522827148438,-1.2001757621765137,70.14051055908203,16667197.000000002,50354.00000000186,0.12120115384903841,-0.06914208448000261,-0.29805912003234863,0.0030625261631356845,-0.0035373120022331264,-0.01280489566607806,16.667197363000014
1604,B,18568487569930.0,1.295737461920482,8.435791,-2.8801733911434573,22,1970-01-01 05:09:28.487569930,2.3044891,1.8292542,-1.9816895,9.087108444481714,3.5473841368882932,90.62859344482422,-1.1020079851150513,70.23297882080078,16717551.0,50353.99999999814,0.06255329716211164,-0.04489439272699839,-0.19278487328573052,0.004626385813107554,-0.0028710963866405577,-0.012357979219768821,16.717551366000407
1604,B,18568537923934.0,-0.25763777807951804,13.429932,1.9805444088565425,22,1970-01-01 05:09:28.537923934,1.4831696,-0.45150757,-1.3089905,13.627444575335542,2.0290656167856462,90.7031478881836,-1.0362968444824219,70.21115112304688,16767904.999999998,50353.99999999814,0.026136235740062984,0.057044107970997876,-0.022649958887036817,0.002232936369877968,0.00030589338069816376,-0.005424002769613562,16.767905369997607
1604,B,18568588277938.0,1.197623451920482,9.538376,1.1634209488565423,22,1970-01-01 05:09:28.588277938,0.3017273,-0.3141632,-0.9272003,9.567144593346528,1.0244209467399716,90.60033416748047,-0.917120099067688,70.19805145263672,16818259.0,50354.00000000186,0.023666019310294825,0.08480389051600311,0.07915561581114526,0.0012538713754029049,0.0035713070579073557,0.0014226429243783308,16.818259373998444
1604,B,18568638631942.0,3.424597921920482,4.3912964,2.2195122088565427,22,1970-01-01 05:09:28.638631942,-1.0033722,-0.18925476,-0.40325928,5.092538391801295,1.097811997940274,90.5503158569336,-0.8968642950057983,70.18879699707031,16868613.0,50354.0,0.11637366752919397,-0.14276183798520006,0.08517210811174233,0.0035257791955578092,-0.0014592072434319718,0.004137279105206541,16.86861337799928
1604,B,18568688985946.0,2.952323121920482,2.2872772,0.8208763888565425,22,1970-01-01 05:09:28.688985946,-1.6328125,0.19818115,0.30496216,2.7238017760610367,1.6728282480288996,90.468505859375,-0.9121965765953064,70.19854736328125,16918967.0,50354.0,0.16055174112078396,-0.32532275247280007,0.07654786372462236,0.0069721510135804955,-0.011784965733961069,0.0040716237309241544,16.91896738200012
1604,B,18568739339950.0,-4.158623478079518,9.252106,-3.0219121911434574,22,1970-01-01 05:09:28.739339950,-1.7658539,0.79927063,1.5952148,11.405400249913134,2.510335394775934,90.37956237792969,-0.9922540783882141,70.2379379272461,16969321.0,50354.0,-0.030371024067016045,-0.20294214917360007,-0.05541547839417767,0.003277559913262715,-0.013300125428751417,0.000532050065464606,16.96932138599732
1604,B,18568789693954.0,-7.958871078079518,18.081284,-3.2006689911434574,22,1970-01-01 05:09:28.789693954,-1.1944885,1.1302032,1.8188782,20.74204814636406,2.452035879908312,90.3188247680664,-1.0835425853729248,70.29389953613281,17019675.0,50354.0,-0.3050821604404161,0.19470356002999992,-0.15666592642643765,-0.008445704826343619,-0.000207422958868421,-0.005339573529168633,17.019675389998156
1604,B,18568840047958.0,-2.168358578079518,17.449448,4.7453301088565425,22,1970-01-01 05:09:28.840047958,-0.11494446,-0.39717102,1.2355652,18.333412910135884,1.3029115132899747,90.3134765625,-1.145211935043335,70.27369689941406,17070029.0,50354.0,-0.2549732610531161,0.401088039564,0.03888993296066234,-0.01410051534694266,0.015000245102978139,-0.002965246187487825,17.070029393998993
1604,B,18568890401962.0,-1.554085578079518,13.831482,3.0956567088565428,22,1970-01-01 05:09:28.890401962,-0.08985901,-0.8952637,1.604248,14.404314412500453,1.83934319247928,90.30990600585938,-1.2251747846603394,70.22848510742188,17120383.0,50354.0,-0.09371997651961606,0.29409077461,0.19741252510956236,-0.008779049642368678,0.0175025170044588,0.005949386986834048,17.12038339799983
1604,B,18568940755966.0,-1.115090078079518,4.3845215,1.2704766088565425,22,1970-01-01 05:09:28.940755966,0.12739563,0.19378662,0.26733398,5.169612292710382,0.3539072724553166,90.31608581542969,-1.2385993003845215,70.23811340332031,17170737.0,50354.0,-0.06720183549511606,-0.03484487988050006,0.10992613854006236,-0.00405152846109491,0.006527033891604621,0.007737865534706602,17.17073740199703
1604,B,18568991109969.0,0.35748982192048206,-1.7899628,1.2048028088565426,22,1970-01-01 05:09:28.991109969,1.1178589,0.55708313,-0.6938629,2.245549893280675,1.4287742502005756,90.37138366699219,-1.2040715217590332,70.26618194580078,17221091.0,50354.0,-0.019074101649316052,-0.4281459956101,0.062320109899762346,-0.0021721692694853675,-0.011656721272226838,0.004336643796969467,17.221091404997424
1604,B,18569041463973.0,2.542655221920482,2.9041443,0.6687462688565424,22,1970-01-01 05:09:29.041463973,1.2055054,-0.03831482,-0.43060303,3.0872115077197533,1.2806757061434302,90.43169403076172,-1.182528018951416,70.26441955566406,17271445.0,50354.0,0.07301695176878395,-0.46541745237450005,0.04717034512958234,0.0013581191374578434,-0.022497246929908277,0.0027566411862738113,17.27144540899826
1604,B,18569091817977.0,-1.756279778079518,5.937744,-2.0919958911434575,22,1970-01-01 05:09:29.091817977,0.892746,0.1913147,-0.120666504,7.25273142288582,0.9209544723490256,90.47612762451172,-1.1765742301940918,70.27403259277344,17321799.0,50354.0,0.019798574549583947,-0.27085697827090005,-0.03583315574031767,0.0023368165061175487,-0.01853718134035924,0.0002854364172535167,17.3217994129991
1604,B,18569142171981.0,-4.842263078079518,11.457306,-0.8687750911434575,22,1970-01-01 05:09:29.142171981,0.31251526,-0.06437683,-0.89608765,13.171079348837498,0.9512009464126069,90.49181365966797,-1.1317436695098877,70.27117919921875,17372153.0,50354.0,-0.16613151348951607,-0.055514026150000007,-0.07454333102103766,-0.0036842244036906714,-0.008217042778305001,-0.0027789488071906436,17.372153416999936
1604,B,18569192525985.0,-2.744408378079518,19.495117,-0.3606726911434575,22,1970-01-01 05:09:29.192525985,-0.005722046,-0.40629578,-1.9435883,19.972224077023977,1.9856093479214698,90.49189758300781,-1.034394383430481,70.25170135498047,17422507.0,50354.0,-0.19100962725171605,0.28581995387099995,-0.03095380681463766,-0.008991742500442003,0.005798412342231616,-0.0026561014392887977,17.422507420997135
1604,B,18569242879989.0,2.198340621920482,17.079391,-1.5806585911434576,22,1970-01-01 05:09:29.242879989,1.7540131,0.3766327,-2.3848572,17.218354589804555,2.984285175728476,90.73942565917969,-0.946891725063324,70.26885223388672,17472861.0,50354.0,-0.013748347896816043,0.42736718791600004,-0.048876897694137666,-0.0051551915403145925,0.0179559126687713,-0.0020098976474174366,17.472861424997973
1604,B,18569293233993.0,2.467292021920482,10.808838,0.7187035388565425,22,1970-01-01 05:09:29.293233993,1.2697906,-0.068603516,-1.4842529,10.853484786545629,1.954502822053305,90.75453186035156,-0.9753296971321106,70.26716613769531,17523215.0,50354.0,0.11746663307398396,0.20867274153299994,-0.021701442351427663,0.0026113152659055566,0.016013577303737474,-0.0017769508673271986,17.52321542899881
1604,B,18569343587997.0,3.241309321920482,5.5277405,1.9127648088565423,22,1970-01-01 05:09:29.343587997,-0.2272644,-0.59484863,-0.611557,5.96423976435963,0.8828906865344299,90.74366760253906,-0.944365918636322,70.23783111572266,17573569.0,50354.0,0.14372545603388398,-0.08216316310550004,0.06625247859037234,0.006576033227468791,0.0031851316560691655,0.00112166143938791,17.573569432999648
1604,B,18569393942001.0,3.8058999219204823,4.1620636,1.9203637088565424,22,1970-01-01 05:09:29.393942001,-0.9496918,-0.20988464,-0.38157654,4.9632478812267244,1.0447807104716,90.69635772705078,-0.9251551628112793,70.22756958007812,17623923.0,50354.0,0.17742758713218396,-0.24950900217430005,0.09650667669046234,0.008085670167792094,-0.008350510105249528,0.004097787252505575,17.623923437000485
1604,B,18569444296005.0,2.392874921920482,0.8018341,1.2399437788565424,22,1970-01-01 05:09:29.444296005,-1.6090393,0.4172821,0.00932312,1.4078279511603293,1.6622932173631206,90.61554718017578,-0.9258587956428528,70.24842071533203,17674277.0,50354.0,0.15606655424338398,-0.36849314760710006,0.07956706161815233,0.008396381997412675,-0.015559440125046311,0.004433008509395992,17.674277440997685
1604,B,18569494650009.0,-0.5808189780795179,12.869354,-9.188538191143458,22,1970-01-01 05:09:29.494650009,-2.2293549,1.0857391,1.4389191,16.238633269386536,2.8669392807953975,90.50318145751953,-0.9983303546905518,70.30200958251953,17724631.0,50354.0,0.04562213249808396,-0.14926969720630004,-0.2001217615181477,0.005077916066089939,-0.013035715143866974,-0.0030352056793821838,17.724631444998522
1604,B,18569545004012.0,-2.5889060780795177,17.36583,-5.709198691143458,22,1970-01-01 05:09:29.545004012,-0.7883148,0.014877319,2.3953552,18.88977047468606,2.5217827211492088,90.46377563476562,-1.1181029081344604,70.30175018310547,17774985.0,50354.0,-0.07980416773891603,0.267762027568,-0.3750803214853377,-0.0008606011012584293,0.00298328140151652,-0.014481862843778753,17.774985447998915
1604,B,18569595358016.0,0.799430121920482,18.66571,7.036605108856542,22,1970-01-01 05:09:29.595358016,0.25268555,-1.7702942,2.8149872,19.792810625686435,3.334957942447893,90.47826385498047,-1.258114218711853,70.2120590209961,17825339.0,50354.0,-0.045053636148216045,0.41369688258,0.03342011137876233,-0.0031435449284663245,0.017157090980796198,-0.008601979109853249,17.825339451999753
1604,B,18569645712020.0,-3.0453574780795174,7.2729797,0.7841484888565424,22,1970-01-01 05:09:29.645712020,-0.43496704,0.022644043,1.6871948,8.587076050806402,1.7425083562832024,90.45651245117188,-1.3424803018569946,70.21250915527344,17875693.0,50354.0,-0.05654571304601604,0.1595891905769,0.19690311332962232,-0.002557966814663181,0.01443362346387127,0.005798847828483,17.87569345600059
1604,B,18569696066024.0,-3.2420585780795177,-1.1791992,0.9958489088565425,22,1970-01-01 05:09:29.696066024,0.6623993,0.4842224,0.016815186,4.922594676685386,0.8206868561043638,90.48905944824219,-1.3435205221176147,70.2367172241211,17926047.0,50354.0,-0.15829827404591604,-0.3400460883515001,0.04481499448222234,-0.005409127063013574,-0.004543363315271107,0.006085736800378813,17.92604745999779
1604,B,18569746420028.0,4.222663121920482,-2.083725,-1.0936896911434577,22,1970-01-01 05:09:29.746420028,1.4562836,0.6078186,-0.95080566,3.769603431731843,1.8423454554515435,90.5611572265625,-1.296263575553894,70.26754760742188,17976401.0,50354.0,0.02468868060028397,-0.5756198425834,-0.0024633373756376637,-0.0033638887341806787,-0.023053721143147982,0.0010662876709724826,17.976401463998627
1604,B,18569796774032.0,1.227759561920482,7.400635,3.9248193088565424,22,1970-01-01 05:09:29.796774032,0.79959106,0.32815552,-0.48078918,8.163233781084111,0.9890349559765147,90.60076141357422,-1.2723877429962158,70.28419494628906,18026755.0,50354.0,0.13722529191106395,-0.35960535693000006,0.07127935038516234,0.004076508085918207,-0.023546164848148875,0.0017325807595408027,18.026755467999465
1604,B,18569847128036.0,-9.894677078079518,17.689575,-1.5039221911434577,22,1970-01-01 05:09:29.847128036,-0.34169006,-0.8154144,-0.08380127,21.141905281783973,0.8880739798484001,90.58458709716797,-1.267777919769287,70.24346160888672,18077109.0,50354.0,-0.21820698230433605,0.13822701717000005,0.060950926732662336,-0.002038876019031412,-0.00557364246013752,0.003329161686995472,18.077109472000302
1604,B,18569897482040.0,-4.121010578079518,10.400757,0.8981621588565425,22,1970-01-01 05:09:29.897482040,-0.26948547,-1.3381042,-0.2808075,11.834494004569496,1.3935559266333772,90.57258605957031,-1.253062129020691,70.17668914794922,18127463.0,50354.0,-0.352872968119116,0.213761088764,-0.015251220332887665,-0.014378079911811253,0.00886200454310032,0.001150581508027127,18.1274634759975
1604,B,18569947836044.0,-9.186593078079518,17.744888,7.631514808856543,22,1970-01-01 05:09:29.947836044,-0.65119934,-0.82437134,-2.036255,21.91555606046803,2.291284162135904,90.54086303710938,-1.150853157043457,70.13645935058594,18177817.0,50354.0,-0.335045537251116,0.21515370416499993,0.21475167701611236,-0.017319724209706334,0.010798787741573432,0.005022822997913548,18.17781747999834
1604,B,18569998190048.0,-1.948342078079518,14.224838,-0.9282232911434576,22,1970-01-01 05:09:29.998190048,1.4778748,-0.087524414,-1.8527374,14.707980493772181,2.3715839265941745,90.61483001708984,-1.0581777095794678,70.13301086425781,18228171.0,50354.0,-0.2803442624266161,0.3114325915019999,0.16876877054146236,-0.015493668986486263,0.013257863166008056,0.00965589430815706,18.228171483999176
1604,B,18570048544052.0,-0.332024378079518,8.02533,1.2532189088565424,22,1970-01-01 05:09:30.048544052,0.8230438,-0.6190491,-1.6411743,8.269301874858051,1.9375437976752268,90.6565170288086,-0.975773811340332,70.10297393798828,18278525.0,50354.0,-0.057412786266716045,0.06672327973599998,0.008182414667162336,-0.008503709214952023,0.009520830370159123,0.004455099989997544,18.278525488000014
1604,B,18570098898055.0,-0.7557304780795178,3.693344,2.0008233088565426,22,1970-01-01 05:09:30.098898055,0.516037,-0.2863617,-0.93891907,4.588601960239242,1.1089933401989187,90.68254089355469,-0.9286662936210632,70.08919525146484,18328879.0,50354.0,-0.027386404013516046,-0.19842814470200004,0.08192702091536234,-0.0021349892136854035,-0.003315933385248984,0.0022686852596612243,18.328879491000407
1604,B,18570149252059.0,5.197837121920482,3.1197968,3.3704674088565425,22,1970-01-01 05:09:30.149252059,-0.5342865,-0.090423584,-0.70417786,5.6230903761784266,0.8885409090975129,90.6558837890625,-0.8934078216552734,70.0850830078125,18379233.0,50354.0,0.11183891897198396,-0.32193475407840005,0.13523298639986236,0.002126260969109347,-0.013101176702594135,0.0054674375041754136,18.379233494997607
1604,B,18570199606063.0,2.172019221920482,2.1668243,0.34364250885654246,22,1970-01-01 05:09:30.199606063,-1.6759338,0.5993042,0.040496826,2.270359439615558,1.7803257058853454,90.57162475585938,-0.8957526087760925,70.11502838134766,18429587.0,50354.0,0.185550873168884,-0.3603679405653001,0.09351014539826234,0.007487382796730634,-0.017178334943044438,0.0057590658292813865,18.429587498998444
1604,B,18570249960067.0,-2.112404578079518,18.762589,-10.087922191143457,22,1970-01-01 05:09:30.249960067,-1.6508484,1.3921051,1.6008606,21.84216563599606,2.6881241991137483,90.48796081542969,-0.9764381051063538,70.18390655517578,18479941.0,50354.0,0.001500917887983949,0.033470638654099924,-0.24533172956093768,0.004709402943438764,-0.008230293370218286,-0.003822412024463677,18.47994150299928
1604,B,18570300314071.0,-4.277901478079518,15.993179,4.087615308856543,22,1970-01-01 05:09:30.300314071,-1.5589294,0.5188141,2.1257782,17.38450154499358,2.686700932396163,90.40955352783203,-1.0829277038574219,70.2090072631836,18530295.0,50354.0,-0.16088873557591607,0.38157677093599995,-0.15106972637533767,-0.004012907085929067,0.010449648631249945,-0.009980199456107605,18.53029550700012
1604,B,18570350668075.0,1.439002235920482,19.589523,2.8129876088565426,22,1970-01-01 05:09:30.350668075,-1.0938568,-1.4642792,2.1070862,19.726752113704777,2.7893455377004335,90.17754364013672,-1.1558505296707153,70.13856506347656,18580649.0,50354.0,-0.07147496621983807,0.40239648825400004,0.17373647965926237,-0.005850220920111702,0.01973809474662663,0.0005706808474293722,18.58064951099732
1604,B,18570401022079.0,-5.075188478079518,5.6236725,-0.8933264911434575,22,1970-01-01 05:09:30.401022079,-0.4011383,0.46707153,1.5183411,8.770076708628078,1.6384222428338309,90.1570053100586,-1.2318357229232788,70.16169738769531,18631003.0,50354.0,-0.09154826101883806,0.14132342310349996,0.048331307960662345,-0.004104435792188149,0.013689236208247777,0.005591000688906844,18.631003514998156
1604,B,18570451376083.0,-2.139931478079518,-2.5056305,3.4675133088565424,22,1970-01-01 05:09:30.451376083,1.348526,0.24697876,0.4358673,5.334951265541932,1.4385760959283411,90.2241439819336,-1.2536667585372925,70.17396545410156,18681357.0,50354.0,-0.18165507513621607,-0.41496625656600006,0.06481030150956234,-0.006878440394375797,-0.006889505618085365,0.002848566301631847,18.681357518998993
1604,B,18570501730087.0,5.060843621920482,-5.6067505,-3.1150366911434575,22,1970-01-01 05:09:30.501730087,1.5509033,1.1262054,-0.7693329,7.552895698376233,2.065311782749147,90.30046844482422,-1.2154566049575806,70.23046875,18731711.0,50354.0,0.07353980504548396,-0.6977146164370002,0.00887430380416234,-0.0027220181550743623,-0.02801396633959654,0.0018551573079836463,18.73171152299983
1604,B,18570552084091.0,1.087393961920482,16.69075,3.6310723088565426,22,1970-01-01 05:09:30.552084091,1.0554657,-0.5774231,-0.29449463,16.98877032747345,1.2386090454170504,90.3538589477539,-1.2005668878555298,70.20166778564453,18782065.0,50354.0,0.15479417764836398,-0.21440734458850003,0.012992228747162346,0.0057487646822830096,-0.02296449461273902,0.0005505336900447016,18.78206552699703
1604,B,18570602438094.0,-10.975030078079518,1.5923767,1.4814904088565424,22,1970-01-01 05:09:30.602438094,-0.5421295,-0.67063904,0.0572052,12.625558255162337,0.8642531756663736,90.32745361328125,-1.2032262086868286,70.16812896728516,18832419.0,50354.0,-0.24894101449653608,-0.03315491907410003,0.12871899154386235,-0.0023703349113264292,-0.006232875112233282,0.003567863393267129,18.832419529997424
1604,B,18570652792098.0,-5.060372078079518,-1.5532227,13.687651808856543,22,1970-01-01 05:09:30.652792098,-0.28141785,-3.6807098,0.31674194,14.823379460414023,3.705016342024637,90.31727600097656,-1.2180289030075073,69.98395538330078,18882773.0,50354.0,-0.4037233200856161,-0.49248341974200005,0.38191349361536236,-0.016432129951774847,-0.013233996456372953,0.012856194078853803,18.88277353399826
1604,B,18570703146102.0,-8.623192578079518,17.83995,0.6958916488565424,22,1970-01-01 05:09:30.703146102,-1.4937134,-0.27191162,-2.2188263,20.51822355923235,2.688550873612451,90.24285125732422,-1.1070221662521362,69.97090148925781,18933127.0,50354.0,-0.3445111073481161,-0.08341826676789997,0.3621344736348424,-0.01883829817949908,-0.014499476761259754,0.018732895671458406,18.9331275379991
1604,B,18570753500106.0,2.546241021920482,3.8297272,-9.390976191143457,22,1970-01-01 05:09:30.753500106,2.2973022,0.8511505,-2.5580597,10.648895631216744,3.5419943535442258,90.35692596435547,-0.9793447852134705,70.01414489746094,18983481.0,50354.0,-0.15299940932941608,0.052108262864400026,-0.21891614352115762,-0.012525822278390228,-0.0007882919682784182,0.003605807897272242,18.983481541999936
1604,B,18570803854110.0,5.433890521920482,8.739365,-1.9593664911434574,22,1970-01-01 05:09:30.803854110,1.9229889,-0.09547424,-1.6401978,9.88813583473332,2.5292786448218054,90.4531478881836,-0.8973032236099243,70.00994110107422,19033835.0,50354.0,0.20091577187928394,-0.17701716568060005,-0.28576757771193767,0.0012063902599180232,-0.003144831446203468,-0.01270642204948564,19.033835545997135
1604,B,18570854208114.0,2.005820471920482,3.5868073,2.2981713088565425,22,1970-01-01 05:09:30.854208114,0.21907043,-0.32539368,-0.5940399,4.046640766294352,0.7118681781596488,90.46434783935547,-0.8674739599227905,69.9939193725586,19084189.0,50354.0,0.18730960369193397,-0.18313316000290006,0.008530088895562345,0.009774350280756555,-0.009067504749733484,-0.0069800082559298825,19.084189549997973
1604,B,18570904562118.0,3.485861921920482,5.1860657,2.6706078088565426,22,1970-01-01 05:09:30.904562118,-0.8280945,0.3173828,-0.38674927,5.962104273140608,0.9674953956022855,90.4227066040039,-0.8482584953308105,70.00992584228516,19134543.0,50354.0,0.13826408762973397,-0.27259457647900004,0.12509895184666234,0.008196968826405634,-0.0114738572214048,0.003364378358766991,19.13454355399881
1604,B,18570954916122.0,2.808875321920482,3.2112427,0.19929435885654245,22,1970-01-01 05:09:30.954916122,-1.7541962,0.9740753,0.26078796,3.476077347349301,2.0233727679904887,90.33426666259766,-0.8616181015968323,70.05854797363281,19184897.0,50354.0,0.15848259958818395,-0.2820501664132001,0.07225552687651235,0.00747119134408552,-0.013964290691796923,0.004968793710813369,19.184897557999648
1604,B,18571005270126.0,-1.573204778079518,10.59729,4.122634208856542,22,1970-01-01 05:09:31.005270126,-1.8792877,0.7172699,1.9507599,11.618881007104937,2.8020818254050526,90.23973083496094,-0.9593328833580017,70.09392547607422,19235251.0,50354.0,0.03111047728228395,-0.14581177221210007,0.10881319554931235,0.00477338489636777,-0.010772280028769182,0.004558767224514988,19.235251562000485
1604,B,18571055624130.0,-11.893105078079518,19.445557,10.455931808856542,22,1970-01-01 05:09:31.055624130,-0.7781067,-2.500183,4.667145,25.633577571405226,5.351505164072897,90.20318603515625,-1.1922032833099365,69.96798706054688,19285605.0,50354.0,-0.33904128324851607,0.26291955891899993,0.36704455662796237,-0.007752773901811827,0.002948422745919618,0.011980670626567247,19.285605565997685
1604,B,18571105978134.0,3.9632179219204824,15.9783325,0.3937218528565425,22,1970-01-01 05:09:31.105978134,-0.66152954,0.3596344,0.5191345,16.165779671538836,0.9145812501064198,90.17332458496094,-1.4060347080230713,69.9858627319336,19335959.0,50354.0,-0.19965076893061606,0.3983980659415,0.27316173024095036,-0.013562649797714009,0.01664999384111281,0.016118473684498615,19.335959569998522
1604,B,18571156332137.0,-4.391732078079518,5.939865,-2.6985327911434576,22,1970-01-01 05:09:31.156332137,0.30523682,-0.14125061,1.208374,8.960660834879935,1.2543081658767452,90.18877410888672,-1.4664325714111328,69.97860717773438,19386313.0,50354.0,-0.010788700909616044,0.058365258457500006,-0.058028224993249666,-0.005298234532167524,0.011499930218393625,0.005416416261621361,19.386313572998915
1604,B,18571206686141.0,-0.9202811780795181,0.48399353,3.0372002088565426,22,1970-01-01 05:09:31.206686141,0.822876,-0.20005798,-0.05984497,3.55310701557913,0.84895790659607,90.23017120361328,-1.4634058475494385,69.96862030029297,19436667.0,50354.0,-0.13374055775031607,-0.33173571379019007,0.008526629575762343,-0.0036388131452811108,-0.006882647953911138,-0.0012463016678260785,19.436667576999753
1604,B,18571257040145.0,2.126593791920482,-1.8864899,1.0548089088565424,22,1970-01-01 05:09:31.257040145,1.099884,0.831131,-1.1657562,2.062995368460699,1.8054116069349506,90.28411102294922,-1.4053019285202026,70.01044464111328,19487021.0,50354.0,0.030371332678673944,-0.5287798511074902,0.10302451355666234,-0.0026025269796287336,-0.021665200377428896,0.0028085231306450567,19.48702158100059
1604,B,18571307394149.0,1.480551918920482,5.5429535,-0.23135444114345755,22,1970-01-01 05:09:31.307394149,0.61143494,-0.42930603,-0.608902,5.589942999818069,0.9638039213715436,90.49337005615234,-1.3321725130081177,69.9848861694336,19537375.0,50354.0,0.09081710756184296,-0.4014104159428001,0.020732113133612336,0.003051161359935494,-0.023419400353525157,0.0031158205901810456,19.53737558499779
1604,B,18571357748153.0,-3.5442283780795174,7.8644867,-1.6760871911434576,22,1970-01-01 05:09:31.357748153,0.045562744,-1.5627136,0.50897217,9.596773148612337,1.6441418518790518,90.49748992919922,-1.3569438457489014,69.9065170288086,19587729.0,50354.0,-0.05195718221224704,-0.15591007808460006,-0.048023657976087666,0.0009783763405267765,-0.014031658078127854,-0.0006871192244990015,19.587729588998627
1604,B,18571408102157.0,-3.008385478079518,8.114822,-3.762757191143457,22,1970-01-01 05:09:31.408102157,-0.8397522,-1.33461,-0.43481445,10.216052295988757,1.6356745444719873,90.45706939697266,-1.3346474170684814,69.83995056152344,19638083.0,50354.0,-0.16497515905651605,-0.09115814486010004,-0.13693378501283765,-0.005461705556123649,-0.006220436649078715,-0.0046566735421321725,19.638083592999465
1604,B,18571458456161.0,-2.828240078079518,14.883209,-4.6637427911434575,22,1970-01-01 05:09:31.458456161,-0.14533997,0.41252136,-2.1549835,16.337353002879482,2.1989205225764987,90.44931030273438,-1.227067232131958,69.8614273071289,19688437.0,50354.0,-0.14694872162741607,0.08555222648699999,-0.21215399005403765,-0.00785330754397936,-0.00014114020687954002,-0.00878898291285872,19.688437597000302
1604,B,18571508810165.0,2.839591221920482,9.275696,-6.166825191143458,22,1970-01-01 05:09:31.508810165,1.9773254,1.6829987,-2.3810577,11.4950277000707,3.5230293970411517,90.54644775390625,-1.108747124671936,69.94664001464844,19738791.0,50354.0,0.00028578774848394856,0.114779551185,-0.2726812100900377,-0.003692532686269874,0.005043753166447945,-0.012206695834027385,19.7387916009975
1604,B,18571559164169.0,2.395240021920482,10.481461,-0.09024116114345754,22,1970-01-01 05:09:31.559164169,1.2010803,0.25927734,-1.1706848,10.534798200138882,1.697151003015526,90.67171478271484,-1.143036127090454,69.95884704589844,19789145.0,50354.0,0.13179734622618397,0.003956741788999949,-0.15753415955152766,0.0033254570640802146,0.0029894236482063967,-0.010831532361465692,19.78914560499834
1604,B,18571609518173.0,2.5497810219204817,6.539398,2.2938683088565424,22,1970-01-01 05:09:31.609518173,-0.31246948,0.010482788,-0.5397949,6.862438852285495,0.6237993257785177,90.65607452392578,-1.1160533428192139,69.95968627929688,19839499.0,50354.0,0.12450079482078394,-0.06493503295700005,0.055480720697972344,0.006452818297139512,-0.0015352504367367387,-0.0025693994300159625,19.839499608999176
1604,B,18571659872177.0,3.6276009219204823,3.709198,2.0276330088565424,22,1970-01-01 05:09:31.659872177,-1.1802216,0.5335846,-0.1628418,4.53878384950346,1.3054321132448674,90.59654998779297,-1.108202338218689,69.98645782470703,19889853.0,50354.0,0.15552794520008395,-0.23544029850800002,0.10880243867606235,0.007050283587505391,-0.007562549720294307,0.004136157103560072,19.889853613000014
1604,B,18571710226180.0,1.872443401920482,3.8287659,0.33592155885654246,22,1970-01-01 05:09:31.710226180,-1.8735046,1.0303802,0.5815735,3.8489726944208873,2.2158363158580667,90.5448226928711,-1.2448947429656982,70.03690338134766,19940207.0,50354.0,0.13847461594134397,-0.3036858828897,0.05950721335131234,0.0074021024818577315,-0.013573579869049893,0.004237532109093213,19.940207616000407
1604,B,18571760580184.0,-8.708398078079517,12.708267,3.2595971088565427,22,1970-01-01 05:09:31.760580184,-1.3533936,-0.7451019,2.8815002,16.540540726793065,3.2695404081467796,90.47801971435547,-1.388626217842102,69.99835205078125,19990561.0,50354.0,-0.17210883088165602,-0.07711632267670004,0.09052437349701235,-0.0008468086295522364,-0.009587457129545254,0.0037773452620802708,19.990561619997607
1604,B,18571810934188.0,-7.612191078079517,18.902588,5.5162348088565425,22,1970-01-01 05:09:31.810934188,-1.0558777,-1.1820374,2.4541168,21.58196856314662,2.921434476485531,90.42675018310547,-1.5108625888824463,69.93826293945312,20040915.0,50354.0,-0.410903473184616,0.302397296335,0.22094912019226234,-0.01467850077947653,0.005671899073795019,0.007841968150614869,20.040915623998444
1604,B,18571861288192.0,-1.439751378079518,13.719955,1.2399895488565424,22,1970-01-01 05:09:31.861288192,-0.92022705,0.4403839,0.84651184,14.05353018887927,1.3256462945262202,90.38016510009766,-1.553344488143921,69.95999145507812,20091269.0,50354.0,-0.22790075521871603,0.3278685651110001,0.17010146065414236,-0.01608317405851069,0.015868203593625948,0.009845480473969931,20.09126962799928
1604,B,18571911642196.0,-2.2993247780795176,6.9005737,1.0504296088565424,22,1970-01-01 05:09:31.911642196,-0.101364136,0.0023956299,0.9024811,7.902236621923354,0.9081588864107725,90.37509155273438,-1.598466396331787,69.9598159790039,20141623.0,50354.0,-0.09413872038361605,0.025693851079899997,0.05766588313374234,-0.008107987877239915,0.008901640952438292,0.0057344984145475736,20.14162363200012
1604,B,18571961996200.0,0.601569371920482,-0.9276123,1.3715508088565425,22,1970-01-01 05:09:31.961996200,0.66922,0.7849121,-0.39215088,1.568906216179314,1.1035056528224876,90.40746307373047,-1.5791277885437012,69.99920654296875,20191977.0,50354.0,-0.04274438786086604,-0.34308795083220006,0.06097820097676235,-0.0034463060162713255,-0.007991031249463659,0.0029871021056501767,20.19197763599732
1604,B,18572012350204.0,3.264945221920482,-0.8344269,-0.42411872114345756,22,1970-01-01 05:09:32.012350204,1.23732,0.78370667,-1.15979,2.1476321296845,1.868226370411918,90.46827697753906,-1.5214359760284424,70.03885650634766,20242331.0,50354.0,0.09734723792913395,-0.5378320609384001,0.02385349767235234,0.0013747359561687813,-0.0221789231363484,0.0021358076768887607,20.242331639998156
1604,B,18572062704208.0,1.6830360519204821,3.84758,-2.721771891143457,22,1970-01-01 05:09:32.062704208,1.2037506,0.14227295,-0.5729065,5.0157234222842435,1.3407009200579794,90.52825927734375,-1.49285888671875,70.04621887207031,20292685.0,50354.0,0.12457532453149397,-0.41760704440130003,-0.07920408794554765,0.0055873443550712295,-0.024055090355137632,-0.0013935618113082382,20.292685643998993
1604,B,18572113058212.0,5.636145921920482,13.898285,10.557661808856542,22,1970-01-01 05:09:32.113058212,-0.24169922,-1.4469452,0.68582153,17.649783093616364,1.6193888031486414,90.51807403564453,-1.5264853239059448,69.97351837158203,20343039.0,50354.0,0.18427504455539395,-0.04668155689500005,0.19728420045826237,0.007775925742500577,-0.011689394114836948,0.0029729029927326187,20.34303964799983
1604,B,18572163412216.0,2.120658121920482,2.697052,5.547499808856543,22,1970-01-01 05:09:32.163412216,-1.5575256,-1.1322937,-0.1769104,5.762943226631531,1.9337198109713853,90.44169616699219,-1.517163872718811,69.9169692993164,20393393.0,50354.0,0.19529305541178396,-0.07564840035100007,0.4054796540491624,0.009556386052873638,-0.003079901333582545,0.015175785564933434,20.39339365199703
1604,B,18572213766219.0,2.057913981920482,5.8961487,1.4903405088565425,22,1970-01-01 05:09:32.213766219,0.63552856,1.3802185,-2.146469,6.005189796799054,2.629872397337735,90.47168731689453,-1.4103955030441284,69.98686218261719,20443747.0,50354.0,0.10520390985840394,-0.27711818597610005,0.17719170567906237,0.007565612094607521,-0.0088816043439574,0.014669916823877516,20.443747654997424
1604,B,18572264120223.0,3.474677321920482,15.967102,3.9324181088565426,22,1970-01-01 05:09:32.264120223,1.4625397,0.07168579,-1.7407379,16.451370790467628,2.274715292747737,90.54471588134766,-1.3233933448791504,69.99121856689453,20494101.0,50354.0,0.13929405125680397,0.056981862873900016,0.13652879371816234,0.00615572516699759,-0.005542372206744091,0.007898541013323926,20.49410165899826
1604,B,18572314474227.0,0.791754921920482,11.1844635,3.8430168088565426,22,1970-01-01 05:09:32.314474227,1.0796204,-0.6447449,-0.87361145,11.697983535060956,1.531167254006979,90.59941864013672,-1.2793937921524048,69.95941162109375,20544455.0,50354.0,0.10741596460318396,0.19012576459349997,0.19576212492326234,0.006211418069306916,0.006221428736746731,0.00836608845863515,20.5444556629991
1604,B,18572364828231.0,1.528266151920482,6.169937,2.1344750088565423,22,1970-01-01 05:09:32.364828231,0.34495544,-0.072265625,-0.58966064,6.385018105726745,0.6869616048276962,90.61674499511719,-1.249873399734497,69.95611572265625,20594809.0,50354.0,0.058411170576093956,-0.056537458611500044,0.15049531149456236,0.004175029782408681,0.0033633527797088127,0.008717723476691574,20.594809666999936
1604,B,18572415182235.0,3.484976921920482,3.3900146,1.9722588088565425,22,1970-01-01 05:09:32.415182235,-0.8955841,0.32562256,-0.3486786,4.193324731385129,1.0147303572140354,90.57160186767578,-1.2326111793518066,69.97257232666016,20645163.0,50354.0,0.12621842087009394,-0.25277829856680006,0.10339523732856234,0.004648419223840673,-0.007787642818478062,0.00639220234771981,20.645163670997135
1604,B,18572465536239.0,1.071128091920482,3.1859589,0.8334496388565424,22,1970-01-01 05:09:32.465536239,-1.9217072,0.6571045,0.35739136,3.2342620872161505,2.062152630300371,90.47480773925781,-1.2507786750793457,70.0052719116211,20695517.0,50354.0,0.11470905593347394,-0.32790591519050005,0.07063932158807235,0.006065831083483429,-0.014619886449767545,0.004381668089844112,20.695517674997973
1604,B,18572515890243.0,-11.981591078079518,15.691986,0.5805657248565425,22,1970-01-01 05:09:32.515890243,-1.4865875,-0.7409363,2.9172058,20.695000535011147,3.356935905758044,90.40135955810547,-1.3963500261306763,69.96710968017578,20745871.0,50354.0,-0.2746927266025261,-0.018179181252700054,0.03560066481220434,-0.004027908876434726,-0.00871338447315045,0.002674804137599766,20.74587167899881
1604,B,18572566244247.0,-5.9264150780795175,19.613052,2.2809747088565424,22,1970-01-01 05:09:32.566244247,-1.4272156,-0.054504395,1.362793,21.051900553871576,1.974112423041473,90.330078125,-1.4644699096679688,69.96394348144531,20796225.0,50354.0,-0.4508698709936161,0.39540574172599996,0.07204500349959433,-0.018267489519678073,0.009497433113036273,0.0027101949910861554,20.796225682999648
1604,B,18572616598251.0,-1.558220678079518,16.079437,2.8402093088565428,22,1970-01-01 05:09:32.616598251,-0.3628235,-0.49734497,1.9679565,16.53731349066772,2.0620004115491346,90.31259155273438,-1.562723994255066,69.93851470947266,20846579.0,50354.0,-0.18844067443281606,0.40516059555299994,0.12893605001396236,-0.016095921602201285,0.020155858673673383,0.005060099984310817,20.846579687000485
1604,B,18572666952255.0,-1.9996879780795178,7.621109,2.1671441088565424,22,1970-01-01 05:09:32.666952255,-0.098602295,-0.15840149,1.2679443,8.556354597581887,1.2815990763557754,90.30789184570312,-1.6260781288146973,69.93025207519531,20896933.0,50354.0,-0.08957746623611605,0.10323944664199995,0.12607013699776237,-0.006999662727621704,0.012799987862343513,0.006420290770394194,20.896933690997685
1604,B,18572717306259.0,-2.4474876780795176,-1.9137115,1.3959496088565424,22,1970-01-01 05:09:32.717306259,1.1377716,0.28556824,0.045455933,4.488472431566429,1.173941938644394,90.3643798828125,-1.6284337043762207,69.94451904296875,20947287.0,50354.0,-0.11196654149511603,-0.3497740531425001,0.08970801053086234,-0.005074273482649231,-0.006207001787863092,0.005432646420328185,20.947287694998522
1604,B,18572767660262.0,2.824774921920482,-1.966156,0.16714410885654246,22,1970-01-01 05:09:32.767660262,1.4059906,0.095703125,-1.0835419,2.387080489574093,1.7776478010221077,90.43451690673828,-1.5742884874343872,69.9496841430664,20997641.0,50354.0,0.009498960938183957,-0.5911526240475,0.039354010530862335,-0.002579826275681879,-0.023689710951612635,0.0032493945042710425,20.997641697998915
1604,B,18572817998324.0,4.604590621920482,9.470627,-2.2205969911434575,22,1970-01-01 05:09:32.817998324,1.0893097,0.1108551,-0.19754028,10.325722114869977,1.1126125282112271,90.48884582519531,-1.564457893371582,69.955322265625,21047979.0,50338.0,0.18698970137293322,-0.30443236940100005,-0.05168335559427937,0.004945423141708508,-0.0225409787001053,-0.0003103172859011433,21.04797975999827
1604,B,18572868352328.0,-7.955910078079517,10.242416,-6.758713491143458,22,1970-01-01 05:09:32.868352328,-0.1797638,-0.18391418,-0.13102722,15.718868290036502,0.2886305281435781,90.4801025390625,-1.557828426361084,69.94617462158203,21098333.0,50354.0,-0.08437616994771603,0.0028460836109999834,-0.2260721000125377,0.002583500880692693,-0.007593037917334833,-0.006993049105812834,21.098333763999108
1604,B,18572918706332.0,-6.283211478079518,-6.2615356,1.7829278088565423,22,1970-01-01 05:09:32.918706332,-1.0629578,-2.5898743,0.433136,10.080532779450316,2.8328316167533374,90.43049621582031,-1.5784530639648438,69.81645202636719,21148687.0,50354.0,-0.35849836341941604,-0.39324257416920005,-0.12527535612293766,-0.011150252126584284,-0.009829012442783804,-0.008845874903122863,21.148687767999945
1604,B,18572969060336.0,-5.114571378079518,17.649933,-2.7654577911434575,22,1970-01-01 05:09:32.969060336,-1.0400238,-0.3681488,-2.093689,19.131603539105207,2.366583333041302,90.37896728515625,-1.4736407995224,69.79878234863281,21199041.0,50354.0,-0.2869619789695161,-0.2067435186602,-0.024737157364037664,-0.016250755040326144,-0.015105849859165807,-0.003776865052061578,21.199041771997145
1604,B,18573019414340.0,1.905814371920482,9.091644,-5.403260191143457,22,1970-01-01 05:09:33.019414340,1.971405,0.37644958,-2.333725,10.842514531041187,3.078055284742653,90.47705078125,-1.3570992946624756,69.8184814453125,21249395.0,50354.0,-0.08078687514406604,0.17980348412900005,-0.20566381264003764,-0.00925881290001766,-0.0006782692493920211,-0.005800805221792604,21.249395775997982
1604,B,18573069768344.0,1.3243324319204821,12.873016,0.32885673885654243,22,1970-01-01 05:09:33.069768344,2.8084564,-1.0940247,-1.0533295,12.875386966342258,3.1927762888247115,90.62484741210938,-1.2492824792861938,69.76419830322266,21299749.0,50354.0,0.08132540608030396,0.05953504481999997,-0.12775825571822766,1.355859338166201e-05,0.006025826143348974,-0.008394567415056045,21.29974977999882
1604,B,18573120122348.0,2.016654221920482,6.64534,0.4129631888565425,22,1970-01-01 05:09:33.120122348,0.54489136,-0.13952637,-0.99087524,6.665048219546051,1.1393892852634186,90.65350341796875,-1.2772793769836426,69.75772857666016,21350103.0,50354.0,0.08411602098375395,-0.0020555509880000183,0.01867680032003234,0.004165318809191786,0.0014471612162082629,-0.0027463438025603637,21.350103783999657
1604,B,18573170476352.0,4.054312921920482,5.2616425,3.6815636088565427,22,1970-01-01 05:09:33.170476352,-0.38534546,0.2398529,-0.6680298,6.6583489913949006,0.8076412265783995,90.63397216796875,-1.2440185546875,69.77010345458984,21400457.0,50354.0,0.15284873978048394,-0.19368710159750005,0.10308790118602235,0.005966061781761217,-0.004928212764145136,0.003065669889817939,21.400457788000494
1604,B,18573220830356.0,3.149817621920482,2.8768463,-0.19303962114345757,22,1970-01-01 05:09:33.220830356,-1.2137146,0.31703186,0.21517944,3.3811113491009763,1.2727586267265814,90.57294464111328,-1.2549426555633545,69.78584289550781,21450811.0,50354.0,0.18137839470228395,-0.28856646748240006,0.08783056843865235,0.008414836564872647,-0.012141698108724647,0.004806754309740435,21.450811791997694
1604,B,18573271184360.0,-1.0603720780795178,16.247864,-2.316498491143457,22,1970-01-01 05:09:33.271184360,-1.7474976,2.0924225,1.4505005,16.687906868037857,3.0880303562323124,90.48322296142578,-1.32843017578125,69.88980865478516,21501165.0,50354.0,0.05260597045728395,-0.01196636877690003,-0.06318264105304766,0.005891024361622441,-0.007566515218500399,0.0006205608677873692,21.50116579599853
1604,B,18573321538363.0,-9.268273078079519,16.285645,7.053191408856542,22,1970-01-01 05:09:33.321538363,-1.8403778,-0.62757874,3.535553,20.602492163859623,4.03496970712815,90.39200592041016,-1.5049678087234497,69.85707092285156,21551519.0,50354.0,-0.2600442990966161,0.32562695609299996,0.11925571758926236,-0.005222674800152466,0.007897032606857448,0.0014117518479522776,21.551519798998925
1604,B,18573371892367.0,2.228339421920482,16.393875,-2.402451191143457,22,1970-01-01 05:09:33.371892367,-0.66519165,-0.78601074,0.69906616,16.662779789399615,1.244582785788963,90.59901428222656,-1.564194917678833,69.8111343383789,21601873.0,50354.0,-0.17724440966111607,0.32930307504,0.11709168646136237,-0.011009617820393424,0.01648917339383554,0.005950518591782579,21.601873802999762
1604,B,18573422246371.0,-4.7542350780795175,6.85141,-1.5592200911434577,22,1970-01-01 05:09:33.422246371,-0.19848633,-0.40052795,1.6547699,9.50754575682282,1.714083686368341,90.58966064453125,-1.6467188596725464,69.79023742675781,21652227.0,50354.0,-0.06359447493511604,0.091777340445,-0.09974299787413765,-0.006063600597479336,0.010601541620665844,0.00043678793256055667,21.65222780699696
1604,B,18573472600375.0,-0.7563254780795179,1.2380829,2.8923486088565427,22,1970-01-01 05:09:33.472600375,0.33937073,0.09133911,0.53811646,3.526527337966744,0.6427166171177283,90.60651397705078,-1.6736735105514526,69.7945327758789,21702581.0,50354.0,-0.13873938312241604,-0.28980003725670006,0.03356417669046234,-0.005094159544314485,-0.004985617437628173,-0.0016661841809413934,21.7025818109978
1604,B,18573522954379.0,0.21381302192048213,-6.409439,-0.16778632114345754,22,1970-01-01 05:09:33.522954379,1.1323853,0.537796,-0.404068,6.572420812862906,1.3171150116432846,90.66234588623047,-1.653772234916687,69.8216552734375,21752935.0,50354.0,-0.013658836108716044,-0.6236684325297001,0.06859630471775234,-0.003836929965582213,-0.022998395663812198,0.002572094440414621,21.752935814998636
1604,B,18573573308383.0,3.2981789219204822,4.8332977,-0.5519720911434576,22,1970-01-01 05:09:33.573308383,1.244339,-0.49902344,-0.48690796,5.257847983493104,1.4263531477519147,90.72527313232422,-1.6291273832321167,69.79698944091797,21803289.0,50354.0,0.08842142117008397,-0.5331517095101,-0.018121357546147663,0.0018822976040900605,-0.02912526071613605,0.001270807744939491,21.803289818999474
1604,B,18573623662387.0,-3.336022078079518,11.08519,-4.527680191143458,22,1970-01-01 05:09:33.623662387,0.079833984,-1.542633,0.52809143,13.09810832197356,1.6324737658320139,90.73149108886719,-1.6545512676239014,69.71949005126953,21853643.0,50354.0,-0.0009527771426160381,-0.09268943517710002,-0.12789040551113767,0.0022021980506795606,-0.015756802499789637,-0.003676138158493273,21.85364382300031
1604,B,18573674016391.0,1.0023567219204819,10.161438,-6.636780491143457,22,1970-01-01 05:09:33.674016391,0.34074402,-2.0842743,-0.15206909,12.42266453288426,2.117411356571906,90.75152587890625,-1.6455965042114258,69.61534118652344,21903997.0,50354.0,-0.05875469267201605,0.041457153155999994,-0.2810876265979377,-0.0015032549675229922,-0.0012898751644452352,-0.01029683991441019,21.90399782699751
1604,B,18573724370395.0,-1.9050834780795178,18.067947,-4.144715191143457,22,1970-01-01 05:09:33.724370395,-0.48292542,0.4887848,-2.4893951,18.963375399366868,2.582482430898074,90.72665405273438,-1.5214513540267944,69.64139556884766,21954351.0,50354.0,-0.02272795153981605,0.21726202614499998,-0.27144571679293766,-0.002051488533321297,0.006513772777261276,-0.01391113198655207,21.95435183099835
1604,B,18573774724399.0,2.188803871920482,16.1017,-4.0507055911434575,22,1970-01-01 05:09:33.774724399,1.2418823,0.9357147,-2.8361664,16.74379477828207,3.2344510346175195,90.78750610351562,-1.3802688121795654,69.6900634765625,22004705.0,50354.0,0.007143228355733958,0.36682000251900004,-0.20633610903563768,-0.0003923765756056348,0.01470543323567353,-0.012029113028886042,22.004705834999186
1604,B,18573825078402.0,0.820136271920482,12.725906,2.6521905088565427,22,1970-01-01 05:09:33.825078402,1.8405609,0.64982605,-1.5030518,12.926512769015723,2.463554958865471,90.87874603271484,-1.3055994510650635,69.72364807128906,22055059.0,50354.0,0.07575608600148395,0.23232343626199997,-0.03521041422673766,0.0020871560375716755,0.015084634358189236,-0.006081416816176824,22.05505983799958
1604,B,18573875432406.0,1.601111611920482,5.930603,0.29028251885654244,22,1970-01-01 05:09:33.875432406,-0.95072937,0.5141449,-0.5793457,5.9347005207368175,1.2263248971154002,90.8572006225586,-1.2662630081176758,69.74919891357422,22105413.0,50354.0,0.060959757971463954,-0.02375427290700004,0.07408264341873236,0.0034420948037069093,0.005251145825788834,0.0009786861143668505,22.105413842000416
1604,B,18573925786410.0,3.988410221920482,5.499283,2.0995171088565425,22,1970-01-01 05:09:33.925786410,-0.6759491,0.28089905,-0.57118225,6.242474240316189,0.9284721992589627,90.82308197021484,-1.2379125356674194,69.76365661621094,22155767.0,50354.0,0.14072739121061395,-0.20569896017800005,0.06016798522693235,0.005077877354957176,-0.005776944049381048,0.0033800280774119004,22.155767845997616
1604,B,18573976140414.0,0.1424782219204821,6.0043793,-1.5444494911434574,22,1970-01-01 05:09:33.976140414,-1.5403137,0.7657623,0.29006958,6.486011963112084,1.7444479229115315,90.74525451660156,-1.252939224243164,69.80176544189453,22206121.0,50354.0,0.10400337835058397,-0.20384149427290005,0.013974937411162345,0.006161586585242281,-0.010311000021710313,0.0018666963632593102,22.206121849998453
1604,B,18574026494418.0,-5.275399078079518,13.980347,-1.2646338911434576,22,1970-01-01 05:09:34.026494418,-1.7385864,1.1546173,1.4984741,15.63911460154185,2.5692894753404216,90.65703582763672,-1.3285634517669678,69.85857391357422,22256475.0,50354.0,-0.12923154839551604,0.00968625405509997,-0.07072429231583767,-0.0006351696372212547,-0.0048882464829635534,-0.0014287785084350106,22.25647585399929
1604,B,18574076848422.0,-2.0710532780795177,17.385025,4.354613608856543,22,1970-01-01 05:09:34.076848422,-1.3119354,-0.7122345,2.152954,18.165677291381993,2.6198594242591353,90.59231567382812,-1.4358166456222534,69.82177734375,22306829.0,50354.0,-0.18496163097101606,0.2962167708439999,0.07779641935286234,-0.00791044167691118,0.007701720457884638,0.00017805494241117018,22.30682985800013
1604,B,18574127202426.0,-0.7284782780795178,14.839783,1.8365014088565423,22,1970-01-01 05:09:34.127202426,-0.97021484,-1.2512817,1.7716064,15.067905203471764,2.3760496554222255,90.54545593261719,-1.5237727165222168,69.7583236694336,22357183.0,50354.0,-0.07048380598941603,0.31785479101599995,0.15587370280096235,-0.006431349766352799,0.015460479712949218,0.005883112665466845,22.357183861997328
1604,B,18574177556430.0,-2.774331078079518,3.8147583,2.4652703088565424,22,1970-01-01 05:09:34.177556430,-0.29948425,-0.09057617,1.4469299,6.067021680635989,1.4803719107318747,90.53062438964844,-1.5960766077041626,69.75311279296875,22407537.0,50354.0,-0.08819023116001605,-0.023803813689900036,0.10830570653686235,-0.0039949362333112515,0.0074033214561392184,0.0066512449888984125,22.407537865998165
1604,B,18574227910434.0,-0.5937583780795179,-3.3007965,0.14129570885654247,22,1970-01-01 05:09:34.227910434,0.72621155,0.4942627,0.20300293,3.9300999783944874,0.9016035833742441,90.56623840332031,-1.6064608097076416,69.77772521972656,22457891.0,50354.0,-0.08479838823771606,-0.48052918376140014,0.06562551262796233,-0.0043553344705767015,-0.012697591876831386,0.004379066304912791,22.457891869999003
1604,B,18574278264438.0,2.315482321920482,-3.676651,-2.399201191143457,22,1970-01-01 05:09:34.278264438,1.6462708,0.75390625,-0.60087585,4.7456041536690305,1.9077824739301188,90.64751434326172,-1.5768183469772339,69.8157730102539,22508245.0,50354.0,0.04334784373408396,-0.6691403957075001,-0.05684728632753766,-0.0010436003589679454,-0.028945231002288505,0.00022100940356579196,22.50824587399984
1604,B,18574328618442.0,0.529044321920482,11.967438,0.3951104028565425,22,1970-01-01 05:09:34.328618442,0.8582916,-0.44691467,-0.106781006,12.008001081769796,0.9735498837420408,90.68634033203125,-1.414902925491333,69.79366302490234,22558599.0,50354.0,0.07161664731198396,-0.2847320557010001,-0.05045699377669965,0.002894460991066852,-0.02401564670911181,-0.002701599860184383,22.55859987799704
1604,B,18574378972445.0,-5.260506478079518,10.02919,-1.8408514911434575,22,1970-01-01 05:09:34.378972445,-0.83747864,-1.5152283,0.5519562,12.323562246758476,1.817124904979176,90.64635467529297,-1.4416155815124512,69.7175521850586,22608953.0,50354.0,-0.11912402270561605,0.06033990315599995,-0.036399423379799664,-0.0011960931902854752,-0.005649521224625468,-0.002186784014749183,22.608953880997433
1604,B,18574429326449.0,-3.063607078079518,7.2493286,-0.7003943911434576,22,1970-01-01 05:09:34.429326449,-0.7106476,-1.5128632,-0.9016876,8.654213168880023,1.8991618154580088,90.6126708984375,-1.3956974744796753,69.64237976074219,22659307.0,50354.0,-0.20957620700341606,-0.05844793720780004,-0.06398094757833767,-0.008275685683384302,4.7634026677829134e-05,-0.002527276599613024,22.65930788499827
1604,B,18574479680453.0,-1.7136008780795178,15.083801,-4.399307891143457,22,1970-01-01 05:09:34.479680453,0.5767517,0.67185974,-3.0125275,16.181284684935516,3.1399617787390355,90.64070129394531,-1.2454497814178467,69.6776351928711,22709661.0,50354.0,-0.12027576471221606,0.06881200393919995,-0.12839520436113766,-0.00830468309188447,0.0002609361080964556,-0.00484345437738017,22.709661888999108
1604,B,18574530034457.0,2.102515421920482,10.32193,-6.314484191143458,22,1970-01-01 05:09:34.530034457,1.8663788,1.3625488,-2.5191498,12.37786081820305,3.4184828173198296,90.73257446289062,-1.1203197240829468,69.74726867675781,22760015.0,50354.0,0.009791701470283957,0.14617088938699996,-0.26974114325573767,-0.0027816572602421246,0.0054126243052737355,-0.010023878823950071,22.760015892999945
1604,B,18574580388461.0,1.891608441920482,9.323517,0.3839257088565424,22,1970-01-01 05:09:34.580388461,0.5760956,-0.11401367,-1.0441132,9.331920422351265,1.1979389098365862,90.7596664428711,-1.0985478162765503,69.7422866821289,22810369.0,50354.0,0.10056005651992396,0.0011442191189999836,-0.1493136709085377,0.002778326210919465,0.003708952486855561,-0.010550543056213961,22.810369896997145
1604,B,18574630742465.0,3.277152221920482,6.7125854,2.1109460088565424,22,1970-01-01 05:09:34.630742465,-0.6909332,-0.09211731,-0.5852814,7.127628832191257,0.9101805331085894,90.72520446777344,-1.0692256689071655,69.73806762695312,22860723.0,50354.0,0.13013388723352395,-0.08972824987520002,0.06281338523686233,0.005808181421880559,-0.0022302801423488487,-0.0021778176923557707,22.860723900997982
1604,B,18574681096469.0,3.5442269219204823,4.1288147,2.1986535088565424,22,1970-01-01 05:09:34.681096469,-1.30336,0.6788025,-0.10359192,4.908990306337239,1.4731773177372562,90.6594009399414,-1.0644590854644775,69.77206420898438,22911077.0,50354.0,0.17174186270448397,-0.2205152696823,0.10850278705746236,0.007600325756189226,-0.007811001091899178,0.004313227269854213,22.91107790499882
1604,B,18574731450473.0,0.612174221920482,6.9826813,-0.19482489114345752,22,1970-01-01 05:09:34.731450473,-1.9965363,1.2463226,0.7826843,7.073585090488774,2.4803370605534525,90.68118286132812,-0.8961436152458191,69.83167266845703,22961431.0,50354.0,0.10464571159848397,-0.21371506520800004,0.05045039310816234,0.006958609958225824,-0.010932617141533084,0.004001964217029933,22.961431908999657
1604,B,18574781804477.0,-6.960564078079518,13.927338,3.9517358088565424,22,1970-01-01 05:09:34.781804477,-1.3196259,-0.8040161,3.261322,16.66446390488938,3.60888841510707,90.61592102050781,-1.0587430000305176,69.78963470458984,23011785.0,50354.0,-0.15983341140851606,0.03298235591610001,0.09458774617526235,-0.001389460718117178,-0.004550307421842167,0.0036516252327387835,23.011785913000494
1604,B,18574832158481.0,-2.250115078079518,18.389175,1.4240410688565424,22,1970-01-01 05:09:34.832158481,-0.86305237,-1.370163,2.5728912,18.79292479876856,3.0400617044673712,90.57415008544922,-1.1866695880889893,69.71978759765625,23062139.0,50354.0,-0.23189726911461603,0.3201636478010001,0.13534593445018234,-0.009862603343530897,0.00889115693558543,0.005789040277106821,23.062139916997694
1604,B,18574882512485.0,0.966269721920482,14.360931,-0.9777075911434576,22,1970-01-01 05:09:34.882512485,-0.7606354,-0.43948364,1.5974121,14.44612473146236,1.8230297580640913,90.6679916381836,-1.1828234195709229,69.69427490234375,23112493.0,50354.0,-0.03232337453201605,0.33108021876200006,0.011237337968382334,-0.006652283145091256,0.016396366828456656,0.003690527049682203,23.11249392099853
1604,B,18574932866488.0,-0.7181785780795178,6.933777,2.5495904088565426,22,1970-01-01 05:09:34.932866488,0.09257507,-0.23997498,0.95018005,7.56841103467506,0.9843781092799189,90.67289733886719,-1.230189323425293,69.68173217773438,23162847.0,50354.0,0.006246190728483956,0.042667663315999964,0.03957529370156235,-0.0006565452566215277,0.009409850427077808,0.0012793096275541974,23.162847923998925
1604,B,18574983220492.0,0.295081321920482,-2.6523132,-0.8766943911434577,22,1970-01-01 05:09:34.983220492,0.940094,0.60739136,-0.42103577,3.2223335397729453,1.1958144139698863,90.71925354003906,-1.209511399269104,69.71236419677734,23213201.0,50354.0,-0.010652319618316045,-0.3856747859074,0.04211850303796234,-0.00011093310705930251,-0.008635890325483678,0.0020568047205110134,23.213201927999762
1604,B,18575033574496.0,3.3131325219204824,-0.5989075,-1.1091162911434576,22,1970-01-01 05:09:35.033574496,1.584259,0.094177246,-0.786499,2.4838467248696365,1.7712500133369498,90.79834747314453,-1.170251488685608,69.71759033203125,23263555.0,50354.0,0.09084399994638397,-0.5753251835639001,-0.04999675554793767,0.002018985935619766,-0.024195096231378922,-0.00019835076344364884,23.26355593199696
1604,B,18575083928500.0,2.325354771920482,14.166138,0.9878685788565424,22,1970-01-01 05:09:35.083928500,0.3705597,-1.4833832,0.7145386,14.198240196241127,1.6876923950164289,90.7484359741211,-1.2579913139343262,69.64437866210938,23313909.0,50354.0,0.14196019459703396,-0.15188703770150003,-0.003052653652247662,0.005861311206019634,-0.01830902209479898,-0.0013356249754330662,23.3139099359978
1604,B,18575134282504.0,0.9483253519204821,8.72084,-3.3446051911434576,22,1970-01-01 05:09:35.134282504,-0.29341125,-1.202652,0.019577026,9.543756005220082,1.2380812795117966,90.73509216308594,-1.2581894397735596,69.584228515625,23364263.0,50354.0,0.08242144447794396,0.08275624510599999,-0.05933555768754766,0.005649256526990719,-0.0017405059651769044,-0.001570747996902027,23.364263939998636
1604,B,18575184636508.0,-3.3871850780795176,15.266434,1.8862603088565424,22,1970-01-01 05:09:35.184636508,-0.21322632,-0.2754364,-2.0186005,16.09339254567471,2.0484332189715024,90.72469329833984,-1.157090425491333,69.57173919677734,23414617.0,50354.0,-0.06140317132550604,0.110458397498,-0.03671674910133767,0.0005291770631589295,0.004864565056840908,-0.002418308928023766,23.414617943999474
1604,B,18575234990512.0,-0.9874503780795181,18.734818,-5.481674891143458,22,1970-01-01 05:09:35.234990512,0.61631775,1.5005798,-2.4999237,19.821948361164324,2.9801352001133763,90.75404357910156,-1.0330724716186523,69.64839172363281,23464971.0,50354.0,-0.11014019687971605,0.362580321604,-0.09052175293823768,-0.0043189473813028765,0.011909695830831055,-0.0032034837658503888,23.46497194800031
1604,B,18575285344516.0,0.3144905219204821,14.166733,-2.0462500911434574,22,1970-01-01 05:09:35.285344516,2.344223,0.40815735,-1.8306274,14.44181235106903,3.0021942931327383,90.8708724975586,-0.9418400526046753,69.67008972167969,23515325.0,50354.0,-0.01694311029851605,0.334893149527,-0.1895305672790377,-0.00319957642482635,0.017560289582665187,-0.007050877266110343,23.51532595199751
1604,B,18575335698520.0,-0.2691886780795181,7.6404724,0.41982963885654245,22,1970-01-01 05:09:35.335698520,0.3699646,-0.43199158,-1.3642731,7.845332120192697,1.4780837668507378,90.88969421386719,-0.8733025193214417,69.64954376220703,23565679.0,50354.0,0.0011405645223839514,0.05557081035579999,-0.04094838772722766,-0.00039786069500567783,0.009830711117969255,-0.005802768650192743,23.56567995599835
1604,B,18575386052524.0,4.883322921920482,6.2664337,1.5986626088565423,22,1970-01-01 05:09:35.386052524,-0.31227112,-0.4404602,-0.84098816,7.202106672286681,0.9993895764066584,90.87439727783203,-0.8309164643287659,69.62815856933594,23616033.0,50354.0,0.11617005785718394,-0.14333502512030002,0.05081957932067234,0.002953529539650381,-0.002209639635125817,0.00024852699074815664,23.616033959999186
1604,B,18575436406527.0,4.288138621920482,4.2907104,2.676680808856543,22,1970-01-01 05:09:35.436406527,-1.1553345,0.5830536,-0.21539307,5.558896120785569,1.3119235808412144,90.81621551513672,-0.8205796480178833,69.65747833251953,23666387.0,50354.0,0.23090988728928397,-0.22767198299430003,0.10764032122776235,0.008738431778952623,-0.009340843443301286,0.00398954491610794,23.66638796299958
1604,B,18575486760531.0,-1.055870778079518,10.300095,-2.1084753911434575,22,1970-01-01 05:09:35.486760531,-2.207428,1.7067871,0.6375122,10.92872740680338,2.8622163414143333,90.70459747314453,-0.8535849452018738,69.74238586425781,23716741.0,50354.0,0.08137880750438396,-0.12611649244420003,0.01430570780176235,0.007862492468820178,-0.008907332446115116,0.0030702351728763436,23.716741967000416
1604,B,18575537114535.0,-2.634102578079518,18.400406,5.235762808856543,22,1970-01-01 05:09:35.537114535,-1.1782074,-0.32974243,3.2774658,19.44897484379095,3.4983831719419625,90.64598846435547,-1.0172512531280518,69.72396850585938,23767095.0,50354.0,-0.09290245918801605,0.22912331367699995,0.07873571531576236,-0.00029013097843880517,0.0025934027381782038,0.00234250390982992,23.767095970997616
1604,B,18575587468539.0,2.392646021920482,19.562042,-5.676453191143457,22,1970-01-01 05:09:35.587468539,-1.1227264,-1.8787079,2.1974182,20.530291324530644,3.1014036642253795,90.59162902832031,-1.126100778579712,69.62882995605469,23817449.0,50354.0,-0.006079151714416051,0.46231135329600004,-0.011095261754837639,-0.002492060017690533,0.017408250610379223,0.0017029836993034016,23.817449974998453
1604,B,18575637822543.0,0.6902229219204821,9.787109,-1.0216986911434576,22,1970-01-01 05:09:35.637822543,-0.8395691,0.2891388,2.0474548,9.937280093184716,2.231714291163475,90.54937744140625,-1.2286145687103271,69.64227294921875,23867803.0,50354.0,0.07761739139908395,0.24545437472700005,-0.16863936994033765,0.001801118260540884,0.017819417734435076,-0.004525178822189428,23.86780397899929
1604,B,18575688176547.0,-4.271508078079518,-3.7378845,1.4031823088565425,22,1970-01-01 05:09:35.688176547,0.3287964,0.49623108,0.6120758,6.945140813100156,0.8538086099100702,90.56527709960938,-1.2594600915908813,69.66677856445312,23918157.0,50354.0,-0.09016601637661605,-0.3411678747635001,0.00960461304316234,-0.0003159367310593255,-0.0024097787904189616,-0.004004018074400183,23.91815798300013
1604,B,18575738530551.0,0.949423991920482,-10.175827,-0.8552099911434576,22,1970-01-01 05:09:35.738530551,1.6042633,1.0084839,-0.601532,10.279852186266002,1.9880999118027494,90.6443862915039,-1.2299143075942993,69.717529296875,23968511.0,50354.0,-0.08364011103722604,-0.8437747144355,0.013796299043062338,-0.004375916869898303,-0.02983329956826323,0.0005891647635948787,23.968511986997328
1604,B,18575788884555.0,3.309455121920482,9.234024,-0.5468756911434576,22,1970-01-01 05:09:35.788884555,1.6697998,-0.46141052,-0.83657837,9.464736318364197,1.9237968731647757,90.72834014892578,-1.1878070831298828,69.69495391845703,24018865.0,50354.0,0.10722579944917394,-0.5171809741310001,-0.03530031122293767,0.0005938168771476123,-0.03426478137103877,-0.0005414065146527213,24.018865990998165
1604,B,18575839238559.0,-10.813012078079518,18.288055,5.914000808856542,22,1970-01-01 05:09:35.839238559,-1.2810516,-1.0774384,1.2749634,22.709638732857794,2.104162156060383,90.66545867919922,-1.2508913278579712,69.64030456542969,24069219.0,50354.0,-0.18891705348521606,0.19945418298300002,0.13512810908866235,-0.0020567407028654326,-0.007999407420733198,0.0025133644668653503,24.069219994999003
1604,B,18575889592563.0,-1.5316245780795181,10.946289,-9.229584191143458,22,1970-01-01 05:09:35.889592563,-0.19541931,-1.3913574,-1.2905273,14.95230481869893,1.9077538712582727,90.65713500976562,-1.1855663061141968,69.57147216796875,24119573.0,50354.0,-0.31080091709211605,0.242563878888,-0.08347644281583767,-0.012581399345225492,0.011128688743726169,0.001300434001750907,24.11957399899984
1604,B,18575939946567.0,0.20410842192048206,12.553055,1.9027398088565424,22,1970-01-01 05:09:35.939946567,1.4909058,1.4616547,-2.4941711,12.699528293447802,3.252710261087043,90.730224609375,-1.061748743057251,69.64607238769531,24169928.0,50355.0,-0.03342353802169413,0.09817573355999998,-0.1844716244350288,-0.008666711218627955,0.00857897159240952,-0.0067462624632086896,24.16992800299704
1604,B,18575990300570.0,1.669089521920482,19.514618,2.0224908088565425,22,1970-01-01 05:09:35.990300570,1.5566864,-0.43984985,-2.001297,19.57523957746117,2.5733111200744814,90.67816925048828,-0.9465910792350769,69.62770080566406,24220282.0,50354.0,0.047161504632083955,0.313898603121,0.09882553126216236,0.0003458807853497847,0.010374795574617537,-0.0021563116878132583,24.220282005997433
1604,B,18576040654574.0,-1.326989078079518,10.526123,3.3612664088565425,22,1970-01-01 05:09:36.040654574,1.4033813,-0.8371582,-1.0714417,11.273301841803853,1.954047144138498,90.74900817871094,-0.8925026655197144,69.58653259277344,24270636.0,50354.0,0.008613062874583952,0.262866536157,0.13554685547036235,0.001404236286115378,0.014521215911602207,0.0059007935807647745,24.27063600999827
1604,B,18576091008578.0,2.6301185219204823,3.3406677,0.10699394885654245,22,1970-01-01 05:09:36.091008578,0.084121704,-0.06297302,-1.2471466,3.5441907152953878,1.251565701121337,90.75324249267578,-0.8301104307174683,69.58419036865234,24320990.0,50354.0,0.03280889000758396,-0.14434501054610005,0.08732039102614234,0.0010428805077143416,0.002984016450305628,0.005611128665042499,24.320990013999108
1604,B,18576141362582.0,4.053092221920482,2.4652557,2.9488366088565425,22,1970-01-01 05:09:36.141362582,-0.79325867,-0.01083374,-0.6876221,4.310651126884989,1.0498575331257887,90.71358489990234,-0.7957237958908081,69.5840835571289,24371344.0,50354.0,0.168263196897684,-0.34729346655820004,0.07693664595154234,0.005062391932013932,-0.012377981938054963,0.004135499419987167,24.371344017999945
1604,B,18576191716586.0,1.680258951920482,1.9932404,-0.3800665911434576,22,1970-01-01 05:09:36.191716586,-1.4564667,0.2835083,0.064971924,2.181996015443649,1.4852250857314664,90.64057159423828,-0.7991392612457275,69.59822082519531,24421698.0,50354.0,0.14434858250379398,-0.3812176436903001,0.06467392273596234,0.007870626769991012,-0.01834172422272649,0.0035653292878453056,24.421698021997145
1604,B,18576242070590.0,-2.3264700780795176,12.009354,4.106215808856542,22,1970-01-01 05:09:36.242070590,-1.662323,-0.0209198,1.2784729,13.115432279392738,2.097200121684969,90.55747985839844,-0.8630509376525879,69.59651184082031,24472052.0,50354.0,-0.016269657523306037,-0.14092588079120005,0.09381325885436234,0.0032246430942337455,-0.01314600751587073,0.003990231770899605,24.472052025997982
1604,B,18576292424594.0,-10.965447078079517,16.792343,15.646330808856543,22,1970-01-01 05:09:36.292424594,-1.4134827,-2.0299072,4.335144,25.832287272457968,4.991185238452599,90.48856353759766,-1.078871488571167,69.49302673339844,24522406.0,50354.0,-0.334650598240616,0.231671125369,0.4973098661941624,-0.008835119279368265,0.0022846930227352694,0.014882706919346707,24.52240602999882
1604,B,18576342778598.0,3.6270669219204823,16.928406,1.3605340088565425,22,1970-01-01 05:09:36.342778598,-1.0910339,-1.0304718,1.2466125,17.082339682203862,1.950966382770523,90.3500747680664,-1.2915512323379517,69.44283294677734,24572760.0,50354.0,-0.18475839719161605,0.35551809757299996,0.42818183551556244,-0.013077160277997308,0.014783663066010732,0.023301104573945745,24.572760033999657
1604,B,18576393132602.0,-8.148110078079517,3.681244,-2.0453802911434575,22,1970-01-01 05:09:36.393132602,-0.17515564,0.671875,1.8170319,10.643080248791765,1.9451736270745652,90.34052276611328,-1.38260018825531,69.47586822509766,24623114.0,50354.0,-0.11382630354261603,0.025419958049999927,-0.01724237484913766,-0.007517467010385761,0.009590877426420268,0.010346222801198577,24.623114038000494
1604,B,18576443486606.0,-0.9078300780795179,-3.1674805,0.6214287588565425,22,1970-01-01 05:09:36.443486606,0.9097748,0.09638977,0.31752014,3.9872559377624044,0.968400853872668,90.38591003417969,-1.3985073566436768,69.4805908203125,24673468.0,50354.0,-0.22800140531161606,-0.48053417636050005,-0.035850827728387664,-0.008606196225823001,-0.011458410674403462,-0.0013367275612943552,24.673468041997694
1604,B,18576493840610.0,3.911276921920482,-2.3939514,0.31726005885654246,22,1970-01-01 05:09:36.493840610,1.6664581,1.0912476,-0.6262665,3.3948490441091814,2.088088516462753,90.46790313720703,-1.367598533630371,69.53541564941406,24723822.0,50354.0,0.07561778118738396,-0.6334893709463001,0.023633368363562342,-0.0038365625045757917,-0.02804777085054331,-0.00030759897442820714,24.72382204599853
1604,B,18576544194613.0,-0.271767378079518,13.051086,1.1538079088565425,22,1970-01-01 05:09:36.544194613,1.1323242,-0.70436096,-0.11268616,13.188868589203567,1.3382752431892728,90.4417495727539,-1.1343618631362915,69.50216674804688,24774176.0,50354.0,0.09163193178528396,-0.22515452217580006,0.03703707822311234,0.004210846023512861,-0.021618077297135115,0.0015274998337127085,24.774176048998925
1604,B,18576594548617.0,-13.241875078079518,13.681412,-5.512680691143458,22,1970-01-01 05:09:36.594548617,-0.36331177,-0.2225647,0.8647461,20.996703451695705,0.9640105317743333,90.423828125,-1.1775152683258057,69.49071502685547,24824530.0,50354.0,-0.3402329761187161,0.17957490214599997,-0.10974334003963766,-0.006259028493182822,-0.001147558093490277,-0.001830525553754658,24.824530052999762
1604,B,18576644902621.0,-5.743721778079518,0.34217834,-2.0692450911434572,22,1970-01-01 05:09:36.644902621,-0.66926575,-1.1990509,-1.1072693,7.700473456772491,1.763996884247918,90.39154815673828,-1.1217235326766968,69.43114471435547,24874884.0,50354.0,-0.47800037204751605,-0.14039726600982003,-0.19089014542063765,-0.020600661006781228,0.0009863753450006026,-0.007569049263433352,24.87488405699696
1604,B,18576695256625.0,-11.240777078079518,16.580933,4.929122208856542,22,1970-01-01 05:09:36.695256625,-0.1091156,-0.13864136,-3.588089,21.382628035315705,3.592424016285802,90.38619232177734,-0.9422772526741028,69.42543029785156,24925238.0,50354.0,-0.42761872770151604,-0.06739602579281999,0.07200312619266235,-0.022800772074381383,-0.005231611707715068,-0.002993218483102734,24.9252380609978
1604,B,18576745610629.0,-1.1285636780795179,8.804535,-6.600022191143458,22,1970-01-01 05:09:36.745610629,1.7266693,0.4870758,-2.2581787,11.609108308337335,2.8840944415261127,90.47213745117188,-0.8295537233352661,69.45063781738281,24975592.0,50354.0,-0.31142289221781605,0.145660727836,-0.04206824885403767,-0.018606850864709028,0.0019704704033411437,0.0007536704067545534,24.975592064998636
1604,B,18576795964633.0,2.577292621920482,8.912064,1.1975701088565425,22,1970-01-01 05:09:36.795964633,1.436264,-0.3735962,-1.1716919,9.003429104988399,1.8908438081650345,90.420166015625,-0.9200130105018616,69.43427276611328,25025946.0,50354.0,0.03647464861908396,-0.04741838697700003,-0.1360175360757377,-0.006922371929085278,0.0024734474158070426,-0.004483665807176955,25.025946068999474
1604,B,18576846318637.0,2.258033021920482,6.2874146,3.5639947088565425,22,1970-01-01 05:09:36.846318637,-0.61042786,-0.5601959,-0.56552124,7.037884786659496,1.0031230689861175,90.39007568359375,-0.8915378451347351,69.40645599365234,25076300.0,50354.0,0.12173899373498395,-0.11079192728780002,0.11988191741556234,0.003983344873548369,-0.003983261082244871,-0.0004062464710072348,25.07630007300031
1604,B,18576896672641.0,4.007758321920482,4.880249,3.0290063088565424,22,1970-01-01 05:09:36.896672641,-1.310852,-0.3730774,-0.22335815,6.0409476884949775,1.3810896333932068,90.32483673095703,-0.8802547454833984,69.38787078857422,25126654.0,50354.0,0.157753828663884,-0.21230093354280002,0.16599198662296236,0.007036790789536299,-0.008134508957132018,0.007197447281977937,25.12665407699751
1604,B,18576947026645.0,0.787100991920482,5.570175,-0.15106269114345755,22,1970-01-01 05:09:36.947026645,-1.9495544,0.864975,0.7027588,5.653564798198097,2.245621081162581,90.22667694091797,-0.9156018495559692,69.43095397949219,25177008.0,50354.0,0.12072017294457398,-0.23035887495200005,0.07245798646316234,0.007011139938496147,-0.011144845998473582,0.006003454972389362,25.17700808099835
1604,B,18576997380649.0,-7.372430078079518,12.790268,2.3916619088565425,22,1970-01-01 05:09:36.997380649,-1.5868378,0.03263855,2.4783325,15.687857031338632,2.943000417772854,90.1473159790039,-1.0395246744155884,69.43218994140625,25227362.0,50354.0,-0.16579883040222604,-0.031208326589000034,0.05641156650436234,-0.001134945358811306,-0.00658547743319776,0.003244548735063369,25.227362084999186
1604,B,18577047734652.0,-4.600518078079518,15.878876,6.188933808856542,22,1970-01-01 05:09:37.047734652,-0.3022766,-2.5704193,3.2000885,17.942862523503017,4.115700782194,90.13472747802734,-1.1992125511169434,69.30325317382812,25277716.0,50354.0,-0.30144291572761606,0.22833383848799996,0.21603365838486233,-0.011763745442311036,0.004963029013081122,0.00685935342703601,25.27771608799958
1604,B,18577098088656.0,3.489569921920482,13.691879,0.25311210885654245,22,1970-01-01 05:09:37.098088656,-0.02243042,-1.5513611,2.0372467,13.83621997360739,2.5607808385325512,90.15675354003906,-1.4760493040084839,69.22492218017578,25328070.0,50354.0,-0.02797034172761605,0.251033698635,0.16219139007026234,-0.008293637582950378,0.012069036482145771,0.009522572044954674,25.328070092000416
1604,B,18577148442660.0,-1.131493378079518,3.3598328,-0.6819311911434576,22,1970-01-01 05:09:37.148442660,0.08540344,0.65312195,0.9414978,4.432280128043322,1.1490344366207987,90.16017150878906,-1.523215889930725,69.25745391845703,25378424.0,50354.0,0.05936929314428395,-0.06415825201140005,-0.010796378034737663,0.0007905313998174478,0.004704963119642377,0.0038116722180184053,25.378424095997616
1604,B,18577198796664.0,1.070075221920482,-1.1675568,1.1411278588565426,22,1970-01-01 05:09:37.198796664,1.226944,0.8812866,-0.75471497,1.4069261164421294,1.6886836105137222,90.22036743164062,-1.4856301546096802,69.30166625976562,25428778.0,50354.0,-0.001546324917616047,-0.43827426714800005,0.01156119450301234,0.0014558088710428178,-0.012649743534876218,1.9255784221751554e-05,25.428778099998453
1604,B,18577249150668.0,2.106467421920482,0.9401245,1.0890954088565425,22,1970-01-01 05:09:37.249150668,1.319519,0.90908813,-0.9815979,1.2634724235643056,1.879123747056672,90.28516387939453,-1.4367475509643555,69.34734344482422,25479132.0,50354.0,0.07997581414398396,-0.49919526301710004,0.056150331211212344,0.001974619250252265,-0.023602670360966728,0.0017047730829070351,25.47913210399929
1604,B,18577299504672.0,-3.7816400780795174,12.686722,-3.9049078911434574,22,1970-01-01 05:09:37.299504672,0.32385254,-0.18652344,0.22735596,14.432129902848127,0.4374496472525802,90.30159759521484,-1.44806706905365,69.33795928955078,25529486.0,50354.0,-0.04217582196411604,-0.15038608566950007,-0.07089371086653766,0.0009516904031125346,-0.016354509615882532,-0.00037119406958212547,25.52948610800013
1604,B,18577349858676.0,-4.6336906780795175,8.527618,-9.424775191143457,22,1970-01-01 05:09:37.349858676,-0.30485535,-1.0201111,0.40644836,14.449913196795071,1.1396331471633852,90.28766632080078,-1.4681252241134644,69.28683471679688,25579840.0,50354.0,-0.21187278244781604,0.040644238179999966,-0.33560143096273765,-0.006396181713279215,-0.0027629704942431443,-0.010234328185835665,25.579840111997328
1604,B,18577400212680.0,-3.781578778079518,9.091461,-0.7801214911434575,22,1970-01-01 05:09:37.400212680,-0.071777344,-0.18818665,-1.9486542,10.596099764069306,1.9590353221745536,90.28428649902344,-1.3706456422805786,69.27789306640625,25630194.0,50354.0,-0.21187123909771602,-0.04987364801700001,-0.25692868376993766,-0.010668603230451861,-0.00023236885146615019,-0.014918130698624568,25.630194115998165
1604,B,18577450566684.0,-2.3128898780795177,19.039642,0.4089958988565425,22,1970-01-01 05:09:37.450566684,0.5067291,0.7007599,-2.8336334,19.419914766745297,2.9626537198650773,90.3088150024414,-1.2291508913040161,69.31368255615234,25680548.0,50354.0,-0.15344043735611604,0.21478758023099997,-0.00934382903700766,-0.00919745207807813,0.004152038071351878,-0.006703943054940462,25.680548119999003
1604,B,18577500920688.0,2.727652721920482,13.778458,-2.0717474911434572,22,1970-01-01 05:09:37.500920688,1.526001,0.625412,-1.84198,14.067571764133259,2.472389439822335,90.38445281982422,-1.1372430324554443,69.34552001953125,25730902.0,50354.0,0.010442484119383958,0.3327921037,-0.04186309683900766,-0.003600259468641204,0.013786413702330788,-0.0012892367727804378,25.73090212399984
1604,B,18577551274692.0,2.258567051920482,8.710297,1.6626122088565425,22,1970-01-01 05:09:37.551274692,0.60513306,0.27770996,-1.0713501,8.82047837884643,1.2613880762708103,90.21467590332031,-1.1771531105041504,69.3637924194336,25781256.0,50354.0,0.12553805524599396,0.072730184635,-0.010300799002137654,0.00342358203960212,0.010209834653410297,-0.0013133304055925154,25.78125612799704
1604,B,18577601628695.0,3.942145521920482,6.3835907,3.548064508856543,22,1970-01-01 05:09:37.601628695,-0.8330078,-0.17015076,-0.4369049,7.483776081418133,0.9558970486581845,90.1731948852539,-1.1552765369415283,69.3553466796875,25831610.0,50354.0,0.15611534047159395,-0.11345038937710003,0.13118920772186235,0.007091187543981711,-0.0010252125947918524,0.0030436074663365087,25.831610130997433
1604,B,18577651982699.0,3.634543621920482,3.9320526,1.7945397088565425,22,1970-01-01 05:09:37.651982699,-1.6201782,0.7071991,0.11326599,4.655212892259693,1.7714223525988175,90.09148406982422,-1.1610219478607178,69.39070892333984,25881964.0,50354.0,0.19075830257448395,-0.23375224863590005,0.13451074638936236,0.008733237710971105,-0.008741520817253304,0.006689527744658305,25.88196413499827
1604,B,18577702336703.0,0.09142232192048194,9.001144,-2.3839271911434574,22,1970-01-01 05:09:37.702336703,-2.2397919,1.9158478,0.8523407,9.555172972625861,3.0681631666107556,89.9775161743164,-1.2036958932876587,69.48650360107422,25932318.0,50354.0,0.09380864456808395,-0.16785010920180005,-0.014839008641537659,0.007164542028208432,-0.010111142563279775,0.0030129753412769826,25.932318138999108
1604,B,18577752690707.0,-7.203210078079518,15.460968,5.105712208856542,22,1970-01-01 05:09:37.752690707,-1.2814941,-0.2638092,3.5647736,18.3374792143816,3.797292883304685,89.91373443603516,-1.3819442987442017,69.47347259521484,25982672.0,50354.0,-0.17905348033681606,0.12241339382399996,0.06852638139096234,-0.0021462092301493684,-0.0011439601830668727,0.0013516869837122655,25.982672142999945
1604,B,18577803044711.0,0.972083291920482,18.75998,3.2263634088565425,22,1970-01-01 05:09:37.803044711,-0.8333435,-1.6103973,2.8695831,18.965951318292642,3.394458428180429,89.66954803466797,-1.450875163078308,69.3982162475586,26033026.0,50354.0,-0.15688107909512605,0.3681116077959999,0.20977666782716234,-0.008457824402818007,0.012349947965786737,0.0070068358701647245,26.033026146997145
1604,B,18577853398715.0,0.8793251219204821,12.544998,-0.8869330911434576,22,1970-01-01 05:09:37.853398715,-0.43162537,-0.049606323,1.9191895,12.636253170917003,1.9677524194419043,89.81250762939453,-1.4393318891525269,69.39215087890625,26083380.0,50354.0,0.04661290963527396,0.29469623110599996,0.05889983710906234,-0.0027762217024906964,0.01668751296003565,0.006764468364779329,26.083380150997982
1604,B,18577903752719.0,-3.297707378079518,2.8392944,1.3375237088565424,22,1970-01-01 05:09:37.903752719,0.5251312,0.68244934,0.7962189,5.647706589030831,1.1728019507133698,89.83789825439453,-1.4790384769439697,69.42640686035156,26133734.0,50354.0,-0.06088761006331604,-0.10613887024520005,0.011344519982162335,-0.0003593941326768155,0.004747308674392359,0.0017685421784857636,26.13373415499882
1604,B,18577954106723.0,-2.3152854780795176,-4.70549,-1.1164099911434575,22,1970-01-01 05:09:37.954106723,1.4988708,1.017746,-0.69847107,6.273997573851252,1.9417215122760485,89.91153717041016,-1.4440034627914429,69.47722625732422,26184088.0,50354.0,-0.14131832113951603,-0.5404544066212001,0.005566980070862338,-0.005090938729893704,-0.01627927893166536,0.0004257808368350022,26.184088158999657
1604,B,18578004460727.0,2.171057921920482,3.320221,1.8792718088565423,22,1970-01-01 05:09:38.004460727,1.8056641,-0.3201599,-0.91804504,3.658778276358107,2.050788116570169,90.00221252441406,-1.3981109857559204,69.46116638183594,26234442.0,50354.0,-0.0036312171814160393,-0.5283461176130001,0.019206571984562337,-0.003649394526306107,-0.026909190798644463,0.0006237237200994271,26.234442163000494
1604,B,18578054814731.0,1.384055341920482,2.1945496,0.49923637885654243,22,1970-01-01 05:09:38.054814731,0.262146,-1.1445007,0.084365845,2.198203903313663,1.1771660772461352,90.01144409179688,-1.285061001777649,69.4040756225586,26284796.0,50354.0,0.08950708664372395,-0.35462382060380004,0.05988370064205234,0.0021620967654525265,-0.022230534134484378,0.001991255793920278,26.284796166997694
1604,B,18578105168735.0,5.346488221920482,13.277496,-9.274094191143458,22,1970-01-01 05:09:38.105168735,1.2464752,-3.0413818,1.0551147,16.922459246359878,3.4520965669781556,90.07723999023438,-1.3376996517181396,69.25192260742188,26335150.0,50354.0,0.16945489530682395,-0.10392950792880006,-0.2209245951399477,0.006519885819568944,-0.011544997152465274,-0.004054526600773512,26.33515017099853
1604,B,18578155522738.0,0.948859421920482,9.481644,-6.033386891143457,22,1970-01-01 05:09:38.155522738,-0.9849243,-1.2076721,-1.0227051,11.523392783478046,1.8639939644255585,90.02936553955078,-1.2865041494369507,69.19156646728516,26385504.0,50354.0,0.15849796762898397,0.07953766777999993,-0.3853964512087377,0.008256869230134837,-0.0006141133594263407,-0.015265344983920855,26.385504173998925
1604,B,18578205876742.0,2.320105751920482,11.578049,-2.1634833911434574,22,1970-01-01 05:09:38.205876742,0.8581848,2.2719421,-3.3979034,11.906072257821918,4.1765954523313615,90.06990814208984,-1.116707444190979,69.30535125732422,26435858.0,50354.0,0.08230273618179397,0.03675069066099995,-0.20637260309713765,0.006062639319843957,0.0029277920004690543,-0.014898969480259025,26.435858177999762
1604,B,18578256230746.0,2.535346221920482,18.34166,3.1249230088565425,22,1970-01-01 05:09:38.256230746,3.1615906,-0.013900757,-1.6791229,18.55809127768465,3.5798466540283456,90.02295684814453,-1.0842496156692505,69.3087387084961,26486212.0,50354.0,0.12224571434539395,0.259819313493,0.024206165255162344,0.00514991633892301,0.007466742994585258,-0.004586404405547413,26.48621218199696
1604,B,18578306584750.0,2.139685821920482,8.32283,0.8089592788565425,22,1970-01-01 05:09:38.306584750,0.56895447,-0.513443,-0.98742676,8.35262079122904,1.2499378022710084,89.99683380126953,-1.115746021270752,69.28412628173828,26536566.0,50354.0,0.11770328176778397,0.17786266472999998,0.09904335435775234,0.006041195875141481,0.011019519165720472,0.0031030531552943535,26.5365661859978
1604,B,18578356938754.0,5.786612921920482,4.8585815,2.5478051088565428,22,1970-01-01 05:09:38.356938754,-0.5723877,-0.0046539307,-0.6221161,6.791179547230152,0.8453861721494268,89.96821594238281,-1.0846372842788696,69.28387451171875,26586920.0,50354.0,0.19956042347368397,-0.16160080266450005,0.08451325698945235,0.00798774830686444,0.0004094249012230917,0.004621404803888573,26.586920189998636
1604,B,18578407292758.0,2.960089921920482,2.722107,1.4263756588565424,22,1970-01-01 05:09:38.407292758,-1.5314026,0.9230652,0.35079956,3.2226582655670803,1.8221700299461612,89.89077758789062,-1.1021206378936768,69.33007049560547,26637274.0,50354.0,0.22021573749938397,-0.30261020563550006,0.10005794918871234,0.010568704404818932,-0.011687440555969104,0.004646949257947653,26.637274193999474
1604,B,18578457646762.0,-0.007164778079517875,4.860428,-0.22848579114345752,22,1970-01-01 05:09:38.457646762,-2.1796417,1.5177612,0.9768982,5.142487321384064,2.8299765182360734,89.78028869628906,-1.150747299194336,69.4061050415039,26687628.0,50354.0,0.07434579634648397,-0.30256371630500006,0.03015927319941234,0.007416175737637417,-0.015236463832695973,0.0032784790080658158,26.68762819800031
1604,B,18578508000766.0,-13.665688078079517,17.054626,6.860137208856543,22,1970-01-01 05:09:38.508000766,-1.2056732,-2.2102814,3.652481,23.70103724155165,4.436170554402208,89.72238159179688,-1.3338514566421509,69.29635620117188,26737982.0,50354.0,-0.34424141635951605,0.05828611455799991,0.16696508774376237,-0.006795162025068109,-0.006150177179184223,0.00496300003546631,26.73798220199751
1604,B,18578558354770.0,4.359549721920482,19.514084,-1.0010229911434576,22,1970-01-01 05:09:38.558354770,-0.29794312,-2.4366455,2.662201,19.777349770385264,3.6212326022815193,89.82560729980469,-1.6408390998840332,69.17218017578125,26788336.0,50354.0,-0.23430064539301604,0.42722121167,0.14751491865936234,-0.014565953488743502,0.012223617952442355,0.00791766312121147,26.78833620599835
1604,B,18578608708774.0,-0.10302047807951809,10.832657,0.8823540588565424,22,1970-01-01 05:09:38.608708774,-0.43014526,0.6730652,1.899826,10.959144298635922,2.0609174021361234,89.8031005859375,-1.7357192039489746,69.20616149902344,26838690.0,50354.0,0.10716663677218395,0.2705706981569999,-0.0029877277081876647,-0.003200852935046689,0.017568306913714377,0.003638761086577725,26.838690209999186
1604,B,18578659062777.0,-1.8764580780795181,0.18060303,1.5371087088565425,22,1970-01-01 05:09:38.659062777,0.61628723,0.4658661,-0.07951355,3.549344712746536,0.7766360651063569,89.83320617675781,-1.7316703796386719,69.22944641113281,26889044.0,50354.0,-0.04983733160841606,-0.21618835222469004,0.06091481410271234,0.0014433799161081844,0.0013691843235377657,0.0014584302541549479,26.88904421299958
1604,B,18578709416781.0,4.0186684219204825,-7.164749,-1.1940466911434575,22,1970-01-01 05:09:38.709416781,1.9555206,1.5184326,-0.7068176,7.775918720137543,2.5747406660549097,89.9287109375,-1.6961716413497925,69.30532836914062,26939398.0,50354.0,0.053934429826883956,-0.66930904308669,0.00863727241996234,0.00010315264184636625,-0.022294167921754617,0.0017511128823813806,26.939398217000416
1604,B,18578759770785.0,0.701102451920482,9.401535,2.1204674088565425,22,1970-01-01 05:09:38.759770785,1.885788,-0.22502136,-0.43978882,9.57591631473931,1.9494217603169517,90.02333068847656,-1.6741876602172852,69.2940673828125,26989752.0,50354.0,0.11882967129069397,-0.437153638878,0.023324494409862343,0.004349681773837259,-0.027857410943825003,0.0008047014034744961,26.989752220997616
1604,B,18578810124789.0,-6.099801078079517,19.040894,-1.0057531911434576,22,1970-01-01 05:09:38.810124789,-0.53126526,-1.0241547,0.4152069,20.559999401894377,1.2261861179374718,89.99827575683594,-1.6949365139007568,69.24283599853516,27040106.0,50354.0,-0.13592303531080605,0.222625834933,0.02806515985936234,-0.0004303596259343618,-0.005401166519923266,0.00129383732553627,27.040106224998453
1604,B,18578860478793.0,2.504752361920482,1.6173401,-10.394227191143457,22,1970-01-01 05:09:38.860478793,0.19717407,0.17349243,-0.5096588,11.049844278579476,0.5733492212998198,90.00787353515625,-1.6694557666778564,69.25150299072266,27090460.0,50354.0,-0.09051254152673605,0.0266431599357,-0.28701730608483766,-0.0057009685180387975,0.00627584548380926,-0.006519638185518792,27.09046022899929
1604,B,18578910832797.0,-10.047158078079518,19.516174,-2.832504991143457,22,1970-01-01 05:09:38.910832797,-0.16474915,-0.06719971,-3.8925323,22.923968095937735,3.8965966932687683,89.99972534179688,-1.4748278856277466,69.24815368652344,27140814.0,50354.0,-0.18989514871573604,0.03860928449569995,-0.33300943615343764,-0.00705982441723472,0.0016428607934493567,-0.015610413289333058,27.14081423300013
1604,B,18578961186801.0,-0.993828578079518,17.527771,-8.717164191143457,22,1970-01-01 05:09:38.961186801,1.5951385,1.7231445,-2.348938,19.95721144300524,3.3213255681890774,90.07736206054688,-1.3574391603469849,69.33442687988281,27191168.0,50354.0,-0.277978921042116,0.439186203265,-0.29078602100243767,-0.011779665454293441,0.012029456995351144,-0.015705298224813473,27.191168236997328
1604,B,18579011540805.0,-0.6417472780795179,9.887466,-5.459107191143457,22,1970-01-01 05:09:39.011540805,2.8064117,0.4059143,-1.7618408,11.738890096633575,3.338382250939221,90.21720123291016,-1.269402265548706,69.35494232177734,27241522.0,50354.0,-0.041178893330516046,0.196764221949,-0.35691598459183765,-0.008035436292459758,0.01601132385561288,-0.01630719339484707,27.241522240998165
1604,B,18579061894809.0,1.070487221920482,4.4053345,2.2207177088565424,22,1970-01-01 05:09:39.061894809,-0.106155396,-0.89979553,-0.7080078,4.753048178629831,1.1498591256187594,90.2128677368164,-1.233834147453308,69.31007385253906,27291876.0,50354.0,0.010794385566083952,-0.13361936181150003,-0.08153293199553766,-0.0007649907519851068,0.0015897981436818372,-0.011038828372920348,27.291876244999003
1604,B,18579112248813.0,3.670584921920482,3.8415985,3.1852868088565427,22,1970-01-01 05:09:39.112248813,-1.2108154,-0.6253662,-0.23049927,5.165402193617381,1.3821312276517497,90.15299987792969,-1.2222099304199219,69.27883911132812,27342230.0,50354.0,0.11936597336548396,-0.28583616785900007,0.13610697574246236,0.0032770473568200856,-0.01056063187051418,0.0013740106994163234,27.34223024899984
1604,B,18579162602817.0,3.444098721920482,2.6340332,0.6088402588565425,22,1970-01-01 05:09:39.162602817,-1.8301239,0.74632263,0.44522095,3.2696683576976246,2.0259744943409896,90.06069946289062,-1.244539499282837,69.31612396240234,27392584.0,50354.0,0.17912639010098397,-0.33043222068910005,0.09552473718381235,0.007515142234995263,-0.01551578921847552,0.005831791636344819,27.39258425299704
1604,B,18579212956820.0,-3.6955800780795176,6.701935,-1.3441626911434577,22,1970-01-01 05:09:39.212956820,-1.8243713,-0.5165405,1.671814,8.682636909499916,2.5278660524244434,89.97005462646484,-1.3281261920928955,69.29026794433594,27442938.0,50354.0,-0.006331546104016041,-0.25841752862860007,-0.018513212877687663,0.004350455787311662,-0.014825470138571736,0.0019389191474553015,27.442938255997433
1604,B,18579263310824.0,-14.554299078079517,19.613052,1.3476708088565426,22,1970-01-01 05:09:39.263310824,-1.1964569,-1.3371277,3.77034,25.366968762098494,4.175509946732842,89.91189575195312,-1.5167113542556763,69.22358703613281,27493292.0,50354.0,-0.45947720751461596,0.16906322769899995,8.832387966233858e-05,-0.011727666989856299,-0.0022496732345045423,-0.0004638834303032837,27.49329225999827
1604,B,18579313664828.0,0.09870072192048207,17.871902,0.43701103885654247,22,1970-01-01 05:09:39.313664828,-0.9675598,-0.2234497,1.3594666,17.92766074211716,1.6835234395522058,89.87032318115234,-1.4341461658477783,69.21231079101562,27543646.0,50354.0,-0.363948599813016,0.45028948685799997,0.04493293487987234,-0.020731391551087792,0.015593443294401588,0.0011335002317888047,27.543646263999108
1604,B,18579364018832.0,-2.4381644780795177,8.5390625,1.9099572088565424,22,1970-01-01 05:09:39.364018832,-0.26296997,0.4061737,1.4899597,9.514208403926823,1.5665599852280094,89.85665130615234,-1.5085924863815308,69.2328109741211,27594000.0,50354.0,-0.05890067898881605,0.17147965321649994,0.05908961957267235,-0.010646076292393728,0.015654281639655685,0.0026189758534517177,27.594000267999945
1604,B,18579414372836.0,-2.6074454780795175,-2.16539,1.7569268088565424,22,1970-01-01 05:09:39.414372836,0.92541504,0.23857117,0.106536865,4.8216424576678385,0.9615920668440431,89.90259552001953,-1.5138963460922241,69.2447509765625,27644354.0,50354.0,-0.12703332186621605,-0.33299924746750004,0.09232113891396235,-0.004681260339527143,-0.00406657882445743,0.0038120686664180024,27.644354271997145
1604,B,18579464726840.0,2.8090126219204823,-1.30159,-2.1636358911434574,22,1970-01-01 05:09:39.464726840,1.8900452,0.917511,-0.88912964,3.2293889462157668,2.2813699414804627,89.99590301513672,-1.4693944454193115,69.29059600830078,27694708.0,50354.0,0.00507485598048397,-0.5807573554600001,-0.01023971456473766,-0.0030705482956050766,-0.02300564999190567,0.00206656402084043,27.694708275997982
1604,B,18579515080844.0,1.408927161920482,8.194138,0.26507500885654245,22,1970-01-01 05:09:39.515080844,1.022232,-0.61273193,-0.39292908,8.197889616810468,1.2549071446824946,90.08744049072266,-1.395267128944397,69.25900268554688,27745062.0,50354.0,0.10619506993776395,-0.3199355190040001,-0.04780006733333766,0.0028014429248437284,-0.022676744500380132,-0.0014612675888478425,27.74506227999882
1604,B,18579565434848.0,-0.5984428780795181,6.7602844,-4.377396191143458,22,1970-01-01 05:09:39.565434848,-0.055145264,-0.41964722,0.29595947,8.593795797388498,0.5164656787028922,90.08518981933594,-1.4100350141525269,69.23798370361328,27795416.0,50354.0,0.020405562814263947,-0.11696170723520004,-0.10353591040643767,0.0031874241307978065,-0.010999761465024342,-0.003810185911554324,27.795416283999657
1604,B,18579615788852.0,2.740744821920482,14.903305,-8.910721191143457,22,1970-01-01 05:09:39.615788852,0.28208923,-0.40275574,0.04385376,17.664088615807668,0.4936695980623863,90.09980010986328,-1.412197470664978,69.21784210205078,27845770.0,50354.0,0.05393673604008396,0.05195499032379995,-0.3345549313338377,0.0018717160582559175,-0.00163667411167832,-0.011029813122494913,27.845770288000494
1604,B,18579666142856.0,0.07605672192048196,12.593826,-1.7869269911434575,22,1970-01-01 05:09:39.666142856,-0.41911316,0.56152344,-1.9159851,12.878370293709864,2.0400890465802295,90.07815551757812,-1.3164348602294922,69.24606323242188,27896124.0,50354.0,0.07091861246928396,0.19882606718699997,-0.26933468828543766,0.0031434831094203563,0.00631391468494941,-0.015204128953154495,27.896124291997694
1604,B,18579716496860.0,3.331198921920482,16.675323,3.3180230088565428,22,1970-01-01 05:09:39.716496860,1.4835358,0.88879395,-2.807907,17.010928150412443,3.2977530041055596,90.15137481689453,-1.1761318445205688,69.29080963134766,27946478.0,50354.0,0.08578447534498396,0.24344016437299995,0.03854840443796235,0.003945313641899824,0.011134936911986118,-0.005810506268427887,27.94647829599853
1604,B,18579766850863.0,3.843482221920482,15.447144,2.850646308856543,22,1970-01-01 05:09:39.766850863,1.5892639,-0.20706177,-1.8819275,15.799479336634215,2.471899155648343,90.23102569580078,-1.0820038318634033,69.28076171875,27996832.0,50354.0,0.18063694715848394,0.3152781516589999,0.15530858741206235,0.0067076921543698115,0.01406685104273766,0.004880737483808072,27.996832298998925
1604,B,18579817204867.0,1.869864661920482,7.522171,1.9041894088565423,22,1970-01-01 05:09:39.817204867,-0.53590393,-0.21218872,-0.68569946,7.662143782663415,0.895768287298102,90.20442199707031,-1.0476778745651245,69.27027893066406,28047186.0,50354.0,0.14384493449446395,0.08482924375499996,0.11971249886486236,0.00816948033437627,0.010073503894338275,0.006924205889194134,28.047186302999762
1604,B,18579867558871.0,3.8324349219204823,4.3859253,2.7104638088565425,22,1970-01-01 05:09:39.867558871,-0.9407959,0.085754395,-0.09803772,5.436210044169016,0.9497695174416919,90.15731811523438,-1.0427933931350708,69.27458953857422,28097540.0,50354.0,0.14356679662236396,-0.19365905945490003,0.11618312406236234,0.0072361651543283775,-0.002740008269876384,0.005939144098438737,28.09754030699696
1604,B,18579917912875.0,3.4287636219204822,7.620758,-2.7731329911434575,22,1970-01-01 05:09:39.917912875,-1.6990509,1.2931061,0.7177124,8.509536033071411,2.252555978385838,90.0711669921875,-1.078808307647705,69.33917999267578,28147894.0,50354.0,0.18281519573828398,-0.19117693455590004,-0.0015778220024376586,0.008217319421664033,-0.009689015821209913,0.002885417689962724,28.1478943109978
1604,B,18579968266879.0,-2.473046078079518,16.396927,-1.1883551911434576,22,1970-01-01 05:09:39.968266879,-1.8127441,0.80532837,2.3997498,16.95727399231902,3.113421599817748,89.97972869873047,-1.1988129615783691,69.37939453125,28198248.0,50354.0,0.024062100601283956,0.11122405524500002,-0.09973838796543767,0.005208549689941302,-0.00201297364241053,-0.0025508382183611973,28.198248314998636
1604,B,18580018620883.0,-2.131340778079518,18.385376,0.9871056388565425,22,1970-01-01 05:09:40.018620883,-1.0721436,-1.2251434,2.6903992,18.749157639793506,3.1446329046400887,89.92747497558594,-1.3333834409713745,69.3182373046875,28248602.0,50354.0,-0.11592464787751605,0.38224484263100006,-0.0050668599779276615,-0.0023128233527736955,0.012424066441824054,-0.0026386817274701093,28.248602318999474
1604,B,18580068974887.0,0.3430092219204821,13.840073,-2.820099591143457,22,1970-01-01 05:09:40.068974887,-0.5955658,-0.79771423,1.6964417,14.278516942833015,1.9669674772026666,89.8986587524414,-1.4182661771774292,69.2784652709961,28298956.0,50354.0,-0.04502482358941605,0.317870929473,-0.046149288736727655,-0.00405222484312295,0.01762681479426241,-0.001289468976188877,28.29895632300031
1604,B,18580119328891.0,-3.1006860780795176,2.4038239,0.7971947488565425,22,1970-01-01 05:09:40.119328891,0.03274536,0.44673157,0.92889404,5.209128743987238,1.031254329340593,89.89972686767578,-1.4646716117858887,69.30088806152344,28349310.0,50354.0,-0.06943003020751604,-0.08449660774870003,-0.05093067521425765,-0.0028816298540453593,0.0058756652980527,-0.0024441822523939573,28.34931032699751
1604,B,18580169682895.0,-1.200875078079518,-4.933609,-0.37829659114345754,22,1970-01-01 05:09:40.169682895,1.1643829,0.63983154,-0.37239075,5.696339232047505,1.3797995535862244,89.9571304321289,-1.446012258529663,69.33287048339844,28399664.0,50354.0,-0.10830040522861605,-0.5571615994627,0.01054659891674234,-0.004474719172975498,-0.016155028682961422,-0.001016749888942543,28.39966433099835
1604,B,18580220036899.0,2.138648221920482,2.1597595,0.9237816688565424,22,1970-01-01 05:09:40.220036899,1.6182861,0.16041565,-0.46051025,2.290450595948483,1.6901635342691532,90.037841796875,-1.4229856729507446,69.34089660644531,28450018.0,50354.0,0.023610314442483946,-0.5633064088615001,0.013733677801582338,-0.002132242415722448,-0.028210023045578392,0.0006113045269372605,28.450018334999186
1604,B,18580270390902.0,-2.545174378079518,8.522629,0.8022149088565425,22,1970-01-01 05:09:40.270390902,0.39450073,-0.74853516,0.0811615,9.443537822862845,0.8500134709573776,90.0584945678711,-1.427011489868164,69.3034439086914,28500372.0,50354.0,-0.010235109033616057,-0.22451870473550004,0.04345541583708234,0.00033674754657906687,-0.019835072885031675,0.0014398498105406606,28.50037233799958
1604,B,18580320744906.0,-2.314720878079518,7.2025146,-4.439041791143457,22,1970-01-01 05:09:40.320744906,-0.18806458,-1.4725952,0.24958801,9.529787877925708,1.505390010611661,90.05093383789062,-1.4394190311431885,69.22978210449219,28550726.0,50354.0,-0.12235758286431606,-0.09755725958280004,-0.09156439041533766,-0.003338286203914237,-0.008108906553641841,-0.0012112396529567343,28.550726342000416
1604,B,18580371098910.0,-1.478539278079518,13.008438,-5.440048891143458,22,1970-01-01 05:09:40.371098910,-0.42251587,-1.2055206,-1.3719025,14.605983895506258,1.8745442237868029,90.03128814697266,-1.3707789182662964,69.1695327758789,28601080.0,50354.0,-0.09550291095161606,0.015381953610199936,-0.24872586610793768,-0.0054850736528037234,-0.002068927678472153,-0.008567487788486504,28.601080345997616
1604,B,18580421452914.0,-0.388558178079518,13.860489,-6.9157111911434574,22,1970-01-01 05:09:40.421452914,0.99861145,1.5641022,-2.9573975,15.82982746460212,3.4913952072376726,90.07942962646484,-1.2229869365692139,69.24789428710938,28651434.0,50354.0,-0.04700791265371605,0.18300977507899996,-0.3110809715917377,-0.003587995005911447,0.0049949085532079865,-0.014094256752764728,28.651434349998453
1604,B,18580471806918.0,3.492957321920482,13.972076,-2.392777191143457,22,1970-01-01 05:09:40.471806918,2.5252838,1.2626648,-2.4668732,14.403712609819827,3.7492457978345084,90.20442199707031,-1.099799633026123,69.31134796142578,28701788.0,50354.0,0.07815945724448395,0.20727128900499994,-0.23435981200083764,0.0007843024381617633,0.009826106350442865,-0.013732562608510268,28.70178835399929
1604,B,18580522160922.0,3.169898221920482,9.814499,0.32681205885654246,22,1970-01-01 05:09:40.522160922,0.81266785,-0.12232971,-0.93621826,9.955151110000337,1.2457520711320267,90.26380920410156,-1.264578938484192,69.3049545288086,28752142.0,50354.0,0.16775071402728395,0.10540539877499995,-0.05201480413558765,0.0061912803821093,0.007872260968237059,-0.00721005371046678,28.75214235800013
1604,B,18580572514926.0,2.925803421920482,6.4322357,2.3446191088565427,22,1970-01-01 05:09:40.572514926,-0.63067627,-0.17106628,-0.37123108,6.841893813772326,0.7515508927891162,90.23246002197266,-1.245980978012085,69.2964859008789,28802496.0,50354.0,0.15347148028698396,-0.08442516045810006,0.06725862250951235,0.008087411186250323,0.0005282194601045887,0.00038379361520030227,28.802496361997328
1604,B,18580622868930.0,3.036475421920482,3.942276,1.6993401088565423,22,1970-01-01 05:09:40.622868930,-1.4693298,0.98760986,0.04032898,4.396530741540782,1.7708556472409318,90.15792846679688,-1.2481671571731567,69.34587860107422,28852850.0,50354.0,0.15011229445138397,-0.23227011892910007,0.10181476122436235,0.00764332869658789,-0.007973437049131537,0.004256760582267764,28.852850365998165
1604,B,18580673222934.0,-2.205193278079518,9.777817,-3.0094001911434574,22,1970-01-01 05:09:40.673222934,-2.4262848,1.3278198,1.0690002,11.030278006096504,2.965252903140493,90.03514099121094,-1.3017290830612183,69.41219329833984,28903204.0,50354.0,0.02092919053548395,-0.14803841853900004,-0.032983382691737666,0.004306311467514374,-0.009575028047834357,0.001732967617315892,28.903204369999003
1604,B,18580723576938.0,-5.200264778079518,15.976135,2.3483575088565427,22,1970-01-01 05:09:40.723576938,-1.3615265,-0.33666992,2.2929382,17.427563667293416,2.6878739989542475,89.96746063232422,-1.4163753986358643,69.39535522460938,28953558.0,50354.0,-0.18644721747991605,0.15493804950399997,-0.016643071611937652,-0.004167247364379967,0.00017371200880580327,-0.0012494452400036336,28.95355837399984
1604,B,18580773930942.0,0.539633921920482,19.007416,0.9369194888565424,22,1970-01-01 05:09:40.773930942,-0.5071106,-2.2470245,2.5157623,19.03741128967974,3.4110614498032574,89.91216278076172,-1.4339019060134888,69.28385162353516,29003912.0,50354.0,-0.11734070306551607,0.38731166352699997,0.08271341897142234,-0.007648468475572346,0.013652221024981488,0.0016634531354697462,29.00391237799704
1604,B,18580824284945.0,-1.081597078079518,9.669144,0.8466942688565424,22,1970-01-01 05:09:40.824284945,-0.2763214,-0.38298035,1.9216003,10.016867887307132,1.9787812353931833,89.89884185791016,-1.530012607574463,69.26485443115234,29054266.0,50354.0,-0.013645006382616053,0.22852055111999994,0.04490604357794234,-0.003297827206775623,0.015504807668167517,0.003213075208605355,29.054266380997433
1604,B,18580874638949.0,-2.193322078079518,0.8050842,2.3495782088565424,22,1970-01-01 05:09:40.874638949,0.46920776,0.21232605,0.33763123,4.221337014953391,0.6158190651677918,89.9220199584961,-1.5468755960464478,69.27550506591797,29104620.0,50354.0,-0.08245263959461607,-0.2297595566086001,0.08047255217138234,-0.002419450432768773,-3.1194441186485924e-05,0.003156656905180748,29.10462038499827
1604,B,18580924992953.0,0.5571357819204821,-6.4906464,-1.1193854911434575,22,1970-01-01 05:09:40.924992953,1.4601898,1.2416382,-1.0352936,6.755125238314875,2.1784518608232406,89.99337005615234,-1.4950658082962036,69.33757019042969,29154974.0,50354.0,-0.04119426237839605,-0.6366145995094,0.03097256205386234,-0.0031130580509745264,-0.021812702128582887,0.0028058536408489855,29.154974388999108
1604,B,18580975346957.0,2.274146281920482,10.95047,2.9965661088565425,22,1970-01-01 05:09:40.975346957,1.7999878,-0.80862427,-0.20310974,11.259320164222045,1.9837043269259511,90.08442687988281,-1.4848802089691162,69.29713439941406,29205328.0,50354.0,0.07128318852132397,-0.38118422122280005,0.047261776412162344,0.0007575488935004962,-0.0256251209095746,0.0019697059395591032,29.205328392999945
1604,B,18581025700961.0,-14.832833078079517,18.883408,2.3987420088565425,22,1970-01-01 05:09:41.025700961,-0.6298523,-1.7198029,0.57624817,25.046479249453085,1.9200254915214143,90.0551986694336,-1.5135854482650757,69.21109771728516,29255682.0,50354.0,-0.31619005746689605,0.25765834640599994,0.13583767247966236,-0.006166020239442668,-0.0031100109502625764,0.004609894824749471,29.255682396997145
1604,B,18581076054965.0,-1.788994578079518,1.1299133,-7.254181591143458,22,1970-01-01 05:09:41.076054965,-0.649765,-1.8397827,-0.6049957,8.49446373326137,2.0427958134534103,90.02510833740234,-1.483269453048706,69.11907958984375,29306036.0,50354.0,-0.41848775489911605,0.01040619037009995,-0.12224540236323767,-0.018496983281939085,0.006749060842411867,0.0003422125847212245,29.306036400997982
1604,B,18581126408969.0,-4.429482078079518,16.034744,5.172332108856542,22,1970-01-01 05:09:41.126408969,0.28918457,0.48669434,-2.9031525,17.728747992320923,2.9578359546077553,90.0389633178711,-1.3381248712539673,69.14350128173828,29356390.0,50354.0,-0.15656258677211607,-0.06131462315790004,-0.05241472441553767,-0.014478042452256612,-0.001281721612298443,-0.004397418011909227,29.35639040499882
1604,B,18581176762973.0,0.879706581920482,19.48114,-0.18450996114345758,22,1970-01-01 05:09:41.176762973,2.6490173,-0.055664063,-2.3061981,19.503062420907575,3.5126828521875653,90.22013854980469,-1.1430772542953491,69.13997650146484,29406744.0,50354.0,-0.08937269766679605,0.40071421146799996,0.12557839821297234,-0.006191912656318491,0.008545063434883387,0.0018420418151980128,29.406744408999657
1604,B,18581227116977.0,-0.986153378079518,10.733795,5.9024498088565425,22,1970-01-01 05:09:41.227116977,0.7762909,-1.2857208,-1.0785065,12.277140564760506,1.849021851552247,90.26019287109375,-1.0888830423355103,69.0759048461914,29457098.0,50354.0,-0.0026800109868960484,0.26725221849499997,0.14396057154587236,-0.002317611045774006,0.01681739080717845,0.006786182641618434,29.457098413000494
1604,B,18581277470981.0,2.071982581920482,4.948929,3.8359521088565427,22,1970-01-01 05:09:41.277470981,-0.11244202,-0.56077576,-0.5420532,5.999486731297117,0.7879938657727596,90.2551040649414,-1.061654806137085,69.04798889160156,29507452.0,50354.0,0.027337921865103948,-0.09862525785200003,0.24518374508226237,0.0006208122221806403,0.004245520988108809,0.00979748645974655,29.507452416997694
1604,B,18581327824985.0,5.933463321920482,4.314682,1.3893120588565424,22,1970-01-01 05:09:41.327824985,-1.0723419,0.5051422,-0.19795227,6.243834092795837,1.2017782216010586,90.20101928710938,-1.0518603324890137,69.07328033447266,29557806.0,50354.0,0.20155311152100397,-0.260239265853,0.13155647595051237,0.005762789547562039,-0.009035132113320786,0.00948518854494217,29.55780642099853
1604,B,18581378178988.0,0.556052421920482,1.430893,0.28166130885654245,22,1970-01-01 05:09:41.378178988,-2.1138,0.85575867,0.4081726,1.7327387256725983,2.3166955373270195,90.09453582763672,-1.072378396987915,69.11603546142578,29608160.0,50354.0,0.16338653788268395,-0.348812858225,0.04207009647891234,0.009188085553036652,-0.015334105327911808,0.004371396214055626,29.608160423998925
1604,B,18581428532992.0,-14.51473307807952,19.532959,-3.926255191143458,22,1970-01-01 05:09:41.428532992,-2.3004608,0.2692566,2.3611298,25.648772877090515,3.3074994998379426,89.97925567626953,-1.1904441118240356,69.12942504882812,29658514.0,50354.0,-0.3514377028801161,0.03433770180399999,-0.09175994017433768,-0.004734564181140349,-0.007917541013211519,-0.001251041194719724,29.658514427999762
1604,B,18581478886996.0,-4.897881078079518,19.613052,0.21104362885654243,22,1970-01-01 05:09:41.478886996,-1.7371216,0.15254211,0.8076935,20.635352299564865,1.9217776506276845,89.89221954345703,-1.2308177947998047,69.13709259033203,29708868.0,50354.0,-0.4887513866096161,0.492109918947,-0.09353788150369767,-0.021153440706082986,0.013254371747647929,-0.0046652432563878965,29.70886843199696
1604,B,18581529241000.0,-4.045845778079518,15.012741,3.5149377088565426,22,1970-01-01 05:09:41.529241000,0.78834534,-1.822052,3.0593262,16.291034328434776,3.6470314865394506,89.9337158203125,-1.3839240074157715,69.04620361328125,29759222.0,50354.0,-0.22517621105751603,0.37830439036099994,0.09380903213960234,-0.017974555126465386,0.021914421065447515,6.826759560171976e-06,29.7592224359978
1604,B,18581579595004.0,-2.0895774780795175,4.0448914,-1.0695196911434577,22,1970-01-01 05:09:41.579595004,-0.03677368,0.6443634,1.3308105,5.63541511154644,1.4790581738763868,89.93107604980469,-1.4504259824752808,69.07850646972656,29809576.0,50354.0,-0.15447155132031604,-0.013655189065200055,0.06156828943196234,-0.009558391713386677,0.009180772941024354,0.003911934825207284,29.809576439998636
1604,B,18581629949008.0,-0.16140057807951802,-11.229538,-2.4814459911434574,22,1970-01-01 05:09:41.629949008,0.8089905,1.5708923,-0.62205505,11.736056457634271,1.8732647256914976,89.96955108642578,-1.4192534685134888,69.15705108642578,29859930.0,50354.0,-0.05667287451991604,-0.6743570474482001,-0.08940266298293767,-0.005315983209379523,-0.017322084078697876,-0.0007007860228929059,29.859930443999474
1604,B,18581680303012.0,3.655722921920482,3.2720947,-0.13525459114345756,22,1970-01-01 05:09:41.680303012,1.8680725,-0.31419373,-0.6067505,3.9624660144502246,1.9891100357893259,90.06333923339844,-1.3889063596725464,69.14134216308594,29910284.0,50354.0,0.08797655365088396,-0.6938137499641001,-0.06588067056023766,0.0007881327294803793,-0.03444643616644949,-0.003909568488616525,29.91028444800031
1604,B,18581730657016.0,-1.5034263780795178,17.447388,-2.715058091143457,22,1970-01-01 05:09:41.730657016,-0.34539795,-1.3970337,0.8957367,17.993773192746197,1.6950950234505389,90.04779815673828,-1.4336270093917847,69.0714340209961,29960638.0,50354.0,0.054188370084283954,0.028185215937899976,-0.07176232240193765,0.003579286284880323,-0.01675852960117764,-0.003465437633808688,29.96063845199751
1604,B,18581781011020.0,1.339698041920482,-1.6744232,-9.124390191143457,22,1970-01-01 05:09:41.781011020,-0.25862122,0.22209167,-0.64035034,9.76188509878177,0.7254365604625899,90.03457641601562,-1.4016143083572388,69.08255004882812,30010992.0,50354.0,-0.004122188319476045,-0.09635326523040003,-0.2980817894031376,0.001260516258292569,-0.0017162669770372737,-0.00931156520291638,30.01099245599835
1604,B,18581831365024.0,-9.170907078079518,19.073792,0.34121635885654245,22,1970-01-01 05:09:41.831365024,0.5503235,0.036727905,-3.1250763,21.86148735139743,3.173374666578094,90.06205749511719,-1.2453644275665283,69.08451843261719,30061346.0,50354.0,-0.19716634990337606,-0.0554052917224,-0.22113396757548767,-0.005067841526836748,-0.0038208251884006466,-0.01307229511345085,30.061346459999186
1604,B,18581881719027.0,-1.9593284780795182,14.628952,-8.051499191143458,22,1970-01-01 05:09:41.881719027,1.4907074,1.2104187,-2.8633118,17.292351759308524,3.447589947447882,90.1353530883789,-1.1022982597351074,69.14530944824219,30111700.0,50354.0,-0.28022594059741607,0.355064785688,-0.1941217908684877,-0.012019305697938444,0.007544527079571911,-0.010454894230343967,30.11170046299958
1604,B,18581932073031.0,2.365866861920482,9.844574,-3.7083288911434575,22,1970-01-01 05:09:41.932073031,2.6654053,0.27685547,-2.023468,10.73704704778083,3.357894743966971,90.26834869384766,-1.0011738538742065,69.15950012207031,30162054.0,50354.0,0.01023541688996395,0.12270076410199997,-0.2960771916277377,-0.006797551415382522,0.01202870324706283,-0.012341739782307468,30.162054467000416
1604,B,18581982427035.0,1.981055461920482,7.207443,3.1581261088565427,22,1970-01-01 05:09:41.982427035,0.15950012,-0.72528076,-0.99928284,7.699389862580916,1.245005487307047,90.27694702148438,-0.9510381817817688,69.12347412109375,30212408.0,50354.0,0.10944246334734396,-0.06415056799100005,-0.013852455449637657,0.0030131299907347016,0.001474118287486645,-0.00780309872446708,30.212408470997616
