Subject-id_accel,Activity_accel,Timestamp_accel,accel_x,accel_y,accel_z,Segment_accel,DateTime,gyro_x,gyro_y,gyro_z,accel_magnitude,gyro_magnitude,Roll,Pitch,Yaw,Time_Difference,Difference_Microseconds,vx,vy,vz,dx,dy,dz,Time_diff
1620,B,938271957079974.0,-2.5428162,1.1006775,3.143516662399663,100,1970-01-11 20:37:51.957079974,-0.41215515,0.21836853,-0.15525818,3.925616533518358,0.49159107500319393,116.13882446289062,-12.423059463500977,55.2225227355957,15005500.0,50354.0,0.009507066828400006,-0.31331435069440006,0.12874284944747266,0.005785550192796746,-0.008814440560309344,0.004940223832559218,15.005500632920302
1620,B,938272007433978.0,-1.4977264,0.53260803,4.425880562399663,100,1970-01-11 20:37:52.007433978,-0.76075745,0.13119507,0.18540955,2.1845549458066396,0.7939400137000338,116.8430404663086,-11.313776016235352,55.071258544921875,15055854.0,50354.0,-0.10172874104020001,-0.45234797021119,0.19057471392877265,-0.0023218650916304886,-0.019277080253440042,0.008039458293123728,15.055854636942968
1620,B,938272057787982.0,1.8899536,9.82106,-3.4919663376003367,100,1970-01-11 20:37:52.057787982,0.36975098,0.64923096,0.14660645,13.736529594799187,0.7613869435543825,117.27819061279297,-11.261765480041504,55.01486587524414,15106208.0,50354.0,0.0098751042144,-0.23279490000869005,0.023513158437772644,-0.0023125990143631667,-0.01724984204352592,0.005390090362572511,15.106208640965633
1620,B,938272108141986.0,6.4887543,17.783722,-2.8830033376003374,100,1970-01-11 20:37:52.108141986,0.14247131,0.13961792,0.050445557,20.879038662716646,0.20575711890304732,117.26171875,-11.43794059753418,55.024444580078125,15156562.0,50354.0,0.2109507287983,0.20153639641399998,-0.16050261151252737,0.005559731997760748,-0.0007869953450035118,-0.0034489834600631,15.156562644988298
1620,B,938272158495990.0,8.584885,13.472565,5.326576362399663,100,1970-01-11 20:37:52.158495990,-0.921463,-0.8209076,0.07710266,15.986481696683636,1.2364983494877118,116.70702362060547,-11.958524703979492,55.090301513671875,15206916.0,50354.0,0.37950901665610004,0.293470337799,0.06152183804537263,0.01486600501130543,0.012462784547280703,-0.002492038933582555,15.206916649010964
1620,B,938272208849994.0,3.7596283,7.962311,6.0023575923996635,100,1970-01-11 20:37:52.208849994,-0.30332947,-0.9129486,-0.17411804,8.80563943572359,0.9776507584336456,116.09241485595703,-12.289496421813965,55.18016815185547,15257270.0,50354.0,0.3107978113541,0.04619667305199995,0.28522857017998265,0.017379855008812808,0.008551796332195626,0.00873013502788977,15.257270653033629
1620,B,938272259203998.0,-0.070632935,1.4390717,7.685417262399663,100,1970-01-11 20:37:52.259203998,-0.4193573,-0.71577454,0.08843994,2.27535883991215,0.8342753503266802,114.6528091430664,-12.16161060333252,55.447269439697266,15307624.0,50354.0,0.09287783630460501,-0.25677058776210004,0.34461710751928265,0.010163341781103216,-0.00530161945065619,0.015857624627434404,15.307624656939879
1620,B,938272309558002.0,0.6705017,-0.3951416,5.694557302399663,100,1970-01-11 20:37:52.309558002,-0.15028381,0.41540527,0.20809937,0.8114901357480692,0.48831558411163356,116.01908874511719,-14.71162223815918,55.14231872558594,15357978.0,50354.0,0.015102895896405,-0.46718617187230016,0.33686761961795264,0.002718630894624829,-0.018227059337315294,0.017157740975134173,15.357978660962544
1620,B,938272359912005.0,2.588974,11.043747,7.724418762399663,100,1970-01-11 20:37:52.359912005,-0.395401,0.5680542,-0.6363678,11.485093161868292,0.9402082225844869,115.15567016601562,-14.716629028320312,55.39479446411133,15408332.0,50354.0,0.0820638196989,-0.22536926184420006,0.3378495603834527,0.0024463663985429943,-0.017436468154680328,0.016987354440895382,15.408332663937472
1620,B,938272410266009.0,6.5344543,17.75795,1.9283371623996635,100,1970-01-11 20:37:52.410266009,-0.32400513,1.3601837,-0.54415894,19.33939081412842,1.5003959390753931,114.81891632080078,-14.854185104370117,55.5473518371582,15458686.0,50354.0,0.22970055430910002,0.231671125369,0.24302743591867265,0.007849291644399417,0.0001586620179638882,0.014624740135898612,15.458686667960137
1620,B,938272460620013.0,7.0760956,16.198837,-2.314659337600336,100,1970-01-11 20:37:52.460620013,0.530426,1.121933,0.07862854,19.502687014488654,1.2434901870411088,114.8838882446289,-15.041714668273926,55.58500671386719,15509040.0,50354.0,0.34267281483230005,0.36146082629900006,-0.00972643340502733,0.014410644314873032,0.014933283147145237,0.005873819340286049,15.509040671982802
1620,B,938272510974017.0,6.3960724,12.213318,3.2981186623996632,100,1970-01-11 20:37:52.510974017,0.6782837,0.1812439,0.43525696,14.034671148369018,0.8260549317093516,114.62630462646484,-15.372797966003418,55.660484313964844,15559394.0,50354.0,0.33918877373600004,0.22186362643500002,0.024760555420472664,0.017167229215384095,0.01468635974648392,0.0003785140899828672,15.559394676005468
1620,B,938272561328021.0,2.8137512,6.15361,3.3177566623996633,100,1970-01-11 20:37:52.561328021,0.39465332,0.25849915,0.30963135,7.251100949594167,0.5643089813573477,114.6046371459961,-15.578378677368164,55.676597595214844,15609748.0,50354.0,0.2318757287772,-0.03104505374400009,0.16656789305247263,0.01437769097977484,0.004804239204641305,0.004817076347203344,15.609748680028133
1620,B,938272611682025.0,-1.1792603,1.1113739,3.448661962399663,100,1970-01-11 20:37:52.611682025,-0.27360535,0.032806396,-0.11880493,2.9588614610337185,0.3000845856744998,115.48505401611328,-14.756675720214844,55.446380615234375,15660102.0,50354.0,0.041151577389300004,-0.3105587003497,0.17035812171657266,0.0068740084873539714,-0.008600557716817088,0.008482786273840253,15.660102683934383
1620,B,938272662036029.0,-1.614151,0.23202515,5.817314257399663,100,1970-01-11 20:37:52.662036029,-0.94706726,0.22805786,0.2749176,1.6342511341088573,1.0121889493871423,115.43115997314453,-11.909786224365234,55.45097732543945,15710456.0,50354.0,-0.0703297163001,-0.45964644211815003,0.23328948328588764,-0.0007346180033572116,-0.01939145487191306,0.010162635751146945,15.710456687957048
1620,B,938272712390033.0,3.4986725,12.964554,2.565437462399663,100,1970-01-11 20:37:52.712390033,1.3519592,-0.032958984,0.44026184,13.84206250663636,1.422220257502732,115.23301696777344,-12.002291679382324,55.495269775390625,15760810.0,50354.0,0.04744659780550001,-0.16121892674045005,0.21105254004938767,-0.000576128274338544,-0.015631527391752977,0.011187199121512226,15.760810691979714
1620,B,938272762744037.0,6.7651215,19.041473,3.8656388623996634,100,1970-01-11 20:37:52.762744037,-0.44758606,-0.770813,0.47946167,20.31213611771694,1.0121113847173702,114.76900482177734,-12.208541870117188,55.54383850097656,15811164.0,50354.0,0.25841154153800006,0.31234654177899995,0.16191520862947265,0.007700590374251301,0.0038049399638255712,0.009390209008487665,15.811164696002379
1620,B,938272813098041.0,9.7738495,13.883438,3.061958462399663,100,1970-01-11 20:37:52.813098041,-0.8914337,-0.6895447,0.09439087,17.218341870060215,1.1309445482131901,114.45733642578125,-12.750143051147461,55.56922912597656,15861518.0,50354.0,0.41640167286700003,0.3354812842469999,0.17441611784647265,0.01698977229907469,0.0163103611758566,0.008467813806684876,15.861518700025044
1620,B,938272863452045.0,2.261673,10.270508,5.158973802399663,100,1970-01-11 20:37:52.863452045,-0.5946045,-1.0162354,-0.18276978,10.544396957524281,1.1915089979159446,113.94204711914062,-12.730365753173828,55.63488006591797,15911872.0,50354.0,0.30301834998250005,0.11465469844199996,0.20697841163085268,0.018112837915281864,0.011333073636160951,0.00960237006865062,15.911872703931294
1620,B,938272913806048.0,0.44311523,1.1432495,4.807624962399663,100,1970-01-11 20:37:52.913806048,-0.12797546,-0.87016296,-0.09899902,1.6584498030300143,0.8850774549603745,114.43724822998047,-12.795747756958008,55.48723220825195,15962226.0,50354.0,0.06809845326671,-0.20610502742250006,0.25092905710135266,0.009343607755405362,-0.002302444932742051,0.011528736340270735,15.962226707022637
1620,B,938272964160052.0,0.40837097,-1.4191284,5.356498832399663,100,1970-01-11 20:37:52.964160052,-0.12031555,0.31987,0.18791199,1.5821354267224692,0.3900045697906149,116.99241638183594,-14.22192096710205,54.89929962158203,16012580.0,50354.0,0.021437868057400004,-0.5004150030653001,0.2559021447816627,0.002254255961977118,-0.017788054807591346,0.012760489169808677,16.012580710928887
1620,B,938273014514056.0,0.38105774,1.237442,3.152198862399663,100,1970-01-11 20:37:53.014514056,0.1081543,0.98469543,0.36149597,3.059626690309056,1.0545149495372819,117.9103012084961,-14.160299301147461,54.710182189941406,16062933.999999998,50353.99999999814,0.019875446631669264,-0.4980435184927816,0.21422348186195472,0.0010401453239266584,-0.02513819019726689,0.011836352902005918,16.062934714951552
1620,B,938273064868060.0,2.9189148,3.5886993,1.7138901623996636,100,1970-01-11 20:37:53.064868060,1.3903198,-0.51582336,-1.1663513,6.255144888908632,1.8866473544373417,118.46133422851562,-14.45620059967041,54.59537124633789,16113288.0,50354.00000000186,0.08308340863958308,-0.3719614404899138,0.12251352337737718,0.002592195099164416,-0.021904114852308133,0.008478027580910973,16.113288718974218
1620,B,938273115222064.0,5.47316,10.036484,11.637992962399665,100,1970-01-11 20:37:53.115222064,0.5408783,0.4581604,-0.29263306,12.780146872829079,0.7668731285838706,117.34417724609375,-14.874591827392578,54.91121292114258,16163642.0,50354.0,0.2112872672396,-0.15042796005590006,0.3361603614330727,0.007411370506610193,-0.013152197937541956,0.011548032397872698,16.163642722996883
1620,B,938273165576068.0,6.3394165,13.212158,3.659660462399663,100,1970-01-11 20:37:53.165576068,1.133194,-0.005783081,-0.21180725,14.828289193192514,1.1528332042470042,116.99362182617188,-15.139776229858398,55.0209846496582,16213996.000000002,50354.00000000186,0.297405238540511,0.09186185963400337,0.3851490202761869,0.01280735121802633,-0.0014745187103221476,0.018160406303294702,16.21399672701955
1620,B,938273215930072.0,4.2840424,11.019394,1.073936662399663,100,1970-01-11 20:37:53.215930072,1.2902832,0.29618835,0.16566467,12.779147787977012,1.3341675523577132,116.97663879394531,-15.265504837036133,55.05140686035156,16264350.0,50353.99999999814,0.2674668247252901,0.11660858470399567,0.11917777481106823,0.014221783936842548,0.005248660377097608,0.012697435719911354,16.2643507309258
1620,B,938273266284076.0,0.06755066,2.7871094,1.3217696623996629,100,1970-01-11 20:37:53.266284076,-0.23376465,0.16416931,0.053497314,5.381108675864092,0.2906190574286435,117.7451171875,-14.967266082763672,54.853790283203125,16314703.999999998,50353.99999999814,0.10956005847161594,-0.14586286389819464,0.060316698139470395,0.009492405838248152,-0.0007365349872723203,0.0045191323454755435,16.314704734948464
1620,B,938273316638080.0,-3.2164612,-0.27874756,2.8066178623996634,100,1970-01-11 20:37:53.316638080,-0.6503906,0.014633179,-0.012969971,4.48816283209351,0.6506844724163524,118.6620864868164,-13.87423038482666,54.617942810058594,16365058.000000002,50354.000000003725,-0.07928012066558586,-0.43031617395435184,0.10394041271188031,0.0007623579941424758,-0.014506459636014634,0.004135501279904762,16.36505873897113
1620,B,938273366992084.0,0.8063202,1.8530579,3.1186142623996633,100,1970-01-11 20:37:53.366992084,-0.32369995,-0.06430054,0.59521484,3.457767348719779,0.6805857204133214,119.32154083251953,-13.926880836486816,54.43904113769531,16415412.0,50353.99999999814,-0.06068011995699775,-0.45383278856980325,0.14917956920606712,-0.003523778978154657,-0.02226021842946983,0.006372801784747926,16.415412742993794
1620,B,938273417346088.0,4.335785,17.091278,-9.412788337600336,100,1970-01-11 20:37:53.417346088,1.0343475,0.9432068,-0.30718994,23.36961212005792,1.4331362383108222,119.6770248413086,-13.863814353942871,54.41331100463867,16465765.999999998,50353.99999999814,0.1294627826203952,-0.016507655045699458,-0.15846842069132147,0.0017317410978762936,-0.011841761348907073,-0.00023386541384424014,16.46576674701646
1620,B,938273467700091.0,10.235687,14.23616,3.800636362399663,100,1970-01-11 20:37:53.467700091,-0.80874634,-0.42277527,0.18946838,17.66204176547332,0.9320449766008038,119.20668029785156,-14.406384468078613,54.49611282348633,16516120.0,50354.00000000186,0.36686595054401355,0.2952617065260108,-0.14129715027963258,0.012496068514880781,0.007018190754120059,-0.007547197780335989,16.516120749991387
1620,B,938273518054095.0,3.6532288,11.094849,4.763023462399663,100,1970-01-11 20:37:53.518054095,-0.6356964,-0.72465515,-0.5761261,11.73841748934003,1.1230121470828767,118.62486267089844,-14.483521461486816,54.6163215637207,16566474.0,50354.0,0.3496812330966,0.14428961359299997,0.21560726340897265,0.01804050844251973,0.011066583586636335,0.0018709057182573951,16.566474754014052
1620,B,938273568408099.0,-1.3761139,2.6252594,6.322380162399663,100,1970-01-11 20:37:53.568408099,0.13957214,-0.87789917,-0.047286987,2.9906689354911586,0.8901816635330153,117.84940338134766,-13.568085670471191,54.76981735229492,16616828.000000002,50354.00000000186,0.057330921837302116,-0.14803803081320552,0.279097207061583,0.010247345024771232,-9.437390035311868e-05,0.01245517445303764,16.616828757920302
1620,B,938273618762103.0,0.1784668,-2.5223694,5.948600878399663,100,1970-01-11 20:37:53.618762103,-0.32044983,-0.39079285,0.16271973,2.528791345237665,0.5309282961845453,120.3764877319336,-15.03430461883545,54.12116241455078,16667182.0,50353.99999999814,-0.030153161036698885,-0.4908787384699818,0.30894648966419325,0.0006842544836767622,-0.01608600750024221,0.014805176152464322,16.667182761942968
1620,B,938273669116107.0,1.2427521,1.3600922,3.8432389623996634,100,1970-01-11 20:37:53.669116107,-0.26663208,0.5437317,0.48921204,2.779447090941243,0.7785019253354343,120.95219421386719,-15.389450073242188,53.97736740112305,16717535.999999998,50353.99999999814,0.03578202824529868,-0.5227318530643806,0.2465291516717955,0.00014171798971091175,-0.0255196738630597,0.01398521022191567,16.717536765965633
1620,B,938273719470111.0,3.1928253,12.520309,13.470573662399662,100,1970-01-11 20:37:53.719470111,-0.032974243,-0.37399292,-1.0032959,14.963211287947587,1.0712425812430906,119.66558074951172,-15.453516960144043,54.32848358154297,16767890.000000002,50354.000000003725,0.11167453219980825,-0.1440023389876107,0.43590986045460484,0.003712513822326731,-0.016786366753294226,0.01718176700830765,16.7678907699883
1620,B,938273769824115.0,7.7407684,16.3405,5.841880907399664,100,1970-01-11 20:37:53.769824115,-0.21783447,1.191391,-0.0012359619,18.081433504916095,1.2111423941069024,118.98036193847656,-15.77208423614502,54.55992889404297,16818244.0,50353.99999999814,0.2752750885848898,0.23315938819299134,0.4862296687038196,0.009742230602495983,0.0022447070278437853,0.023216706925620792,16.818244774010964
1620,B,938273820178119.0,5.3861694,15.018234,0.7610856623996636,100,1970-01-11 20:37:53.820178119,1.1298523,0.24769592,-0.20375061,16.76954143829262,1.1744929968609044,118.787353515625,-15.84868335723877,54.64303970336914,16868598.0,50354.0,0.3304969129906,0.2960496459179999,0.16624288932783768,0.015251521683666109,0.013323895851812428,0.016427301593563037,16.86859877803363
1620,B,938273870532123.0,5.527481,8.928787,3.310005262399663,100,1970-01-11 20:37:53.870532123,0.99131775,0.06278992,0.45651245,10.821788497379274,1.093186659506816,118.56243133544922,-16.245512008666992,54.7108268737793,16918952.0,50354.0,0.27477297612080004,0.10944494771699996,0.10249785621367266,0.015238879998157722,0.010209137383948392,0.006766085750498607,16.91895278193988
1620,B,938273920886127.0,-1.4566345,1.542633,0.361824162399663,100,1970-01-11 20:37:53.920886127,-0.4377594,0.048049927,-0.1412201,5.953423065994008,0.4624772474588078,119.5752944946289,-15.631407737731934,54.43182373046875,16969306.0,50354.0,0.1024917023305,-0.22983025866000004,0.09244564942817264,0.009498392809368383,-0.003030940973611913,0.004908092641544739,16.969306785962544
1620,B,938273971240130.0,-2.9791107,-0.61906433,5.207786662399664,100,1970-01-11 20:37:53.971240130,-0.8863983,0.111572266,-0.009048462,3.1259895882994937,0.8934384094316911,120.44906616210938,-12.911685943603516,54.20928955078125,17019660.0,50354.0,-0.11167875690040002,-0.47021651159541,0.14022609173597264,-0.00023130247290637271,-0.017625077534720462,0.005857976427289686,17.019660788937472
1620,B,938274021594134.0,1.0792236,0.74116516,7.096992562399663,100,1970-01-11 20:37:54.021594134,-0.56526184,0.2523346,0.59446716,1.757591823408153,0.8582452460898408,119.25834655761719,-13.790184020996094,54.47386932373047,17070014.0,50354.0,-0.047833457516700005,-0.49039506740309,0.30979742654277265,-0.0040160390223793275,-0.024185317724445238,0.011330242119703971,17.070014792960137
1620,B,938274071948138.0,8.092087,19.250305,-8.784294337600336,100,1970-01-11 20:37:54.071948138,2.6871948,1.317688,-0.9498596,25.542131273912815,3.139992168493928,119.57064819335938,-13.901169776916504,54.50952911376953,17120368.0,50354.0,0.23090608697620002,0.009856044218319976,-0.04248119679422735,0.004609219591901832,-0.012098530986722957,0.006730220716379126,17.120368796982802
1620,B,938274122302142.0,10.052933,11.710434,8.165168862399664,100,1970-01-11 20:37:54.122302142,-2.2148132,-0.56307983,0.4657135,15.59541518042295,2.3322404399909797,118.73542785644531,-14.602441787719727,54.65361785888672,17170722.0,50354.0,0.45683716854,0.286029325803,-0.015587722089127322,0.017315311944131367,0.007449505961026773,-0.0014620011707262206,17.170722801005468
1620,B,938274172656146.0,6.1924133,10.680634,4.534950362399663,100,1970-01-11 20:37:54.172656146,-0.430542,-0.5687103,-0.5284271,12.423862902850763,0.8877122389065614,118.24971771240234,-14.964421272277832,54.76029968261719,17221076.0,50354.0,0.40900908379510004,0.07027071903599993,0.31975090172277265,0.021799411095040817,0.008970566228911502,0.007657916373636288,17.221076805028133
1620,B,938274223010150.0,-0.07635498,4.071274,8.107689062399663,100,1970-01-11 20:37:54.223010150,-0.46665955,-1.0046997,0.12226868,4.620395131184146,1.1145143574199639,117.00479125976562,-14.715978622436523,55.027587890625,17271430.0,50354.0,0.15398400032264,-0.12206041228400005,0.3183037327981727,0.014174476878832342,-0.001303909106904899,0.016064301533333842,17.271430808934383
1620,B,938274273364154.0,0.67549133,-3.8061829,6.759376662399664,100,1970-01-11 20:37:54.273364154,-0.4256134,-0.5995636,0.18197632,3.9548171317573684,0.75745538333638,118.55448150634766,-17.148820877075195,54.56684112548828,17321784.0,50354.0,0.01508445588395,-0.4867950013753001,0.37430811375327266,0.004256636521913317,-0.015329152749700198,0.01743788846062574,17.32178481295705
1620,B,938274323718158.0,2.8798676,2.368805,3.9314194623996634,100,1970-01-11 20:37:54.323718158,-0.36842346,0.7710571,0.28404236,4.228080561313112,0.9005248245401963,118.74747467041016,-17.808927536010742,54.52931213378906,17372138.0,50354.0,0.08951327178061,-0.5296580633883001,0.26916217403407267,0.002633456989410627,-0.02559123881155316,0.016200651435621993,17.372138816979714
1620,B,938274374072162.0,13.87793,18.883926,-5.527977337600337,100,1970-01-11 20:37:54.374072162,-0.4365387,1.310379,-1.1838379,26.083625332698674,1.8191017931152451,118.75312042236328,-18.1435546875,54.60269546508789,17422492.0,50354.0,0.4219110701752,0.04161080838699994,-0.04019653762392736,0.01287613065742143,-0.012287565739167736,0.0057646678278982285,17.42249282100238
1620,B,938274424426166.0,6.7108307,14.149704,-0.2019118376003366,100,1970-01-11 20:37:54.424426166,-0.43881226,1.548233,0.50128174,16.816079007922767,1.6854865780161927,118.58393096923828,-18.338623046875,54.70185852050781,17472846.0,50354.0,0.5183632281439,0.33821850250999996,-0.14426141976402737,0.023673286008779982,0.009562962560453766,-0.004644097993156537,17.472846825025044
1620,B,938274474780170.0,7.5827026,13.462936,2.028495862399663,100,1970-01-11 20:37:54.474780170,0.97613525,0.45158386,0.40016174,15.935047544631933,1.147561513412196,118.34285736083984,-18.6267147064209,54.80337905883789,17523200.0,50354.0,0.3598682878941,0.20173423727999995,0.045987905992372645,0.02211123487928873,0.013594390129692829,-0.002474232256228951,17.523200828931294
1620,B,938274525134173.0,5.9891205,9.484558,4.338401862399663,100,1970-01-11 20:37:54.525134173,0.043167114,0.38401794,0.28866577,11.328797425265936,0.4823495669559842,117.92611694335938,-18.99809455871582,54.947959899902344,17573554.0,50354.0,0.3416977901887,0.08427985643799994,0.16029938401727264,0.017663329147890657,0.0072009768375380845,0.00519369510057284,17.573554832022637
1620,B,938274575488177.0,0.011413574,2.407898,2.604118462399663,100,1970-01-11 20:37:54.575488177,0.36080933,0.4160614,-0.32566833,4.1014718665213215,0.6398049096013548,118.60065460205078,-18.577516555786133,54.76117706298828,17623908.0,50354.0,0.15107544638109802,-0.19405283528800008,0.17479183421747263,0.012406551777117804,-0.0027637542885064533,0.008436591601496183,17.623908835928887
1620,B,938274625842181.0,-1.4743195,-0.44047546,4.334358362399663,100,1970-01-11 20:37:54.625842181,-0.87519836,-0.7327728,0.13468933,2.212628494111958,1.1493778148991647,120.74116516113281,-16.587167739868164,54.066932678222656,17674262.0,50354.0,-0.036831582498902,-0.44393540271042004,0.17469003101797265,0.002876317760962049,-0.016062629868086223,0.008798904921032807,17.674262839951552
1620,B,938274676196185.0,-0.04777527,3.182724,5.977546802399663,100,1970-01-11 20:37:54.676196185,-0.1685791,0.26235962,0.44117737,3.1835269655458163,0.5402674846439228,119.94889068603516,-16.242887496948242,54.28840637207031,17724616.0,50354.0,-0.03832178002429,-0.4244276085084201,0.2596228363341527,-0.001892136208246405,-0.021862775533456738,0.01093469506132446,17.724616843974218
1620,B,938274726550189.0,6.8153534,18.643036,6.626197922399664,100,1970-01-11 20:37:54.726550189,1.1171722,0.22618103,0.2654419,19.862135263505657,1.1703379789873996,119.25843048095703,-16.411911010742188,54.501190185546875,17774970.0,50354.0,0.17038731457901002,0.056037959519999944,0.3173244809362727,0.0033250139634841865,-0.009274946192581455,0.0145258026069175,17.774970847996883
1620,B,938274776904193.0,8.353958,14.328781,7.206932162399664,100,1970-01-11 20:37:54.776904193,-2.167389,-0.953598,0.40911865,16.63573215266558,2.40297779696418,118.43482971191406,-16.806520462036133,54.65650177001953,17825324.0,50354.0,0.3819177531178001,0.3366622366089999,0.34827671614499267,0.013905384689402589,0.009887012837939831,0.01675784133891502,17.82532485201955
1620,B,938274827258197.0,7.225357,10.479706,4.739494462399663,100,1970-01-11 20:37:54.827258197,-0.16520691,-0.6398468,-0.12338257,12.78412747579705,0.67225033221397,117.97111511230469,-17.243589401245117,54.765769958496094,17875678.0,50354.0,0.3922404137550001,0.13113407719899997,0.3007751831325726,0.01949098016735649,0.011777707792744015,0.016341179668111265,17.8756788559258
1620,B,938274877612201.0,0.034591675,6.7263184,4.8345719623996635,100,1970-01-11 20:37:54.877612201,-0.12617493,-1.094223,-0.1446228,6.814116386984974,1.110927468815739,117.49713134765625,-16.816091537475586,54.85980224609375,17926032.0,50354.0,0.182783727790475,-0.060273123681200025,0.24104627037717266,0.014477382811690427,0.0017840662267176494,0.013641438735014859,17.926032859948464
1620,B,938274927966205.0,1.3837891,-0.569046,2.890434362399663,100,1970-01-11 20:37:54.927966205,0.09877014,-0.31533813,0.024734497,3.3828032768913565,0.33136908746797655,118.81621551513672,-17.256643295288086,54.4608154296875,17976386.0,50354.0,0.035710572772175,-0.33844755278520006,0.19449248423947266,0.00550103100526584,-0.010038590471394555,0.01096555922498328,17.97638686397113
1620,B,938274978320209.0,0.4284973,1.323349,4.715400762399663,100,1970-01-11 20:37:54.978320209,-0.17706299,0.40376282,0.39437866,1.842941139655171,0.59153211637703,119.1476821899414,-17.199756622314453,54.36783218383789,18026740.0,50354.0,0.04562793469280001,-0.47447811336900003,0.19149211093707266,0.0020478596024456758,-0.020467029496764298,0.009717934152759882,18.026740867993794
1620,B,938275028674213.0,0.313385,5.1803284,-2.746238337600337,100,1970-01-11 20:37:55.028674213,1.0043488,0.04560852,-0.41818237,10.10510739486328,1.088886194116193,119.94200897216797,-16.857019424438477,54.16169738769531,18077094.0,50354.0,0.018678370667100003,-0.32972611410020003,0.04957760236917264,0.0016190398500462025,-0.020247449834992052,0.006069412171911338,18.07709487201646
1620,B,938275079028216.0,0.884079,7.398712,3.369484062399663,100,1970-01-11 20:37:55.079028216,1.0965729,-0.18136597,-1.293396,7.877175808621346,1.705355960761404,119.70892333984375,-16.544788360595703,54.26795959472656,18127448.0,50354.0,0.030148551128000006,-0.17676669984920007,0.015691457613272636,0.001229315410035233,-0.012751969576804046,0.001643279123178025,18.127448874991387
1620,B,938275129382220.0,3.9921265,12.24559,8.615318362399663,100,1970-01-11 20:37:55.129382220,0.47158813,0.3678894,-0.12466431,13.157995062881728,0.6109657643248376,118.77156066894531,-16.67441749572754,54.56088638305664,18177802.0,50354.0,0.12276822587350002,0.0011153914539999569,0.30174137064917267,0.0038499856945667663,-0.0044223729914659535,0.007992006317163585,18.177802879014052
1620,B,938275179736224.0,5.6417694,11.351608,-0.15790533760033654,100,1970-01-11 20:37:55.179736224,1.5838165,-0.1068573,-0.049179077,14.059959205347658,1.5881787587831895,118.83776092529297,-16.843849182128906,54.56118392944336,18228156.0,50354.0,0.24255259707430002,0.10063745404599998,0.21293228772537265,0.009197682359356762,0.0025618313911534986,0.012957938696895927,18.228156882920302
1620,B,938275230090228.0,4.388504,6.626816,-0.7073439376003368,100,1970-01-11 20:37:55.230090228,0.94169617,0.28556824,0.17936707,10.351477381374794,1.0002566881004853,119.26062774658203,-17.07843017578125,54.45928955078125,18278510.0,50354.0,0.25253219339180005,-0.04082641895200003,-0.021784381001727353,0.012464749769565003,0.0015058624305616369,0.004812530847581218,18.278510886942968
1620,B,938275280444232.0,-3.2510834,0.6513672,2.096443262399663,100,1970-01-11 20:37:55.280444232,-0.45288086,0.49378967,-0.20336914,5.064259885633967,0.7002059116127113,120.11903381347656,-15.9984130859375,54.23360824584961,18328864.0,50354.0,0.028636838446200002,-0.31022638157360005,0.034973353700472644,0.0070789927145853285,-0.008838456358833032,0.0003320587656363102,18.328864890965633
1620,B,938275330798236.0,-0.6462555,0.65856934,4.139824062399663,100,1970-01-11 20:37:55.330798236,-0.54119873,0.124694824,0.24082947,2.008957244245045,0.6053459325926662,120.98881530761719,-15.279338836669922,53.991058349609375,18379218.0,50354.0,-0.09812330148530002,-0.4604889277324201,0.15701050243647266,-0.001749460679935421,-0.019404299342397673,0.004833577545959872,18.3792188949883
1620,B,938275381152240.0,2.1494904,9.314514,-5.710075337600337,100,1970-01-11 20:37:55.381152240,0.7472992,0.02935791,-0.01600647,15.057902956945505,0.7480469158295281,121.53595733642578,-15.125710487365723,53.85902786254883,18429572.0,50354.0,0.0378469450773,-0.24237688074882005,-0.03953421635572736,-0.0015175778252842166,-0.017696052460132183,0.0029577004546549246,18.429572899010964
1620,B,938275431506244.0,5.7678833,16.124298,-4.933448337600337,100,1970-01-11 20:37:55.431506244,0.19744873,0.124938965,-0.37217712,20.276916672463592,0.43944459787938966,121.60181427001953,-15.148447036743164,53.85893630981445,18479926.0,50354.0,0.19933571764490002,0.14700376972399998,-0.26797199557052737,0.00597154789935683,-0.0024012088162718953,-0.007742083897667316,18.47992690303363
1620,B,938275481860248.0,6.581192,12.0256195,2.5156022623996632,100,1970-01-11 20:37:55.481860248,-0.5510864,-0.2672882,-0.37791443,14.126117846887375,0.7196933503419528,121.2171401977539,-15.450460433959961,53.951812744140625,18530280.0,50354.0,0.3109126688281,0.2152612728974999,-0.060874110635327376,0.01284652362623072,0.009120746978081504,-0.008279358415944805,18.53028090693988
1620,B,938275532214252.0,0.40982056,8.616592,10.940101662399663,100,1970-01-11 20:37:55.532214252,-0.22711182,-1.0142822,-0.3968048,9.978543408427491,1.1125655977620341,119.91207885742188,-15.278104782104492,54.26268768310547,18580634.0,50354.0,0.17601272322312,0.02623975893549997,0.3387742577146727,0.012259320595673567,0.006080271478459438,0.006996692003016677,18.580634910962544
1620,B,938275582568255.0,-0.70228577,0.106552124,14.438148662399664,100,1970-01-11 20:37:55.582568255,-0.71247864,-1.1680298,0.29003906,8.543374446453194,1.3985857436961,116.92598724365234,-15.403776168823242,54.9876594543457,18630988.0,50354.0,-0.007363396592170001,-0.27384660039005204,0.6389482084274727,0.004246084096587429,-0.006233997447301258,0.024616118530060793,18.630988913937472
1620,B,938275632922259.0,0.4402771,-1.4910431,5.903648485399663,100,1970-01-11 20:37:55.632922259,-0.6421814,0.11703491,0.5622101,1.5548254553511707,0.8614953959288919,118.89891815185547,-17.5565185546875,54.41206359863281,18681342.0,50354.0,-0.006596592284590002,-0.5283265293027521,0.5121454267901436,-0.0003514706399501866,-0.02019631288627573,0.028981084453873925,18.681342917960137
1620,B,938275683276263.0,4.080719,10.857056,5.477180592399663,100,1970-01-11 20:37:55.683276263,-0.6161957,0.59757996,-0.10223389,11.60723469190562,0.8644366475090143,118.23011779785156,-17.683517456054688,54.63252258300781,18731696.0,50354.0,0.11382511880970002,-0.25766109321670005,0.28653513369175365,0.002699692612322695,-0.01978881037217225,0.02010838047125273,18.731696921982802
1620,B,938275733630267.0,6.8262024,17.519012,2.930824362399663,100,1970-01-11 20:37:55.733630267,-1.0126953,1.2878265,-0.6599579,19.038751122879038,1.7662370436939516,117.70994567871094,-17.788179397583008,54.844512939453125,18782050.0,50354.0,0.2746035600878,0.220955064036,0.21168834074698265,0.00977946884860236,-0.0009241476966824856,0.012543772415944064,18.782050926005468
1620,B,938275783984271.0,5.536148,14.821884,0.8878556623996632,100,1970-01-11 20:37:55.783984271,0.42253113,0.6945648,-0.14691162,16.604321791761357,0.8261572739552326,117.49958801269531,-17.8448543548584,54.9478645324707,18832404.0,50354.0,0.3112468960208,0.320777538592,0.09614290698437264,0.014749956933446223,0.013639201736365155,0.007750267324132333,18.832404930028133
1620,B,938275834338275.0,6.876419,12.669403,-4.013938337600337,100,1970-01-11 20:37:55.834338275,1.0153961,-0.14102173,0.3197937,17.509099873888978,1.0738642273523655,117.80986785888672,-17.994253158569336,54.85497283935547,18882758.0,50354.0,0.312511199359,0.19867893279900006,-0.07870538351352736,0.015704357567377227,0.013078355580211209,0.00043902452842547156,18.882758933934383
1620,B,938275884692279.0,2.3238678,5.541687,-2.2753063376003375,100,1970-01-11 20:37:55.884692279,0.047836304,0.63157654,-0.18084717,10.165879050665852,0.6586979100891097,118.49299621582031,-17.9315242767334,54.675594329833984,18933112.0,50354.0,0.23163562076360003,-0.03496858707000003,-0.15834431318752737,0.013699984490226703,0.0041217353744190345,-0.005968200213842456,18.93311293795705
1620,B,938275935046283.0,-2.2622375,0.9307251,6.068870652399664,100,1970-01-11 20:37:55.935046283,-0.46717834,-0.08418274,-0.22462463,2.4504800732799152,0.5251652687313777,118.12113189697266,-16.52646255493164,54.7801513671875,18983466.0,50354.0,0.0015516660631000009,-0.33051328055830004,0.09551056875370263,0.005870956320435827,-0.00920173698127771,-0.0015819651836104056,18.983466941979714
1620,B,938275985400287.0,-0.5693817,0.40821838,5.781318772399663,100,1970-01-11 20:37:55.985400287,-0.47879028,-0.4951477,0.47694397,0.7150503701787774,0.8377869225269211,117.96910858154297,-15.198836326599121,54.783172607421875,19033820.0,50354.0,-0.07129167659840001,-0.4597586200040401,0.29835221914817267,-0.0017558442452472484,-0.01989667564045804,0.009916283411005514,19.03382094600238
1620,B,938276035754291.0,4.620453,12.225403,0.3008652623996628,100,1970-01-11 20:37:56.035754291,1.233078,0.36639404,0.09786987,14.22788450436432,1.2900792448858862,117.94693756103516,-15.30604362487793,54.818572998046875,19084174.0,50354.0,0.10199382212010001,-0.17539251451574006,0.15313114744414263,0.0007729879177998411,-0.015991200113804508,0.011366996720694723,19.084174950025044
1620,B,938276086108295.0,9.627396,13.733795,4.408851762399664,100,1970-01-11 20:37:56.086108295,-0.9168091,-0.2371521,0.3784027,16.840446190132536,1.0197885308947685,117.45579528808594,-15.818256378173828,54.91958236694336,19134528.0,50354.0,0.358718094273,0.16010552804599998,0.11857654553337266,0.01159934391902908,-0.0003848804583486461,0.006840784586094903,19.134528953931294
1620,B,938276136462298.0,9.470383,12.260483,5.608329882399663,100,1970-01-11 20:37:56.136462298,-0.9685974,-0.4978943,-0.32557678,15.495401550832817,1.1366969239574893,116.89395141601562,-16.356199264526367,55.04804229736328,19184882.0,50354.0,0.480824781883,0.16098873720600002,0.25220258227111264,0.021137170992979612,0.008084190316249604,0.009335106100733527,19.184882957022637
1620,B,938276186816302.0,1.9862366,9.775848,13.467338662399662,100,1970-01-11 20:37:56.186816302,-0.13613892,-0.8016815,-0.25613403,12.506356286886263,0.8525442359813696,115.5650863647461,-16.369953155517578,55.39176940917969,19235236.0,50354.0,0.2884433116692,0.06133950558699998,0.4802681069524126,0.01936786279136374,0.0055975581687993615,0.0184414145425807,19.235236960928887
1620,B,938276237170306.0,-0.05532837,-0.86354065,12.405189662399664,100,1970-01-11 20:37:56.237170306,-0.97436523,-0.592926,0.1856842,6.538347343171229,1.1556069682372951,112.57746887207031,-16.8375301361084,56.202430725097656,19285590.0,50354.0,0.048614476506710004,-0.26908403784905005,0.6513926456334727,0.008486103932904887,-0.0052303840887616354,0.028491822767854835,19.285590964951552
1620,B,938276287524310.0,1.0021515,-0.677536,8.256645262399664,100,1970-01-11 20:37:56.287524310,-0.3340149,0.18695068,0.5320587,2.6273450673820156,0.6554410503013696,110.13207244873047,-18.553667068481445,56.93955612182617,19335944.0,50354.0,0.023838165944010004,-0.5322688868170501,0.5202030179016728,0.0018241401789817777,-0.020175662584318407,0.02949726402082436,19.335944968974218
1620,B,938276337878314.0,4.6258087,14.243042,-3.781211337600336,100,1970-01-11 20:37:56.337878314,0.81134033,0.26960754,-0.39230347,17.845457767261554,0.9406717649017651,110.52243041992188,-18.4647274017334,56.84694290161133,19386298.0,50354.0,0.14169515395540003,-0.15193045543800002,0.11267799992467267,0.004167632395107447,-0.0172260868399554,0.0159340453858139,19.386298972996883
1620,B,938276388232318.0,7.3368835,12.556641,-7.377433337600337,100,1970-01-11 20:37:56.388232318,0.2687378,1.2322388,-0.45729065,19.70879642932052,1.3415465716670825,111.13153839111328,-18.59201431274414,56.719974517822266,19436652.0,50354.0,0.3011847015194,0.181266418891,-0.28094119698752734,0.011150386121289041,0.0007385915518561808,-0.004236362512451492,19.43665297701955
1620,B,938276438586322.0,3.143097,11.004349,2.6327286623996633,100,1970-01-11 20:37:56.438586322,1.0653534,0.3809204,-0.2239685,11.90838181236586,1.1533603543645714,111.06370544433594,-18.50759506225586,56.77920150756836,19487006.0,50354.0,0.2638544690485,0.09972584522999998,-0.11945742960752737,0.014225991197388021,0.007074542233774417,-0.010080836221783693,19.4870069809258
1620,B,938276488940326.0,6.4790955,11.774826,2.651725862399663,100,1970-01-11 20:37:56.488940326,0.7478485,-0.03717041,0.16418457,13.832400554169391,0.7665608856169894,110.97389221191406,-18.750944137573242,56.81532287597656,19537360.0,50354.0,0.24225794057250002,0.08004208897499994,0.13304671157087264,0.012742392137027918,0.004526017279479284,0.000342137351991144,19.537360984948464
1620,B,938276539294330.0,1.7280884,10.646713,3.246727062399663,100,1970-01-11 20:37:56.539294330,0.7900696,0.44309998,-0.15342712,11.113436767573985,0.918742317666741,110.82731628417969,-18.510923385620117,56.897037506103516,19587714.0,50354.0,0.20663226905030002,0.07103788740299995,0.14850534928767264,0.011301708807673236,0.003803740565268903,0.007088636236235595,19.58771498897113
1620,B,938276589648334.0,-0.38938904,2.5252686,2.8409501623996634,100,1970-01-11 20:37:56.589648334,-1.0619202,-0.22143555,-0.005279541,4.004496052843395,1.0847746713142843,111.52377319335938,-17.980714797973633,56.65238952636719,19638068.0,50354.0,0.03370443378672001,-0.16183821925680003,0.15326944948877266,0.0060509571673276535,-0.002286079955083125,0.007597784108794564,19.638068992993794
1620,B,938276640002338.0,-0.9011383,-0.9176483,5.246605032399663,100,1970-01-11 20:37:56.640002338,-1.0454102,-0.08409119,0.41644287,1.4537789375227983,1.1284407288260616,113.92828369140625,-16.351837158203125,55.91542053222656,19688422.0,50354.0,-0.03249160683918,-0.45299414370690005,0.20362037713946265,3.053534405821471e-05,-0.015479634402337076,0.008985415165019082,19.68842299701646
1620,B,938276690356341.0,4.136856,15.6489105,3.8947220623996635,100,1970-01-11 20:37:56.690356341,1.0570831,0.4827118,0.21063232,16.31322732915621,1.1810170770964459,113.56490325927734,-16.345441818237305,56.049659729003906,19738777.0,50355.0,0.08146728239175,-0.12258264595950004,0.23015576292931003,0.001233085071224831,-0.014491584621825789,0.010921398766581525,19.738776999991387
1620,B,938276740710345.0,9.216354,13.663239,1.7046891623996636,100,1970-01-11 20:37:56.740710345,-1.0969696,-0.7038269,0.66574097,17.012667573203423,1.4635319086457632,113.38333892822266,-16.769784927368164,56.04225158691406,19789131.0,50354.0,0.33619376817,0.24452278796149998,0.14097637640677269,0.01051545226999318,0.0030700869551843527,0.009343993872064554,19.789131004014052
1620,B,938276791064349.0,10.808044,13.631668,5.615165822399663,100,1970-01-11 20:37:56.791064349,-0.25724792,0.039016724,-0.41183472,17.39918921406801,0.4871412871985878,112.92537689208984,-17.302940368652344,56.1822395324707,19839485.0,50354.0,0.5041542684460001,0.19373467353899992,0.18429198895229265,0.021157442517881035,0.011034008108198087,0.008189281634645188,19.839485007920302
1620,B,938276841418353.0,-1.7905426,10.179062,7.261604462399664,100,1970-01-11 20:37:56.841418353,0.1071167,-0.74920654,-0.049209595,10.4214961991961,0.7584233720276068,112.1953125,-16.68804931640625,56.365203857421875,19889839.0,50354.0,0.22703363274780003,0.10601354920999996,0.32419844546039267,0.018409117788356306,0.0075467610041515705,0.012802263667208177,19.889839011942968
1620,B,938276891772357.0,-0.34684753,-0.5650177,-1.5591048376003371,100,1970-01-11 20:37:56.891772357,-0.29354858,-0.97236633,0.44329834,7.512770081569158,1.1082330381216943,113.61671447753906,-16.495241165161133,55.90394973754883,19940193.0,50354.0,-0.05381307130301,-0.2514164066589001,0.14357183305357266,0.004361174075495479,-0.003660807741990959,0.011777052302146106,19.940193015965633
1620,B,938276942126361.0,0.8315735,0.20420837,7.0069657623996635,100,1970-01-11 20:37:56.942126361,-0.57095337,0.21640015,0.58847046,1.380312405987687,0.8480060482844395,111.2420425415039,-18.31278419494629,56.604515075683594,19990547.0,50354.0,0.012203945746689999,-0.5025532965014101,0.13716079450367266,-0.0010475929541314687,-0.01898269521646713,0.0070680053640087654,19.9905470199883
1620,B,938276992480365.0,5.1595,17.662567,-6.6306073376003365,100,1970-01-11 20:37:56.992480365,0.69929504,-0.008850098,-0.3707428,22.275856529007655,0.7915441244523587,111.63382720947266,-18.185457229614258,56.49880599975586,20040901.0,50354.0,0.15083725750950003,-0.04363739650951006,0.009475576061172657,0.0041048883743810965,-0.013751443077935938,0.003691863901711111,20.040901024010964
1620,B,938277042834369.0,5.277191,9.6441345,-7.802665337600336,100,1970-01-11 20:37:57.042834369,0.56230164,1.3522491,0.16227722,17.58661858302986,1.4734634908705502,112.43170928955078,-18.26853370666504,56.31488800048828,20091255.0,50354.0,0.262764569307,0.19403162366549995,-0.36338650614352735,0.010413253193759022,0.003786475457106357,-0.008910415486683445,20.09125502803363
1620,B,938277093188373.0,1.7144623,10.09108,9.196220462399664,100,1970-01-11 20:37:57.093188373,0.7389984,0.21258545,-0.093933105,10.745900723426162,0.7746835721565313,111.50048828125,-18.1452579498291,56.62846755981445,20141609.0,50354.0,0.17602885513410002,0.0034042954664999557,0.03508553737707267,0.011047502047153577,0.004970844135986361,-0.00826563349063303,20.14160903193988
1620,B,938277143542377.0,8.283203,11.979004,1.048698662399663,100,1970-01-11 20:37:57.143542377,0.79733276,0.035583496,0.32450867,15.358385663915364,0.861575064786562,111.55616760253906,-18.519489288330078,56.619285583496094,20191963.0,50354.0,0.2517112192581,0.06218930486799996,0.25793632880507267,0.010769211852972423,0.0016514500756217045,0.0073774115248678735,20.191963035962544
1620,B,938277193896380.0,2.732483,7.2496185,-0.25011433760033697,100,1970-01-11 20:37:57.193896380,0.45265198,0.036972046,0.3142395,9.906941968780895,0.5522745789402194,112.04959106445312,-18.494945526123047,56.466007232666016,20242317.0,50354.0,0.277341926422,-0.009350171317500032,0.020105957545472633,0.013319971048787878,0.0013303308654009367,0.007000270643447679,20.242317038937472
1620,B,938277244250384.0,-1.4237823,-0.7520294,0.8524246623996632,100,1970-01-11 20:37:57.244250384,-0.28616333,-0.042617798,-0.19781494,5.3213887455398,0.35048035412881745,113.4451675415039,-18.01335906982422,56.02593994140625,20292671.0,50354.0,0.032949157523900006,-0.32987939922930004,0.015164367047472637,0.007812198620505925,-0.008540782897656786,0.0008880009622765831,20.292671042960137
1620,B,938277294604388.0,-1.3728027,-0.35481262,7.219856362399663,100,1970-01-11 20:37:57.294604388,-1.375412,-0.0018157959,0.5325165,1.9206259144199436,1.4749017898256822,111.27154541015625,-16.00307846069336,56.63050079345703,20343025.0,50354.0,-0.07040962054500001,-0.5213361615375401,0.20323581936137267,-0.0009431420774822348,-0.021431054173426736,0.005498661493215499,20.343025046982802
1620,B,938277344958392.0,4.704544,19.608322,3.1962356623996633,100,1970-01-11 20:37:57.344958392,2.1729126,0.9212799,0.019439697,20.3485050846931,2.3602295912055298,111.03328704833984,-15.964941024780273,56.766990661621094,20393379.0,50354.0,0.0838832507101,-0.008723594339740022,0.26224594890837266,0.00033922558666672244,-0.013345314473722284,0.011719434479727378,20.393379051005468
1620,B,938277395312396.0,9.014328,11.898499,1.0846786623996634,100,1970-01-11 20:37:57.395312396,-2.3222961,-1.4114075,1.0804749,15.692509408299266,2.9244753917004447,110.96531677246094,-16.458736419677734,56.67205047607422,20443733.0,50354.0,0.34540004034400007,0.29977803231699995,0.10778057995547265,0.010808065418869079,0.007327877584953474,0.009316157917205033,20.443733055028133
1620,B,938277445666400.0,9.287064,12.93071,3.9077073623996634,100,1970-01-11 20:37:57.445666400,-0.027816772,-0.24563599,-0.4955902,16.04741989158361,0.5538234905850601,110.70877075195312,-16.902437210083008,56.74280548095703,20494087.0,50354.0,0.46077414638400005,0.13165579499299995,0.12569330294637265,0.02029704749925086,0.010862209470183869,0.005878171949819759,20.494087058934383
1620,B,938277496020404.0,-4.5174103,7.152725,-0.20900733760033674,100,1970-01-11 20:37:57.496020404,1.3026123,0.37419128,-0.49531555,10.44923921475698,1.4429675714343448,111.2232894897461,-15.939872741699219,56.64139938354492,20544441.0,50354.0,0.12008557120490003,0.012171442994999957,0.09312217052437265,0.014624305109735738,0.0036211383708238737,0.0055091171755729555,20.54444106295705
1620,B,938277546374408.0,1.4047546,-2.4664307,2.935844562399663,100,1970-01-11 20:37:57.546374408,-1.1056976,-1.08107,0.6558075,4.121626924155759,1.679691342063181,113.91109466552734,-17.125030517578125,55.80134201049805,20594795.0,50354.0,-0.07836733255890001,-0.37548236840890004,0.06865358080877265,0.0010503400943903426,-0.009147079169145762,0.004073028091314599,20.594795066979714
1620,B,938277596728412.0,0.6563721,-1.5362854,2.086128362399663,100,1970-01-11 20:37:57.596728412,-0.49171448,0.54533386,0.5011444,4.186045663143591,0.888998233044099,115.36299896240234,-17.3532657623291,55.377906799316406,20645149.0,50354.0,0.051892986925900005,-0.5942455832497001,0.12643821232767266,-0.0006665446000020411,-0.02441484063890858,0.0049118260757962835,20.64514907100238
1620,B,938277647082416.0,2.6650085,18.703186,-0.7533186376003371,100,1970-01-11 20:37:57.647082416,0.4028015,0.35585022,-1.0271454,20.037533719427675,1.1592696408590446,115.22344207763672,-17.074893951416016,55.46155548095703,20695503.0,50354.0,0.0836223993662,-0.061258143593800087,0.033556150441272636,0.0034118708806762017,-0.016503617330738806,0.004028178071433736,20.695503075025044
1620,B,938277697436420.0,6.0381165,9.6658325,-6.924201837600338,100,1970-01-11 20:37:57.697436420,0.5061035,1.4279633,-0.2714386,17.174765585571198,1.539122754178204,115.88229370117188,-17.225555419921875,55.34197998046875,20745857.0,50354.0,0.21911857812500002,0.22077757877449997,-0.1932969330041274,0.0076221095902959425,0.004016220819544481,-0.004021793682584995,20.745857078931294
1620,B,938277747790423.0,1.6967316,12.218597,4.299949762399663,100,1970-01-11 20:37:57.747790423,1.1580963,-0.20584106,-0.11482239,12.442335072243939,1.181838298288275,115.47608947753906,-17.003084182739258,55.47221374511719,20796211.0,50354.0,0.1947402706137,0.0575150815215,-0.06607079449732738,0.010419724234694252,0.007006574308272392,-0.006530101275304127,20.796211082022637
1620,B,938277798144427.0,4.232712,10.29744,6.971305962399663,100,1970-01-11 20:37:57.798144427,-0.22616577,0.12249756,0.28814697,11.182541234134382,0.38624510876621776,114.74431610107422,-17.204572677612305,55.68349075317383,20846565.0,50354.0,0.1492856015172,0.07341706354899999,0.28377640538327265,0.00866153938263967,0.0032964786164399787,0.005481174165275444,20.846565085928887
1620,B,938277848498431.0,0.5597534,7.270569,-0.3268050376003364,100,1970-01-11 20:37:57.848498431,1.1937866,0.08052063,-0.082839966,9.604764184896819,1.1993633636901029,115.21278381347656,-16.875104904174805,55.56901168823242,20896919.0,50354.0,0.12065990137580002,-0.05115943740700004,0.16728859978367266,0.006796417926337062,0.0005603802533771327,0.011356463635088182,20.896919089951552
1620,B,938277898852435.0,-0.8985596,1.1484985,1.415412962399663,100,1970-01-11 20:37:57.898852435,-0.5665283,-0.60765076,0.00340271,4.738883139860414,0.8307859768104007,116.3235092163086,-16.339441299438477,55.21696472167969,20947273.0,50354.0,-0.008530123697400001,-0.28150233755250004,0.027407881722672646,0.0028230914126090773,-0.008375425508155333,0.004901873314885256,20.947273093974218
1620,B,938277949206439.0,-1.1846466,1.1401672,5.221351762399664,100,1970-01-11 20:37:57.949206439,-0.4848175,0.09312439,0.49502563,1.7881783714875343,0.6991212589215258,116.40457153320312,-15.152541160583496,55.18161392211914,20997627.0,50354.0,-0.05244888249740001,-0.4358474636711,0.16709382547627266,-0.00153526843896648,-0.01806071594540658,0.004896969482147846,20.997627097996883
1620,B,938277999560443.0,2.7786102,14.804031,3.7946702623996633,100,1970-01-11 20:37:57.999560443,1.0285492,-0.39323425,0.26715088,15.212349066995156,1.133100271325745,116.00640106201172,-15.05832290649414,55.276084899902344,21047981.0,50354.0,0.0401312215572,-0.09204212191860002,0.22699638651837264,-0.00031012174949141566,-0.013290676096391878,0.009922009267389186,21.04798110201955
1620,B,938278049914447.0,8.029434,15.425369,1.2263260623996635,100,1970-01-11 20:37:58.049914447,-1.9067993,-1.2191772,0.57951355,18.013475285822413,2.3362603814887444,115.71980285644531,-15.34526538848877,55.261287689208984,21098335.0,50354.0,0.2721141288234,0.2676164038,0.12641362446947266,0.007861401186532368,0.004420433694928008,0.008897803846640982,21.0983351059258
1620,B,938278100268451.0,6.449707,10.924347,5.390174962399663,100,1970-01-11 20:37:58.100268451,-0.37217712,-0.4955597,-0.07859802,12.697457450771397,0.6247182354177799,115.20768737792969,-15.731398582458496,55.37366485595703,21148689.0,50354.0,0.36454133295700003,0.1699375997319999,0.16658364630137265,0.016029074561245134,0.011016297146925163,0.007376792286197573,21.148689109948464
1620,B,938278150622455.0,0.07673645,8.9856415,6.5474015623996635,100,1970-01-11 20:37:58.150622455,-0.33233643,-1.1524658,-0.03164673,9.007542899641415,1.199844339235085,114.48127746582031,-15.377232551574707,55.51442337036133,21199043.0,50354.0,0.16431626674065003,0.007804580464499939,0.30055236416487263,0.013315047787587738,0.004475014870807277,0.01176108333550866,21.19904311397113
1620,B,938278200976459.0,0.7963562,-0.5198517,0.47980506239966303,100,1970-01-11 20:37:58.200976459,0.3569336,-0.035491943,0.02406311,5.526983746505095,0.3595000780107667,115.889892578125,-15.44964599609375,55.14270782470703,21249397.0,50354.0,0.02198185364905,-0.28032601020540004,0.17692398119257266,0.004690427777051478,-0.006861272036586642,0.012021421947064402,21.249397117993794
1620,B,938278251330463.0,1.3196869,2.8183289,5.295082202399663,100,1970-01-11 20:37:58.251330463,-0.34283447,-0.05355835,0.3604126,3.174985847452122,0.5003011222390605,115.564208984375,-15.700613021850586,55.2156867980957,21299751.0,50354.0,0.0532756171287,-0.43560043953560007,0.14539433666585264,0.0018947573417714117,-0.01802488022512916,0.008115008288721574,21.29975112201646
1620,B,938278301684466.0,5.188141,14.772842,-2.4328533376003367,100,1970-01-11 20:37:58.301684466,0.54434204,-0.2048645,-0.10256958,17.748143377494703,0.5905914312051843,115.69102478027344,-15.724807739257812,55.18194580078125,21350105.0,50354.0,0.1638475830383,-0.05057629025070002,0.07206233612905265,0.005466510810604559,-0.01224047152582968,0.0054749066509573304,21.350105124991387
1620,B,938278352038470.0,8.973038,13.722168,-0.9024273376003364,100,1970-01-11 20:37:58.352038470,0.66122437,0.7333832,-0.54252625,17.76001852603741,1.1266780007895776,115.7283935546875,-16.07790756225586,55.22379684448242,21400459.0,50354.0,0.35653600368300004,0.22394966677,-0.08397236155952735,0.013101697562882172,0.004365021500626416,-0.0002998587102630616,21.400459129014052
1620,B,938278402392474.0,3.2918243,11.936905,8.014442662399663,100,1970-01-11 20:37:58.402392474,0.97950745,-0.062088013,-0.2899475,12.557638155673999,1.0234057449125642,114.93758392333984,-16.111690521240234,55.4599609375,21450813.0,50354.0,0.30879243812710006,0.15254928092099995,0.17905920983247264,0.016750974179452892,0.009479114006016306,0.0023940015789679437,21.450813132920302
1620,B,938278452746478.0,4.926056,12.691483,1.2580491623996632,100,1970-01-11 20:37:58.452746478,1.3532715,0.1169281,0.02079773,14.39146189494852,1.3584728480374617,114.88777923583984,-16.213911056518555,55.497276306152344,21501167.0,50354.0,0.20690157231310002,0.12659972467599995,0.23345352667297264,0.01298362810085292,0.007028134513915667,0.010385833166997597,21.501167136942968
1620,B,938278503100482.0,5.061783,8.473816,-5.801399337600337,100,1970-01-11 20:37:58.503100482,0.7236481,0.1669159,0.28833008,15.327116872049388,0.7966565918507337,115.61219024658203,-16.354217529296875,55.305702209472656,21551521.0,50354.0,0.25146382250300003,0.039409532922999944,-0.11438792736102738,0.011540265545284952,0.0041796150785700205,0.0029977145938768464,21.551521140965633
1620,B,938278553454486.0,0.7092438,-1.3731384,-2.4564133376003365,100,1970-01-11 20:37:58.553454486,-0.92248535,-0.29901123,0.29826355,8.522077686997285,1.014567928671776,116.99964141845703,-16.357816696166992,54.88284683227539,21601875.0,50354.0,0.14529714174360003,-0.3146954400648001,-0.20790694972352736,0.00998925079683665,-0.006930873284109103,-0.008114418120357835,21.6018751449883
1620,B,938278603808490.0,-0.04270935,0.23777771,3.5859146623996634,100,1970-01-11 20:37:58.603808490,-0.20222473,-0.048736572,0.34840393,2.3508857823276457,0.40577751701311515,118.24546813964844,-16.124963760375977,54.52187728881836,21652229.0,50354.0,0.016781337847650003,-0.52205417609213,0.028437454854472653,0.004080649880668903,-0.02106684508598303,-0.004518503472318191,21.652229149010964
1620,B,938278654162494.0,-0.13069153,8.252411,-3.797065337600337,100,1970-01-11 20:37:58.654162494,0.8577728,-0.2689209,0.17021179,12.752465424588877,0.9149123894295311,118.83648681640625,-15.74087142944336,54.356300354003906,21702583.0,50354.0,-0.00436571395576,-0.27971171884833007,-0.005316140549527358,0.00031258816272611463,-0.020186059936915964,0.0005821253302556078,21.70258315303363
1620,B,938278704516498.0,4.730057,17.650452,-11.796287337600338,100,1970-01-11 20:37:58.704516498,-0.121292114,-0.50579834,-0.047927856,25.45452902569044,0.522341666963398,119.24591827392578,-15.615787506103516,54.22380447387695,21752937.0,50354.0,0.11579822443819002,0.15868718175099997,-0.3925938403035274,0.0028055363164161407,-0.0030470347704994803,-0.010018179587937359,21.75293715693988
1620,B,938278754870502.0,9.50473,13.562149,-2.8714523376003367,100,1970-01-11 20:37:58.754870502,-0.6161041,-0.5383301,-0.39515686,18.752013189317832,0.9085881919813176,119.30230712890625,-15.95292854309082,54.18684005737305,21803291.0,50354.0,0.35838923229900005,0.29237045537700007,-0.3692896818025274,0.011938617598272236,0.011356278129971658,-0.019181941436064144,21.803291160962544
1620,B,938278805224505.0,-1.0716858,7.165222,5.7940598623996635,100,1970-01-11 20:37:58.805224505,-0.21426392,-1.4143982,-0.29708862,7.24609505168906,1.4610588433429061,118.61126708984375,-15.357964515686035,54.318077087402344,21853645.0,50354.0,0.21231875382340004,0.02838381966699996,0.07358248965187265,0.014368714966603666,0.008075630382782788,-0.007445019976777036,21.853645163937472
1620,B,938278855578509.0,-0.09719849,-1.1211548,6.298088182399663,100,1970-01-11 20:37:58.855578509,-0.5746155,-0.7001648,0.3407135,1.1857960937669303,0.967728995680888,120.6877670288086,-17.397207260131836,53.687313079833984,21903999.0,50354.0,-0.029428999769330003,-0.34129772010560006,0.3044440113239127,0.004604615337819321,-0.007878233271342636,0.009517573215067347,21.903999167960137
1620,B,938278905932513.0,-0.10891724,-1.0916138,2.726371862399663,100,1970-01-11 20:37:58.905932513,-0.61294556,0.12815857,0.25271606,3.3809137289519087,0.6752720085788261,122.12474822998047,-17.274227142333984,53.24905776977539,21954353.0,50354.0,-0.0051893757342100005,-0.5491800750422,0.22720883054791266,-0.0008715868400526267,-0.022419559448436162,0.013385423599806948,21.954353171982802
1620,B,938278956286517.0,0.16783142,5.211624,1.191566662399663,100,1970-01-11 20:37:58.956286517,0.4429474,-0.7585449,-0.3305664,7.041908431374212,0.9385451024280772,122.41688537597656,-16.853803634643555,53.14762878417969,22004707.0,50354.0,0.0014832823098600003,-0.38973970319460005,0.09864193823887264,-9.330831414485995e-05,-0.023639183256667917,0.008203944805744894,22.004707176005468
1620,B,938279006640521.0,2.9913635,12.395081,6.7595750023996635,100,1970-01-11 20:37:59.006640521,0.12672424,-0.22137451,-0.6101837,12.778258159938817,0.6613545602980354,121.56043243408203,-16.815685272216797,53.40422439575195,22055061.0,50354.0,0.07953905050084001,-0.050185188215000065,0.20018589369465264,0.0020398992731749943,-0.011075988991019503,0.007523588324590367,22.055061180028133
1620,B,938279056994525.0,4.3193207,13.667297,6.125923262399663,100,1970-01-11 20:37:59.056994525,-0.08073425,0.53678894,-0.073776245,14.334998029164966,0.5478168668046706,120.78388214111328,-16.904531478881836,53.65202713012695,22105415.0,50354.0,0.1840610961034,0.16270329090599994,0.3244181898128527,0.006636660891054951,0.0028328682714513042,0.013207957010468462,22.105415183934383
1620,B,938279107348529.0,3.422989,11.344055,3.448112662399663,100,1970-01-11 20:37:59.107348529,1.1102448,-0.08332825,0.062179565,12.105214247575711,1.1151024219679069,120.38600158691406,-16.913253784179688,53.778934478759766,22155769.0,50354.0,0.1949281313169,0.13624160930399998,0.24104550247867262,0.009541811778760893,0.007526535752587169,0.014236679380823732,22.15576918795705
1620,B,938279157702533.0,1.5001526,6.2248535,0.7494584623996632,100,1970-01-11 20:37:59.157702533,0.55029297,-0.051986694,0.012054443,8.232788689169876,0.5528745597154121,120.65328979492188,-16.757719039916992,53.70708465576172,22206123.0,50354.0,0.12394993606320001,-0.05113679069550001,0.10568224820907264,0.008028393102428779,0.0021426840181062038,0.008729564579065362,22.206123191979714
1620,B,938279208056537.0,-0.38534546,-0.05128479,2.440590062399663,100,1970-01-11 20:37:59.208056537,-0.857254,-0.08770752,-0.06916809,3.505386860453653,0.8645005808296478,121.89869689941406,-16.393814086914062,53.337493896484375,22256477.0,50354.0,0.028067499363780005,-0.33803726058833006,0.08031585170887263,0.003827342971745076,-0.00979823508917299,0.004682874161634108,22.25647719600238
1620,B,938279258410541.0,1.1815796,-0.081085205,3.011863862399663,100,1970-01-11 20:37:59.258410541,-0.09324646,-0.004425049,0.25645447,3.144090937248904,0.2729164314294119,123.09272003173828,-16.72848892211914,52.98914337158203,22306831.0,50354.0,0.020046786942780004,-0.4968018793641151,0.13727643246467264,0.0012113733863402614,-0.02101874502658271,0.005478320938637349,22.306831200025044
1620,B,938279308764545.0,-1.6233368,11.99295,-6.9332653376003375,100,1970-01-11 20:37:59.308764545,0.87683105,-0.16139221,-0.1426239,17.657419520788824,0.9028962911342567,123.494140625,-16.193117141723633,52.885276794433594,22357185.0,50354.0,-0.011122121024399996,-0.19356418005628506,-0.09872912494112739,0.00022469631382705346,-0.017381346278027416,0.0009705055615202989,22.357185203931294
1620,B,938279359118548.0,6.415085,15.189072,-1.432563637600337,100,1970-01-11 20:37:59.359118548,-0.2398529,-0.061416626,-0.12155151,18.055067727684765,0.2758191167611737,123.29620361328125,-16.304948806762695,52.938087463378906,22407539.0,50354.0,0.12064184443140002,0.19089256789399997,-0.2106264761086274,0.00275737807621804,-6.726317940985176e-05,-0.007788645967629677,22.407539207022637
1620,B,938279409472552.0,7.4296265,11.803589,3.6031723623996634,100,1970-01-11 20:37:59.409472552,-0.009750366,-0.24713135,-0.97328186,14.139022260406007,1.0042143958313963,122.81079864501953,-16.66242027282715,53.09139633178711,22457893.0,50354.0,0.34856830143550005,0.186125025997,0.054649415864272646,0.011813303842490944,0.009492171961393707,-0.00392703444577212,22.457893210928887
1620,B,938279459826556.0,1.6677246,7.2207336,0.14150266239966314,100,1970-01-11 20:37:59.459826556,1.015625,0.3565979,-0.83369446,9.400089165402534,1.361507493752459,123.00096130371094,-16.478431701660156,53.08772277832031,22508247.0,50354.0,0.22904400864470004,-0.014493829899800002,0.09427968309937265,0.0145425451308892,0.004321158624139205,0.003749587924607698,22.508247214951552
1620,B,938279510180560.0,-0.9569855,0.51345825,5.465812792399663,100,1970-01-11 20:37:59.510180560,-0.3151245,0.05769348,0.09420776,1.1788643977347053,0.3339267736779697,123.11732482910156,-15.13444709777832,53.051414489746094,22558601.0,50354.0,0.017894278320699997,-0.29874545179255,0.14117538120548265,0.006217165250927878,-0.007886425395168298,0.005928052154003342,22.558601218974218
1620,B,938279560545725.0,0.5770874,0.73591614,5.406074662399663,100,1970-01-11 20:37:59.560545725,-0.35931396,0.4664154,0.4825287,1.0692130707914393,0.761238328995415,123.14212799072266,-15.599053382873535,53.04628372192383,22608966.0,50365.0,-0.00956678390325,-0.46211462942382503,0.27378130583048405,0.00020970712816743457,-0.019160358995231365,0.01044964677128323,22.608966383966617
1620,B,938279610899729.0,1.096756,10.218567,5.996315112399663,100,1970-01-11 20:37:59.610899729,-0.03630066,0.047836304,-0.66981506,10.277507653287795,0.6725014977675661,122.3183822631836,-15.398701667785645,53.28548812866211,22659320.0,50354.0,0.0421423552818,-0.21766817798422003,0.28707796736012264,0.0008201551605977534,-0.01711489174211235,0.014120753921119906,22.659320387989283
1620,B,938279661253733.0,3.2612305,15.35881,6.840446562399663,100,1970-01-11 20:37:59.661253733,-0.65522766,1.3622894,-0.8325958,15.727933537482789,1.7257958923230394,121.41492462158203,-15.381902694702148,53.5935173034668,22709674.0,50354.0,0.10972102611050001,0.150492420729,0.3231911486864227,0.003823464353313938,-0.001691284040414675,0.015364745534703872,22.709674392011948
1620,B,938279711607737.0,5.074051,13.779449,2.7731400623996634,100,1970-01-11 20:37:59.711607737,0.9219208,0.98020935,-0.21499634,15.018300894224192,1.362707509891047,121.003173828125,-15.525246620178223,53.76118469238281,22760028.0,50354.0,0.20985738232550002,0.24014474684300002,0.24204127045257265,0.008046025589193173,0.009835071967960244,0.014230856616662487,22.760028395918198
1620,B,938279761961741.0,6.995331,11.931,3.8738633623996632,100,1970-01-11 20:37:59.761961741,0.96624756,0.27941895,0.23777771,13.981699874154668,1.0335606108003053,120.5824203491211,-15.923282623291016,53.89378356933594,22810382.0,50354.0,0.30387083061400005,0.15384277447299993,0.16735160522617265,0.012934135217177794,0.009919423824172931,0.01030728443096377,22.810382399940863
1620,B,938279812315745.0,1.223053,7.5914,4.711113062399663,100,1970-01-11 20:37:59.812315745,0.24559021,0.923996,-0.2931671,7.784418268617094,1.000015053779819,120.04244995117188,-15.788606643676758,54.09010314941406,22860736.0,50354.0,0.20691425396800003,-0.0019537352000000533,0.21614395144717263,0.012860036074521018,0.003824110341776318,0.009655267630364815,22.86073640396353
1620,B,938279862669749.0,-1.9148712,1.2688751,3.290031562399663,100,1970-01-11 20:37:59.862669749,-0.94744873,0.023147583,-0.20835876,3.495201557447447,0.9703650238163432,120.6906509399414,-14.75454330444336,53.91245651245117,22911090.0,50354.0,-0.017417906821400004,-0.2703940538073,0.20144481821857266,0.004770949532109949,-0.006856900283836794,0.010513632453874471,22.911090407986194
1620,B,938279913023752.0,-1.3573303,-0.7852173,5.539405932399664,100,1970-01-11 20:37:59.913023752,-1.0920258,0.014541626,0.2288208,1.6146508217710704,1.115836352367588,122.17227172851562,-12.319855690002441,53.546600341796875,22961444.0,50354.0,-0.08238421716550001,-0.4812921475694,0.22229874780656267,-0.0025127180756181816,-0.018925203492061178,0.010668591761814832,22.96144441096112
1620,B,938279963377756.0,2.3548126,11.398239,2.9234238623996633,100,1970-01-11 20:37:59.963377756,2.0840607,0.830719,-0.08479309,12.019591521704404,2.245126483376213,121.83780670166016,-12.326223373413086,53.67677307128906,23011798.0,50354.0,0.025113611867099993,-0.22626515265910002,0.21306866574366265,-0.0014419020295978174,-0.017814170147852946,0.010961245370954024,23.011798414983787
1620,B,938280013731760.0,4.3920746,13.355896,1.1830979623996631,100,1970-01-11 20:38:00.013731760,-0.9865265,-0.6411743,0.8051605,14.837445614056215,1.425700687010773,121.50077819824219,-12.472318649291992,53.691253662109375,23062152.0,50354.0,0.1698663790344,0.12976565689499997,0.10338989998297266,0.004909011230927065,-0.002429567804852747,0.007967477309299498,23.062152419006452
1620,B,938280064085764.0,8.925186,11.36998,-2.0511549376003364,100,1970-01-11 20:38:00.064085764,-0.634079,0.1582489,-0.016036987,16.508911039638203,0.6537247720136113,121.5439224243164,-12.97213363647461,53.68190383911133,23112506.0,50354.0,0.33528867012620006,0.12905418005199995,-0.02185507046462735,0.012718288672716429,0.006516307034814618,0.00205280240278338,23.112506423029117
1620,B,938280114439768.0,1.8948059,11.316971,4.572731162399663,100,1970-01-11 20:38:00.114439768,0.015274048,-0.13858032,-0.5593109,11.553830884138304,0.5764256105452106,120.93622589111328,-12.884750366210938,53.8265380859375,23162860.0,50354.0,0.2724149360663,0.07772016532699998,0.06348572461177264,0.015300153693108576,0.005205957693607081,0.0010481349794626768,23.162860426935367
1620,B,938280164793772.0,0.39822388,2.54393,0.7217789623996635,100,1970-01-11 20:38:00.164793772,0.91360474,0.3582306,-0.34016418,5.804907925000426,1.0386117913262394,121.77438354492188,-12.706847190856934,53.674598693847656,23213214.0,50354.0,0.05773161077106,-0.14449329552300005,0.13329988141207263,0.008312099609724214,-0.001681147098944694,0.004954471202862352,23.213214430958033
1620,B,938280215147776.0,-1.2546997,-0.8929901,5.016899222399664,100,1970-01-11 20:38:00.215147776,-0.44995117,0.5118561,0.40267944,1.7875060927067334,0.7915828787248324,123.87799835205078,-10.772439956665039,53.252403259277344,23263568.0,50354.0,-0.02156349172014,-0.45190348613770015,0.14448270065869268,0.0009106047333450129,-0.01501548177187145,0.006993732068795659,23.263568434980698
1620,B,938280265501780.0,1.7908783,2.313797,2.2441941623996633,100,1970-01-11 20:38:00.265501780,0.26301575,1.0355988,0.6451874,4.7015404867319965,1.248162225204826,124.43453979492188,-11.137505531311035,53.17366409301758,23313922.0,50354.0,0.0134993686122,-0.4576975446787001,0.18281254814909267,-0.0002030304274886054,-0.022901025152864508,0.008240312479233612,23.313922439003363
1620,B,938280315855784.0,-11.05275,1.1831207,12.725593662399664,100,1970-01-11 20:38:00.315855784,0.61117554,-0.5309601,-1.5612183,13.031496809207662,1.7586519691915146,122.95281219482422,-8.609390258789062,53.455535888671875,23364276.0,50354.0,-0.23318614379090002,-0.4054273030671,0.3768943480649727,-0.005531053938674131,-0.02173089429169601,0.014091740525981524,23.36427644302603
1620,B,938280366209788.0,5.199646,15.424927,8.697731162399663,100,1970-01-11 20:38:00.366209788,-0.30613708,1.4052277,0.10913086,16.512307794230257,1.4423225524141803,121.98770141601562,-8.948003768920898,53.65591049194336,23414630.0,50354.0,-0.14736359940799998,-0.07532838305710003,0.5393750491139727,-0.009581100884518705,-0.012103985909548986,0.02306891461277431,23.41463044693228
1620,B,938280416563791.0,3.1071777,11.707855,1.0731736623996628,100,1970-01-11 20:38:00.416563791,1.5420685,0.0018310547,-0.528656,13.048462708501845,1.630170475069882,121.8305435180664,-9.049077987670898,53.70639419555664,23464984.0,50354.0,0.20914090029490004,0.18965285241400004,0.24600207077397263,0.0015553671044294828,0.0028783471649986717,0.0197734397474188,23.46498445002362
1620,B,938280466917795.0,4.973175,9.40567,2.8876572623996632,100,1970-01-11 20:38:00.466917795,1.1364441,0.35728455,0.37034607,11.064385605567612,1.2475230072659813,121.57402801513672,-9.514596939086914,53.762046813964844,23515338.0,50354.0,0.20343903992790002,0.03810601892499999,0.09972184019367264,0.010387525154989438,0.005734285103702004,0.008704290906432405,23.51533845392987
1620,B,938280517271799.0,0.15457153,3.0747375,1.3626326623996636,100,1970-01-11 20:38:00.517271799,-0.31420898,0.82743835,-0.076034546,5.5033817473510585,0.8883483316519422,122.15262603759766,-9.356935501098633,53.70132064819336,23565692.0,50354.0,0.12910127438581,-0.17924998037250003,0.10700954943667267,0.008372367493476278,-0.003553581517363709,0.005204876196723204,23.565692457952537
1620,B,938280567625803.0,-2.7560577,-0.59684753,6.510368462399663,100,1970-01-11 20:38:00.567625803,-1.2295074,-0.16195679,-0.11340332,2.8801897843001303,1.2453026786564325,121.89350128173828,-6.490381240844727,53.723262786865234,23616046.0,50354.0,-0.06549761730209,-0.4310833642253101,0.19821854931907265,0.0016013492743968188,-0.015366362616939066,0.0076847278423734,23.616046461975202
1620,B,938280617979807.0,1.4634094,0.19065857,3.233390962399663,100,1970-01-11 20:38:00.617979807,-0.091812134,0.039123535,0.59965515,3.0690720742661775,0.6079032964724346,122.91777038574219,-7.110738277435303,53.58736801147461,23666400.0,50354.0,-0.0325450062491,-0.5036958194459201,0.24531863103817264,-0.002468419133148311,-0.023534935507290567,0.011166935589854366,23.666400465997867
1620,B,938280668333811.0,5.6299744,19.386322,-6.187461337600336,100,1970-01-11 20:38:00.668333811,2.0619354,0.885025,-0.7342682,23.54192386467587,2.36093130648255,122.99110412597656,-7.271775245666504,53.647605895996094,23716754.0,50354.0,0.17859012393260001,-0.000579560189110038,-0.07437462983642734,0.00367697792791748,-0.012696141233071154,0.004303857118256342,23.716754470020533
1620,B,938280718687815.0,9.892639,11.651855,8.992530962399663,100,1970-01-11 20:38:00.718687815,-1.6995239,-0.13702393,0.39865112,15.589860074202965,1.7510224897302458,122.08073425292969,-8.09140396118164,53.7420768737793,23767108.0,50354.0,0.3908128375718,0.287978982329,0.07062323794357264,0.01433585836179628,0.00723585525121601,-9.444879368640277e-05,23.767108473926783
1620,B,938280769041819.0,4.4093323,12.984009,5.589943042399663,100,1970-01-11 20:38:00.769041819,0.014297485,-0.19503784,-0.8422699,13.716360019170368,0.864674945603954,121.3814697265625,-8.34141731262207,53.8560676574707,23817462.0,50354.0,0.36008073142010005,0.12678794792799997,0.3671429480188327,0.018905247386509068,0.010442587003080489,0.01102163926397548,23.817462477949448
1620,B,938280819395823.0,-0.37124634,6.9425354,13.524253962399662,100,1970-01-11 20:38:00.819395823,-0.039749146,-0.8373108,0.066589355,10.300247132732158,0.8408944717404707,119.96537780761719,-8.229606628417969,54.022789001464844,23867816.0,50354.0,0.10166689021492001,0.008221408358799987,0.48123813798983267,0.0116254198699049,0.0033991305632327623,0.021359690602440168,23.867816481972113
1620,B,938280869749827.0,0.4466095,-2.455307,4.488945162399663,100,1970-01-11 20:38:00.869749827,-0.7043457,-0.45118713,0.2700653,2.878956919168729,0.8789812043782375,122.73973846435547,-8.942021369934082,53.57745361328125,23918170.0,50354.0,0.0018974182793199997,-0.3804942505732001,0.4535183143650726,0.0026074385949594807,-0.009372713348431951,0.02353436320093945,23.91817048599478
1620,B,938280920103831.0,1.8651276,1.7800598,7.894706862399663,100,1970-01-11 20:38:00.920103831,-0.5965271,0.7954407,0.5397339,3.244934767896366,1.1313192171355129,121.53331756591797,-9.76772689819336,53.78756332397461,23968524.0,50354.0,0.05820260496670001,-0.5104698987544001,0.31178320702837264,0.001513138285265046,-0.02243180438762099,0.019267996404122772,23.968524490017444
1620,B,938280970457834.0,5.7232666,19.183548,-1.6937483376003364,100,1970-01-11 20:38:00.970457834,-0.80493164,0.6733551,-1.5335236,21.41961222248406,1.858229444263022,121.24089050292969,-9.866177558898926,53.89838790893555,24018878.0,50354.0,0.1910530007734,0.03433155358059992,0.15612153277887267,0.006275508385718499,-0.011987735116440768,0.011780437634127016,24.01887849299237
1620,B,938281020811838.0,5.8880005,13.765717,-0.25865933760033677,100,1970-01-11 20:38:01.020811838,-0.659317,1.728302,-0.20704651,16.19855476690082,1.8613422487538878,121.02740478515625,-10.187983512878418,54.00798797607422,24069232.0,50354.0,0.2923368717767,0.336094444905,-0.04915576803852735,0.012170306821193869,0.00932621536387195,0.002693077058867674,24.069232497015037
1620,B,938281071165842.0,3.6365356,11.321747,1.8122483623996635,100,1970-01-11 20:38:01.071165842,1.6169586,-0.43147278,0.06669617,12.582359259080787,1.6748648462152274,120.84437561035156,-10.349099159240723,54.035037994384766,24119586.0,50354.0,0.23979924538970002,0.13815788112799998,0.03911471087737265,0.013397591021898452,0.01194025081253284,-0.0002528036961463919,24.119586500921287
1620,B,938281121519846.0,7.954651,11.270966,6.143104662399663,100,1970-01-11 20:38:01.121519846,0.7447052,-0.09150696,0.33135986,13.797064856970739,0.8202186997714092,120.25299835205078,-10.994466781616211,54.13902282714844,24169940.0,50354.0,0.29183130502820004,0.07534753520099996,0.20029192310537267,0.013384862367871472,0.005375425866915232,0.006027540823783579,24.169940504943952
1620,B,938281171873850.0,-0.39164734,1.4369507,-0.5044020376003369,100,1970-01-11 20:38:01.171873850,0.68185425,1.1847992,-0.5144348,6.599024750745708,1.4605880754048153,121.3416519165039,-10.731911659240723,54.0032958984375,24220294.0,50354.0,0.19041374314782,-0.17352198124410007,0.14196561598457264,0.012141483577927657,-0.0024717380280271316,0.008617018061667552,24.220294508966617
1620,B,938281222227854.0,-1.7493134,-0.57684326,5.292305102399663,100,1970-01-11 20:38:01.222227854,-1.5770416,-0.38505554,0.090774536,1.9473911174500054,1.625905284265128,122.55458068847656,-8.158859252929688,53.771026611328125,24270648.0,50354.0,-0.05390296855097999,-0.47181427498312006,0.12054503546245264,0.0034369317720246415,-0.016247630923032722,0.006609230671481756,24.270648512989283
1620,B,938281272581858.0,0.053222656,2.3148346,5.482231262399663,100,1970-01-11 20:38:01.272581858,-0.41288757,0.29455566,0.44674683,2.357279147088103,0.6758860202827023,121.99818420410156,-8.028487205505371,53.846824645996094,24321002.0,50354.0,-0.042702476661688,-0.44971179203282,0.2712705020565527,-0.002432235294119342,-0.023201261789260325,0.009864739788115997,24.321002517011948
1620,B,938281322935862.0,7.0042877,18.182266,2.6580430623996634,100,1970-01-11 20:38:01.322935862,1.4325714,0.72369385,0.06742859,19.756609895106543,1.6064059945652502,121.5626220703125,-8.379322052001953,53.947601318359375,24371356.0,50354.0,0.17768693823301202,0.022586301806199954,0.20494768667547267,0.0033985037889812247,-0.010753738467435613,0.011989745337706203,24.371356520918198
1620,B,938281373289866.0,9.130188,11.886322,5.180992262399664,100,1970-01-11 20:38:01.373289866,-1.678421,-0.78692627,0.69303894,15.006584263607817,1.9790535566309055,120.9463882446289,-9.103976249694824,53.97792053222656,24421710.0,50354.0,0.4062176946989,0.2635676400759999,0.19736339237247266,0.01470096694332675,0.007204497794768147,0.01012898603719012,24.421710524940863
1620,B,938281423643870.0,6.854187,12.052216,4.349220362399663,100,1970-01-11 20:38:01.423643870,0.005340576,0.21699524,-0.61976624,13.95409753458322,0.656677735406346,120.43793487548828,-9.59618854522705,54.08549880981445,24472064.0,50354.0,0.40243860937500003,0.10923137122599996,0.23994216325457263,0.020359539767668584,0.009385960707550451,0.01101004197402212,24.47206452896353
1620,B,938281473997874.0,-2.4003754,7.4765167,5.696540942399663,100,1970-01-11 20:38:01.473997874,-0.1260376,-0.72068787,-0.027557373,7.855698766966838,0.7321447202470002,119.77374267578125,-8.945314407348633,54.1615104675293,24522418.0,50354.0,0.1121336146532,-0.0017942968121000596,0.25292213237093264,0.012955384884357993,0.002704943222518758,0.012408844370963347,24.522418532986194
1620,B,938281524351877.0,1.4939575,0.8594818,-0.027030837600336532,100,1970-01-11 20:38:01.524351877,-0.42837524,-0.051940918,0.38813782,6.195934743519151,0.5803913959752443,120.86392211914062,-9.167243003845215,53.97482681274414,24572772.0,50354.0,-0.022820883468300003,-0.28359376576550005,0.14274125590853265,0.0022486266330422272,-0.007185215251516239,0.009961617126712098,24.57277253596112
1620,B,938281574705881.0,2.4913788,5.3928986,3.2761612623996634,100,1970-01-11 20:38:01.574705881,-0.2591095,0.27311707,0.14251709,6.504095011511975,0.4025441439863497,120.73944854736328,-9.511914253234863,54.00091552734375,24623126.0,50354.0,0.1003388120251,-0.33605301866920007,0.08180335670517266,0.001951668887274554,-0.015600847091712446,0.005653359711775259,24.623126539983787
1620,B,938281625059885.0,6.0449524,16.366455,-7.467674337600338,100,1970-01-11 20:38:01.625059885,0.26626587,0.20935059,-0.52433777,21.9942887932784,0.6242237420258685,120.95674133300781,-9.657919883728027,53.989017486572266,24673480.0,50354.0,0.2149192106224,0.054366045587199895,-0.10552972469432739,0.007937251236196109,-0.007092032921285519,-0.0005973587668629487,24.673480544006452
1620,B,938281675413889.0,4.996811,8.852341,-2.074897637600337,100,1970-01-11 20:38:01.675413889,0.5120392,1.0493164,0.12947083,12.935227045129794,1.1747390116389633,121.23445892333984,-10.018463134765625,53.986934661865234,24723834.0,50354.0,0.27799847712180004,0.14146442689199992,-0.2402533346196274,0.012410188624335725,0.004930423805608815,-0.00870578008434744,24.723834548029117
1620,B,938281725767893.0,5.254776,12.179886,6.163414112399663,100,1970-01-11 20:38:01.725767893,0.9314728,0.17892456,0.032287598,13.26723193449961,0.9490511389254234,120.56417083740234,-10.389119148254395,54.120506286621094,24774188.0,50354.0,0.258104205899,0.03605917917899994,0.10293657928602265,0.013497457250414683,0.0044695118300495645,-0.003457223949034167,24.774188551935367
1620,B,938281776121897.0,5.532715,10.641449,2.1435471623996634,100,1970-01-11 20:38:01.776121897,1.2160797,0.30677795,0.021087646,12.57560644433827,1.2543553069892575,120.37269592285156,-10.789886474609375,54.17911911010742,24824542.0,50354.0,0.271596660907,0.08110355129499995,0.20914436401562267,0.013336278723574664,0.002949806065143895,0.007857261909505526,24.824542555958033
1620,B,938281826475901.0,0.6916504,5.497864,-0.20355973760033663,100,1970-01-11 20:38:01.826475901,0.7650299,0.58244324,-0.14756775,8.26173248974109,0.9727729008128105,120.84776306152344,-10.66130256652832,54.1262092590332,24874896.0,50354.0,0.1567108476758,-0.08712971659900005,0.04884306339417265,0.010783498143589157,-0.00015172076385881059,0.006495349459896417,24.874896559980698
1620,B,938281876829905.0,-0.80345154,0.75201416,3.0638352623996634,100,1970-01-11 20:38:01.876829905,-1.3495331,-0.12940979,0.1954956,3.0649030835811493,1.3697463310273235,121.7650375366211,-10.11324405670166,53.93794631958008,24925250.0,50354.0,-0.0028148173017799993,-0.33611601756568005,0.07201315688787266,0.0038746403567267024,-0.01065605784906415,0.0030427970580410553,24.925250564003363
1620,B,938281927183909.0,-0.08088684,2.7935333,6.3498307323996634,100,1970-01-11 20:38:01.927183909,0.009796143,0.57788086,0.2467041,2.826906589407708,0.628414803874659,120.81985473632812,-9.905721664428711,54.120113372802734,24975604.0,50354.0,-0.02226498739326,-0.40420295159958003,0.23700786875106267,-0.0006314342428070222,-0.018639010686673754,0.007780222362511475,24.97560456802603
1620,B,938281977537913.0,4.706558,12.707169,3.0873032623996632,100,1970-01-11 20:38:01.977537913,0.5701904,0.14576721,0.44514465,13.844590743253011,0.7379152601667529,120.42103576660156,-10.1879243850708,54.189517974853516,25025958.0,50354.0,0.11646052279532002,-0.10320801819290003,0.23759872258706266,0.0023715609948176653,-0.01277508598646527,0.011949170150119983,25.02595857193228
1620,B,938282027891916.0,8.468857,14.221802,0.5704116623996631,100,1970-01-11 20:38:02.027891916,-1.0066986,-0.76312256,0.52259827,17.396720859429283,1.3670797579621703,120.16263580322266,-10.659368515014648,54.181968688964844,25076312.0,50354.0,0.33171742345500005,0.184521502867,0.09209028866167264,0.011283776152744307,0.002047229603639815,0.008300580236209408,25.07631257502362
1620,B,938282078245920.0,5.1019745,11.650909,5.090705962399663,100,1970-01-11 20:38:02.078245920,-0.04437256,-0.15127563,-0.5760956,12.746324744017114,0.597276636620093,119.57129669189453,-10.975418090820312,54.30033493041992,25126666.0,50354.0,0.34167282467550003,0.15792804484699993,0.14252995843957264,0.0169539462771816,0.008621852262795377,0.005907033961268053,25.12666657892987
1620,B,938282128599924.0,-2.6832275,5.8435974,1.2806473623996633,100,1970-01-11 20:38:02.128599924,0.4507599,-0.19551086,-0.33270264,7.931668038824892,0.5933801736567537,119.80580139160156,-10.226812362670898,54.261199951171875,25177020.0,50354.0,0.060896793218999996,-0.05301001236720002,0.16041156265847265,0.010135495269729828,0.0026415213037439228,0.0076271586766854865,25.177020582952537
1620,B,938282178953928.0,-0.91171265,-1.4886475,-0.06018833760033715,100,1970-01-11 20:38:02.178953928,0.19975281,0.5212097,0.32286072,6.233943074353124,0.6448253879895739,121.19723510742188,-9.976229667663574,54.03325653076172,25227374.0,50354.0,-0.09050980815655,-0.38382462636770004,0.030727496867372635,-0.0007455668770826966,-0.01099818569942858,0.004812308101682207,25.227374586975202
1620,B,938282229307932.0,1.4614716,5.9990387,3.5689011623996634,100,1970-01-11 20:38:02.229307932,-0.45913696,-0.1643982,0.31158447,6.608519179995357,0.5787213475814267,120.93643951416016,-10.058727264404297,54.05978012084961,25277728.0,50354.0,0.013841281084150003,-0.37991108075760005,0.08833886278997265,-0.001930283506101815,-0.01922857389829368,0.0029977337370929824,25.277728590997867
1620,B,938282279661936.0,4.855438,10.611984,-5.905464337600337,100,1970-01-11 20:38:02.279661936,0.7579651,-0.15351868,-0.026367188,16.617283176285497,0.7738050830344679,121.38634490966797,-10.23685073852539,53.9813117980957,25328082.0,50354.0,0.15904083299920002,-0.07525348148210005,-0.05882765106202737,0.004352652986276503,-0.01145967818350893,0.0007430037776744783,25.328082595020533
1620,B,938282330015940.0,4.1761475,8.587799,2.6692582623996635,100,1970-01-11 20:38:02.330015940,0.65856934,0.27449036,-0.14492798,10.088912338773206,0.7280540177128656,121.17179870605469,-10.593425750732422,54.041194915771484,25378436.0,50354.0,0.22738822813350001,-0.010076263409000035,-0.08147796035532737,0.009729124472137989,-0.0021483469871232267,-0.0035324743786547402,25.378436598926783
1620,B,938282380369944.0,5.2983856,12.984543,8.373054662399664,100,1970-01-11 20:38:02.380369944,0.62120056,-0.1282959,-0.046798706,14.236129339646237,0.636034663036849,120.30029296875,-10.928840637207031,54.20542526245117,25428790.0,50354.0,0.23854031985869997,0.049657654533999986,0.27801231250767267,0.01173068305279962,0.0009965406843541237,0.004948145384139598,25.428790602949448
1620,B,938282430723948.0,7.0217743,10.746109,0.8546066623996635,100,1970-01-11 20:38:02.430723948,0.8267212,-0.19161987,0.23098755,13.801685322580193,0.8795120041041279,120.23384857177734,-11.41661262512207,54.212303161621094,25479144.0,50354.0,0.31018466580230003,0.10399742540399999,0.2323248291744727,0.013815248963986998,0.003868573947599026,0.012848758216131375,25.479144606972113
1620,B,938282481077952.0,1.4929047,3.442566,-0.5973893376003367,100,1970-01-11 20:38:02.481077952,0.1558075,0.03614807,0.19509888,7.524172373701582,0.25228205048760266,121.00012969970703,-11.467704772949219,54.05855178833008,25529498.0,50354.0,0.214374073183,-0.13624092952500005,0.006475960586472651,0.0132068153714329,-0.0008117947032544187,0.006012287483811322,25.52949861099478
1620,B,938282531431956.0,-2.1287231,-0.8857269,2.7015000623996634,100,1970-01-11 20:38:02.531431956,-1.0320129,-0.056884766,0.2039032,3.9626715673391835,1.053500364185758,122.13387298583984,-10.65385913848877,53.823219299316406,25579852.0,50354.0,-0.016007999856800008,-0.4290956619793001,0.05297519571827265,0.004994262628133737,-0.014233479364303766,0.0014968017622845726,25.579852615017444
1620,B,938282581785959.0,0.5890503,1.3220062,3.9011002623996633,100,1970-01-11 20:38:02.581785959,-0.040603638,-0.15989685,0.32406616,2.487617136113974,0.3636406662020945,122.72679901123047,-10.762292861938477,53.69755554199219,25630206.0,50354.0,-0.038764342085600006,-0.4824849960639,0.16623366837747267,-0.0013790032530838052,-0.02295086622755365,0.00551902157133858,25.63020661799237
1620,B,938282632139963.0,2.6727905,12.475037,-5.423027337600336,100,1970-01-11 20:38:02.632139963,0.41456604,-0.57336426,0.45762634,17.074350220789757,0.8426348219889946,122.99365234375,-10.725628852844238,53.61582565307617,25680560.0,50354.0,0.0821233658216,-0.14610104335360002,-0.038317557972327346,0.001091650140601272,-0.015825910714414398,0.0032205439116703444,25.680560622015037
1620,B,938282682493967.0,8.068497,16.172455,-3.1827773376003368,100,1970-01-11 20:38:02.682493967,-0.27278137,-0.24095154,0.12638855,20.238300270315637,0.38528091831616973,122.89838409423828,-11.04145622253418,53.61796951293945,25730914.0,50354.0,0.2704333953875,0.22778870608399998,-0.21666834430752735,0.008876321576961511,0.0020566502845632798,-0.006419780061699902,25.730914625921287
1620,B,938282732847971.0,3.9795837,13.002655,5.0309678223996634,100,1970-01-11 20:38:02.732847971,-0.104019165,-0.3227234,-0.7577362,13.62733515843123,0.8301412701373768,122.21549224853516,-11.1810884475708,53.75548553466797,25781268.0,50354.0,0.3033345277839,0.24107254446999998,0.04653189183579265,0.01444575500168634,0.011804519705198057,-0.004283525463880865,25.781268629943952
1620,B,938282783201975.0,-0.60043335,5.8577423,0.5145951623996634,100,1970-01-11 20:38:02.783201975,0.24320984,-0.8732147,-0.25289917,7.996196777771402,0.9410700976843354,122.49862670898438,-10.769071578979492,53.67430114746094,25831622.0,50354.0,0.08507686836195001,-0.018620977177900018,0.13962063926829266,0.009779033720764066,0.005600663109713202,0.0046867622756075564,25.831622633966617
1620,B,938282833555979.0,-0.30891418,0.25456238,3.360481362399663,100,1970-01-11 20:38:02.833555979,-0.59007263,-0.35920715,0.36228943,2.5949328072937123,0.7800443041109679,123.6107177734375,-10.44072437286377,53.4396858215332,25881976.0,50354.0,-0.022894642762810002,-0.3395797050716401,0.09756280166487265,0.0015655618939095482,-0.009018418576996671,0.0059715674923743025,25.881976637989283
1620,B,938282883909983.0,0.24975586,1.3769073,4.388450762399663,100,1970-01-11 20:38:02.883909983,-0.37652588,0.31103516,0.41764832,2.0777999163617364,0.6426077561505327,123.95394134521484,-10.386387825012207,53.3755989074707,25932330.0,50354.0,-0.0014894290226399997,-0.4523936878666401,0.19509486410607266,-0.0006139177753422748,-0.01993951411400708,0.007368242051115091,25.932330642011948
1620,B,938282934263987.0,-3.994812,4.3217163,11.648857262399662,100,1970-01-11 20:38:02.934263987,0.020202637,-1.0840607,-0.8657379,8.21009651042157,1.387478958154917,121.42741394042969,-8.91484260559082,53.778987884521484,25982684.0,50354.0,-0.09428927843678,-0.3499949536228001,0.40377130414037266,-0.0024114205177058175,-0.020201738826779635,0.015077653517940754,25.982684645918198
1620,B,938282984617991.0,2.053772,11.362076,13.591026462399663,100,1970-01-11 20:38:02.984617991,-0.48114014,0.0063476563,-0.30368042,13.859747723053086,0.5689972974901542,120.09760284423828,-9.018062591552734,53.99061965942383,26033038.0,50354.0,-0.048869564080000004,-0.09859836126290003,0.6354645525392727,-0.0036043101780449706,-0.011294233888877271,0.026164841163623432,26.033038649940863
1620,B,938283034971995.0,5.216858,13.454895,3.8400956623996634,100,1970-01-11 20:38:03.034971995,0.46522522,0.51605225,-0.0370636,14.580601579916722,0.6957859875702233,119.62489318847656,-9.339800834655762,54.09263610839844,26083392.0,50354.0,0.18305265151000003,0.131347678867,0.43886336173607265,0.0033783275922251105,0.0008245295693184248,0.027048353897710375,26.08339265396353
1620,B,938283085325999.0,6.35112,11.006073,1.6554642623996632,100,1970-01-11 20:38:03.085325999,1.5266418,-0.099975586,0.33947754,13.404991360793233,1.5671232572671925,119.51586151123047,-9.8192138671875,54.11060333251953,26133746.0,50354.0,0.29124698210600003,0.122384591336,0.13836171222667265,0.011941441875550034,0.006388217366900931,0.01453279568716004,26.133746657986194
1620,B,938283135680002.0,1.3820496,3.832138,-0.9232863376003371,100,1970-01-11 20:38:03.135680002,0.22462463,0.43515015,0.05697632,7.967780745777658,0.4930093087238838,120.26689147949219,-9.87085247039795,54.00137710571289,26184100.0,50354.0,0.1946980110192,-0.11988756165300002,0.018434043612672635,0.01223463709191316,6.28677163288907e-05,0.003947646744767197,26.18410066096112
1620,B,938283186034006.0,-1.5547333,0.9842682,5.780449022399663,100,1970-01-11 20:38:03.186034006,-1.2005768,0.23352051,0.03289795,1.8457216358064235,1.2235190053297509,119.91370391845703,-8.566595077514648,54.05678176879883,26234454.0,50354.0,-0.004347657514900003,-0.3722065411026001,0.12228878491519264,0.004792450850177761,-0.012389453225077745,0.003542978653846064,26.234454664983787
1620,B,938283236388010.0,1.5328674,1.8407898,1.0038529623996633,100,1970-01-11 20:38:03.236388010,0.21603394,-0.040878296,0.35940552,5.47261605938784,0.4213241342746195,120.81265258789062,-8.81888484954834,53.91191482543945,26284808.0,50354.0,-0.0005505177643000027,-0.4223427147340001,0.17080837107129265,-0.00012332135900441855,-0.020004366614198084,0.0073793070962717405,26.284808669006452
1620,B,938283286742014.0,-3.5383606,15.292236,-8.975334337600337,100,1970-01-11 20:38:03.286742014,0.8909149,-0.42411804,-0.3517456,21.641931750933175,1.0475354113416937,121.19058227539062,-8.350593566894531,53.853233337402344,26335162.0,50354.0,-0.050492302296400005,-0.062111009433400026,-0.20069798658342738,-0.0012851050806682441,-0.012197091413362634,-0.0007525308497490162,26.335162673029117
1620,B,938283337096018.0,7.1898346,13.456009,2.3653794623996633,100,1970-01-11 20:38:03.337096018,-0.3053894,-0.08596802,-0.09388733,15.6660206899408,0.3308595122247648,120.81242370605469,-8.817268371582031,53.90623474121094,26385516.0,50354.0,0.09193316089800001,0.230325364365,-0.1664188338929274,0.0010433564970124833,0.0042351328141128925,-0.009242900189133183,26.385516676935367
1620,B,938283387450022.0,3.0329742,12.023758,4.725242762399663,100,1970-01-11 20:38:03.387450022,-0.051437378,-0.6182251,-0.9730835,12.458232550773456,1.154010214901833,120.21318054199219,-8.910959243774414,53.996578216552734,26435870.0,50354.0,0.2573796571576,0.148034893759,0.17852059575377266,0.008794648820185842,0.009525976218787948,0.00030468605837050144,26.435870680958033
1620,B,938283437804026.0,-1.6646729,4.7406616,4.812965462399664,100,1970-01-11 20:38:03.437804026,1.1748505,0.62368774,-0.42964172,5.145891003857895,1.3978025976299786,119.8653335571289,-8.249267578125,54.094871520996094,26486224.0,50354.0,0.0344497218301,-0.07139140773080002,0.24014346847577267,0.007347388274773322,0.001929653047731991,0.010540705145107264,26.486224684980698
1620,B,938283488158030.0,-0.022033691,-0.6921997,7.4241105623996635,100,1970-01-11 20:38:03.488158030,-0.913208,0.0554657,0.21253967,1.651936338907763,0.9392541756437386,116.96768188476562,-8.755217552185059,54.51396560668945,26536578.0,50354.0,-0.042466211841607,-0.3915410747437001,0.3080928630763727,-0.00020183116901971188,-0.01165525111126049,0.013802946119488364,26.536578689003363
1620,B,938283538512034.0,0.35186768,1.6385498,0.13132466239966334,100,1970-01-11 20:38:03.538512034,-0.15480042,0.12106323,0.5755615,6.030576497500768,0.6081862510551017,118.0232162475586,-8.716894149780273,54.34489822387695,26586932.0,50354.0,0.008304230341053001,-0.4696429435323001,0.19022319265477267,-0.0008600962082394481,-0.02168203002813486,0.012546103335143046,26.58693269302603
1620,B,938283588866038.0,2.773407,8.963959,5.864936937399663,100,1970-01-11 20:38:03.588866038,0.9960785,-1.5933228,-0.5474701,9.383383068348758,1.9571850790244902,117.43931579589844,-8.889866828918457,54.385005950927734,26637286.0,50354.0,0.07868504061836001,-0.2265298359424001,0.15096787829814765,0.0021901288749451415,-0.017527542068834525,0.008590167593381676,26.63728669693228
1620,B,938283639220041.0,1.9469452,12.823822,11.832756162399663,100,1970-01-11 20:38:03.639220041,-0.7010803,0.10757446,-0.38313293,14.25307737243748,0.8061492997843306,116.26757049560547,-8.932271003723145,54.574546813964844,26687640.0,50354.0,0.11884430733940002,0.05508176223699994,0.44557481917364766,0.004973196393532524,-0.0043165481516808605,0.015019155494247392,26.68764070002362
1620,B,938283689574045.0,5.687744,13.119797,2.309547562399663,100,1970-01-11 20:38:03.689574045,0.8210449,0.09361267,0.091552734,14.749452040701561,0.8314204489326766,116.05590057373047,-9.282510757446289,54.61655807495117,26737994.0,50354.0,0.19221856998840003,0.159713295563,0.3560607808792727,0.007831630062482022,0.0054078951702306,0.020182779502532378,26.73799470392987
1620,B,938283739928049.0,5.3751984,11.494324,1.2979506623996633,100,1970-01-11 20:38:03.739928049,1.2034149,-0.42778015,0.5637665,13.506141418908458,1.3960787745676397,116.02536010742188,-9.649635314941406,54.6001091003418,26788348.0,50354.0,0.27853170080480005,0.12624052441699998,0.09082598280577264,0.0118520795677604,0.0071994593256364614,0.011251268049298387,26.788348707952537
1620,B,938283790282053.0,-0.06048584,2.4100037,-2.2637553376003368,100,1970-01-11 20:38:03.790282053,-0.45863342,0.4157257,0.04664612,8.5356266168896,0.6207643128373608,117.07137298583984,-9.487421035766602,54.439781188964844,26838702.0,50354.0,0.13380851812312,-0.14339994149710003,-0.024316064307527356,0.010381489691948244,-0.0004320226438256789,0.0016745202180303215,26.838702711975202
1620,B,938283840636057.0,-2.594284,0.32362366,7.196083162399663,100,1970-01-11 20:38:03.840636057,-1.3056335,-0.01499939,0.09754944,2.9072899964881462,1.3093585113584956,115.69699096679688,-6.9372453689575195,54.6225471496582,26889056.0,50354.0,-0.06683914026168,-0.42464466395728007,0.12418121764497266,0.001686088026417475,-0.014301659031524928,0.0025143049655768604,26.889056715997867
1620,B,938283890990061.0,2.017624,0.7958679,2.538139462399663,100,1970-01-11 20:38:03.890990061,-0.13987732,-0.33358765,0.6092682,4.021276625692076,0.708557777752912,116.66600036621094,-7.575587749481201,54.47127914428711,26939410.0,50354.0,-0.01451856882,-0.4652837609938801,0.24507852302457264,-0.0020483430415494572,-0.022405727954995357,0.009296852490837143,26.939410720020533
1620,B,938283941344065.0,-0.85139465,18.389313,-11.344215337600337,100,1970-01-11 20:38:03.941344065,1.5912018,0.2262268,-0.9184265,25.240745141673564,1.8511101991139614,117.15225982666016,-7.31071662902832,54.449222564697266,26989764.0,50354.0,0.029362156344950003,-0.01044390048070002,-0.22171057230992738,0.0003737170031156663,-0.011977395332945505,0.0005883348951426237,26.989764723926783
1620,B,938283991698069.0,10.7057495,11.984863,8.338111962399664,100,1970-01-11 20:38:03.991698069,-1.0710297,-0.26895142,0.30352783,16.25042269569695,1.1452373676171308,116.42301177978516,-8.146343231201172,54.52174377441406,27040118.0,50354.0,0.24810309205845002,0.271261429152,-0.07568466467742736,0.006985742559052403,0.00656660291935732,-0.007487519881630631,27.040118727949448
1620,B,938284042052073.0,4.1095276,13.893036,2.104209962399663,100,1970-01-11 20:38:04.042052073,0.22009277,-0.34962463,-1.1087036,14.983263059874371,1.1831744934547355,116.16595458984375,-8.286149024963379,54.568965911865234,27090472.0,50354.0,0.3730042315467,0.15805866312300004,0.2629063391006727,0.015637619086406863,0.010808991963207677,0.004713680096954048,27.090472731972113
1620,B,938284092406077.0,-2.6550446,6.334854,13.524040362399663,100,1970-01-11 20:38:04.092406077,0.66760254,-0.1789856,-0.009063721,10.243771754978225,0.69123884979085,114.84335327148438,-7.865281581878662,54.75183868408203,27140826.0,50354.0,0.036619518490999994,0.015808386529999975,0.3934724584274727,0.010313097154699172,0.004377450709113582,0.01652564898536612,27.14082673599478
1620,B,938284142760081.0,1.7482605,-3.3171234,6.454078762399663,100,1970-01-11 20:38:04.142760081,-1.358902,-0.41096497,0.48901367,3.786862824134064,1.5015462768819248,115.90727996826172,-10.517839431762695,54.54388427734375,27191180.0,50354.0,-0.022830103285700003,-0.41749179668380004,0.5029891052050727,0.0003471761066238379,-0.010113183217442225,0.022570212787576597,27.191180740017444
1620,B,938284193114084.0,2.3433838,1.398407,4.277748262399664,100,1970-01-11 20:38:04.193114084,0.04826355,0.59768677,0.7075958,3.1872091880314977,0.9274969873100805,116.30643463134766,-11.435738563537598,54.47954559326172,27241534.0,50354.0,0.1030153285411,-0.5417767228028001,0.2701952090033726,0.002018823416255206,-0.024151503515114133,0.01946646147882603,27.24153474299237
1620,B,938284243468088.0,-0.042144775,15.840271,9.085228062399663,100,1970-01-11 20:38:04.243468088,-0.06964111,-1.2187195,-1.3388977,16.152618431273872,1.8118427511645627,115.41744232177734,-11.118895530700684,54.628257751464844,27291888.0,50354.0,0.05793829493242499,-0.05945100399400004,0.33643965492947264,0.004052329378192939,-0.015137110477563038,0.015273245969237246,27.291888747015037
1620,B,938284293822092.0,5.1354523,12.721481,8.668083262399662,100,1970-01-11 20:38:04.293822092,-1.2829742,1.0506287,0.009033203,13.990603839341398,1.6582898003321884,114.51457977294922,-11.452523231506348,54.83893585205078,27342242.0,50354.0,0.12823420355692502,0.22563003010400004,0.4469751192244727,0.004687264994466366,0.00418388934037147,0.019724033768873883,27.342242750921287
1620,B,938284344176096.0,3.7064972,12.772949,-0.46843703760033684,100,1970-01-11 20:38:04.344176096,1.2809143,-0.11784363,0.08784485,14.756494616601795,1.2893196976497294,114.63129425048828,-11.531570434570312,54.821380615234375,27392596.0,50354.0,0.2226137625615,0.14840406411,0.20644249300177261,0.008833299242963588,0.00941705639002588,0.016451095223020178,27.392596754943952
1620,B,938284394530100.0,7.3408203,10.271118,4.204109262399664,100,1970-01-11 20:38:04.394530100,0.8313904,-0.39666748,0.49977112,12.741379512558177,1.0480106198353931,114.36644744873047,-12.128594398498535,54.85610580444336,27442950.0,50354.0,0.2781383126975,0.08671127485899997,0.09405301960377266,0.012607434998795844,0.005919498889222513,0.007565575520869815,27.442950758966617
1620,B,938284444884104.0,-0.59002686,2.3800964,0.7656326623996632,100,1970-01-11 20:38:04.444884104,-0.07505798,0.6790161,-0.22363281,5.711865128143208,0.7188241774797135,115.30734252929688,-11.760089874267578,54.695335388183594,27493304.0,50354.0,0.16996472643888,-0.17494957505120007,0.12512319244067266,0.01128189021633664,-0.002221575683939022,0.005518199490643,27.493304762989283
1620,B,938284495238108.0,-1.9601746,1.7313538,6.157173262399663,100,1970-01-11 20:38:04.495238108,-1.128067,-0.09335327,-0.022659302,2.6256570499144702,1.1321499165198132,114.72435760498047,-10.546762466430664,54.79295349121094,27543658.0,50354.0,-0.06420642215842001,-0.38995521831460006,0.17429548476867265,0.0026626768268691414,-0.01422260798257075,0.007538464036099688,27.543658767011948
1620,B,938284545592112.0,0.68566895,4.836319,-1.8400496376003366,100,1970-01-11 20:38:04.545592112,0.5020447,-0.08808899,0.22193909,9.173118200078617,0.5559366066624307,115.54967498779297,-10.440790176391602,54.63873291015625,27594012.0,50354.0,-0.032088228750050005,-0.32811490191440007,0.10869222150157265,-0.00242441042592255,-0.018078851417005534,0.007124781480765965,27.594012770918198
1620,B,938284595946116.0,-1.9244385,18.672668,-8.473106337600337,100,1970-01-11 20:38:04.595946116,0.9937134,-0.87117004,-0.41712952,23.65711049610724,1.3857851912863668,115.90833282470703,-10.035353660583496,54.55419921875,27644366.0,50354.0,-0.031188500960349995,0.098416565699,-0.25965432798762733,-0.0015931182239187407,-0.005783115010895129,-0.003800772954999399,27.644366774940863
1620,B,938284646300120.0,10.328506,12.304749,7.1110154623996635,100,1970-01-11 20:38:04.646300120,-1.04776,-0.058563232,-0.22692871,16.1087879121706,1.0736513908921042,115.27224731445312,-10.764166831970215,54.66218185424805,27694720.0,50354.0,0.2115892074475,0.28644922780899995,-0.03429336196492735,0.004541948587226976,0.009689766083150916,-0.007400720989935469,27.69472077896353
1620,B,938284696654124.0,0.41007996,11.325806,5.459297292399663,100,1970-01-11 20:38:04.696654124,0.33509827,-0.61305237,-0.93974304,11.342765336575596,1.171000017142635,114.72342681884766,-10.51276969909668,54.75911331176758,27745074.0,50354.0,0.27036537871492006,0.10147728323499995,0.31648276422758265,0.01213417061581125,0.009766825768554786,0.007104682580766873,27.745074782986194
1620,B,938284747008127.0,-0.6207123,3.526596,15.996330662399663,100,1970-01-11 20:38:04.747008127,0.17385864,-0.30937195,0.30052185,10.689567982437985,0.4650281846048415,111.82621002197266,-10.392502784729004,55.26642990112305,27795428.0,50354.0,-0.00530309042418,-0.11953027484600005,0.5401883450179826,0.006673473232295963,-0.0004545201697901496,0.021568408517475598,27.79542878596112
1620,B,938284797362131.0,0.997345,-1.5143433,6.705619922399663,100,1970-01-11 20:38:04.797362131,-1.3769073,0.019454956,0.4241333,1.9744133523056304,1.4408821132470004,111.39057922363281,-13.253984451293945,55.33642578125,27845782.0,50354.0,0.0094824814879,-0.4428067137721001,0.5715670098734927,0.00010522452881127847,-0.01415795836243791,0.027990664570102675,27.845782789983787
1620,B,938284847716135.0,2.4840088,6.7792053,-2.138908337600336,100,1970-01-11 20:38:04.847716135,0.48303223,-0.33628845,0.25933838,10.823314391866962,0.6431690696568048,112.10429382324219,-13.298075675964355,55.158226013183594,27896136.0,50354.0,0.08765004462260001,-0.360915769426,0.11497609757049267,0.0024455056098840588,-0.020235320959478567,0.017285095816117223,27.896136794006452
1620,B,938284898070139.0,1.9172363,7.892807,1.5556716623996634,100,1970-01-11 20:38:04.898070139,1.261261,-0.59443665,-0.73828125,9.222667104681578,1.5777177964026978,112.34247589111328,-13.222395896911621,55.10481262207031,27946490.0,50354.0,0.1108101478827,-0.12407194632290003,-0.014684149771527334,0.004996632266705939,-0.012210535719410057,0.0025250503697345503,27.946490798029117
1620,B,938284948424143.0,3.1773682,12.907608,11.300361662399663,100,1970-01-11 20:38:04.948424143,0.056518555,0.22523499,0.072280884,14.338879461941376,0.24320705987164432,111.32905578613281,-13.310835838317871,55.346824645996094,27996844.0,50354.0,0.12826685749650002,0.03022284845499999,0.3236763510184727,0.006019241764432119,-0.0023628387370201193,0.007779496650794344,27.996844801935367
1620,B,938284998778147.0,8.606369,13.276489,2.1755753623996634,100,1970-01-11 20:38:04.998778147,0.53907776,0.018600464,0.31030273,16.260015183615007,0.6222849771873702,111.23593139648438,-13.784915924072266,55.37019729614258,28047198.0,50354.0,0.29667915148440005,0.1657678101689999,0.33928366647337266,0.010698865668112121,0.004934456812176445,0.01669134436039219,28.047198805958033
1620,B,938285049132151.0,2.583313,6.0291443,0.48125466239966297,100,1970-01-11 20:38:05.049132151,0.11618042,-0.33242798,0.21281433,8.523580506817042,0.4114561834893306,111.74677276611328,-13.905851364135742,55.23053741455078,28097552.0,50354.0,0.28172262371400003,-0.007411270405900031,0.06689100953437264,0.01456242149417012,0.003986942601615566,0.010226259817847005,28.097552809980698
1620,B,938285099486155.0,-1.7625732,-0.52334595,1.828773662399663,100,1970-01-11 20:38:05.099486155,-0.82876587,0.08639526,-0.12362671,4.489358417001325,0.8423779268551311,113.0144271850586,-13.273496627807617,54.9288330078125,28147906.0,50354.0,0.0206637659446,-0.3548497149420501,0.058159583133472637,0.007613182132434573,-0.00912064482810534,0.0031483987715983414,28.147906814003363
1620,B,938285149840159.0,-0.9018402,1.1577148,4.386055062399663,100,1970-01-11 20:38:05.149840159,-0.3478241,0.051956177,0.2691803,2.1260256263354966,0.4428759225532083,113.66224670410156,-12.436838150024414,54.77790451049805,28198260.0,50354.0,-0.0670819361718,-0.47749769546355003,0.15647074280427264,-0.0011686702718102147,-0.020956010751781794,0.005403747716134613,28.19826081802603
1620,B,938285200194163.0,1.7601624,9.533218,-1.9156723376003368,100,1970-01-11 20:38:05.200194163,0.7664032,-0.2718811,0.42840576,12.467816186912074,0.9191434560005459,114.0997314453125,-12.354178428649902,54.671688079833984,28248614.0,50354.0,0.0216099780294,-0.22430358489440003,0.06219682586227264,-0.0011448474901512048,-0.01766925083557211,0.0055053933763176115,28.24861482193228
1620,B,938285250548166.0,2.8887787,17.485245,-7.799186337600338,100,1970-01-11 20:38:05.250548166,-0.28700256,-0.6886444,0.35983276,22.414602665813188,0.828300183669623,114.4461441040039,-12.241684913635254,54.55695724487305,28298968.0,50354.0,0.11704639007470001,0.186774642951,-0.24459099686552738,0.003490951379756926,-0.0009448661713089828,-0.004592138043348944,28.29896882502362
1620,B,938285300902170.0,6.9026337,12.692825,4.960075462399663,100,1970-01-11 20:38:05.300902170,-0.076309204,-0.035491943,-0.5138092,14.480469358848605,0.5206559964483928,113.99684143066406,-12.633712768554688,54.66173553466797,28349322.0,50354.0,0.24651838999480002,0.26632406838999995,-0.07148029450492738,0.009153470467809803,0.011407666255432356,-0.00795772690283394,28.34932282892987
1620,B,938285351256174.0,-2.1953125,7.7153015,2.9972001623996634,100,1970-01-11 20:38:05.351256174,0.052581787,-0.85202026,-0.45469666,8.538940664709456,0.967187893012385,113.92645263671875,-11.934009552001953,54.648338317871094,28399676.0,50354.0,0.1185162258524,0.020346200890499915,0.20034032840557264,0.009190476523184957,0.007217497369675146,0.003244309073516546,28.399676832952537
1620,B,938285401610178.0,-0.1703949,-0.5523224,1.1656876623996633,100,1970-01-11 20:38:05.401610178,-0.30316162,-0.38360596,0.4445343,4.793642255360403,0.6608110503502768,115.31302642822266,-11.804953575134277,54.33401870727539,28450030.0,50354.0,-0.059561415209799996,-0.31312687519930005,0.10480902676497267,0.0014843052675487403,-0.007371339037072661,0.00768274531512882,28.450030836975202
1620,B,938285451964182.0,1.2107849,3.9729004,5.3916398223996636,100,1970-01-11 20:38:05.451964182,-0.38142395,0.06871033,0.38049316,4.187328833892127,0.543120966166007,114.86941528320312,-11.96145248413086,54.41653823852539,28500384.0,50354.0,0.02619389903,-0.4073493076940001,0.16509383408479267,-0.0008400939548588245,-0.01813942885670462,0.006795344327614542,28.500384840997867
1620,B,938285502318186.0,3.4905548,10.678009,-5.289390337600336,100,1970-01-11 20:38:05.502318186,0.9248047,0.22421265,-0.29597473,15.872993603630949,0.9965621337180565,115.43647766113281,-11.99105453491211,54.32448196411133,28550738.0,50354.0,0.1183656296269,-0.12460325403620005,0.0025743352787926657,0.0036395752529947713,-0.01339296964668125,0.004221381500066988,28.550738845020533
1620,B,938285552672190.0,2.3365936,9.100891,-0.5225903376003371,100,1970-01-11 20:38:05.552672190,0.86875916,0.42523193,-0.532959,11.39512994565955,1.1043595284400958,115.71923065185547,-11.97642707824707,54.304779052734375,28601092.0,50354.0,0.14671011526680003,0.0045041652999999685,-0.14632823745952736,0.006673812029188686,-0.0030237347571113096,-0.0036192919952043575,28.601092848926783
1620,B,938285603026194.0,4.227417,12.103195,8.348503262399664,100,1970-01-11 20:38:05.603026194,0.67826843,-0.09049988,0.0049438477,13.047408943341814,0.684297254886179,114.91881561279297,-12.203076362609863,54.475379943847656,28651446.0,50354.0,0.1652620948762,0.04038607322199997,0.19703300970767265,0.007854524334770312,0.0011302015352683925,0.001276594050891554,28.651446852949448
1620,B,938285653380198.0,6.6997223,11.209015,2.221382262399663,100,1970-01-11 20:38:05.653380198,0.8058319,-0.0572052,0.2601776,13.573514679791085,0.8487224926360855,114.8133544921875,-12.643128395080566,54.49869918823242,28701800.0,50354.0,0.2751125861561,0.09346231116999998,0.26611800785787265,0.011087313344350218,0.003369900773837383,0.011660753169247735,28.701800856972113
1620,B,938285703734202.0,3.0763855,4.5868835,-1.7856978376003365,100,1970-01-11 20:38:05.703734202,0.16056824,0.2023468,0.14260864,9.484121337263602,0.29506543574195065,115.60591888427734,-12.861486434936523,54.33153533935547,28752154.0,50354.0,0.2461330660806,-0.09577586346550002,0.010969226763172645,0.013123401786363398,-5.824830614380445e-05,0.006976225306054058,28.75215486099478
1620,B,938285754088206.0,-1.0841675,-0.37246704,2.3832322623996633,100,1970-01-11 20:38:05.754088206,-1.0572205,0.1262207,0.026138306,3.7220557109914907,1.065049323632145,116.87336730957031,-12.353249549865723,54.04811096191406,28802508.0,50354.0,0.05015807258600001,-0.38736283678658007,0.015044124213172652,0.0074597219982089884,-0.01216398305624662,0.0006549381375314456,28.802508865017444
1620,B,938285804442209.0,-0.07055664,2.4162292,4.328621062399663,100,1970-01-11 20:38:05.804442209,-0.00077819824,-0.08337402,0.3456726,2.8964646568790875,0.35558596596916076,117.04328918457031,-12.028288841247559,54.000953674316406,28852862.0,50354.0,-0.02907248967278,-0.4420134000976801,0.16898433115847267,0.0005308717210061402,-0.020881205516035017,0.004633284420891914,28.85286286799237
1620,B,938285854796213.0,1.3327026,12.313171,-5.078331337600337,100,1970-01-11 20:38:05.854796213,0.38752747,-0.61154175,0.5686035,16.566513680007745,0.9205817683453835,117.44235229492188,-11.86426067352295,53.88311004638672,28903216.0,50354.0,0.03177704883492,-0.12262709116460002,-0.018875455598727373,6.809268602519891e-05,-0.014215953648510428,0.003779291159967707,28.903216872015037
1620,B,938285905150217.0,6.2700653,16.351624,-4.662529337600336,100,1970-01-11 20:38:05.905150217,-0.29710388,-0.48861694,0.2827301,20.463905764371965,0.6379291018695008,117.5665512084961,-12.015945434570312,53.8267707824707,28953570.0,50354.0,0.1914148874183,0.22822434371500003,-0.24524564921952738,0.00561930337904732,0.002658622027461421,-0.0066497770560092,28.953570875921287
1620,B,938285955504221.0,4.4408264,12.994644,3.8004532623996634,100,1970-01-11 20:38:05.955504221,-0.012817383,-0.38737488,-0.60487366,13.89577881799343,0.7183980286190788,117.1310043334961,-12.159276962280273,53.91473388671875,29003924.0,50354.0,0.2696681203309,0.24538178943599995,-0.021704489345327344,0.011608686886101609,0.011923981614342728,-0.006721003638647347,29.003924879943952
1620,B,938286005858225.0,-2.5940094,5.990555,2.337577962399663,100,1970-01-11 20:38:06.005858225,0.7775574,0.04045105,-0.46569824,7.448530128218335,0.9072522518461775,117.25751495361328,-11.369629859924316,53.90926742553711,29054278.0,50354.0,0.046497311608999996,-0.015478844777000088,0.15453721214677266,0.007960097079950863,0.005788266437679639,0.003344329461971989,29.054278883966617
1620,B,938286056212229.0,-1.4980774,-1.6715851,4.5002671623996635,100,1970-01-11 20:38:06.056212229,-0.1797638,0.3616333,0.114151,2.658280995415838,0.4196714408442991,119.69185638427734,-9.826183319091797,53.472877502441406,29104632.0,50354.0,-0.10302646936359999,-0.3847304948277001,0.17215642670707265,-0.0014232346047875642,-0.010076070543227537,0.008225165745423263,29.104632887989283
1620,B,938286106566233.0,0.27220154,0.33894348,2.8689805623996634,100,1970-01-11 20:38:06.106566233,-0.6045227,0.2156372,0.44436646,3.0861443990785156,0.7806463012223024,120.83307647705078,-9.830131530761719,53.27130126953125,29154986.0,50354.0,-0.03086387652722,-0.5270211180667401,0.18553554996727267,-0.0033709572384931752,-0.022955170357843325,0.009005610896729993,29.154986892011948
1620,B,938286156920237.0,-3.8102264,2.0644836,5.7559281523996635,100,1970-01-11 20:38:06.156920237,0.70573425,-1.0180969,-0.48735046,4.336851996920888,1.3311996845984015,120.56832122802734,-8.438333511352539,53.28859329223633,29205340.0,50354.0,-0.08907685190022,-0.43295811640684007,0.21714932671250267,-0.003019747719617657,-0.02416939718634133,0.010138397140166705,29.205340895918198
1620,B,938286207274241.0,1.4185638,9.189819,12.765525962399664,100,1970-01-11 20:38:06.207274241,-0.26397705,-0.17048645,-0.45854187,11.544120636210241,0.5558868222070046,119.22917175292969,-8.505334854125977,53.48822784423828,29255694.0,50354.0,-0.0602148892802,-0.21011962343980006,0.46631465024830265,-0.0037587181676994345,-0.016190768256118857,0.017207572547942196,29.255694899940863
1620,B,938286257628245.0,5.1892548,13.473923,6.434669602399663,100,1970-01-11 20:38:06.257628245,0.18951416,0.36444092,-0.073394775,14.447677589399593,0.4172764000135314,118.53113555908203,-8.850339889526367,53.612449645996094,29306048.0,50354.0,0.1663650488922,0.07713583233399995,0.48340332373495265,0.002672542568551324,-0.0033481329086707296,0.02391104943097642,29.30604890396353
1620,B,938286307982249.0,5.008438,12.490784,1.7763596623996634,100,1970-01-11 20:38:06.307982249,1.4600983,0.23999023,0.26159668,14.082258293843534,1.5026360767482476,118.36426544189453,-9.168135643005371,53.654056549072266,29356402.0,50354.0,0.2567473116256,0.160244228139,0.20672908379985264,0.010652699900756651,0.00597651778252872,0.017375463624503793,29.356402907986194
1620,B,938286358336252.0,2.2595062,6.243149,-0.3213423376003366,100,1970-01-11 20:38:06.358336252,0.20892334,0.2312622,0.16877747,9.115426963113052,0.3544248884110659,118.7765884399414,-9.319530487060547,53.595577239990234,29406756.0,50354.0,0.18298503112340003,-0.02180496885900003,0.03663297118647265,0.011071141193391575,0.00348548523089256,0.006127126458390713,29.40675691096112
1620,B,938286408690256.0,-1.8007355,1.4348145,4.418464762399664,100,1970-01-11 20:38:06.408690256,-1.0461121,0.09379578,-0.046203613,2.7511898119345584,1.0513243780900698,119.05450439453125,-8.2273588180542,53.54985809326172,29457110.0,50354.0,0.011550469913900003,-0.3001611129605,0.10315325128917266,0.004897820309616103,-0.008106140041969552,0.0035193977232693225,29.457110914983787
1620,B,938286459044260.0,-0.17469788,0.081207275,6.529564012399663,100,1970-01-11 20:38:06.459044260,-0.8128967,0.019073486,0.3725586,0.6351317407568626,0.8944074872076163,116.21085357666016,-7.545211315155029,53.92616271972656,29507464.0,50354.0,-0.04973548620826001,-0.4553003197708251,0.27563852046312265,-0.0009613841552431019,-0.019020252491876576,0.009536840437407539,29.507464919006452
1620,B,938286509398264.0,2.7283936,13.014847,-3.267189337600337,100,1970-01-11 20:38:06.509398264,1.1033936,0.6117401,-0.5469208,16.165236007366733,1.375072997313819,116.48408508300781,-7.590785026550293,53.93661117553711,29557818.0,50354.0,0.06429439714244001,-0.16374984151832503,0.08213680718742264,0.00036654970058984984,-0.015585825910776934,0.009007709424257779,29.557818923029117
1620,B,938286559752268.0,8.531448,13.447769,4.873130862399663,100,1970-01-11 20:38:06.559752268,-0.44937134,0.21105957,0.043426514,15.96036238723142,0.49836392869084406,116.0019760131836,-8.207837104797363,54.00830078125,29608172.0,50354.0,0.2834890319632,0.172780083032,0.04043278976987264,0.0087561433945927,0.00022735439058979443,0.0030859347425938235,29.608172926935367
1620,B,938286610106272.0,7.037506,12.170242,4.530433762399664,100,1970-01-11 20:38:06.610106272,-0.20698547,-0.18083191,-0.61383057,14.127430640921823,0.6725556728865603,115.57203674316406,-8.715088844299316,54.075355529785156,29658526.0,50354.0,0.39197955485799996,0.15151546294699994,0.23675354655857264,0.017006272610397354,0.00816478896111328,0.006978720389741268,29.658526930958033
1620,B,938286660460276.0,0.29190063,9.202103,4.576103362399663,100,1970-01-11 20:38:06.660460276,0.034622192,-0.6056061,-0.31314087,9.304928111939128,0.6826526561879415,115.1479263305664,-8.5249662399292,54.11888122558594,29708880.0,50354.0,0.18453247072351,0.04462233006499995,0.22927528519107268,0.014514843268065677,0.004938161214663122,0.01173320789696082,29.708880934980698
1620,B,938286710814280.0,1.2720184,1.3986816,4.840782262399664,100,1970-01-11 20:38:06.710814280,-0.708786,-0.47229004,0.21920776,2.1790984773889592,0.879481391345729,115.37385559082031,-9.183375358581543,54.0531005859375,29759234.0,50354.0,0.039374789418310005,-0.22657324612580007,0.2370889293755727,0.0056373130885906024,-0.004580978213662765,0.011741651830144431,29.759234939003363
1620,B,938286761168284.0,0.97740173,-0.006881714,7.241218662399663,100,1970-01-11 20:38:06.761168284,-0.60279846,0.3005829,0.3957367,1.6399671625647174,0.781232103076718,113.16239166259766,-11.10432243347168,54.44291305541992,29809588.0,50354.0,0.05663365061301,-0.458427854270178,0.3041885372836727,0.002417204494668544,-0.01724627270466954,0.013627742778079821,29.80958894302603
1620,B,938286811522288.0,4.3768005,15.292435,1.8759842623996636,100,1970-01-11 20:38:06.811522288,-0.7623291,0.71139526,-1.1359711,16.413538733058797,1.5419660218994733,112.90943908691406,-11.177618026733398,54.538455963134766,29859942.0,50354.0,0.13480274954471003,-0.10862482491837806,0.22954381803767263,0.004819794246770917,-0.014276685303930278,0.013437779509925512,29.85994294693228
1620,B,938286861876291.0,4.1723175,14.084198,0.7630236623996636,100,1970-01-11 20:38:06.861876291,-1.0454254,1.459198,-0.51400757,15.56959229766699,1.8671842041390734,112.77347564697266,-11.291605949401855,54.630558013916016,29910296.0,50354.0,0.21524114388600002,0.24614628904100003,0.06644230252267266,0.008813055104904988,0.003462377902215253,0.007452042557347814,29.91029695002362
1620,B,938286912230295.0,2.2975159,11.2487335,0.9289780623996631,100,1970-01-11 20:38:06.912230295,1.1315765,0.25209045,-0.106536865,12.520637844798589,1.164201474804718,112.856689453125,-11.273688316345215,54.6387825012207,29960650.0,50354.0,0.16289099551180003,0.1443380163755,0.04259952742527265,0.009520232873618412,0.009831223357471221,0.0027453461525994193,29.96065095392987
1620,B,938286962584299.0,6.277069,11.433228,5.348960962399663,100,1970-01-11 20:38:06.962584299,1.0084534,-0.11784363,0.24887085,13.055702801486586,1.0453717430095668,112.47103881835938,-11.727239608764648,54.71546173095703,30011004.0,50354.0,0.2158823240273,0.07759454468549996,0.15805967082737266,0.009536375866035922,0.005587596089832796,0.005051996634406851,30.011004957952537
1620,B,938287012938303.0,4.2722473,6.9363403,-0.4118117376003365,100,1970-01-11 20:38:07.012938303,0.60598755,0.583313,-0.050582886,10.320461152402558,0.8426349120942542,112.9501953125,-12.067228317260742,54.65017318725586,30061358.0,50354.0,0.26560013648510006,-0.030978578910900015,0.12430260603277266,0.012122283908320697,0.0011736501703071029,0.007109035044507879,30.061358961975202
1620,B,938287063292307.0,-0.53845215,1.565155,4.663978662399663,100,1970-01-11 20:38:07.063292307,-1.3438416,-0.23330688,-0.04573059,2.080429896257171,1.3647100911943322,113.27165222167969,-11.419598579406738,54.561065673828125,30111712.0,50354.0,0.09400576049155002,-0.27942705283190006,0.10705680666567266,0.009053797668181119,-0.007815082590388477,0.005824935933508758,30.111712965997867
1620,B,938287113646311.0,-0.24899292,-0.8492737,6.348381162399663,100,1970-01-11 20:38:07.113646311,-0.8650665,0.28686523,0.38523865,0.9813571034155031,0.9894647679725769,111.2210693359375,-9.366789817810059,54.92798614501953,30162066.0,50354.0,-0.01982550452739,-0.47544545650990006,0.2772581833089726,0.0018676363044096568,-0.0190054251676985,0.009675898502591646,30.162066970020533
1620,B,938287164000315.0,7.526535,17.178116,3.0154496623996634,100,1970-01-11 20:38:07.164000315,1.9251404,0.6840668,-0.22846985,18.978886340212537,2.0557994598047307,111.0428466796875,-9.719243049621582,55.00874328613281,30212420.0,50354.0,0.18322667694816,-0.08235793741290004,0.23575316867597265,0.004113951318037727,-0.014043816048794339,0.012916086808924969,30.212420973926783
1620,B,938287214354319.0,9.379227,11.992325,6.197120762399663,100,1970-01-11 20:38:07.214354319,-1.517273,-0.6292114,0.855072,15.226955026152249,1.8518024915208857,110.53863525390625,-10.441146850585938,55.04011154174805,30262774.0,50354.0,0.425636369874,0.240954993057,0.23194488558517268,0.015329344929841523,0.003992998069951505,0.011775233912132857,30.262774977949448
1620,B,938287264708323.0,8.786316,12.236847,3.256630062399663,100,1970-01-11 20:38:07.264708323,0.22994995,0.24182129,-0.75523376,15.298906101244956,0.8256709683923761,110.37427520751953,-11.008646011352539,55.0969352722168,30313128.0,50354.0,0.45735387611100004,0.11654866344399993,0.23801708451597267,0.02223104542316435,0.009000869559725675,0.011832232521236538,30.313128981972113
1620,B,938287315062327.0,-3.138977,10.391724,6.441230862399664,100,1970-01-11 20:38:07.315062327,0.08602905,-0.6777954,-0.4684906,10.867762663254634,0.8284268489090769,109.83342742919922,-10.327773094177246,55.17469787597656,30363482.0,50354.0,0.14218305400299996,0.07625033206699995,0.24416304450367268,0.015094541289480179,0.004854100309980444,0.012139849108327612,30.36348298599478
1620,B,938287365416331.0,-0.7003784,2.243164,-0.12372573760033667,100,1970-01-11 20:38:07.365416331,-0.29335022,-0.502121,0.28001404,6.488573892539617,0.6454360640777443,110.9285888671875,-10.0134859085083,54.950775146484375,30413836.0,50354.0,-0.0966634509058,-0.17536062482400006,0.15905582652707267,0.0011460470471782035,-0.0024952998407429916,0.010151841515941076,30.413836990017444
1620,B,938287415770334.0,0.7919464,-0.06317139,9.221244962399663,100,1970-01-11 20:38:07.415770334,-0.68084717,0.10734558,0.3824768,3.391261619990646,0.7882667346658649,108.12125396728516,-10.90779972076416,55.45287322998047,30464190.0,50354.0,0.0023054075360000024,-0.4385835260580301,0.22904824152277264,-0.002375652457921455,-0.015457271886756874,0.009771296121290957,30.46419099299237
1620,B,938287466124338.0,6.432846,19.041702,-4.500038337600337,100,1970-01-11 20:38:07.466124338,-0.5969391,0.97875977,-1.2153015,22.641464001582783,1.670707847704533,108.33556365966797,-11.009456634521484,55.47072219848633,30514544.0,50354.0,0.1818985982548,-0.015646734832030038,0.11886581919257262,0.004637704253794972,-0.011436155278429045,0.008759432306630248,30.514544997015037
