Subject-id_accel,Activity_accel,Timestamp_accel,accel_x,accel_y,accel_z,Segment_accel,DateTime,gyro_x,gyro_y,gyro_z,accel_magnitude,gyro_magnitude,Roll,Pitch,Yaw,Time_Difference,Difference_Microseconds,vx,vy,vz,dx,dy,dz,Time_diff
1649,B,1165245998444211.0,6.6753485113567725,21.217836756800267,-0.5291186,249,1970-01-14 11:40:45.998444211,-2.573679,2.0325246,-1.2665994,7.247357199368556,3.5155730521106396,-78.80374908447266,3.041250467300415,175.28353881835938,15039054.0,39376.0,0.3521260821671843,0.3771744593271273,0.06574438843760001,0.013447442683624264,0.007733865185290584,-0.00029630552270426243,15.039054265012965
1649,B,1165246038367335.0,1.8151189113567725,14.906122656800266,-4.796783,249,1970-01-14 11:40:46.038367335,-2.924151,0.10652645,-2.449043,5.536620200275013,3.8157330319611726,-80.29367065429688,2.5756826400756836,175.18931579589844,15078977.0,39923.0,0.16948246545849643,0.32984301583458703,-0.1063129847884,0.010412089023430025,0.01411312933044056,-0.0008098100360564939,15.078977389028296
1649,B,1165246079028169.0,2.7201271113567724,9.039131056800265,3.2082303,249,1970-01-14 11:40:46.079028169,-2.9774141,0.46658584,-3.158509,9.184159703747582,4.365647279848466,-80.170166015625,2.025721549987793,175.15139770507812,15119638.0,40661.0,0.09220381926477772,0.08834118062435557,-0.03229607066735,0.005320213011566525,0.008501893806108534,-0.0028179914019431256,15.119638223201036
1649,B,1165246120265668.0,5.639257511356772,-2.2447409431997336,1.8130093,249,1970-01-14 11:40:46.120265668,-2.3755398,0.6018744,-4.680772,20.341881509785065,5.283471269037374,-80.4010238647461,1.3936357498168945,175.0791473388672,15160875.0,41237.0,0.17235797184341925,-0.2640324674427275,0.1035304286926,0.00545486728996436,-0.003622490797264602,0.0014687456109436171,15.16087572206743
1649,B,1165246157781241.0,-0.9441984886432275,-2.2447409431997336,4.010288,249,1970-01-14 11:40:46.157781241,-0.19281286,1.3028184,-5.9676113,20.075339071634954,6.111210781035753,-80.36443328857422,1.1827319860458374,174.9662628173828,15198391.0,37516.0,0.08806991714806067,-0.45187050122508127,0.1092334107534,0.004885106341702181,-0.013428907886270757,0.003991024100328068,15.198391295038164
1649,B,1165246197720824.0,1.9270479113567724,0.23684905680026347,-1.2300211,249,1970-01-14 11:40:46.197720824,-1.0982877,-4.1268344,-4.3026032,17.230319910362105,6.062127706807643,-80.75568389892578,0.7942005395889282,175.12802124023438,15238330.0,39939.0,0.019627011546878136,-0.4314987970254543,0.05552053985955,0.0021506538175735807,-0.01764044320141407,0.0032900540167653054,15.238330878084525
1649,B,1165246237793117.0,-0.2720263886432276,14.603854556800265,3.6056678,249,1970-01-14 11:40:46.237793117,-1.0567423,-6.96683,-0.08628642,4.618728430817285,7.047046890988147,-79.83715057373047,0.9741479754447937,175.48602294921875,15278403.0,40073.0,0.03316083873984994,-0.09535964204609304,0.04759964510455,0.001057683762270027,-0.01055639911445706,0.0020661675860331897,15.27840317110531
1649,B,1165246277930200.0,-6.615463988643228,21.323780256800266,5.6257753,249,1970-01-14 11:40:46.277930200,0.96086854,-2.3499734,-0.10652645,9.93707503890515,2.5410610414586454,-77.9107666015625,3.113172769546509,175.66860961914062,15318540.0,40137.0,-0.1382216006365732,0.3276711392567422,0.18526121585235,-0.002108411900124391,0.004662143281771912,0.004673168188113547,15.318540254142135
1649,B,1165246317729367.0,-14.208075488643226,28.838581056800265,3.952827,249,1970-01-14 11:40:46.317729367,3.713512,3.42376,0.30040458,19.110478031227082,5.0598959300986595,-76.64718627929688,5.815232753753662,175.59291076660156,15358339.0,39799.0,-0.4143780238282618,0.6081757089599937,0.19060939646885,-0.010996456227037984,0.018622884356088935,0.00747963724988572,15.358339421218261
1649,B,1165246357173898.0,-4.6731674886432275,14.968371756800266,1.9261353,249,1970-01-14 11:40:46.357173898,0.63702816,1.6000272,1.4040185,6.068892281529751,2.2219720668170146,-76.30843353271484,7.063773155212402,175.56637573242188,15397783.0,39444.0,-0.37237587399804345,0.4774095233898297,0.11594489448060001,-0.015516360372930391,0.021409911952403216,0.006045863726105053,15.397783952066675
1649,B,1165246397182023.0,10.652117511356773,-2.2447409431997336,-19.6133,249,1970-01-14 11:40:46.397182023,-0.21624869,-5.4829164,-0.054328486,29.517165752317904,5.48744816191522,-77.44505310058594,6.425386905670166,175.69790649414062,15437792.0,40009.0,0.11960590572937312,-0.1375583273893282,-0.35382288624115005,-0.0050565368302306155,0.006798553250392033,-0.004758630286173923,15.4377920771949
1649,B,1165246437201085.0,2.5627085113567727,23.190659056800264,19.257162,249,1970-01-14 11:40:46.437201085,2.1539648,10.99566,-0.17257284,20.21770855376494,11.205975396204684,-74.52772521972656,6.282616138458252,175.47366333007812,15477811.0,40019.0,0.26442206130148665,0.02693114849408979,-0.007126143310999956,0.007684207606303989,-0.0022135945361042727,-0.007222409606823746,15.477811139076948
1649,B,1165246477874836.0,-10.566495488643227,-2.2447409431997336,-1.1300632,249,1970-01-14 11:40:46.477874836,0.5752428,-1.2378373,3.2639704,22.57660936920321,3.5378875381079156,-74.8909912109375,6.995950222015381,175.53106689453125,15518484.0,40673.0,-0.16276901386358597,0.027371263717237162,0.36864174474620004,0.0020672671992208675,0.0011043210059356505,0.007351962028586946,15.518484890228137
1649,B,1165246516695096.0,-8.199826488643227,13.608465356800265,1.751957,249,1970-01-14 11:40:46.516695096,-1.4966966,1.8833876,0.7850999,9.69017827955243,2.530539748208933,-74.87051391601562,8.269645690917969,175.46282958984375,15557305.0,38821.0,-0.3642636927401187,-0.15987022726980693,0.0120712696049,-0.010229968351531211,-0.0025718711320371554,0.007389829965062028,15.557305150199682
1649,B,1165246556794784.0,-2.5052179886432278,-2.2447409431997336,19.612701,249,1970-01-14 11:40:46.556794784,4.1364217,-0.9353022,5.8951735,27.905558837760395,7.262082709571544,-73.92866516113281,8.5181245803833,175.69137573242188,15597404.000000002,40099.00000000186,-0.21463078924736476,-0.16513320736952386,0.4283507105710199,-0.01160654491660859,-0.006516156362801565,0.008830240491537517,15.597404838073999
1649,B,1165246596973273.0,13.224088511356774,-2.2447409431997336,-19.6133,249,1970-01-14 11:40:46.596973273,2.9955237,0.25033715,2.8570392,30.492686074246983,4.147107897832953,-74.9264907836914,7.975870132446289,175.55328369140625,15637583.0,40178.99999999814,0.21533674936604383,-0.4839456463567997,-1.2033610499950699e-05,1.418238580420256e-05,-0.013039669631934373,0.008605109850797968,15.637583327014
1649,B,1165246637137752.0,4.645664011356772,0.694142056800267,-9.156625,249,1970-01-14 11:40:46.637137752,0.73822826,-1.788579,3.1776838,19.457454129521008,3.7204395084298936,-75.85089111328125,7.667813301086426,175.5487823486328,15677747.0,40164.0,0.3588603701611334,-0.4247463268366741,-0.57775763385,0.011531026554344773,-0.01824835220567134,-0.01160277046194176,15.67774780606851
1649,B,1165246677533429.0,0.04879667135677246,14.670892056800266,-14.247894,249,1970-01-14 11:40:46.677533429,0.49215218,3.5633097,1.5638082,14.509952976944593,3.9223571832228745,-78.73626708984375,7.896127700805664,175.00245666503906,15718143.0,40396.0,0.09481871686944818,-0.08553784097349647,-0.472724474762,0.009163410199843687,-0.010306719621429827,-0.021217637629745177,15.718143483158201
1649,B,1165246716955617.0,11.944986511356774,18.626113456800265,-0.5943606,249,1970-01-14 11:40:46.716955617,-1.9494339,-0.52411014,0.040480047,11.47205680764682,2.01906478438042,-78.9178466796875,5.030154228210449,175.02125549316406,15757565.0,39422.0,0.2364094603144667,0.26998167567858006,-0.2925556804206,0.0065288386004721454,0.003635572425871902,-0.01508443713880423,15.757565671112388
1649,B,1165246756896242.0,8.208834511356773,17.593614016800267,-7.131728,249,1970-01-14 11:40:46.756896242,-1.7608821,1.2783173,-1.1728562,10.462032623439129,2.4719208230560583,-80.96297454833984,2.8832249641418457,174.8140869140625,15797506.0,39941.0,0.40248188273410085,0.3319042675115394,-0.15429385238629997,0.012758979566351417,0.01201996322847828,-0.008923808594920195,15.79750629607588
1649,B,1165246796764158.0,-0.1104177886432276,11.152613056800266,-7.221511,249,1970-01-14 11:40:46.796764158,-3.396063,0.8277105,-2.6759443,9.551670333043864,4.402161567739391,-82.35318756103516,2.8184022903442383,174.69168090820312,15837374.0,39868.0,0.16143383895057184,0.182320890485153,-0.286117466226,0.011241095996062265,0.010250564299506064,-0.008779159225217588,15.837374212220311
1649,B,1165246836689211.0,1.2333279113567723,2.728016056800266,6.0926447,249,1970-01-14 11:40:46.836689211,-4.2269692,-1.0279802,-3.0487869,15.872065868943041,5.312166551507237,-82.1935806274414,2.5315144062042236,174.74014282226562,15877299.0,39925.0,0.022416093324669137,-0.11417294131974941,-0.02253499351374999,0.0036701042730444985,0.001360403435214369,-0.00616147472755476,15.877299265004694
1649,B,1165246876584054.0,2.833851811356772,-2.2447409431997336,-2.1152773,249,1970-01-14 11:40:46.876584054,-2.8293424,-1.3773869,-5.289038,19.857930879576465,6.154372108848584,-82.67726135253906,2.035216808319092,174.7593994140625,15917194.0,39895.0,0.08113006751882842,-0.38133086967145335,0.07933853621150001,0.0020654870434256675,-0.009884062269747017,0.0011330886679633686,15.917194108013064
1649,B,1165246916104470.0,-3.0702494886432277,-2.2447409431997336,-0.5129577,249,1970-01-14 11:40:46.916104470,-0.922519,0.9310411,-5.2581453,19.9525862211039,5.419037814147665,-82.94230651855469,1.9910314083099365,174.67208862304688,15956714.0,39520.0,-0.004671218103180361,-0.4760081620752535,-0.051933923599999994,0.0015108268644532057,-0.01694101926731493,0.0005415151452032404,15.95671452418901
1649,B,1165246956517231.0,1.3997249713567723,12.045051756800266,-0.83138657,249,1970-01-14 11:40:46.956517231,-1.144094,-3.755057,-2.2700787,5.453454670419208,4.534607089735415,-83.38279724121094,1.5875908136367798,174.83261108398438,15997127.0,40413.0,-0.033755453658548755,-0.19801741954498087,-0.027164492491755,-0.0007764685429533794,-0.013619697915009263,-0.0015983021447580474,15.99712728522718
1649,B,1165246995935408.0,-1.0692954886432275,18.867927856800264,3.86484,249,1970-01-14 11:40:46.995935408,-0.82877576,-5.993178,0.69029135,4.453287379410119,6.08946253358475,-80.76256561279297,2.6707522869110107,175.23265075683594,16036545.0,39418.0,0.006512434674801254,0.22296751520445282,0.05978633365187,-0.0005369326611506795,0.0004917414353525327,0.0006429438674247066,16.03654546220787
1649,B,1165247036431554.0,-6.7405607886432275,24.031622556800265,3.281852,249,1970-01-14 11:40:47.036431554,2.5577,0.46871635,0.31318775,10.412953502702118,2.6190858850956733,-79.2140121459961,5.178382396697998,175.31210327148438,16077041.000000002,40496.00000000186,-0.15813396990250342,0.4717692967746051,0.14470621961600666,-0.0030700328452906546,0.014067030968952612,0.004140565218568157,16.077041608048603
1649,B,1165247075599314.0,-7.870025488643228,22.701044756800265,1.785476,249,1970-01-14 11:40:47.075599314,2.549178,2.2200112,1.0365024,10.131515261567763,3.535688819595865,-78.23802947998047,7.984696388244629,175.31356811523438,16116209.000000002,39168.0,-0.28613372165437795,0.5313661566695528,0.099238551552,-0.008700538471449965,0.01964540472025039,0.004777414398554242,16.11620936822146
1649,B,1165247115945668.0,-4.227247488643227,6.880758056800266,5.031415,249,1970-01-14 11:40:47.115945668,1.067395,-0.058589544,1.1504856,12.577898576199841,1.5704718833836182,-77.8615951538086,8.401187896728516,175.374267578125,16156555.0,40345.99999999814,-0.2440382877707884,0.20136290815875416,0.13751714214299365,-0.010695159946133386,0.014781343424780755,0.004776072608908887,16.15655572200194
1649,B,1165247155995148.0,10.664088011356773,1.3717000568002646,-19.6133,249,1970-01-14 11:40:47.155995148,0.3110572,-2.4564998,-1.3592775,27.25294207992842,2.8246739937695695,-79.02642059326172,7.694398880004883,175.3135528564453,16196605.000000002,40050.00000000186,0.12889773146734473,-0.22723452627515997,-0.29200224712501355,-0.0023056896399765666,-0.0005180791527810506,-0.003093564227265092,16.19660520204343
1649,B,1165247195810929.0,-2.4579324886432277,16.395316056800265,12.741343,249,1970-01-14 11:40:47.195810929,0.84581995,7.3449984,0.8127968,13.129441935501564,7.438081172043688,-77.6751708984375,8.082822799682617,175.14373779296875,16236419.999999998,39814.999999996275,0.1633640410684046,-0.03649012671849407,-0.13680348397748718,0.005818201236754887,-0.005250098529470677,-0.008536450091922235,16.236420983215794
1649,B,1165247235399887.0,-10.588641488643226,-0.19051494319973372,-0.83497787,249,1970-01-14 11:40:47.235399887,-0.2759035,1.5425029,0.1470065,20.814806652364123,1.573864304463034,-78.017578125,8.701261520385742,175.0226593017578,16276008.999999998,39589.0,-0.2582504085933967,-0.06720626435683431,0.23568054456578502,-0.0018782282019734562,-0.0020526182131405876,0.0019572219758150614,16.276009941007942
1649,B,1165247275596189.0,-9.144339488643228,11.323200056800264,12.417527,249,1970-01-14 11:40:47.275596189,2.5566347,5.1580105,3.218164,16.87804145805508,6.595303847303044,-76.98746490478516,9.617697715759277,174.95095825195312,16316206.000000002,40197.000000003725,-0.3966033181720285,-0.17018032824431553,0.23279186368932656,-0.013161577627396117,-0.0047711144313946525,0.009415592697316233,16.316206243121997
1649,B,1165247315484939.0,1.6056263113567724,-2.2447409431997336,19.612701,249,1970-01-14 11:40:47.315484939,0.96299905,-7.8925443,4.5444183,27.756765138286923,9.158130834571992,-76.09727478027344,9.489704132080078,175.5201873779297,16356093.999999998,39887.999999996275,-0.150352095607787,-0.20984161143833144,0.6388108672319404,-0.01090847877242362,-0.007579157565030003,0.017383244865492125,16.356094993185252
1649,B,1165247355382335.0,10.870588511356774,-2.2447409431997336,0.6572084,249,1970-01-14 11:40:47.355382335,4.402738,10.225473,2.646117,22.169166059994375,11.443178542173586,-76.21881866455078,8.878727912902832,175.00634765625,16395992.0,39898.00000000186,0.24888800949832415,-0.48056107415180543,0.40436442262061895,0.0019656929462024174,-0.013772843174838283,0.020810303857269678,16.39599238918163
1649,B,1165247395461189.0,6.650209211356772,2.5322900568002655,-6.023213,249,1970-01-14 11:40:47.395461189,-0.551807,-4.9918294,3.2447956,17.13225881558436,5.979260005195687,-76.99681854248047,8.307243347167969,175.1720428466797,16436070.999999998,40078.99999999814,0.3511080259643018,-0.38701185953798417,-0.10753204918169501,0.012023620552652733,-0.01738572780467573,0.00594837234752904,16.43607124313712
1649,B,1165247434885929.0,2.0593275113567726,18.096396356800266,-5.094861,249,1970-01-14 11:40:47.434885929,-0.3355583,4.153466,0.71479243,5.361217012280075,4.2278608543612455,-79.84209442138672,7.669890403747559,174.58668518066406,16475494.999999998,39424.0,0.1716823878781294,0.020277466584893652,-0.219159474688,0.010305244637662005,-0.007229068353891321,-0.006439743318519428,16.475495983147994
1649,B,1165247475151241.0,11.408086511356773,18.773955356800265,-7.40347,249,1970-01-14 11:40:47.475151241,-2.0112193,0.9054748,-0.25353295,13.210614462372206,2.220172660597196,-81.56018829345703,5.2903361320495605,174.35977172851562,16515761.000000002,40266.000000003725,0.2711394465193169,0.3477039910499516,-0.2516288980230233,0.00891533199192461,0.007408570686563024,-0.009478382307791909,16.515761295100674
1649,B,1165247514987023.0,0.4623949973567724,14.098678056800265,-6.623559,249,1970-01-14 11:40:47.514987023,-2.6557043,0.5550028,-2.2019017,7.387334621975439,3.494161492190826,-83.06586456298828,5.161232948303223,174.1914520263672,16555596.999999998,39835.999999996275,0.2364362506905343,0.2643643123320706,-0.2793903636219739,0.01010989273702487,0.01219117646676198,-0.010576841653444065,16.55559707712382
1649,B,1165247554716085.0,0.7137861713567725,10.476849056800265,-2.083554,249,1970-01-14 11:40:47.554716085,-3.0956585,1.015197,-2.4735441,7.201476876451743,4.09049470260946,-83.80535125732422,4.894986152648926,174.07550048828125,16595326.0,39729.00000000186,0.023364250825911304,0.09883635834812235,-0.1729624461885081,0.0051608070623736756,0.00721479972272703,-0.00898576239048074,16.595326139125973
1649,B,1165247594807752.0,4.534333511356772,-2.2447409431997336,0.108337626,249,1970-01-14 11:40:47.594807752,-3.6165729,0.112918034,-3.995807,20.01269511111805,5.390623674925364,-84.13243865966797,4.294113636016846,174.03765869140625,16635417.0,40091.0,0.10520118309983435,-0.22787507680882058,-0.039594199825017,0.002577158405758535,-0.0025866456309039266,-0.0042608042476641175,16.635417806217447
1649,B,1165247634679054.0,-0.5294030886432275,-2.2447409431997336,0.8984242,249,1970-01-14 11:40:47.634679054,-1.695901,-0.04474111,-5.812083,19.66393148626681,6.0546173097574085,-84.30038452148438,3.9767963886260986,174.00450134277344,16675289.0,39872.0,0.07984229290721723,-0.48024791088725977,0.020070803763135997,0.0036890267376765797,-0.014117139882709058,-0.0003892184238896597,16.675289108185098
1649,B,1165247674640616.0,-1.2877664886432276,-2.2447409431997336,-3.3279405,249,1970-01-14 11:40:47.674640616,-1.6543556,-2.509763,-5.051484,19.979038299205023,5.878204944511238,-84.75421905517578,3.749889850616455,174.07919311523438,16715250.000000002,39961.00000000186,-0.03630795673897371,-0.481319892831227,-0.04854295043215226,0.0008698378038096301,-0.01921260550219812,-0.000568887726520306,16.71525067021139
1649,B,1165247714526918.0,1.1118222113567724,16.366585656800265,0.6931214,249,1970-01-14 11:40:47.714526918,-1.0141318,-4.37078,-0.84581995,1.338495262395355,4.565916392575454,-84.15078735351562,3.020338296890259,174.33145141601562,16755136.0,39885.99999999814,-0.0035088567219236128,-0.10925085087665953,-0.052546197311297546,-0.0007940667108506383,-0.011777752341765832,-0.0020160208734475256,16.755136972060427
1649,B,1165247754944627.0,-2.0796486886432275,17.710331356800264,5.4025164,249,1970-01-14 11:40:47.754944627,-0.5571333,-4.435761,0.8426242,6.021535121509339,4.549328379608966,-82.87625122070312,3.660132646560669,174.6317901611328,16795554.0,40418.0,-0.01955880527948197,0.2925640159278531,0.1231867443002,-0.00046617438138640545,0.003704575752519571,0.0014275748140987299,16.795554681215435
1649,B,1165247794393168.0,-10.510830488643228,25.971524056800263,5.144541,249,1970-01-14 11:40:47.794393168,2.8378644,2.2871227,-0.05752428,14.932738421600071,3.6452316305595955,-81.38660430908203,6.197669982910156,174.6371612548828,16835003.0,39449.0,-0.24834090653238666,0.47500255710556355,0.20803543368629998,-0.005284187865633202,0.015139866869797626,0.006533191849694719,16.835003222106025
1649,B,1165247834080304.0,-5.963043888643228,19.738818856800265,0.17956513,249,1970-01-14 11:40:47.834080304,1.3422332,1.8855181,0.94275904,6.940368078247618,2.499112457676039,-81.10225677490234,9.113770484924316,174.58216857910156,16874690.0,39687.0,-0.3268993262056838,0.5181205896060321,0.105648899990655,-0.011414779558337902,0.01970703916177155,0.006224595075318656,16.874690358061343
1649,B,1165247874081762.0,0.5455935033567725,1.9445130568002646,-6.964134,249,1970-01-14 11:40:47.874081762,1.1100056,-1.7651432,0.86392945,16.923371433762973,2.2570372267897807,-81.8257827758789,8.953757286071777,174.55245971679688,16914691.0,40001.0,-0.10835171643092176,0.04166767993796736,-0.135694769684435,-0.008705238478253429,0.011196045285014763,-0.0006009324168104468,16.914691816084087
1649,B,1165247913769627.0,7.403784011356772,15.992491656800265,3.311181,249,1970-01-14 11:40:47.913769627,3.8051245,8.697885,-2.2082932,7.728402328184267,9.74724241982785,-81.12448120117188,7.602304935455322,174.18309020996094,16954379.0,39688.0,0.15774744740197558,-0.03300047846331112,-0.072489199332,0.000980208885389592,0.00017199194606307852,-0.004131202681162136,16.95437968103215
1649,B,1165247953641033.0,-9.932031488643227,3.4384950568002655,-5.973533,249,1970-01-14 11:40:47.953641033,-0.3920173,2.602441,2.030394,18.43261793097771,3.3239850356486698,-81.79238891601562,8.397465705871582,173.98080444335938,16994251.0,39872.0,-0.05040314170718277,-0.003369448877659851,-0.05307664947199999,0.0021400160783313893,-0.0007250708714695972,-0.0025032807617565433,16.9942510870751
1649,B,1165247993674835.0,-10.879536488643227,4.134010056800266,-0.7182605,249,1970-01-14 11:40:47.993674835,-0.7222493,0.850081,1.8322549,17.506469223217522,2.1450966823165567,-82.04861450195312,9.264518737792969,173.91806030273438,17034284.0,40033.0,-0.4165747504173543,-0.240748351393615,-0.13394628459275,-0.009347262977710796,-0.004886383949129973,-0.003743544559707068,17.034284888999537
1649,B,1165248033499054.0,-7.219999488643228,7.538566056800265,19.612701,249,1970-01-14 11:40:48.033499054,5.393434,1.0823087,5.1271176,23.276110170506286,7.519830936841696,-80.65347290039062,9.872892379760742,174.08868408203125,17074109.0,39825.0,-0.36040701014771653,-0.15785482813792945,0.37623554645625,-0.015471649307251973,-0.00793718581242188,0.004824584926856944,17.07410910818726
1649,B,1165248073395981.0,7.688095811356773,-2.2447409431997336,14.095862,249,1970-01-14 11:40:48.073395981,0.9374327,-7.3684344,3.8019288,25.183711780302037,8.344295546923185,-79.92156982421875,9.38683795928955,174.59164428710938,17114006.0,39897.0,0.00933781949365115,-0.2853867297213398,0.6724352690055,-0.007003303749762624,-0.008842004216955633,0.020919409762238723,17.114006035029888
1649,B,1165248113813897.0,6.7573495113567725,-2.2447409431997336,-19.6133,249,1970-01-14 11:40:48.113813897,5.6490974,3.9776974,3.367301,28.421829776181283,7.685902293501688,-80.82727813720703,9.145843505859375,174.23561096191406,17154423.0,40417.0,0.29192078180405673,-0.48681229470130366,-0.11149914582299997,0.00608798444432473,-0.015604983985044993,0.011335677645333553,17.15442395117134
1649,B,1165248153146033.0,1.2764236113567724,9.920197656800266,-16.685192,249,1970-01-14 11:40:48.153146033,0.37603834,-1.019458,1.8120148,18.28634676548399,2.1128409978824707,-82.1989517211914,9.111281394958496,174.0789337158203,17193756.0,39333.0,0.15799619911784593,-0.23451403054197517,-0.7138642929179999,0.0088482923053006,-0.014185964175396944,-0.016232010067999875,17.19375608721748
1649,B,1165248193259418.0,10.571312511356773,16.755643416800265,1.0121487,249,1970-01-14 11:40:48.193259418,-2.0602214,0.37603834,0.51665324,10.083415075269503,2.157046040438269,-82.04002380371094,6.287200450897217,174.1016082763672,17233869.0,40113.0,0.23762411954520424,0.14191660649266902,-0.31434639294645,0.007934758921265465,-0.001857180235444909,-0.020622307621040344,17.233869472052902
1649,B,1165248232998377.0,6.1857340113567725,20.880852856800267,0.013766659,249,1970-01-14 11:40:48.232998377,-2.336125,0.43782368,-0.7233146,6.634205994627293,2.484422186538935,-81.8850326538086,3.4033217430114746,174.10098266601562,17273608.0,39739.0,0.3329541358830567,0.3583761627083057,0.0203844252256505,0.01133710464623183,0.009940567177638766,-0.005840877317628426,17.273608431220055
1649,B,1165248273286189.0,0.06914736135677241,12.230602456800266,-5.577293,249,1970-01-14 11:40:48.273286189,-2.7387948,1.71188,-2.49698,7.5989042988938005,4.082455047065067,-83.20743560791016,3.3336217403411865,173.92921447753906,17313896.0,40288.0,0.12599833037194164,0.2721747558371691,-0.112071674613104,0.009245138480240686,0.012701817703180043,-0.0018469479516608632,17.313896243227646
1649,B,1165248312472700.0,2.8829329113567725,8.518991056800266,5.0332108,249,1970-01-14 11:40:48.312472700,-3.862649,0.21837921,-2.376605,10.44295949142671,4.54048434669543,-82.85926055908203,2.8236515522003174,173.93429565429688,17353082.0,39186.0,0.057840108783276487,0.02252398571197519,-0.010660202544600001,0.003601946538368189,0.0057740324431723835,-0.002404685669150894,17.35308275418356
1649,B,1165248352381658.0,7.038668511356772,-2.2447409431997336,2.0727801,249,1970-01-14 11:40:48.352381658,-3.1521175,0.22903186,-4.334561,20.76012194790223,5.364393664657946,-83.0447998046875,2.09631609916687,173.89584350585938,17392991.0,39909.0,0.19798059558953743,-0.2659086761081582,0.14179649541405,0.005104774245407315,-0.004856619804510634,0.00261675915606344,17.39299171208404
1649,B,1165248392458429.0,-2.5028237886432274,-2.2447409431997336,3.317765,249,1970-01-14 11:40:48.392458429,-0.9619338,0.10439592,-6.115683,20.125980175683416,6.19175207030967,-83.02899932861328,1.9593545198440552,173.85598754882812,17433068.0,40077.0,0.09089152447609537,-0.48271708278061576,0.10801843798635001,0.0057885639779351825,-0.015001337269492697,0.0050059165429439155,17.433068483136594
1649,B,1165248432299314.0,1.8103305113567725,-1.112881943199735,-2.486977,249,1970-01-14 11:40:48.432299314,-0.93423694,-2.9230857,-4.240818,18.69005453940052,5.2346696150501275,-83.43323516845703,1.5882916450500488,173.96434020996094,17472909.0,39841.0,-0.013794812330184826,-0.45732732670852067,0.016549712354,0.0015358050543026111,-0.018726154659228344,0.0024814598388549426,17.472909368108958
1649,B,1165248472645356.0,0.5617543643567724,16.267226256800264,4.1299977,249,1970-01-14 11:40:48.472645356,-0.7595336,-5.4168696,-0.083090626,4.274322460136728,5.470490983911974,-82.1307373046875,1.5337716341018677,174.2693634033203,17513255.0,40346.0,0.04785206819776934,-0.08968221216173657,0.033144656581099996,0.0006870370226167824,-0.0110348234276297,0.0010024845045277723,17.513255410129204
1649,B,1165248512230095.0,-4.742000788643228,19.698715856800266,6.427833,249,1970-01-14 11:40:48.512230095,0.5997439,-2.1134846,0.06391586,8.650552592605823,2.1978614918105985,-79.85420989990234,3.3052804470062256,174.46975708007812,17552840.0,39585.0,-0.08273752735268967,0.3239229092834385,0.20896586412975002,-0.0006904704503237607,0.004636208997781286,0.0047919724811694995,17.55284014903009
1649,B,1165248551982804.0,-12.025760488643227,29.120498056800265,4.7285485,249,1970-01-14 11:40:48.551982804,3.3364084,2.6929886,-0.5251754,17.855175978751884,4.319677975507628,-78.39009857177734,5.854983806610107,174.44015502929688,17592592.0,39752.0,-0.33327602314734556,0.5807610957467242,0.22174423869399998,-0.008268685329738701,0.017981499283979515,0.008560794003724856,17.592592858010903
1649,B,1165248591872283.0,-4.841958788643228,16.302540756800266,2.0171149,249,1970-01-14 11:40:48.591872283,1.1206582,0.41758367,1.2857742,5.861740304975972,1.7559801297462194,-77.9011001586914,7.198332786560059,174.4825439453125,17632482.0,39890.0,-0.33642666098547835,0.5150405091372626,0.134542256513,-0.013357220035029175,0.021855763009411115,0.007106134146903614,17.632482337066904
1649,B,1165248631759314.0,7.735979811356772,-0.9853909431997359,-13.080721,249,1970-01-14 11:40:48.631759314,-0.025566347,-4.0053945,0.71479243,23.653802838055768,4.068754963955741,-78.89198303222656,6.64536714553833,174.56500244140625,17672369.0,39887.0,0.05771690826648757,-0.08541502269245786,-0.22064702825535001,-0.0055584479533511925,0.008568235888911964,-0.0017172305152435574,17.672369368141517
1649,B,1165248671673481.0,2.7039665113567724,20.047072056800264,12.153566,249,1970-01-14 11:40:48.671673481,4.016047,12.370916,-1.2623384,12.628960367074125,13.06758181230864,-75.9201431274414,6.23394250869751,174.26019287109375,17712283.0,39914.0,0.2083500087623942,-0.010743230015874287,-0.018503232335000015,0.005309897463145394,-0.0019190302493001844,-0.004772721750601615,17.712283535161987
1649,B,1165248711415148.0,-11.897670988643227,-2.2447409431997336,3.221997,249,1970-01-14 11:40:48.711415148,0.23222765,-3.2373388,2.1742048,23.45625061510192,3.906591698623367,-75.98860931396484,6.924857139587402,174.43345642089844,17752025.0,39742.0,-0.18268810166815916,-0.03572147844164389,0.305527812373,0.0005099277558695447,-0.0009233002217593437,0.0057034654299350975,17.752025202149525
1649,B,1165248751483012.0,-15.214239488643226,13.993333256800266,7.0712748,249,1970-01-14 11:40:48.751483012,-0.10865697,3.1851406,1.3912354,17.610930637320582,3.477421877930704,-75.51577758789062,8.255695343017578,174.35989379882812,17792093.0,40068.0,-0.5431600145019568,-0.15729510158932697,0.2062154072412,-0.014541641159352104,-0.00386689416434047,0.010252263661750883,17.792093066032976
1649,B,1165248791665981.0,-8.121416488643227,-2.2447409431997336,18.362928,249,1970-01-14 11:40:48.791665981,4.5923553,-0.479369,4.5444183,28.2347901147068,6.478522943154094,-74.61332702636719,8.732242584228516,174.53944396972656,17832276.0,40183.0,-0.4688483320676508,-0.15774655753129493,0.5110112855562001,-0.020332765695103276,-0.006329659494221975,0.014410160098338965,17.83227603510022
1649,B,1165248832113689.0,12.876331511356772,-2.2447409431997336,-19.6133,249,1970-01-14 11:40:48.832113689,2.1358552,-6.428871,3.96811,30.34987799284025,7.8509971813845425,-75.60250091552734,8.167069435119629,174.73622131347656,17872723.0,40447.0,0.09616102396184738,-0.48717363692959964,-0.025286898141999973,-0.0075370417754777146,-0.0130425435526799,0.009823047148871077,17.87272374308668
1649,B,1165248871516970.0,11.446992511356774,0.41282305680026354,-11.406575,249,1970-01-14 11:40:48.871516970,2.308428,1.417867,3.2969935,23.155702941165597,4.267241825806835,-76.4434585571289,7.557039737701416,174.577392578125,17912127.0,39404.0,0.4792181298955023,-0.4222516461978424,-0.61115357725,0.011336120089297503,-0.017917496928176863,-0.012539150246173185,17.91212702402845
1649,B,1165248911441502.0,1.8294841113567724,12.923125056800266,-11.793239,249,1970-01-14 11:40:48.911441502,0.32277513,1.2857742,1.6330504,12.667286569283146,2.103390759433995,-77.85936737060547,7.4829301834106445,174.34698486328125,17952051.0,39924.0,0.2650250263426078,-0.12504300375630625,-0.463114687068,0.014856581884825151,-0.010925095802384717,-0.021444543092315915,17.952051556203514
1649,B,1165248951430616.0,11.043569511356774,16.601815956800266,-3.1429882,249,1970-01-14 11:40:48.951430616,-2.0378509,-0.4857606,-0.010652645,10.973721823828134,2.0949733005431517,-78.81090545654297,4.741514682769775,174.28233337402344,17992040.0,39989.0,0.25739027065934594,0.1984442330964358,-0.29864239475039994,0.010445432655905564,0.0014676208800412202,-0.015230951972417996,17.992040670011193
1649,B,1165248991337752.0,6.510148511356772,17.622942976800264,-2.7874494,249,1970-01-14 11:40:48.991337752,-2.1134846,0.62317973,-1.2687299,6.577829551863663,2.542606082245939,-80.11126708984375,2.0796141624450684,174.17095947265625,18031947.0,39907.0,0.35025811256621475,0.29181512738159815,-0.11833298665159998,0.012124712014691225,0.00978239014929845,-0.008320118272804804,18.031947806011885
1649,B,1165249031018064.0,-0.9447969886432275,12.063008056800264,-0.9247604,249,1970-01-14 11:40:49.031018064,-3.0519826,1.587244,-2.702576,5.591166540865279,4.374683799089342,-80.73494720458984,2.296992301940918,174.0513458251953,18071628.0,39681.0,0.11041935688639809,0.20011031148215125,-0.07365209853690001,0.009140071332674565,0.00976004666977622,-0.003809080082682434,18.0716281181667
1649,B,1165249070661085.0,3.6993555113567727,1.5177470568002658,8.896255,249,1970-01-14 11:40:49.070661085,-4.5827675,-0.69135666,-3.0466564,18.446204074878114,5.546336377289387,-80.47982788085938,1.844103217124939,174.079345703125,18111271.0,39643.0,0.054599481757966535,-0.11931046251576712,0.15800698021389997,0.003270920910189273,0.001601574206287183,0.0016720402871606547,18.111271139001474
1649,B,1165249111068272.0,0.43725587135677246,-2.2447409431997336,-5.218761,249,1970-01-14 11:40:49.111068272,-2.7142937,-0.680704,-5.7811904,20.296095127732812,6.422842880417351,-81.20832061767578,1.5197136402130127,174.04808044433594,18151678.0,40407.0,0.0835740280706531,-0.4106764209838717,0.07429825002900001,0.002791588505822517,-0.010707590000784953,0.00469337871921243,18.151678326074034
1649,B,1165249150771241.0,-2.3729384886432277,-2.2447409431997336,1.9255368,249,1970-01-14 11:40:49.150771241,-1.3848438,0.57311225,-5.0408316,19.924283592921558,5.258919396706615,-81.3580322265625,1.4480112791061401,173.97923278808594,18191381.0,39703.0,-0.03842620347706207,-0.4782123496678591,-0.0653754402063,0.0008962520399196724,-0.017645775430592835,0.00017713115919532925,18.191381295211613
1649,B,1165249190887543.0,3.2821660113567726,11.138846056800265,-1.3281834,249,1970-01-14 11:40:49.190887543,-0.57098174,-3.3811493,-2.4724789,6.927975789522277,4.227451081591498,-81.84883117675781,0.7067174911499023,174.11924743652344,18231497.0,40116.0,0.018237285650588284,-0.21473883963140056,0.011981714497200001,-0.0004049493137634112,-0.01389921495496455,-0.0010709713502731278,18.23149759718217
1649,B,1165249230624106.0,-0.8005463886432276,18.650055456800267,2.2224178,249,1970-01-14 11:40:49.230624106,-0.7137272,-5.824866,0.53795856,2.902729597752538,5.893035707193119,-79.39302062988281,2.112675905227661,174.47219848632812,18271234.0,39737.0,0.04930605947388407,0.20243818972297214,0.017767096176400005,0.0013419849526055791,-0.00024439546270560995,0.0005910642448684217,18.271234160056338
1649,B,1165249270502804.0,-8.399144488643227,27.221297056800267,5.221754,249,1970-01-14 11:40:49.270502804,2.5875273,0.588026,-0.31638354,14.30265000074605,2.6722968864451087,-77.5434799194336,4.393917560577393,174.54063415527344,18311112.0,39878.0,-0.18343263640221458,0.5238244977686809,0.1484293415202,-0.002674349817373982,0.014480951725896068,0.003313790771232507,18.311112858122215
1649,B,1165249310610981.0,-8.817530488643227,20.955671756800264,0.0077811554,249,1970-01-14 11:40:49.310610981,1.7555559,1.6266588,0.88843054,10.037920318866137,2.5529011328382736,-77.22888946533203,7.309704780578613,174.49636840820312,18351221.0,40109.0,-0.3452718083319911,0.5730968210723517,0.10487571277396929,-0.010602903286922129,0.021998208588697492,0.005079906211342418,18.3512210350018
1649,B,1165249350493585.0,-2.6698193886432273,6.704187056800265,0.2885013,249,1970-01-14 11:40:49.350493585,1.0354371,-0.60293967,0.51984906,11.14576466611712,1.3061046201966373,-77.44168090820312,7.56868314743042,174.49708557128906,18391103.0,39882.0,-0.2290692439029692,0.16072164460200813,0.005908168443131401,-0.011452934922617345,0.01463307402401241,0.002209141375350205,18.391103639034554
1649,B,1165249390241866.0,9.966178511356773,10.510368556800266,-2.581548,249,1970-01-14 11:40:49.390241866,2.4181504,5.5894427,-2.2722092,11.925652368385986,6.500173513235481,-77.84168243408203,6.300112247467041,174.13796997070312,18430851.0,39748.0,0.145007841204809,-0.04740832173530307,-0.0455720101158,-0.0016706363172232358,0.0022519889786528965,-0.0007882791894026157,18.430851920042187
1649,B,1165249430140148.0,-4.7850964886432275,18.210719516800264,8.057686,249,1970-01-14 11:40:49.430140148,0.44101948,7.3769565,0.71479243,9.704615627416905,7.424615384154053,-76.66328430175781,7.184566974639893,173.92300415039062,18470750.0,39899.0,0.10335999581212388,0.18196114652429374,0.109246215031,0.004954814164569302,0.002684261578127969,0.0012702685509557825,18.470750202191994
1649,B,1165249469846450.0,-6.859672488643228,-2.2447409431997336,-3.120842,249,1970-01-14 11:40:49.469846450,1.4444987,-3.2799492,2.5704832,21.199919726101157,4.410445230400732,-77.08183288574219,7.61428165435791,174.0478057861328,18510456.0,39706.0,-0.23118359850606798,-0.0721462273783087,0.098011163932,-0.002537681984282872,0.0021801555898052407,0.004114680744552439,18.510456504067406
1649,B,1165249509628481.0,-1.4583532886432276,12.414357356800267,19.612701,249,1970-01-14 11:40:49.509628481,3.1904671,7.7050576,3.04133,20.328946838831587,8.876749467254337,-75.68780517578125,7.905461311340332,173.87640380859375,18550238.0,39782.0,-0.16545385073600488,-0.18757975991707182,0.32803956736900003,-0.007889515502874072,-0.005166209613292414,0.00847457509630819,18.55023853504099
1649,B,1165249550102491.0,8.509905511356772,-2.2447409431997336,15.260043,249,1970-01-14 11:40:49.550102491,-0.10226539,-6.9380674,4.572115,26.09195616722,8.309721597632477,-75.08989715576172,7.434393405914307,174.34580993652344,18590712.0,40474.0,0.14270226233105401,-0.19084267263796606,0.705719720328,-0.00046042389455099074,-0.007658134767616302,0.020920186705124192,18.59071254520677
1649,B,1165249589469366.0,13.094202511356773,-2.2447409431997336,4.6261964,249,1970-01-14 11:40:49.589469366,5.3071475,3.943609,2.5885925,23.732899577683654,7.100611076709772,-74.87923431396484,6.702919006347656,174.18148803710938,18630079.0,39367.0,0.4252444602650821,-0.4741653167109439,0.3914307932299,0.011179179314221044,-0.01308968475834927,0.021595762133616924,18.630079420050606
1649,B,1165249629689523.0,2.9362040113567724,0.42479305680026513,-5.8466406,249,1970-01-14 11:40:49.629689523,-0.040480047,-4.346279,3.0594394,18.081270376809385,5.315256270615603,-75.6548080444336,6.4706854820251465,174.3407440185547,18670299.0,40220.0,0.3223714751717694,-0.4307551519954933,-0.024543132861999984,0.015034556461635082,-0.01819795062568645,0.0073781108499984685,18.670299577061087
1649,B,1165249669533220.0,0.5414036513567724,20.623476156800265,-0.7589619,249,1970-01-14 11:40:49.669533220,-0.6540724,2.5289378,1.1675298,3.342270136736401,2.861199562176438,-75.1852798461914,9.37697696685791,174.3018341064453,18710143.0,39844.0,0.06928089985657923,0.02885241927334974,-0.13159681300499998,0.007802498615314761,-0.008006706241290544,-0.003110620001562373,18.710143274161965
1649,B,1165249709449314.0,13.707717511356773,18.752407556800264,-0.93373865,249,1970-01-14 11:40:49.709449314,-2.171009,1.75236,-0.27377295,13.255694190077902,2.8033903181385043,-75.42999267578125,6.524394989013672,174.19862365722656,18750059.0,39916.0,0.28438396016543693,0.39468708715603934,-0.0337829175769,0.007058443276319398,0.008453001469317748,-0.00330064866295356,18.75005936808884
1649,B,1165249749355825.0,0.7724441113567724,11.880450456800265,-4.4077253,249,1970-01-14 11:40:49.749355825,-2.795254,1.1462245,-2.3222766,7.0422689218852055,3.810543811035875,-76.734619140625,6.283457279205322,173.98484802246094,18789965.0,39906.0,0.28892266485800333,0.22013861594537132,-0.10657823019434999,0.011439187089092702,0.012267617253982444,-0.002800625981479751,18.789965879172087
1649,B,1165249789271137.0,0.4833442563567724,10.252393056800265,-0.82121116,249,1970-01-14 11:40:49.789271137,-3.4631748,0.8692558,-2.8772793,7.163777980585161,4.585621169634183,-77.40484619140625,6.019963264465332,173.8571319580078,18829881.0,39916.0,0.02506302424282693,0.050550490844439355,-0.10435911386867999,0.00626652638307437,0.005402413193311042,-0.004209887512809952,18.82988119102083
1649,B,1165249829166241.0,4.8360031113567725,-2.2447409431997336,-0.59855044,249,1970-01-14 11:40:49.829166241,-3.8392131,-0.7318367,-4.1108556,20.08344682501473,5.672237296405172,-77.9458236694336,5.3655314445495605,173.8145294189453,18869776.0,39895.0,0.10610768161746593,-0.2312383594639534,-0.028320694516000004,0.0026165276551481918,-0.0036042712592877567,-0.002646630477753404,18.869776295032352
1649,B,1165249869065929.0,-1.9228284886432274,-2.2447409431997336,-1.0935516,249,1970-01-14 11:40:49.869065929,-1.8482338,0.023435818,-6.1700115,19.79974094341417,6.440928452262144,-78.41940307617188,5.11411190032959,173.71463012695312,18909675.0,39899.0,0.05811637713582387,-0.48057311889272614,-0.033756589646979994,0.0032761878600987547,-0.014200283087476577,-0.0012384107804093694,18.909675983013585
1649,B,1165249909488481.0,-0.9992651886432276,-2.2447409431997336,-1.2509704,249,1970-01-14 11:40:49.909488481,-1.4817829,-1.551025,-5.134575,19.71471994593071,5.56464010911599,-78.8677978515625,4.836859703063965,173.70669555664062,18950098.0,40423.0,-0.05905989635847518,-0.4868845631469629,-0.047386306403,-1.906993876861697e-05,-0.019553770940545175,-0.0016400196435141705,18.95009853504598
1649,B,1165249948634366.0,1.5110553613567723,18.472286056800264,0.8870517,249,1970-01-14 11:40:49.948634366,-0.644485,-4.432565,-0.9044095,1.7071083181906215,4.569567806493329,-76.65319061279297,2.9451918601989746,174.06771850585938,18989244.0,39146.0,0.010017269050522212,-0.06600905949149684,-0.007122980715099998,-0.0009599113442985634,-0.010821786875902573,-0.0010669102767625713,18.989244420081377
1649,B,1165249988762543.0,-3.3509697886432273,20.859903756800264,3.3213563,249,1970-01-14 11:40:49.988762543,0.11504856,-3.7923415,0.7978831,6.204638253761799,3.877074627221655,-74.6017837524414,4.959999084472656,174.40231323242188,19029372.0,40128.0,-0.03691604306907543,0.39590665642008094,0.084437498112,-0.0005396970019082517,0.0066190653847751114,0.0015512384770514018,19.02937259711325
1649,B,1165250028505512.0,-9.836861488643226,28.448326056800266,3.8043866,249,1970-01-14 11:40:50.028505512,3.597398,2.066613,0.6498113,15.661375611549087,4.199335231650444,-72.96289825439453,7.4840497970581055,174.47378540039062,19069115.0,39743.0,-0.26206198922659774,0.5903470887409629,0.14159920003735002,-0.005941141968763469,0.01959834129696768,0.004491688247274809,19.06911556608975
1649,B,1165250068606970.0,-5.460859988643228,15.072519756800265,1.4556746,249,1970-01-14 11:40:50.068606970,1.2218584,2.5001757,1.5733956,6.6039547598715345,3.1967780959304024,-72.75773620605469,8.816170692443848,174.39926147460938,19109217.0,40102.0,-0.3067346133410707,0.47963687940850425,0.1054694871212,-0.01140494067808432,0.021454248545364967,0.0049539742462160865,19.10921702417545
1649,B,1165250108397179.0,2.3807491113567725,-1.7108339431997344,-12.21402,249,1970-01-14 11:40:50.108397179,0.7946873,-2.15503,0.18642128,22.727285889312128,2.3044381309373723,-73.80571746826172,8.537999153137207,174.33949279785156,19149007.0,39790.0,-0.06127880590361403,-0.12411126073841747,-0.214037281733,-0.0073216269758730025,0.007073182183441377,-0.002159956273801761,19.14900723309256
1649,B,1165250148215356.0,3.008029911356773,21.333357056800267,15.820287,249,1970-01-14 11:40:50.148215356,3.3417346,8.384697,-1.3081448,16.492600905247485,9.120393452939034,-72.27054595947266,8.376699447631836,174.12429809570312,19188825.0,39818.0,0.10728520156320397,0.00044841266867297715,0.07179716970300001,0.000915941331186776,-0.002462003642220543,-0.0028318583904052693,19.18882541009225
1649,B,1165250188117700.0,-17.375603488643225,0.5732350568002644,-19.6133,249,1970-01-14 11:40:50.188117700,-0.5837649,4.3995423,2.2370553,31.438240403546757,4.970027195420503,-73.42559814453125,9.288576126098633,173.77760314941406,19228727.0,39902.0,-0.28664746044044204,0.04601881925844418,-0.07567440236299997,-0.0035784564268597765,0.0009270677441779144,-7.735466879965904e-05,19.228727754205465
1649,B,1165250228109991.0,-10.158283488643226,2.1797440568002653,-3.8181531,249,1970-01-14 11:40:50.228109991,-0.1949434,-0.25033715,1.8759307,18.976506331734736,1.9025739431297204,-74.04132843017578,10.008721351623535,173.71421813964844,19268720.0,39993.0,-0.5505813709413085,-0.336881453154887,-0.46854705191414997,-0.016741646326725177,-0.005816234658710218,-0.010882524310453029,19.268720045220107
1649,B,1165250268586554.0,-3.901636488643228,8.993641056800266,19.612701,249,1970-01-14 11:40:50.268586554,4.2152514,1.623463,4.830974,21.787192696181076,6.613795148494317,-72.72608184814453,10.396275520324707,173.89910888671875,19309196.0,40476.0,-0.2845446605003233,-0.17053783207095247,0.3196500604002,-0.016901280624315743,-0.010269151494400539,-0.0030133773142593193,19.309196608141065
1649,B,1165250308076866.0,15.530901511356774,-2.2447409431997336,-19.6133,249,1970-01-14 11:40:50.308076866,1.5488945,-6.6440544,3.097789,31.520848571946296,7.492584983222453,-73.71627807617188,9.671916007995605,174.06983947753906,19348686.0,39490.0,0.22961983787347898,-0.2537449672569575,-1.1827254999952091e-05,-0.0010844906227670409,-0.008377463872729581,0.006311256913451975,19.34868692001328
1649,B,1165250348109417.0,5.918780511356772,-1.495354943199736,-14.289793,249,1970-01-14 11:40:50.348109417,2.7196202,2.7164245,3.593137,24.264955643497498,5.261742068670536,-74.7310791015625,9.428264617919922,173.79977416992188,19388719.0,40033.0,0.4293475602076457,-0.467187029310115,-0.6786212610344999,0.013190220923690833,-0.014430535309284807,-0.013583859211746773,19.3887194711715
1649,B,1165250388011864.0,3.8591685113567724,9.439561556800264,-12.381016,249,1970-01-14 11:40:50.388011864,0.46339005,1.32945,1.71188,15.068481924868154,2.2164613182591304,-76.06571197509766,9.147405624389648,173.53952026367188,19428621.0,39902.0,0.19507986095215793,-0.2325447338520559,-0.532109310359,0.012457951479559243,-0.01396034840684847,-0.024155285629871716,19.42862191819586
1649,B,1165250427705043.0,12.337036511356773,17.383522817800266,-4.9984946,249,1970-01-14 11:40:50.427705043,-1.8109496,-0.27696875,0.5113269,12.796137416390794,1.9020266404234019,-77.27803802490234,6.530362129211426,173.4078826904297,19468315.0,39694.0,0.32144608108579575,0.1433565555826967,-0.3449311468782,0.010251490371627266,-0.0017701177741119723,-0.01740662195478671,19.468315097037703
1649,B,1165250467861136.0,7.058420911356772,20.537285056800265,-5.4085016,249,1970-01-14 11:40:50.467861136,-2.4501083,-0.070307456,-1.2783173,9.030716912499225,2.764429224917392,-79.14803314208984,4.191191673278809,173.23646545410156,19508471.0,40156.0,0.3894219941332425,0.3678451805062294,-0.2089516697036,0.01427280921424785,0.010263908457193457,-0.011120859191329378,19.50847119023092
1649,B,1165250507543689.0,-0.23491625864322752,12.335348256800266,-6.0525417,249,1970-01-14 11:40:50.507543689,-2.722816,0.958738,-2.3094933,7.911668456039808,3.696845253083349,-80.54023742675781,4.177628517150879,173.07618713378906,19548153.0,39682.0,0.13538515581448943,0.26334231757514814,-0.22739856011530002,0.01041269866211295,0.012523391149432612,-0.008657624909836795,19.54815374314785
1649,B,1165250547197387.0,4.117143911356773,6.788582056800266,5.6000376,249,1970-01-14 11:40:50.547197387,-3.5270905,-0.67005134,-3.0679617,12.488672465352236,4.722470241948904,-80.28106689453125,3.5186607837677,173.11424255371094,19587807.0,39654.0,0.07697292767035147,-0.009439033672242284,-0.008971798790699993,0.004210423721253941,0.005034140409942914,-0.004686515106029262,19.58780744113028
1649,B,1165250587099730.0,9.714787511356773,-2.2447409431997336,5.2498856,249,1970-01-14 11:40:50.587099730,-3.2192292,-0.6892261,-4.734035,22.27324782726615,5.7662428530438135,-80.32232666015625,2.611966609954834,173.11593627929688,19627709.0,39902.0,0.2759608638145579,-0.3003854259425558,0.21646681776319998,0.007041382073915427,-0.006181307793774837,0.004139733123520347,19.627709784079343
1649,B,1165250628030616.0,-7.839499488643228,-2.2447409431997336,0.81343,249,1970-01-14 11:40:50.628030616,-0.80107886,0.664725,-5.7705374,21.35073509448787,5.863675344897828,-80.53385925292969,2.8362016677856445,173.0265350341797,19668640.0,40931.0,0.03837870702884406,-0.49300329154610834,0.1240887854118,0.006433116487095643,-0.016237096797764257,0.006969640696777963,19.668640670133755
1649,B,1165250667129418.0,1.8085349113567724,3.7653040568002645,-3.1495724,249,1970-01-14 11:40:50.667129418,-0.9672601,-2.6173549,-3.5420043,14.019032771184428,4.50909450276045,-81.12410736083984,2.447497606277466,173.1015625,19707739.0,39099.0,-0.11790234200366158,-0.3534439514106665,-0.0456704158488,-0.001554647301940195,-0.016547620376183472,0.0015330399157718684,19.70773947215639
1649,B,1165250706929314.0,1.0471787613567725,16.603611656800265,4.4783545,249,1970-01-14 11:40:50.706929314,-0.36112466,-5.1505537,0.10546118,4.569521382622043,5.164275021445972,-79.78075408935547,2.2366280555725098,173.41224670410156,19747539.0,39800.0,0.05682870208699955,0.015301422700650503,0.026442763790000004,-0.0012153654343415744,-0.006729036321329319,-0.00038263027597012,19.74753936822526
1649,B,1165250746921814.0,-6.511316088643228,24.167493556800267,4.980538,249,1970-01-14 11:40:50.746921814,1.4711303,-0.12783173,-0.08841695,11.00001554734313,1.4793183794640643,-77.86234283447266,4.4249186515808105,173.5263671875,19787531.0,39992.0,-0.10926088999641995,0.4233374198511562,0.18914001443000003,-0.0010484340294367703,0.008771022295665926,0.004310793233287121,19.78753186808899
1649,B,1165250787135303.0,-8.244119488643227,24.083696056800264,0.3238158,249,1970-01-14 11:40:50.787135303,3.2565134,0.79894835,1.1057445,11.07553894115111,3.5307037385806717,-77.17321014404297,7.302900314331055,173.556884765625,19827745.0,40214.0,-0.29668754315249873,0.5760894695606659,0.10665464185660001,-0.008162405145325308,0.02009547646540351,0.005947543153954667,19.827745357062668
1649,B,1165250827049053.0,-5.520714988643228,12.731589056800265,2.2242134,249,1970-01-14 11:40:50.827049053,1.0684602,0.60293967,1.4444987,7.962041051750474,1.8951833523291193,-76.9144287109375,8.349896430969238,173.5720977783203,19867659.0,39914.0,-0.27470480166320577,0.34356544501212566,0.050851018744400005,-0.011403277025487015,0.018353553130129197,0.003143340468614157,19.867659107083455
1649,B,1165250866910772.0,7.233197511356773,-2.1094679431997356,-19.6133,249,1970-01-14 11:40:50.866910772,-0.6540724,-3.2213597,-0.43888897,28.436581170271122,3.316261833633392,-78.1210708618164,7.852906227111816,173.55709838867188,19907520.0,39861.0,0.034130632918942305,-0.17893361514538467,-0.3465731904813,-0.004794763470157543,0.0032811946851590812,-0.005893890743802285,19.907520826207474
1649,B,1165250906805668.0,0.5072862763567725,23.298996656800266,16.61935,249,1970-01-14 11:40:50.906805668,3.2234902,10.967963,-0.77125144,17.645832721946235,11.457832701805655,-75.1441421508789,7.993423938751221,173.40603637695312,19947415.0,39895.0,0.15440330035541594,0.03170712401454656,-0.059721817624999965,0.003760780633990261,-0.002936800431832393,-0.008104569674200418,19.9474157220684
1649,B,1165250946656241.0,-6.926709888643228,-2.2447409431997336,1.3844471,249,1970-01-14 11:40:50.946656241,0.8724516,-0.6924219,1.9345202,21.038360058645107,2.2322608015530374,-75.34607696533203,8.399843215942383,173.4288787841797,19987266.0,39851.0,-0.12791022518661377,0.028976772221347386,0.35873465911604996,0.0005278877692759677,0.0012091569744483047,0.005957980373129917,19.987266295123845
1649,B,1165250986642334.0,-11.693565488643227,11.479421356800266,3.4919431,249,1970-01-14 11:40:50.986642334,-0.12357068,2.8293424,1.7949706,14.034450318416425,3.352963999845179,-75.17496490478516,9.661388397216797,173.3437042236328,20027252.0,39986.0,-0.3722751656180881,-0.2072338344908846,0.0974936692686,-0.010000206518358404,-0.003563893445954857,0.009121372969394307,20.027252388186753
1649,B,1165251026327803.0,-6.750137488643228,-0.7010809431997345,19.612701,249,1970-01-14 11:40:51.026327803,4.094877,-1.6500946,5.3870425,27.65090303707648,6.96498792036888,-74.18994140625,10.075981140136719,173.62474060058594,20066937.0,39685.0,-0.3659691763268065,-0.17504378034313148,0.45845390055425,-0.014648613355041569,-0.0075853435723439635,0.0110313896542099,20.066937857074663
1649,B,1165251065939365.0,9.030644511356773,-2.2447409431997336,-7.48607,249,1970-01-14 11:40:51.065939365,1.6383767,-5.6277924,3.9223037,22.63881325558608,7.052715209310123,-74.85708618164062,9.474961280822754,173.81631469726562,20106549.0,39612.0,0.045167722091864475,-0.4465425482820279,0.24018005358600003,-0.0063537936025772615,-0.012311138824749907,0.013837144095701791,20.10654941922985
1649,B,1165251106310876.0,10.541385511356774,-1.1619639431997335,-13.827712,249,1970-01-14 11:40:51.106310876,4.556136,5.2538843,3.387541,25.184570347109634,7.7354450107904915,-75.7108383178711,9.01053237915039,173.43519592285156,20146920.0,40371.0,0.3950712120234843,-0.46440184148441643,-0.430229346561,0.008886443004585371,-0.01838786797963056,-0.0038362400033468613,20.146920930128545
1649,B,1165251146247646.0,0.058972011356772436,14.269863556800265,-13.515867,249,1970-01-14 11:40:51.146247646,-0.17150758,-1.087635,1.6223978,13.875488065090378,1.960749694547291,-78.60688018798828,9.178581237792969,173.05050659179688,20186857.0,39937.0,0.21167323919230543,-0.1296375065658178,-0.5460102572615,0.012115776574102496,-0.011862074721541101,-0.019494040528929592,20.18685770011507
1649,B,1165251186161448.0,11.367983511356773,19.354549356800266,0.9367314,249,1970-01-14 11:40:51.186161448,-2.0399814,0.47723848,0.14487597,11.031173198848844,2.1000642194518986,-78.35104370117188,6.348636150360107,173.07968139648438,20226771.0,39914.0,0.2280477513667942,0.2798852085167258,-0.2510418091692,0.008775511808587952,0.0029984933878342713,-0.015906768089757477,20.22677150205709
1649,B,1165251226030875.0,8.347698511356773,18.286136856800265,-7.941567,249,1970-01-14 11:40:51.226030875,-1.8887138,0.75633776,-1.0365024,11.162285750351396,2.2833361230265723,-80.49732208251953,4.292779922485352,172.8438262939453,20266640.0,39869.0,0.39302226328178314,0.3596320593250198,-0.1396378952682,0.012380720207012067,0.012748456975791278,-0.00778800456810735,20.266640929039568
1649,B,1165251265912646.0,2.0473565113567727,11.702680756800266,-5.898116,249,1970-01-14 11:40:51.265912646,-2.8442562,1.0492855,-2.4106934,8.313208133033292,3.8732720096260023,-81.81067657470703,3.865309238433838,172.68960571289062,20306522.0,39882.0,0.2072877922079308,0.20716341203280816,-0.275977118703,0.011970782816520385,0.011302468494346447,-0.0082877789935997,20.30652270000428
1649,B,1165251305289677.0,2.7428720113567726,-2.2447409431997336,3.3051953,249,1970-01-14 11:40:51.305289677,-4.023504,-1.530785,-3.3172336,20.00953327118597,5.434696487496791,-81.97420501708984,3.438281297683716,172.74476623535156,20345899.0,39377.0,0.09431241426944564,-0.19968195197992597,-0.05105071920195001,0.005938055665229826,0.0001472987262511711,-0.00643868758659161,20.345899731153622
1649,B,1165251346143479.0,-0.5270088886432276,-2.2447409431997336,-2.337938,249,1970-01-14 11:40:51.346143479,-2.2040322,-0.7307714,-5.8152785,19.781905632214293,6.261728899453972,-82.45112609863281,3.1406309604644775,172.7196044921875,20386753.0,40854.0,0.045263436007669584,-0.49207584649348196,0.0197581648671,0.0028511158936106325,-0.014130536549416303,-0.0006392130073979811,20.386753533035517
1649,B,1165251385450823.0,-8.053181488643228,-2.2447409431997336,-0.22625206,249,1970-01-14 11:40:51.385450823,-0.6125271,0.9267801,-4.9470882,21.42143024079322,5.0702852444975575,-82.6738510131836,3.405125856399536,172.6302490234375,20426060.0,39307.0,-0.16863077157999934,-0.47344263225435196,-0.05039530934421,-0.002424599929670783,-0.018975817422070555,-0.0006021271189808814,20.42606087704189
1649,B,1165251424847230.0,1.1429468513567724,10.355942456800264,-1.2437878,249,1970-01-14 11:40:51.424847230,-1.2090752,-3.3438652,-3.08181,7.146080894728822,4.705406485217413,-83.15318298339844,3.033438205718994,172.75283813476562,20465457.0,39397.0,-0.13612125700258726,-0.22631209698434,-0.02895758018221,-0.006003157835034082,-0.013784118533908374,-0.0015631328943361844,20.465457284124568
1649,B,1165251464854365.0,-0.6521058886432276,19.835185456800264,1.9273324,249,1970-01-14 11:40:51.464854365,-0.7435546,-5.1633368,0.24714136,3.3559139521005124,5.222451455517614,-80.71054077148438,4.480534076690674,173.17233276367188,20505464.0,40007.0,0.009818537197640394,0.21185962721970814,0.013673284406100002,-0.0025264964556182545,-0.0002890999789368133,-0.0003057394105574164,20.505464419024065
1649,B,1165251504943115.0,-6.440686888643228,26.707143056800266,3.4225113,249,1970-01-14 11:40:51.504943115,2.2498386,0.21518342,0.43036684,12.16134274581905,2.3007158119299396,-79.04673767089844,6.915814399719238,173.32167053222656,20545553.0,40089.0,-0.14217148482431835,0.5400455038908657,0.10723494204465,-0.0026529486587029464,0.015071562400545895,0.0024235449450920586,20.545553169213235
1649,B,1165251544704209.0,-6.243165288643228,22.650766556800264,-0.95947635,249,1970-01-14 11:40:51.544704209,2.1582258,1.3230585,1.1728562,8.664423624908562,2.7899845992561194,-78.92215728759766,9.850058555603027,173.2734375,20585314.0,39761.0,-0.25216132321054335,0.5916021220731853,0.048966366323474994,-0.007839533390137068,0.022497720627978314,0.0031053601110125092,20.58531426312402
1649,B,1165251584622698.0,-3.553279488643228,8.334039056800265,3.8379054,249,1970-01-14 11:40:51.584622698,0.61572284,-0.34834146,1.139833,10.641950379610176,1.3415199053094953,-78.60868072509766,10.226461410522461,173.35043334960938,20625232.0,39918.0,-0.1955272413098604,0.22722933524185293,0.05745056540895,-0.008935416059262739,0.01634305705655085,0.002123975540447471,20.625232752179727
1649,B,1165251624634052.0,7.707847811356772,4.675698056800265,-16.860567,249,1970-01-14 11:40:51.624634052,0.022370555,-2.1923141,-1.5425029,22.282593906389554,2.6806821429065826,-79.83233642578125,9.57160758972168,173.23062133789062,20665244.0,40012.0,0.08311629386420716,-0.13184479930530785,-0.26053136796959997,-0.002248893414597739,0.0019082630259465209,-0.004062834536028364,20.665244106203318
1649,B,1165251664374990.0,-2.6985496886432276,18.939155356800264,9.489418,249,1970-01-14 11:40:51.664374990,2.163552,9.562879,0.06178534,10.154708582708778,9.804765650110355,-78.42774200439453,10.111837387084961,172.9891815185547,20704985.0,39741.0,0.09953725834737948,0.07977714475494926,-0.14646841620449996,0.003629417409220332,-0.0010346103297429001,-0.008087289211431453,20.70498504419811
1649,B,1165251704625615.0,-10.162473488643228,-2.2447409431997336,9.045893,249,1970-01-14 11:40:51.704625615,0.76912093,0.46552056,2.5353293,24.112837489165248,2.6900094899805223,-78.09093475341797,10.648123741149902,173.0457000732422,20745235.0,40250.0,-0.25882809144288993,-0.05847490992628936,0.373023133875,-0.003205728016047148,0.00042870747592678053,0.004559413693118814,20.74523566919379
1649,B,1165251744465511.0,-7.908930988643228,14.763069056800266,9.412804,249,1970-01-14 11:40:51.744465511,-0.043675844,3.3225598,1.6447684,12.925594892848695,3.707637292611524,-77.14078521728516,11.592632293701172,173.0863037109375,20785075.0,39840.0,-0.3599823771875462,-0.14106690397707744,0.36769724424,-0.012326704535118287,-0.003974872932955067,0.0147551499320508,20.78507556510158
1649,B,1165251784562542.0,-1.1123911886432276,-2.2447409431997336,19.612701,249,1970-01-14 11:40:51.784562542,2.0197413,-4.8149953,5.6054215,27.787197221838756,7.660566875278228,-76.20205688476562,11.649641990661621,173.546142578125,20825172.0,40097.0,-0.1808639776713275,-0.14197689881447975,0.5819178369925001,-0.01084315814538813,-0.0056746036802665335,0.01903835795608978,20.82517259614542
1649,B,1165251824580094.0,12.769190511356774,-2.2447409431997336,-14.996681,249,1970-01-14 11:40:51.824580094,4.1843586,4.3718452,3.0796795,27.544614491214737,6.790162970715597,-77.0478286743164,11.064157485961914,173.16539001464844,20865190.0,40018.0,0.23324089764817532,-0.4820064430649669,0.09236194418,0.001048009791816748,-0.012485282687665848,0.013491664141480553,20.865190148120746
1649,B,1165251864447073.0,4.324242411356773,2.1198880568002654,-9.1751795,249,1970-01-14 11:40:51.864447073,-0.026631612,-2.9049761,2.7387948,18.19048510968879,3.99256713667234,-78.00646209716797,10.680377006530762,173.15386962890625,20905057.0,39867.0,0.34073194516491045,-0.3931853550110438,-0.48182978127675,0.011441287662214646,-0.017445635706948157,-0.007763457130768067,20.905057127121836
1649,B,1165251904078271.0,1.7408987113567724,13.863447856800265,-6.4787097,249,1970-01-14 11:40:51.904078271,-0.48469532,3.5867455,1.0524813,7.460547146833747,3.7692691230329842,-79.44084930419922,10.466592788696289,172.73350524902344,20944688.0,39631.0,0.12018380391713024,-0.07166600720404871,-0.3101896414426,0.009133276025935177,-0.009211262167973164,-0.01569426087089528,20.944688325049356
1649,B,1165251943817802.0,11.585856511356774,18.806277256800264,0.41060558,249,1970-01-14 11:40:51.943817802,-1.9313245,0.48469532,0.034088463,11.129189323675035,1.9915084485986634,-79.3593521118164,7.614160537719727,172.74073791503906,20984427.0,39739.0,0.2647959628977068,0.2596889031446857,-0.12057019481233998,0.007649355476727404,0.003735920930892486,-0.008558982566467529,20.98442785604857
1649,B,1165251983462438.0,9.774642511356774,15.788984456800264,-2.8742392,249,1970-01-14 11:40:51.983462438,-1.9313245,1.7299895,-1.3891048,9.783191389003171,2.9415115399728657,-80.38182830810547,4.845198154449463,172.54556274414062,21024072.0,39645.0,0.4234184918777393,0.29724357531784645,-0.04883537743245,0.01364213102978628,0.011039794054323543,-0.003358041955822349,21.024072492029518
1649,B,1165252023383532.0,-0.3312828886432275,11.687717056800265,-3.141791,249,1970-01-14 11:40:52.023383532,-2.992328,1.743838,-2.6525085,6.552317621813808,4.362430420350593,-81.42837524414062,4.827223777770996,172.3622283935547,21063993.0,39921.0,0.1884941797491737,0.1572229005622233,-0.12008297080709998,0.012214082882008996,0.009071378091804132,-0.0033716946900355376,21.063993586227298
1649,B,1165252063913844.0,1.1890352113567726,-1.703650943199733,-0.005985504,249,1970-01-14 11:40:52.063913844,-3.7103162,-0.7041398,-3.597398,19.082661904339144,5.215700483380011,-81.82766723632812,4.477734565734863,172.3534393310547,21104523.0,40530.0,0.01738235081978999,-0.19486690020788522,-0.06378969085356,0.004172087891980049,-0.0007628556528193388,-0.003726179488553274,21.104523898102343
1649,B,1165252103197594.0,1.2105830413567724,-2.2447409431997336,-1.7986441,249,1970-01-14 11:40:52.103197594,-2.4064324,-1.8791265,-5.667207,19.706422574607195,6.437333957440845,-82.27690124511719,4.027968883514404,172.382080078125,21143807.0,39284.0,0.04713330171979945,-0.46253751343265836,-0.035446534681768,0.0012672164471826156,-0.012912737492727557,-0.0019491979419649123,21.143807648215443
1649,B,1165252143202855.0,-4.878470488643228,-2.2447409431997336,-1.110311,249,1970-01-14 11:40:52.143202855,-0.7819041,0.27696875,-4.8149953,20.382953758666726,4.8859252398185,-82.58247375488281,4.076958179473877,172.3172607421875,21183812.0,40005.0,-0.07336691866434733,-0.48184986143270536,-0.05818637438775,-0.0005247379229333189,-0.01889010846574444,-0.0018728922636630336,21.18381290906109
1649,B,1165252183295198.0,-0.07869458864322754,13.203246756800265,-1.6466122,249,1970-01-14 11:40:52.183295198,-1.1014835,-3.9382827,-1.8258632,4.52393456363517,4.478516824910428,-83.3134765625,4.074618339538574,172.45223999023438,21223905.0,40093.0,-0.09937380972182294,-0.17323171320765696,-0.0552666609288,-0.003462847011593362,-0.013132092786028022,-0.002274336272473219,21.22390525205992
1649,B,1165252223334417.0,-0.7035811886432275,18.281947006800266,2.9981391,249,1970-01-14 11:40:52.223334417,-0.33449304,-4.6370964,0.46871635,3.3784025939462135,4.6727126632673155,-80.6606674194336,5.171553134918213,172.89971923828125,21263944.0,40039.0,-0.015660769923386185,0.2379356365504008,0.027056892774549996,-0.0023029347672072643,0.00129534019336006,-0.0005647454535640079,21.263944471022114
1649,B,1165252263178011.0,-8.617614988643227,25.393325056800265,2.2750902,249,1970-01-14 11:40:52.263178011,3.18301,1.4636734,0.21731395,12.399871919907573,3.510144987722325,-79.52703094482422,7.887543678283691,172.94415283203125,21303788.0,39844.0,-0.18569687024390075,0.4796275700510498,0.1050532741146,-0.00401144690741269,0.014295294201914097,0.0026318987447656464,21.303788065211847
1649,B,1165252303128219.0,-8.060364488643227,21.010139856800265,-0.13706805,249,1970-01-14 11:40:52.303128219,0.9416938,1.1121361,0.7190535,9.35674081196548,1.6250144164726354,-79.31788635253906,10.792342185974121,172.92396545410156,21343738.0,39950.0,-0.33314264005879696,0.5353992116491706,0.04270699244625001,-0.010363819218296386,0.0202751599644619,0.0029515113245529787,21.34373827301897
1649,B,1165252343262750.0,-2.0868312886432276,7.1459160568002655,-2.247557,249,1970-01-14 11:40:52.343262750,0.61572284,-2.9273467,0.9896307,10.795683003902793,3.1508478605100954,-79.81224060058594,10.919485092163086,172.97537231445312,21383872.0,40134.0,-0.20362377766280731,0.1716943740182218,-0.04785227087835,-0.010771291704419433,0.014189246983587563,-0.00010325030229695052,21.38387280399911
1649,B,1165252383267490.0,8.487160511356773,12.495161656800265,-4.073136,249,1970-01-14 11:40:52.383267490,2.2551649,7.036072,-2.1656826,10.159671836040706,7.699497323807495,-80.46247863769531,9.66580581665039,172.47903442382812,21423877.0,40005.0,0.12802258527732768,0.0008216569662945885,-0.1264296617325,-0.0015122128506905564,0.0034507519097677886,-0.003486074357048527,21.423877544002607
1649,B,1165252423330927.0,-3.5179654886432274,12.335348256800266,9.686341,249,1970-01-14 11:40:52.423330927,0.37071204,6.296778,1.4050838,11.651967975686238,6.462282962151023,-79.40740203857422,10.146626472473145,172.36285400390625,21463940.0,40063.0,0.0995404300974864,0.10477495933428901,0.11244091595750001,0.004558428542480588,0.0021152586194251406,-0.0002802155609919123,21.46394098107703
1649,B,1165252462660563.0,-7.4402664886432275,-2.2447409431997336,-1.8303672,249,1970-01-14 11:40:52.462660563,0.41864893,-3.0541131,1.5808525,21.26022299227825,3.4643857148039974,-79.72677612304688,10.502114295959473,172.46397399902344,21503270.0,39330.0,-0.21549363183333814,-0.18700220717804555,0.154487724777,-0.0022802197121355246,-0.0016169988288474723,0.0052491517200439425,21.50327061722055
1649,B,1165252502414052.0,-5.535678488643228,16.546749356800266,16.144701,249,1970-01-14 11:40:52.502414052,1.8141453,1.9238676,3.2714272,17.27583143641614,4.206498025286793,-78.31863403320312,11.119014739990234,172.64718627929688,21543024.0,39754.0,-0.25792285831352285,-0.10530817876286225,0.2845260129426,-0.009410099574649155,-0.005810253541347424,0.008726276064652488,21.54302410618402
1649,B,1165252542115980.0,4.582217511356772,-2.2447409431997336,18.68794,249,1970-01-14 11:40:52.542115980,0.78296936,-4.681837,4.036287,27.388290748128277,6.230910965471807,-77.46414184570312,10.827757835388184,173.06732177734375,21582726.0,39702.0,-0.018927153860113437,-0.10517043098161587,0.6914627564910001,-0.005495749591658854,-0.0041782108820376355,0.019374353062026395,21.58272603410296
1649,B,1165252582042855.0,12.267006511356772,-2.2447409431997336,-12.091317,249,1970-01-14 11:40:52.582042855,5.380651,3.3683662,3.165966,25.845551176863164,7.093704022177655,-78.12386322021484,10.207746505737305,172.7686309814453,21622652.0,39926.0,0.33636105916543046,-0.4808983268981926,0.13168838494900004,0.006336933051610044,-0.011699690613554617,0.016432566236566724,21.622652909019962
1649,B,1165252622413011.0,1.7564610113567725,3.4929630568002654,-7.429806,249,1970-01-14 11:40:52.622413011,0.10865697,-2.59818,2.3489082,15.785168176822324,3.5042424832703603,-79.0245132446289,9.995022773742676,172.75860595703125,21663023.0,40371.0,0.28307070367973425,-0.37043981252591646,-0.39404362831649997,0.012503539848911071,-0.017184686013345354,-0.0052957717649946695,21.66302306507714
1649,B,1165252661868688.0,8.839707511356773,17.389508321800264,-2.9358897,249,1970-01-14 11:40:52.661868688,-1.5414376,-0.12250541,1.0013486,8.787137183105719,1.842209670177363,-80.07023620605469,7.344538688659668,172.62960815429688,21702478.0,39455.0,0.20903591453183146,0.02529995412134191,-0.20448926192175,0.009708033310768662,-0.006808746556676244,-0.011807557592175074,21.70247874222696
1649,B,1165252701754417.0,9.193449511356773,20.227834356800265,2.156577,249,1970-01-14 11:40:52.701754417,-2.6951191,0.78083885,-1.1291803,9.34905285744733,3.0246362463546292,-79.34137725830078,4.565176486968994,172.6746826171875,21742364.0,39886.0,0.3596352505039762,0.35931986503933033,-0.015541833176100002,0.011341009044309111,0.007670473053521286,-0.004388080129536422,21.74236447107978
1649,B,1165252741944730.0,-0.14812648864322753,12.608287556800265,-5.035006,249,1970-01-14 11:40:52.741944730,-2.9071066,1.2144015,-2.6759443,6.964874008998961,4.133608312802303,-80.69583129882812,4.526137351989746,172.4947509765625,21782554.0,40190.0,0.1817657661414287,0.2659798698538027,-0.057842030754999996,0.01087945342948941,0.012565398172677508,-0.0014746487456954542,21.78255478409119
1649,B,1165252782287021.0,1.0106671913567724,8.456741056800265,3.4715924,249,1970-01-14 11:40:52.782287021,-3.4887412,0.572047,-3.141465,9.574850176137742,4.729413840742999,-80.57655334472656,4.1977643966674805,172.46414184570312,21822897.0,40343.0,0.01739873978478627,0.029551824679243065,-0.0315363974324,0.004017446831290645,0.005961317576273332,-0.0018028969641821389,21.822897075209767
1649,B,1165252821977854.0,3.6502745113567725,-2.2447409431997336,1.3461399,249,1970-01-14 11:40:52.821977854,-2.8016455,-1.2112057,-4.5838327,19.90121817036515,5.507064460942148,-80.85089111328125,3.636685848236084,172.47779846191406,21862587.0,39690.0,0.09249638809035031,-0.2656848577455975,0.09560789749350002,0.0021808688126820856,-0.004686060041201805,0.00127149891871253,21.862587908050045
1649,B,1165252861699832.0,-8.114832488643227,-2.2447409431997336,2.7994204,249,1970-01-14 11:40:52.861699832,-1.6575515,1.8961707,-5.638445,21.627037735009967,6.175354428428845,-80.96640014648438,3.863294839859009,172.3373565673828,21902309.0,39722.0,-0.08867058598688628,-0.47844119974577987,0.0823349731183,7.598425557689914e-05,-0.014779087627836246,0.0035341233532209604,21.902309886179864
1649,B,1165252901648634.0,1.6738610113567725,2.8860330568002652,-2.8975825,249,1970-01-14 11:40:52.901648634,-1.5041534,-2.9891322,-3.8136468,14.811673151973565,5.073587554675551,-81.5316162109375,3.454000473022461,172.4237518310547,21942258.0,39949.0,-0.1286551847730583,-0.3786907106768862,-0.0019607388664500025,-0.004340973608044513,-0.017120781344737542,0.0016054351420635778,21.94225868815556
1649,B,1165252941384573.0,0.6024557943567724,19.785505656800265,1.6675615,249,1970-01-14 11:40:52.941384573,-0.72651035,-5.1335096,-0.015978966,2.936734147113626,5.1846883637595536,-78.68535614013672,3.5252768993377686,172.85252380371094,21981994.0,39736.0,0.045225862295916706,0.0610253311618153,-0.024438057228,-0.001657573778975849,-0.006311375760205429,-0.0005244912808045326,21.981994627043605
1649,B,1165252981246239.0,-4.633064988643228,24.318328056800265,4.2940006,249,1970-01-14 11:40:52.981246239,1.5041534,-1.107875,0.29188246,9.678861757067905,1.8907828634753945,-76.56636810302734,5.545421600341797,173.07257080078125,22021856.0,39862.0,-0.08033407185132335,0.48838590974577206,0.1188198942151,-0.0006997417246488099,0.010950315442529123,0.0018811243929898903,22.021856293082237
1649,B,1165253021363114.0,-6.192288488643228,24.024440056800266,0.7433996,249,1970-01-14 11:40:53.021363114,3.1947281,1.5840483,1.0002834,9.50862294830593,3.7035204238640373,-75.55805969238281,8.348090171813965,173.114013671875,22061973.0,40117.0,-0.21714035272415036,0.5765368142066563,0.10104269191170001,-0.005966890745347139,0.021360752458399784,0.004410113683824418,22.061973168049008
1649,B,1165253061268010.0,-3.8741027886432278,11.870873656800265,5.16968,249,1970-01-14 11:40:53.061268010,0.22583607,1.0588728,1.1675298,8.75156049614367,1.59227490433685,-74.95002746582031,8.978045463562012,173.16763305664062,22101878.0,39905.0,-0.20084967196005804,0.32513224687061465,0.117980720719,-0.00833994596751167,0.017990551941144246,0.004370064640514043,22.10187806421891
1649,B,1165253101173844.0,3.262414011356772,-1.7078409431997343,-15.492879,249,1970-01-14 11:40:53.101173844,-0.3387541,-3.3662357,-0.42717105,24.723562596969945,3.410098566636953,-76.10961151123047,8.62854290008545,173.14788818359375,22141783.0,39905.0,-0.012204720328808007,-0.18829108978188544,-0.20597362804750002,-0.0042509677621436,0.0027303231868128696,-0.001755678483471897,22.141783898230642
1649,B,1165253142685717.0,0.1631197813567724,20.821596556800266,11.401787,249,1970-01-14 11:40:53.142685717,3.0679617,8.939699,-0.3653857,11.919723210494446,9.458547135423725,-73.12736511230469,8.834224700927734,173.14434814453125,22183295.0,41512.0,0.07110037940156233,-0.010092488484107397,-0.084914705552,0.0012224382997140886,-0.004117649550488947,-0.006037678252191222,22.183295771013945
1649,B,1165253183160563.0,-9.324503488643227,-2.2447409431997336,7.4764934,249,1970-01-14 11:40:53.183160563,-0.43675843,5.466937,0.5773733,23.19988703435574,5.514663907773342,-73.09828186035156,9.345597267150879,172.90208435058594,22223770.0,40475.0,-0.1854035027762096,-0.020705884519759254,0.382049199595,-0.0023132094592944238,-0.0006232820736657513,0.006013259323195213,22.223770617041737
1649,B,1165253222855144.0,-7.704825488643228,13.229583056800266,3.027468,249,1970-01-14 11:40:53.222855144,0.48682585,0.76912093,1.7949706,9.724390640636564,2.012576922270711,-72.82209777832031,10.527637481689453,172.9352264404297,22263465.0,39695.0,-0.3379896068766929,-0.17098934615031347,0.2084773738865,-0.010388044743835983,-0.0038046710907242683,0.01172047616717407,22.263465198222548
1649,B,1165253262121759.0,-2.517787688643228,-2.1160529431997332,18.356943,249,1970-01-14 11:40:53.262121759,3.8296256,-1.2101405,5.65975,26.945969128050262,6.939974231106021,-71.96659851074219,10.70548152923584,173.19688415527344,22302731.0,39266.0,-0.20070056450966497,-0.16661486327968078,0.419840141163,-0.010576104134828365,-0.006628183443739078,0.012335757772966834,22.302731813164428
1649,B,1165253300588165.0,10.644934511356773,-2.2447409431997336,-19.6133,249,1970-01-14 11:40:53.300588165,1.3422332,-4.056527,2.9422605,29.514710015463475,5.187860649128067,-73.0745620727539,10.18835163116455,173.21775817871094,22341198.0,38467.0,0.15631347841466098,-0.4608499292140642,-0.024164142359499957,-0.0008537190204082594,-0.012068344086428444,0.0076102343229871175,22.341198219219223
1649,B,1165253340660562.0,5.820020011356772,0.5319350568002648,-12.11466,249,1970-01-14 11:40:53.340660562,1.5819178,0.40906155,3.5079157,21.39930682341034,3.8697891203464474,-74.1103515625,9.865001678466797,173.05441284179688,22381270.0,40072.0,0.3298918288170886,-0.4270233787398998,-0.6357014065600001,0.009741609535695335,-0.017789429598165624,-0.013221066138151103,22.381270616082475
1649,B,1165253380543219.0,2.283185411356772,11.957663056800264,-9.878476,249,1970-01-14 11:40:53.380543219,0.5550028,0.8000136,1.7470337,11.394729092694954,2.0000441537947333,-75.485595703125,9.689431190490723,172.80177307128906,22421153.0,39883.0,0.16159007093704214,-0.1417920792176351,-0.438576121544,0.009800886303947,-0.011343033454860181,-0.021422705326685918,22.421153273200616
1649,B,1165253420606343.0,14.712683511356772,17.375741661800266,1.8231846,249,1970-01-14 11:40:53.420606343,-1.9366508,-0.9310411,0.42397526,14.272051274419269,2.1902531525195705,-75.2144546508789,6.856280326843262,172.90675354003906,22461216.0,40063.0,0.3404527483253364,0.19497469662064648,-0.1613595696791,0.010056670734054335,0.0010653276005084227,-0.012017611798735528,22.461216397117823
1649,B,1165253460247594.0,10.034413511356773,18.906235156800264,-6.005256,249,1970-01-14 11:40:53.460247594,-2.1209416,-0.4250405,-1.220793,11.3242312932423,2.4838253251989784,-76.79407501220703,4.332015037536621,172.77032470703125,22500857.0,39641.0,0.4904998365386939,0.3306451215330718,-0.0828907461837,0.016469895708297513,0.010418047605715774,-0.0048411633855586274,22.500857648206875
1649,B,1165253500777333.0,-1.7959358886432277,11.399814256800266,-6.356007,249,1970-01-14 11:40:53.500777333,-2.6727486,0.5432849,-2.6471822,9.031262569783706,3.8008311145546587,-78.13351440429688,4.527603626251221,172.62042236328125,22541387.0,40530.0,0.16695274902428997,0.21695809136661467,-0.250500994695,0.013323276646433865,0.011097179109412146,-0.006756183628906855,22.541387387085706
1649,B,1165253540069364.0,3.3132905113567723,1.1484410568002659,5.286996,249,1970-01-14 11:40:53.540069364,-3.9318912,-1.2506205,-3.4930022,17.281162588929487,5.406004477695383,-78.17537689208984,4.005166053771973,172.6580352783203,22580679.0,39292.0,0.029809948917830297,-0.138538576109004,-0.021001790105999996,0.0038655999637708946,0.0015406297967510195,-0.005333943710200446,22.580679418053478
1649,B,1165253579943062.0,3.430007911356772,-2.2447409431997336,-0.08379706,249,1970-01-14 11:40:53.579943062,-2.5236115,-1.5851135,-5.4488277,19.822701378053097,6.210549340847538,-78.59698486328125,3.4184229373931885,172.6612548828125,22620553.0,39874.0,0.13444114065363993,-0.4126221308351462,0.10373617726678,0.003274673972786402,-0.010988491014345523,0.001649475476824471,22.620553116081282
1649,B,1165253620102020.0,-6.802211488643228,-2.2447409431997336,0.04309563,249,1970-01-14 11:40:53.620102020,-1.1590078,1.0279802,-5.0003514,20.948739744755557,5.23484063707147,-78.92383575439453,3.607088088989258,172.54502868652344,22660712.0,40159.0,-0.06771216173012339,-0.4837047515379581,-0.000817264363685,0.0013398845322947505,-0.01799779563461075,0.002066560311637696,22.66071207402274
1649,B,1165253659646864.0,1.2225540413567724,8.719505056800266,-1.2976574,249,1970-01-14 11:40:53.659646864,-1.397627,-3.713512,-2.569418,8.771103744552356,4.727096515197992,-79.46436309814453,3.2529191970825195,172.67433166503906,22700256.0,39544.0,-0.11032098704774781,-0.25951216394589033,-0.02480519531644,-0.0035200714176360694,-0.014694884852946651,-0.0005066072727954316,22.700256918091327
1649,B,1165253699518114.0,-0.8280796886432276,19.305468256800264,2.5971103,249,1970-01-14 11:40:53.699518114,-1.0663297,-5.856824,0.32170987,3.523720903874819,5.961790304642851,-76.93226623535156,4.493659019470215,173.13880920410156,22740128.0,39872.0,0.007864240695697229,0.16796026797994013,0.0259058930144,-0.00204257769527448,-0.0018251785979771832,2.194350930653056e-05,22.740128168137744
1649,B,1165253739722437.0,-8.665498488643227,28.215489556800264,3.544017,249,1970-01-14 11:40:53.739722437,2.7153592,0.93849796,-0.17470337,14.672452040135903,2.8782764414555735,-75.32997131347656,6.958230972290039,173.24053955078125,22780332.0,40204.0,-0.1908399085198123,0.5612670939689978,0.1234489409846,-0.0036781768746003613,0.014658928429897548,0.003002330873047898,22.780332491034642
1649,B,1165253779691864.0,-4.843754488643228,21.773890056800266,0.6159084,249,1970-01-14 11:40:53.779691864,2.389388,1.7289242,1.1899004,6.997180240390593,3.1802856578945544,-74.40557861328125,9.786555290222168,173.2926483154297,22820301.0,39969.0,-0.2699756661245811,0.6073165568879997,0.08313402915630001,-0.00920916885148088,0.023353559970551666,0.004128457366780816,22.820301918080077
1649,B,1165253819187489.0,-0.7107637886432276,6.694609056800266,0.6679823,249,1970-01-14 11:40:53.819187489,1.4093449,-0.58909124,0.7946873,10.769775560901637,1.7218622015080178,-74.6287841796875,9.746633529663086,173.2812957763672,22859797.0,39496.0,-0.10969062693985292,0.17513512049538332,0.025354273543600005,-0.007497649955436445,0.015451855724967047,0.0021424270017176257,22.85979754314758
1649,B,1165253860118271.0,6.895016511356772,4.840300056800265,-15.648502,249,1970-01-14 11:40:53.860118271,0.42077947,-0.16405073,-1.7235979,21.023705341052253,1.7817849828953616,-75.88059997558594,9.1419095993042,173.05758666992188,22900728.0,40931.0,0.12656382409669406,-0.16505611753560837,-0.30658382592035,0.0003453184164133324,0.0002062718350732744,-0.005755503404166378,22.900728325126693
1649,B,1165253899311186.0,-2.370544188643228,24.739109056800267,12.506711,249,1970-01-14 11:40:53.899311186,2.9997847,8.717059,0.7318367,14.80934326359669,9.247778696060044,-72.98185729980469,9.988561630249023,173.10707092285156,22939921.0,39193.0,0.08866382187205596,0.19556149069467274,-0.061568107331500026,0.00421770856422661,0.000597798545111605,-0.007214489359969879,22.93992124008946
1649,B,1165253938771030.0,-11.652265488643227,-2.2447409431997336,10.229825,249,1970-01-14 11:40:53.938771030,-0.7882957,-6.84752,3.0146985,25.266792535846825,7.523187310371897,-72.72109985351562,10.499387741088867,173.52613830566406,22979381.0,39460.0,-0.2766700349328618,0.05710588288133849,0.44859185528000006,-0.0037093625836896993,0.0049851272806547015,0.007635978547023906,22.979381084209308
1649,B,1165253978910823.0,-6.357488488643228,17.489466246800266,16.382324,249,1970-01-14 11:40:53.978910823,1.3369069,6.86776,0.78083885,17.78238218525231,7.040110566357386,-71.42762756347656,11.117508888244629,173.44552612304688,23019520.0,40139.0,-0.3614467574471505,-0.08740818551938916,0.5340925243555,-0.012806684964670656,-0.0006081520627943579,0.01972198415709467,23.019520877161995
1649,B,1165254018683582.0,2.580664911356773,-2.2447409431997336,19.612701,249,1970-01-14 11:40:54.018683582,2.0857878,-1.9078887,4.7063384,27.810654660289483,5.49000648210283,-70.64350128173828,10.959297180175781,173.7378387451172,23059293.0,39773.0,-0.0751078020697071,-0.08661117024994805,0.7158150646625,-0.00868154224783199,-0.0034606359185069243,0.02485628726900646,23.059293636120856
1649,B,1165254058645769.0,12.261619511356773,-2.2447409431997336,6.541558,249,1970-01-14 11:40:54.058645769,2.9870014,7.262973,2.2423816,23.758333725250786,8.16708206168822,-70.57162475585938,10.255927085876465,173.4227752685547,23099255.0,39962.0,0.2965636850502394,-0.48133193757214776,0.522588249079,0.004424909997834015,-0.011348071237393295,0.02474453661186891,23.099255823064595
1649,B,1165254098689363.0,5.281324511356773,2.266533056800265,-9.625289,249,1970-01-14 11:40:54.098689363,0.43249738,-2.6280074,3.1734228,18.521103805545636,4.142956570581142,-71.62549591064453,9.850214958190918,173.40882873535156,23139299.0,40044.0,0.3512448252227706,-0.3919948783014902,-0.06174246208200001,0.012970421992686207,-0.01748574950742198,0.009227054347253936,23.139299417147413
1649,B,1165254138533791.0,-1.9790920886432277,12.617266056800265,-14.144943,249,1970-01-14 11:40:54.138533791,0.42184472,3.3225598,1.5851135,15.135680505065556,3.705393555379802,-73.06263732910156,10.208758354187012,173.0242156982422,23179143.0,39844.0,0.06578707432529925,-0.09395615405885027,-0.47355056190399997,0.008308109502796647,-0.009681116466682703,-0.010664107623849091,23.17914384510368
1649,B,1165254178775458.0,12.552514511356772,18.475278756800265,-3.1070752,249,1970-01-14 11:40:54.178775458,-2.0975058,0.17789917,0.4293016,12.440159576762797,2.1483664863060237,-73.81812286376953,7.4406633377075195,172.9246368408203,23219385.0,40242.0,0.21274783256741925,0.23124149419445622,-0.3471278582022,0.005604400861588388,0.002762318328868527,-0.01651287049095685,23.219385512173176
1649,B,1165254220500978.0,8.226192511356773,19.828002856800264,-4.8668137,249,1970-01-14 11:40:54.220500978,-1.9441077,0.11930962,-1.0503508,9.409707476763034,2.212922578330402,-75.32135772705078,4.890547275543213,172.7555389404297,23261111.0,41726.0,0.43350616461487274,0.3902065643045478,-0.1663592441207,0.013482797143214159,0.012965270844464721,-0.010712881415762661,23.26111103221774
1649,B,1165254258234364.0,0.7586774513567724,13.360067056800265,-1.673547,249,1970-01-14 11:40:54.258234364,-2.6098979,0.7456851,-2.2178805,4.348472615747792,3.5052257030135268,-76.32783508300781,4.628536701202393,172.6192169189453,23298844.0,37733.0,0.16951304915153512,0.25635932102494435,-0.12339371514655001,0.011376861996523935,0.012198435275568865,-0.0054666242060155724,23.29884441802278
1649,B,1165254300452905.0,2.3735665113567723,7.134544056800266,4.2479124,249,1970-01-14 11:40:54.300452905,-3.5654402,-0.32490566,-3.0519826,11.228432038459454,4.704521792741408,-76.28910064697266,4.132816314697266,172.61634826660156,23341062.0,42218.0,0.06611853780892021,0.01888434599699357,0.054342279228599986,0.004973947169148251,0.005810118567166087,-0.0014576067607920068,23.34106295905076
1649,B,1165254338039416.0,6.992580211356772,-2.2447409431997336,5.8292828,249,1970-01-14 11:40:54.338039416,-2.6173549,-1.2239889,-4.778776,21.449277421666732,5.584388557223899,-76.35186767578125,3.359225273132324,172.62448120117188,23378649.0,37587.0,0.176022678433317,-0.27645608518454845,0.1893857679912,0.004550680947448486,-0.004840674480421313,0.004580503055425312,23.37864947016351
1649,B,1165254380187019.0,-5.8008367886432275,-2.2447409431997336,-1.1360487,249,1970-01-14 11:40:54.380187019,0.330232,1.0684602,-4.9928946,20.649489355202306,5.116605990255376,-76.74031829833984,3.492704153060913,172.4896697998047,23420797.0,42148.0,0.025114800890265243,-0.5076617412739823,0.09890521542339999,0.0042387712392651725,-0.016524499074787077,0.006075444184479279,23.42079707304947
1649,B,1165254417555250.0,0.8173353813567724,3.003947056800266,-1.6759412,249,1970-01-14 11:40:54.417555250,-1.0258497,-3.323625,-3.4631748,14.46438169163487,4.9084040627244745,-77.27306365966797,3.1787734031677246,172.5836181640625,23458165.0,37368.0,-0.09311174029374011,-0.3520213929734876,-0.0525392192916,-0.0012704548158145245,-0.01606231968027973,0.0008663022717265509,23.45816530403681
1649,B,1165254457835771.0,1.8300827113567724,14.711593756800266,3.259107,249,1970-01-14 11:40:54.457835771,-0.19068234,-4.0671797,0.13315806,4.393238624543894,4.073823945118754,-76.42586517333984,2.6645760536193848,172.82684326171875,23498445.0,40280.0,0.0533190003872508,-0.03795300801408533,0.031884959212000005,-0.0008014257817166949,-0.007854084435889721,-0.0004159767980031439,23.498445825185627
1649,B,1165254497390771.0,-4.837769488643228,19.334198656800265,1.5304934,249,1970-01-14 11:40:54.497390771,0.90014845,-3.045591,0.70840085,5.9427079733138255,3.253878229989427,-75.40323638916016,5.358888626098633,173.05247497558594,23538000.0,39555.0,-0.059484525237782866,0.28570165945998444,0.094726321911,-0.00012193866773139795,0.004899848953971269,0.002504054612410133,23.53800082509406
1649,B,1165254537554259.0,-9.471746488643227,24.968354056800266,1.602918,249,1970-01-14 11:40:54.537554259,2.6802053,1.8663434,0.2759035,12.68516098799972,3.277630375466993,-74.38286590576172,8.118781089782715,173.07330322265625,23578164.0,40164.0,-0.2873636998558666,0.4960766635945258,0.0629251677348,-0.006965406056330668,0.015699672283580674,0.0031659572150669556,23.57816431322135
1649,B,1165254577938738.0,-5.764324888643228,16.597027556800263,0.9947908,249,1970-01-14 11:40:54.577938738,0.53795856,1.2463595,0.8586032,6.446018552338276,1.6062412242772763,-74.19441223144531,9.535877227783203,173.05044555664062,23618548.0,40384.0,-0.3076467532501681,0.4435249855418219,0.0524529360896,-0.012014451069117055,0.018972436499361135,0.002329714672422285,23.618548792088404
1649,B,1165254617462593.0,4.216503111356772,3.1015110568002644,-9.629479,249,1970-01-14 11:40:54.617462593,-0.10972224,-3.9670448,0.36325517,17.59725422116516,3.9851521594149184,-75.2518310546875,9.056074142456055,173.07362365722656,23658072.0,39524.0,-0.03058805396273493,0.0019473200819736026,-0.17063870820839996,-0.006684196260141389,0.008803423703737446,-0.0023355872286117247,23.658072647172958
1649,B,1165254658036446.0,2.8691661113567726,17.112978036800264,11.096526,249,1970-01-14 11:40:54.658036446,2.3616912,9.856892,-0.9715212,11.337623775888085,10.182325798454443,-73.84707641601562,8.788500785827637,172.79005432128906,23698646.0,40574.0,0.14374697152118968,0.012466140241873895,0.029761982489000017,0.0022956549605083715,0.00029240586958989415,-0.0028579661346694665,23.69864650000818
1649,B,1165254697124312.0,-3.027752588643228,-2.2447409431997336,-15.453375,249,1970-01-14 11:40:54.697124312,1.3496901,3.7806234,1.2665994,25.225836645950462,4.209400277800381,-74.97213745117188,8.973617553710938,172.4440155029297,23737734.0,39088.0,-0.0030994141120864833,-0.09247757424267125,-0.08515025685599997,0.0027488158620035128,-0.0015637434661115834,-0.0010825084342286472,23.737734366208315
1649,B,1165254737008791.0,-10.035580488643227,18.520170056800264,4.31914,249,1970-01-14 11:40:54.737008791,-0.34514567,-2.9507825,0.13315806,11.4976475518232,2.9738819688698075,-74.39912414550781,10.2439603805542,172.684814453125,23777618.0,39884.0,-0.2605089882272465,-0.06629859261657825,-0.22203891437000003,-0.005256878759450978,-0.0031663143195071537,-0.006125966452588892,23.777618845226243
1649,B,1165254777156186.0,-5.154401988643228,1.318430056800267,17.3837,249,1970-01-14 11:40:54.777156186,4.3697147,2.4234767,5.256015,24.339807474665104,7.252126553988422,-73.44490051269531,10.649012565612793,172.773681640625,23817766.0,40148.0,-0.3049237082490483,0.004789658680417036,0.4356628101600001,-0.011350495949065143,-0.0012347303398345002,0.0042882860840884615,23.817766240099445
1649,B,1165254816802593.0,4.9628955113567725,-2.2447409431997336,10.399215,249,1970-01-14 11:40:54.816802593,0.9757822,-6.6877303,3.6985981,22.63254627137181,7.704382867738242,-73.04589080810547,10.2009859085083,173.2036590576172,23857412.0,39646.0,-0.0037962328992494016,-0.40689306070109665,0.5507407240450001,-0.006119755393382706,-0.007970895738255932,0.01955347725854572,23.8574126472231
1649,B,1165254858575874.0,9.935652511356773,-2.2447409431997336,-19.6133,249,1970-01-14 11:40:54.858575874,5.742841,3.4866107,3.1734228,29.27988402155555,7.430160778354351,-73.99561309814453,9.836343765258789,172.86898803710938,23899185.0,41773.0,0.31117852327640644,-0.5031449634202825,-0.19244998635249996,0.00642014020796249,-0.019007509190811185,0.007483439492814403,23.89918592805043
1649,B,1165254898523165.0,5.052678511356772,2.428142056800265,-3.7056258,249,1970-01-14 11:40:54.898523165,0.28336033,-3.278884,2.9933932,16.036014859575012,4.448794916815109,-74.64320373535156,9.336316108703613,172.95465087890625,23939133.0,39948.0,0.29937692384768033,-0.38782714615694297,-0.4657722239291999,0.01219523450085651,-0.0177962769166955,-0.013147330428166673,23.93913321918808
1649,B,1165254937105144.0,6.354525511356772,17.633716906800267,-6.2662244,249,1970-01-14 11:40:54.937105144,-1.200553,2.364887,0.97471696,8.540528891824732,2.8256134167096603,-76.85871124267578,7.483652591705322,172.54051208496094,23977715.0,38582.0,0.22005637280216694,0.00890972126681783,-0.19236696220819996,0.010020387725672203,-0.007309696043555404,-0.01269616303977658,23.977715198183432
1649,B,1165254976667280.0,9.197041511356773,19.807053456800265,-3.9240966,249,1970-01-14 11:40:54.976667280,-2.304167,0.3174488,-0.6988135,9.797211434816129,2.428641515805223,-78.0462417602539,4.793656349182129,172.40528869628906,24017277.0,39562.0,0.30762554727629665,0.3529082785623821,-0.20157473970099998,0.010438076061072088,0.007157121854621404,-0.0077925608054658846,24.017277334118262
1649,B,1165255016193999.0,0.35465592135677243,12.551425056800266,-8.791509,249,1970-01-14 11:40:55.016193999,-2.4703484,0.7755125,-2.3798008,10.026793224502677,3.5167446172162475,-79.5506591796875,4.677335262298584,172.2290496826172,24056804.0,39527.0,0.18877497221143416,0.25215219010354406,-0.2513048712756,0.009810611666895768,0.011958112572479033,-0.008950486191536032,24.056804053019732
1649,B,1165255056389676.0,1.6642842113567724,8.329250056800266,5.6401405,249,1970-01-14 11:40:55.056389676,-3.9659796,-0.7094661,-2.8176246,10.711914887245387,4.916436180933353,-79.22425842285156,4.276632308959961,172.27999877929688,24096999.0,40195.0,0.040575649317210465,0.025738368095586658,-0.06333462842874998,0.004609374116171936,0.00558490549340703,-0.006323467345308174,24.09699973021634
1649,B,1165255096633010.0,1.5673190113567725,-2.2447409431997336,-0.93014735,249,1970-01-14 11:40:55.096633010,-2.5182853,0.5933523,-4.7596016,19.661289762703316,5.417345770285846,-79.68986511230469,3.870912551879883,172.18287658691406,24137243.0,40244.0,0.06502632004744197,-0.2719587076161301,0.0947744821643,0.0021249228275555363,-0.004954445671832375,0.0006326327368667374,24.137243064120412
1649,B,1165255138000145.0,-6.861468088643228,-2.2447409431997336,2.4289176,249,1970-01-14 11:40:55.138000145,-2.2498386,0.58269966,-4.774515,21.109789726983365,5.310113567998247,-79.88352966308594,4.053006649017334,172.10585021972656,24178610.0,41367.0,-0.10950153244005441,-0.4982547985973434,0.030999814465875006,-0.0009199030555225994,-0.01593071105576638,0.0026014526643502248,24.17861019913107
1649,B,1165255177834051.0,2.723718511356773,-2.2447409431997336,-1.3485341,249,1970-01-14 11:40:55.177834051,-1.2442288,-0.314253,-4.4517403,19.778581957778943,4.633017586131368,-80.29360961914062,3.576852560043335,172.0594024658203,24218444.0,39834.0,-0.08241155833081433,-0.47979021073141825,0.021517998169500004,-0.003822333028883393,-0.019479722450800947,0.0010459972742587643,24.21844410500489
1649,B,1165255216525406.0,1.4913031613567724,15.770429456800265,2.7952304,249,1970-01-14 11:40:55.216525406,-1.5456988,-4.7553406,-0.7637946,3.3524914726191537,5.058243884325761,-79.29415893554688,3.0438742637634277,172.3494110107422,24257135.0,38691.0,0.0815417017694799,-0.11751059286014096,0.02798706327165,-1.6827810107295133e-05,-0.01155508269588051,0.0009577001661097676,24.257135460153222
1649,B,1165255258264416.0,-2.4112454886432273,23.684463056800265,5.869984,249,1970-01-14 11:40:55.258264416,0.11824436,-2.8826056,0.18535602,9.11927564632038,2.8909779708557815,-76.67633056640625,4.229704856872559,172.65834045410156,24298874.0,41739.0,-0.01919873639930467,0.4143616793125862,0.1808386919208,0.001301066515792872,0.006195133748719306,0.004358089097988835,24.29887447017245
1649,B,1165255297759570.0,-9.725531488643227,28.736229056800266,2.6138697,249,1970-01-14 11:40:55.297759570,3.2160335,2.122007,0.7222493,15.549864931332815,3.9201312774602,-75.30145263671875,6.882946491241455,172.68496704101562,24338369.0,39495.0,-0.2396710033589643,0.6481266175133265,0.16753490094075,-0.005112030185876418,0.02098148764156971,0.006879507525033459,24.33836962422356
1649,B,1165255337115145.0,-3.3330132886432278,16.521011656800265,2.8377275,249,1970-01-14 11:40:55.337115145,1.5563514,0.87564737,1.3464943,4.889542880204227,2.2365229479713298,-74.47848510742188,8.036096572875977,172.75741577148438,24377725.0,39356.0,-0.2569660441274429,0.5048831827622312,0.10727652970160001,-0.009772823820437522,0.022688926849822426,0.005407739332180164,24.377725199097767
1649,B,1165255377067698.0,4.788717511356772,-1.2709009431997345,-12.247539,249,1970-01-14 11:40:55.377067698,0.97045594,-2.3031018,0.257794,22.700976550746226,2.5124729608655536,-75.48302459716797,7.623571395874023,172.72706604003906,24417677.0,39952.0,0.029079147552925764,-0.08689338838511583,-0.187970394524,-0.004552268645972554,0.008349764132477257,-0.0016119406436922621,24.417677752207965
1649,B,1165255415776447.0,7.2296059113567726,16.706562256800265,6.67683,249,1970-01-14 11:40:55.415776447,3.3396041,7.79454,-1.7491642,9.462263738420326,8.65837079102636,-74.4063720703125,6.591714859008789,172.4424591064453,24456386.0,38709.0,0.2326086406849093,-0.08059869310591856,-0.1078182873405,0.005064836297449179,-0.0032417254912182254,-0.0057248420431464655,24.45638650120236
1649,B,1165255455268946.0,-6.487374088643228,3.7054480568002646,14.157514,249,1970-01-14 11:40:55.455268946,-0.080960095,4.2248387,1.551025,20.898491924928148,4.501277055306094,-73.74417877197266,7.069962024688721,172.34027099609375,24495879.0,39493.0,0.01465648068721301,0.01603436165751282,0.411405373796,0.004882620719174613,-0.001274919570945944,0.005994782402693531,24.49587900005281
1649,B,1165255495076029.0,-9.927841488643226,6.3300920568002645,-1.3060371,249,1970-01-14 11:40:55.495076029,-0.3568636,-0.58269966,0.4463458,15.28061600857444,0.8161587443302409,-74.16862487792969,7.940517902374268,172.32098388671875,24535686.0,39807.0,-0.3267202432425209,-0.1903662273489519,0.25578937047915007,-0.0062111610980195705,-0.0034698142887895577,0.01327951059268045,24.53568608313799
1649,B,1165255535091342.0,-7.193064888643228,10.792285656800265,14.7824,249,1970-01-14 11:40:55.535091342,3.8498657,6.3990436,3.597398,17.939871172550042,8.28917952955185,-73.01010131835938,8.700634002685547,172.20578002929688,24575701.0,40015.0,-0.3425465343435587,-0.049571027895137426,0.26962833072175,-0.013390355052553489,-0.004800544634296118,0.010512294656777008,24.575701396213844
1649,B,1165255574992540.0,2.2065709113567724,-2.2447409431997336,19.612701,249,1970-01-14 11:40:55.574992540,0.479369,-8.739429,4.094877,27.785946079135798,9.663096373799187,-72.23502349853516,8.489853858947754,172.79022216796875,24615602.0,39901.0,-0.09948304809385343,-0.2205020091913126,0.6861994625005,-0.00881871118441759,-0.005388092126393221,0.0190692423886805,24.6156025941018
1649,B,1165255615865717.0,10.427660511356773,-2.2447409431997336,0.035913024,249,1970-01-14 11:40:55.615865717,4.169445,10.712299,2.5161545,21.956812648572395,11.767270496648585,-72.48673248291016,7.955092906951904,172.25692749023438,24656475.0,40873.0,0.25819947047028535,-0.49230469657140274,0.401548900501476,0.003243608165895951,-0.014567274242319732,0.022229769420489882,24.65647577121854
1649,B,1165255656589208.0,6.540674511356772,1.7493860568002653,-6.752846,249,1970-01-14 11:40:55.656589208,-0.42717105,-4.595551,3.428021,18.037657818457056,5.749164467642242,-73.36363220214844,7.438648700714111,172.41053771972656,24697199.0,40724.0,0.34550923773249326,-0.40918161619686605,-0.13677018925731202,0.012292716716424977,-0.01835606430058749,0.005391424118353667,24.697199262212962
1649,B,1165255696529833.0,5.948109511356773,17.455348866800264,-3.074155,249,1970-01-14 11:40:55.696529833,-0.9033443,3.6911414,0.5006743,6.206120916657187,3.832914102066069,-74.83053588867188,5.011608123779297,172.0890350341797,24737139.0,39940.0,0.24940101693358951,-0.007893443575697453,-0.19624520997,0.011880357785681674,-0.008328988943658093,-0.006650317522569422,24.737139887176454
1649,B,1165255734533322.0,9.078528511356772,18.032351486800266,0.27473465,249,1970-01-14 11:40:55.734533322,-2.0975058,0.37710363,-0.49641323,8.55119447839493,2.188187337435223,-74.78799438476562,2.1322736740112305,172.0762481689453,24775143.0,38004.0,0.2855361757076028,0.3018980821191173,-0.053194585490700004,0.010164876534567937,0.005586676141602065,-0.004739854993344222,24.775143376085907
1649,B,1165255774275822.0,3.9297977113567724,12.889606056800265,-3.8313212,249,1970-01-14 11:40:55.774275822,-2.1283984,2.8367991,-2.4149544,6.790581629651519,4.290630913625959,-75.92739868164062,1.3141406774520874,171.87750244140625,24814885.0,39742.0,0.2584884503715409,0.2249786183488861,-0.07067293133505,0.010810313344818665,0.010469566914999695,-0.0024613714268444786,24.81488587614149
1649,B,1165255814347072.0,-1.4272286886432275,8.338827056800266,-4.0258503,249,1970-01-14 11:40:55.814347072,-3.2692966,1.365669,-2.8889973,10.083795648296347,4.571614318349685,-76.96014404296875,1.4460450410842896,171.7550506591797,24854957.0,40072.0,0.05014147293908859,0.03262728586410021,-0.157426288174,0.006183709143451773,0.005161391896811394,-0.004570195962083326,24.85495712608099
1649,B,1165255854225665.0,1.5200336113567725,-2.2447409431997336,5.6604915,249,1970-01-14 11:40:55.854225665,-4.0820932,0.23861924,-3.1329427,20.436463678435832,5.15128663507164,-77.0889663696289,1.1925852298736572,171.71029663085938,24894835.0,39878.0,0.001850437353985374,-0.269294416980919,0.032593110886799996,0.0010366666993336018,-0.004718905927338249,-0.002489048721929481,24.894835719140247
1649,B,1165255894414780.0,-5.010151488643228,-2.2447409431997336,-3.6804867,249,1970-01-14 11:40:55.894414780,-1.9579561,-0.27696875,-5.542571,20.71779381825036,5.884759728998693,-77.73905944824219,1.2775598764419556,171.64990234375,24935024.0,40189.0,-0.07013217368513268,-0.48406609376625415,0.0397872064536,-0.0013720873507062396,-0.015138402783209071,0.0014544462867966679,24.935024834005162
1649,B,1165255934501707.0,2.832056011356772,-2.2447409431997336,-2.136825,249,1970-01-14 11:40:55.934501707,-1.6287893,-0.9129316,-4.442153,19.860031962567362,4.818622413665762,-78.2715835571289,0.8566805720329285,171.6392364501953,24975111.0,40087.0,-0.04365665669899107,-0.4828375301900477,-0.11659928705894998,-0.002280726421804184,-0.019380132786768135,-0.001539582937613332,24.975111761130393
1649,B,1165255974265665.0,3.607777411356772,14.139978056800265,2.3732524,249,1970-01-14 11:40:55.974265665,-1.1483551,-4.334561,-0.9896307,5.03585752012437,4.592004727872076,-77.85345458984375,-0.11954760551452637,171.84490966796875,25014875.0,39764.0,0.1280367681103907,-0.15318609570739428,0.004700649566800004,0.0016776453750814472,-0.012645421730092941,-0.002224768710618926,25.014875719090924
1649,B,1165256014657748.0,-1.5858444886432277,20.751566056800264,4.5801077,249,1970-01-14 11:40:56.014657748,0.024501082,-3.9840891,0.12676647,6.084104292903706,3.986180627828378,-75.2024917602539,0.9312441349029541,172.05978393554688,25055267.0,40392.0,0.040834957307122735,0.3088280249182762,0.1404300605796,0.0034105333665321014,0.003143344402342971,0.0029310598221166943,25.0552678022068
1649,B,1165256054060352.0,-9.809329488643227,27.332029056800266,2.980781,249,1970-01-14 11:40:56.054060352,3.2490566,1.0226538,0.18216023,14.68428687468673,3.4110660993378086,-73.72565460205078,3.4980721473693848,172.06710815429688,25094670.0,39403.0,-0.2245020201135091,0.5611695491306008,0.14896084872305,-0.0036185166378800205,0.01714025720512395,0.005701434999626159,25.094670406077057
1649,B,1165256094197436.0,-6.614865088643228,17.153080906800266,2.2756886,249,1970-01-14 11:40:56.094197436,1.0418286,0.9150622,1.2154667,7.5278772442338315,1.843937352638557,-73.2698974609375,4.921557426452637,172.070556640625,25134807.0,40137.0,-0.3296089488742733,0.49940682930451724,0.1054894601676,-0.01112017598113131,0.02128417705062517,0.00510643602397201,25.134807490045205
1649,B,1165256135468530.0,-1.1967867886432275,5.458004056800265,-3.086126,249,1970-01-14 11:40:56.135468530,1.1100056,-2.5704832,1.2623384,12.428324206413055,3.07131804761867,-73.94070434570312,5.04290771484375,172.1482696533203,25176078.0,41271.0,-0.16119734231374466,0.06213524376637873,-0.016723780967700004,-0.010128033221810344,0.011587701448854475,0.0018317241731295366,25.17607858404517
1649,B,1165256175157123.0,5.630877511356772,11.412982056800265,-6.8988924,249,1970-01-14 11:40:56.175157123,2.1102889,5.5084825,-1.6479641,10.43082540097742,6.12474361660619,-74.99849700927734,4.2963786125183105,171.76651000976562,25215767.0,39689.0,0.08799231334688894,-0.05415591606865431,-0.19814769763880002,-0.0014527171973327685,0.0001583457684974923,-0.00426401705720669,25.21576717705466
1649,B,1165256215271812.0,-4.050675188643228,-0.20847294319973386,7.1939774,249,1970-01-14 11:40:56.215271812,0.23542345,3.4716969,1.4072144,19.54331696241431,3.7534458746393122,-74.82198333740234,4.6428375244140625,171.63035583496094,25255881.0,40114.0,0.03169411798666554,-0.16838836070851415,0.005918519844999987,0.0024005507532571017,-0.004463570559319667,-0.003855540619010247,25.255881866207346
1649,B,1165256253820873.0,-9.522024488643227,11.833763256800264,6.625953,249,1970-01-14 11:40:56.253820873,-0.002130529,0.4314321,0.5294364,13.271598702297611,0.6829649315368908,-74.2869644165039,5.696335315704346,171.66473388671875,25294430.0,38549.0,-0.26160699992985775,-0.1537085418505066,0.2663722484948,-0.004431455843014058,-0.006208256748373846,0.005248268414365475,25.29443092714064
1649,B,1165256295672748.0,-7.744329488643229,6.342662056800265,14.035409,249,1970-01-14 11:40:56.295672748,4.519917,2.489523,4.120443,19.684627363481535,6.603440388968996,-73.29696655273438,6.425210952758789,171.68312072753906,25336282.0,41852.0,-0.3613157233286964,-0.029789723887595366,0.43235966121200003,-0.013035280906908505,-0.0038398847088355224,0.0146216639425245,25.336282802047208
1649,B,1165256335004728.0,3.7693861113567726,-2.2447409431997336,18.20551,249,1970-01-14 11:40:56.335004728,-0.10013486,-6.094378,3.963849,26.95251248474484,7.270733738204984,-72.6325454711914,6.212575912475586,172.1034393310547,25375614.0,39332.0,-0.07817123645771544,-0.304863883379932,0.6340499130539999,-0.008642950551159575,-0.0065812978405231926,0.020972010687515155,25.375614782096818
1649,B,1165256375405612.0,11.139936511356773,-2.2447409431997336,5.777209,249,1970-01-14 11:40:56.375405612,3.5281558,7.6347504,2.0090888,23.02269050015799,8.64718074436167,-72.51219177246094,5.630579948425293,171.76438903808594,25416015.0,40401.0,0.301175771640125,-0.4866195788462125,0.48446291515949996,0.004504803112952264,-0.01598836167869923,0.022594518386326805,25.416015666211024
1649,B,1165256414423842.0,5.286113011356772,1.7781160568002647,-7.5824366,249,1970-01-14 11:40:56.414423842,0.23755397,-3.8136468,3.3779535,17.969819939168026,5.100088592561432,-73.43205261230469,5.261941432952881,171.90740966796875,25455033.0,39018.0,0.3204558001386185,-0.3914797849087672,-0.0352181852484,0.012127410333831506,-0.017130840487495896,0.008764315435835649,25.45503389602527
1649,B,1165256453311341.0,0.5162645313567724,16.668853656800266,-10.213664,249,1970-01-14 11:40:56.453311341,-0.3685815,3.8328216,1.1089402,10.237686537496309,4.007009122368559,-76.34239196777344,5.4294233322143555,171.47073364257812,25493921.0,38888.0,0.11282142894052215,-0.022419520888751307,-0.3460273800664,0.008424642442214811,-0.008047858101926951,-0.0074129387719809705,25.493921395158395
1649,B,1165256493368061.0,11.490088511356774,18.717691756800264,-4.36044,249,1970-01-14 11:40:56.493368061,-1.804558,0.008522116,-0.716923,11.847095722006525,1.9417725896082985,-77.421875,2.705548048019409,171.39382934570312,25533978.0,40057.0,0.24046924191598826,0.3161808248162982,-0.29189744196399997,0.007075882201249619,0.005883598275712874,-0.012776677298035865,25.53397811506875
1649,B,1165256532694936.0,6.279706511356772,11.017340356800265,-8.977658,249,1970-01-14 11:40:56.532694936,-2.1486385,0.8681905,-2.1571605,12.396742766080036,3.166029622529257,-78.70475006103516,1.92490553855896,171.2812957763672,25573304.0,39326.0,0.34940747953161644,0.19928513644972717,-0.26226702097399995,0.011598745973824251,0.010135607196373858,-0.010896535834749893,25.573304990073666
1649,B,1165256573065457.0,1.0513686113567724,8.056910056800266,3.651756,249,1970-01-14 11:40:56.573065457,-3.7167077,-0.08735169,-2.9273467,10.014288365725934,4.73190290971677,-78.63988494873047,1.6626282930374146,171.2652130126953,25613675.0,40371.0,0.14798141688953423,-0.010612518276266513,-0.107505994821,0.010040043568709137,0.00380845113414039,-0.0074640532103299705,25.613675511209294
1649,B,1165256612959571.0,0.32592550135677245,-2.2447409431997336,0.44951138,249,1970-01-14 11:40:56.612959571,-3.4184337,0.05539375,-4.8277783,19.619817889106493,5.915758678545436,-79.06209564208984,1.40229070186615,171.20863342285156,25653569.0,39894.0,0.027472885666297076,-0.2750258626910102,0.08180798042885999,0.003499786973081167,-0.005697628785154269,-0.0005125982930800167,25.653569625224918
1649,B,1165256652546342.0,-6.020504488643228,-2.2447409431997336,3.8373067,249,1970-01-14 11:40:56.652546342,-2.6003106,0.11824436,-4.3771715,21.039901410620388,5.092664065649375,-79.19021606445312,1.6028800010681152,171.1611328125,25693156.0,39587.0,-0.11271564918485444,-0.47681515971844785,0.08485113366647999,-0.0016872526397045651,-0.014881565277061607,0.0032987671748461117,25.69315639603883
1649,B,1165256694651550.0,2.382544811356772,-2.2447409431997336,-0.84455466,249,1970-01-14 11:40:56.694651550,-1.1622036,0.6892261,-4.3430834,19.71611935851261,4.5484198623400784,-79.57775115966797,1.2244014739990234,171.07864379882812,25735261.0,42105.0,-0.0765881461060731,-0.5071438174134247,0.0630049123221,-0.003985318150362252,-0.020714796366068745,0.00311273940817458,25.735261604189873
1649,B,1165256734464779.0,2.4842984113567725,13.321161056800264,3.3704374,249,1970-01-14 11:40:56.734464779,-1.587244,-4.322843,-1.0077401,5.608349343535224,4.71400628206338,-78.99420166015625,0.6176241040229797,171.2931365966797,25775074.0,39813.0,0.09688181461294718,-0.16967464300861107,0.05028148476381,0.0004039759121320887,-0.013473086682391255,0.0022551356635906674,25.775074833072722
1649,B,1165256772384728.0,-2.1281310886432276,21.014329556800266,6.589442,249,1970-01-14 11:40:56.772384728,-0.43036684,-4.0139165,0.39095205,7.995332967794,4.055808771545207,-76.33201599121094,1.6063506603240967,171.5457763671875,25812994.0,37920.0,0.006752932438648811,0.27938490203386607,0.188839313424,0.00196491480409826,0.0020801065111188347,0.0045337303336408785,25.8129947821144
1649,B,1165256813823945.0,-13.882464488643226,33.492909056800265,3.4404678,249,1970-01-14 11:40:56.813823945,3.5611792,2.3595607,0.62317973,21.916795366252288,4.3171607530158065,-74.91336822509766,4.245520114898682,171.5059814453125,25854433.0,41439.0,-0.3317315350635866,0.723260530454496,0.2078147161011,-0.006733394157087398,0.020774312038442617,0.008218473164745308,25.85443399916403
1649,B,1165256854596396.0,-4.867696488643228,16.115793056800264,4.036624,249,1970-01-14 11:40:56.854596396,1.2868395,0.77231675,1.8311896,6.877296917121798,2.367632659902919,-74.10298919677734,5.43559455871582,171.55618286132812,25895206.0,40773.0,-0.3822501567634503,0.6117724056389172,0.15243173198069998,-0.014555587760431888,0.027216648951668365,0.007344164213819614,25.89520645001903
1649,B,1165256894169517.0,-0.2415002886432276,-0.34015494319973527,-15.848418,249,1970-01-14 11:40:56.894169517,1.0024139,-2.961435,1.0396981,23.77833907553509,3.2948297414709944,-75.25376892089844,5.420960903167725,171.59852600097656,25934779.0,39573.0,-0.10109312203377845,-0.07567073646524317,-0.233714061981,-0.009563671785921367,0.010607575677104901,-0.0016082928225509363,25.93477957113646
1649,B,1165256931520405.0,5.406421511356772,15.522031056800266,3.3662477,249,1970-01-14 11:40:56.931520405,3.8903458,8.576444,-1.9036276,6.184876994653029,9.60801645336827,-74.44979858398438,4.265043258666992,171.21107482910156,25972130.0,37351.0,0.0964574862947868,-0.08251067264045332,-0.23311077143765002,-8.657281524353847e-05,-0.002954116905753435,-0.008718187176509998,25.972130459034815
1649,B,1165256971681915.0,-6.318582788643228,12.204265756800265,11.9135475,249,1970-01-14 11:40:56.971681915,-0.6711166,5.7822556,0.82877576,14.692989519307446,5.87977436428393,-73.51738739013672,4.993252754211426,171.0221405029297,26012291.0,40161.0,-0.018316654528550684,0.16318010316550544,0.30682592751360005,0.0015691069722819045,0.001619882499658309,0.0014802371915831145,26.012291969032958
1649,B,1165257011287488.0,-7.137399888643228,-2.2447409431997336,-0.90859956,249,1970-01-14 11:40:57.011287488,0.6828345,-1.514806,1.3390374,21.08837516661015,2.1339918768882438,-73.91398620605469,5.44716215133667,171.07435607910156,26051897.0,39606.0,-0.2664688249583037,-0.19091033011626873,0.21793098405582,-0.005639606850278178,-0.0005491416843059656,0.010391761119809226,26.0518975420855
1649,B,1165257051452332.0,-3.6514424886432275,10.264963056800266,17.989433,249,1970-01-14 11:40:57.051452332,3.3257556,2.5960495,4.0266995,19.793850452066014,5.832189312829434,-72.64025115966797,5.898202896118164,171.11585998535156,26092062.0,40165.0,-0.21666692704185522,-0.23255088940361734,0.3430258375588,-0.009702573739543191,-0.008504159941008112,0.011265415370075606,26.09206238621846
1649,B,1165257092047435.0,4.615137811356772,-2.2447409431997336,5.961562,249,1970-01-14 11:40:57.092047435,0.9331717,-5.667207,3.1989892,20.897025134088267,6.574311865453793,-72.5728988647461,5.545090675354004,171.43426513671875,26132657.0,40595.0,0.019560605812778166,-0.23504054164919322,0.48614532101249996,-0.004000765555147192,-0.009490937071794422,0.01683010159110096,26.132657489040866
1649,B,1165257131008790.0,6.948287311356772,-2.2447409431997336,-19.6133,249,1970-01-14 11:40:57.131008790,5.1409664,2.5577,3.0754185,28.464089862253452,6.513797952505989,-73.56578826904297,5.3458967208862305,171.23959350585938,26171618.0,38961.0,0.2252613031030212,-0.4692751518880049,-0.26594268210899996,0.00476925319663423,-0.01372042186795139,0.004289657507159632,26.171618844149634
1649,B,1165257171110457.0,2.7087548113567728,2.685518056800266,-3.6912606,249,1970-01-14 11:40:57.171110457,0.22264028,-2.5023062,2.5321336,15.291982132202726,3.566904201276771,-74.26402282714844,5.118068695068359,171.33004760742188,26211720.0,40102.0,0.19363335160252929,-0.38416157809519574,-0.46727974459059995,0.008399256721500992,-0.017112259872893155,-0.014701842877753677,26.211720511084422
1649,B,1165257210950197.0,8.623630511356772,15.013263056800266,-1.0217255,249,1970-01-14 11:40:57.210950197,-1.2911005,2.0442424,0.87777793,8.464795506172742,2.5722289138902656,-74.61031341552734,3.7982470989227295,171.2227325439453,26251560.0,39840.0,0.2257411156284538,-0.037872280217077434,-0.093882683112,0.008353939387241183,-0.008406914457580482,-0.011178355559835792,26.25156025122851
1649,B,1165257251393582.0,10.029624511356774,21.019118056800266,-1.0672154,249,1970-01-14 11:40:57.251393582,-2.0836573,1.0024139,-0.9353022,10.207127429697259,2.4942436881911396,-74.735595703125,0.9022855758666992,171.16390991210938,26292003.0,40443.0,0.37719679644180193,0.33228739468867313,-0.04224151840935,0.012192308988928676,0.005953515237287372,-0.002752635541063979,26.29200363601558
1649,B,1165257291413634.0,1.1118222113567724,13.725182656800264,-3.357868,249,1970-01-14 11:40:57.291413634,-2.835734,0.36751625,-2.292449,4.985646467160527,3.66493900772865,-76.08430480957031,0.6246732473373413,171.1002655029297,26332023.0,40020.0,0.22294034892149805,0.3030374572791466,-0.08854591883400001,0.012008744278719632,0.012712850287876073,-0.0026170566192394336,26.332023688126355
1649,B,1165257331368530.0,0.8933513113567724,9.374319756800265,2.0667946,249,1970-01-14 11:40:57.331368530,-3.1798143,0.551807,-2.6237464,8.263912794754546,4.159297430966731,-76.22933959960938,0.4300963282585144,171.04234313964844,26371978.0,39955.0,0.040058354050009834,0.06991130946770453,-0.025792418848499993,0.005254056588613299,0.007450583987685218,-0.0022841941410521437,26.37197858421132
1649,B,1165257371098790.0,3.2043545113567724,-2.2447409431997336,0.94570965,249,1970-01-14 11:40:57.371098790,-2.8655615,-0.35792887,-4.4730453,19.813667023956043,5.324254881400196,-76.64385986328125,0.0066833398304879665,171.0059814453125,26411708.0,39730.0,0.08140092616820457,-0.2477249168678255,0.05984339692625001,0.0024127886015348292,-0.003532267311003403,0.000676422679514504,26.411708844127133
1649,B,1165257411091759.0,-4.8305861886432275,-2.2447409431997336,2.1398177,249,1970-01-14 11:40:57.411091759,-1.9483687,-0.19707392,-5.1100736,20.45220097312619,5.472461139058076,-76.91283416748047,0.13290321826934814,170.9562225341797,26451701.0,39993.0,-0.0325189417348586,-0.481705324541387,0.061699747654275,0.0009774686017214027,-0.014586051822339316,0.002430437490604468,26.45170181314461
1649,B,1165257450952644.0,-0.5647174886432276,-2.2447409431997336,-1.6352397,249,1970-01-14 11:40:57.450952644,-1.7299895,-1.8130801,-4.5103297,19.713321958867816,5.159767157714421,-77.4377212524414,-0.028724785894155502,170.99319458007812,26491562.0,39861.0,-0.10753109994015769,-0.4801154187368846,0.010056491829,-0.002791267355603912,-0.019169568323907593,0.0014301377310214124,26.491562698036432
1649,B,1165257490793478.0,0.8598324813567724,15.920067056800265,2.0231004,249,1970-01-14 11:40:57.490793478,-1.1685951,-4.2727757,-0.9651296,2.506477653647062,4.533619065939558,-76.54829406738281,-0.2960174083709717,171.1886749267578,26531403.0,39841.0,0.0058788382123501695,-0.11802246615402064,0.007726379074350001,-0.00202496387974879,-0.011915205735969278,0.0003542436798301837,26.531403532018885
1649,B,1165257530759311.0,-2.429202088643228,22.253329056800265,3.6523547,249,1970-01-14 11:40:57.530759311,0.28975195,-3.3992589,0.4282363,6.791277312140011,3.438357687966117,-74.11180114746094,1.2129247188568115,171.37852478027344,26571369.0,39966.0,-0.03136071286240524,0.37115217453807936,0.11341261926330001,-0.0005092043011320506,0.005058290962638646,0.0024207206037812606,26.571369365090504
1649,B,1165257570148009.0,-8.494313488643227,26.803509056800266,2.7988217,249,1970-01-14 11:40:57.570148009,3.0104373,1.026915,0.8948221,13.371169722121357,3.304238754252589,-72.53852844238281,3.7561991214752197,171.40643310546875,26610758.0,39389.0,-0.2151331775368681,0.5801376982283056,0.12705269360979998,-0.004854573924468489,0.01873517839919757,0.004735844104379268,26.61075806315057
1649,B,1165257610045249.0,-3.6729900886432274,16.780183956800265,3.4931402,249,1970-01-14 11:40:57.610045249,1.2761868,0.84581995,1.5808525,5.517771827353611,2.2007177836034524,-71.65384674072266,4.912403583526611,171.4525146484375,26650655.0,39897.0,-0.24271945541149884,0.4784387000818101,0.12551520196215002,-0.009133473248370497,0.021117011281689343,0.005038350664817046,26.650655303150415
1649,B,1165257650175040.0,0.8281093113567723,3.8634650568002655,-6.0250087,249,1970-01-14 11:40:57.650175040,1.3528858,-1.4082797,0.58056915,14.790587827152738,2.0373051414075047,-72.54864501953125,4.8010640144348145,171.4466552734375,26690785.0,40130.0,-0.05708253279625272,0.020940817457894615,-0.0508019414525,-0.006015526893388535,0.010020050019434176,0.0014991215721261277,26.690785094164312
1649,B,1165257690412957.0,6.120492211356773,12.371860056800266,-5.8933277,249,1970-01-14 11:40:57.690412957,1.0791129,3.568636,-1.506284,9.52073930278608,4.021012190991021,-73.58307647705078,3.9084928035736084,171.17147827148438,26731023.0,40238.0,0.13979891403547384,-0.06769389403947094,-0.23978501003160005,0.00166417087415189,-0.0009406251477447344,-0.00584631887690861,26.73102301103063
1649,B,1165257729967488.0,-6.183310488643228,5.894347056800266,14.807539,249,1970-01-14 11:40:57.729967488,1.2218584,5.8685417,1.1057445,19.908795745174796,6.095522170706108,-72.75042724609375,4.455325126647949,170.9628143310547,26770577.0,39554.0,-0.0012423570698942238,-0.026378421914322322,0.17629635688009998,0.002740233027108268,-0.0018604681926181693,-0.0012556150933772168,26.770577542018145
1649,B,1165257770147592.0,-7.612050488643228,3.758121056800265,-1.1025299,249,1970-01-14 11:40:57.770147592,-0.3206446,-1.6980315,0.4463458,15.912328678746647,1.7847544670567572,-73.21903991699219,5.096240997314453,171.01248168945312,26810757.0,40180.0,-0.2771488020336849,-0.19984591559776538,0.275333632819,-0.005592878386390905,-0.004544846940617842,0.009073246493054918,26.81075764610432
1649,B,1165257810536915.0,-9.873972488643227,12.783663056800265,15.874156,249,1970-01-14 11:40:57.810536915,2.171009,2.6035063,2.7643614,19.540395702889974,4.3741535274874215,-72.09610748291016,5.969227313995361,171.02671813964844,26851146.0,40389.0,-0.35312149101481133,-0.06175914071789414,0.29830560327645,-0.012727993432967858,-0.005282983309766586,0.011584357553329564,26.851146969012916
1649,B,1165257849969207.0,3.6879833113567724,-2.2447409431997336,18.806454,249,1970-01-14 11:40:57.849969207,2.078331,-3.5441349,3.6847498,27.35258252537609,5.5188525096761785,-71.34441375732422,5.792002201080322,171.31695556640625,26890579.0,39433.0,-0.1219660556139684,-0.17865274214719518,0.6837802470650001,-0.009367063613106337,-0.004740080888509533,0.019363295668257202,26.890579261118546
1649,B,1165257889865197.0,10.755666511356774,-2.2447409431997336,2.5492263,249,1970-01-14 11:40:57.889865197,3.914847,6.396913,2.4234767,22.252671210913437,7.881609117332633,-71.42366790771484,5.229818344116211,171.02667236328125,26930475.0,39896.0,0.28812192666348985,-0.48053698466989664,0.4260031106244,0.003314477315695854,-0.013149516670547349,0.022137958419188152,26.930475251050666
1649,B,1165257929768894.0,4.488245311356772,-0.9674339431997332,-8.013393,249,1970-01-14 11:40:57.929768894,0.39414784,-3.1883366,3.3502567,20.39297325600136,4.641665945603056,-72.33306884765625,4.968901634216309,171.1476593017578,26970378.0,39903.0,0.3041389067308693,-0.455137107245999,-0.10901832191505002,0.011816492017467555,-0.018668101644859995,0.006324322011934596,26.970378948142752
1649,B,1165257969404363.0,5.391457811356772,14.584102556800264,-10.832565,249,1970-01-14 11:40:57.969404363,-0.6785734,3.4610443,1.2868395,12.184588089689456,3.754363515232682,-75.0191650390625,3.9510295391082764,170.79684448242188,27010014.0,39636.0,0.195795956485937,-0.1185776614156647,-0.373489195644,0.009907709119230666,-0.01136987928533685,-0.009562333982985253,27.0100144171156
1649,B,1165258009010926.0,8.346501111356773,19.612524656800264,1.5101427,249,1970-01-14 11:40:58.009010926,-2.2732744,0.22370553,-0.84368944,8.245207453252236,2.4350836809061525,-74.39602661132812,1.145544171333313,170.8107452392578,27049620.0,39606.0,0.27205280054649633,0.28905700871093126,-0.18461192880690003,0.009264808935513277,0.003376002514488164,-0.011052076567501174,27.049620980164036
1649,B,1165258049434207.0,5.755975011356772,15.729129456800266,-4.4759603,249,1970-01-14 11:40:58.049434207,-1.9281287,2.433064,-1.1856394,7.0530434386187135,3.323134288392819,-75.45879364013672,0.062831349670887,170.66836547851562,27090044.0,40424.0,0.28503924739228614,0.31817031294409387,-0.05994510533119999,0.01125994447293867,0.012273278625291368,-0.004942986773999278,27.090044261189178
