Subject-id_accel,Activity_accel,Timestamp_accel,accel_x,accel_y,accel_z,Segment_accel,DateTime,gyro_x,gyro_y,gyro_z,accel_magnitude,gyro_magnitude,Roll,Pitch,Yaw,Time_Difference,Difference_Microseconds,vx,vy,vz,dx,dy,dz,Time_diff
1638,B,1140528465956096.0,3.1923687,12.625649396897638,-1.565359,195,1970-01-14 04:48:48.465956096,-1.3004644,-2.5185297,-0.5337558,3.5922674386397304,2.884284098261316,-129.1389617919922,-7.72075080871582,101.17591094970703,15034009.0,49882.0,0.25036497343130004,0.018953785596147958,-0.15338232142240002,0.012196798611018864,-0.0044220616313260025,-0.014247221683384199,15.034009840106592
1638,B,1140528515838096.0,6.874651,13.985555996897638,-1.1320084,195,1970-01-14 04:48:48.515838096,-2.6629376,-1.2252985,-1.5489528,7.214483284941242,3.315395580051323,-129.70079040527344,-9.11353588104248,101.33578491210938,15083891.0,49882.0,0.2510815383377,0.174866473726648,-0.06727504032340001,0.012506577450030632,0.004834071087769854,-0.0055034152593019985,15.08389184018597
1638,B,1140528565720096.0,5.213075,11.299261696897638,-0.21024084,195,1970-01-14 04:48:48.565720096,-2.3348362,-1.0921406,-0.8906194,5.280388957274586,2.7271659440993243,-129.73123168945312,-10.476449012756348,101.39205169677734,15133773.0,49882.0,0.30147997416600003,0.14178503810094795,-0.03347703829484,0.013781436683354782,0.00789760535649207,-0.002512857592817524,15.133773840032518
1638,B,1140528615602096.0,9.807548,5.732742996897638,2.255787,195,1970-01-14 04:48:48.615602096,-0.44718763,0.50149506,-1.7928983,11.915709685250686,1.9146692627637576,-129.0476837158203,-11.644387245178223,101.29421997070312,15183655.0,49882.0,0.37462935824300003,-0.06404837093205205,0.05101796677656001,0.01686284285961287,0.0019388302158594327,0.00043748829726257874,15.183655840111896
1638,B,1140528665484096.0,13.248015,-3.5232410031023615,-13.454965,195,1970-01-14 04:48:48.665484096,-0.03066923,4.2501607,0.21938615,24.516070968841518,4.255929611765813,-129.04856872558594,-12.284685134887695,101.12568664550781,15233537.0,49882.0,0.575028796783,-0.43373641077275205,-0.279318698498,0.023685424044503467,-0.01241525024049952,-0.005694048549864435,15.233537840191275
1638,B,1140528715366096.0,-2.074875,-7.7968910031023615,-15.329624,195,1970-01-14 04:48:48.715366096,0.8396518,3.4789093,1.8066301,25.21320843329791,4.008957143833761,-128.92848205566406,-11.905092239379883,100.92186737060547,15283419.0,49882.0,0.27866928474,-0.7711790123667521,-0.7179164342490001,0.021292083851265145,-0.03005179556852237,-0.024872041445842933,15.283419840037823
1638,B,1140528765248096.0,2.7494414,5.234748996897638,-7.072023,195,1970-01-14 04:48:48.765248096,-0.19791575,2.306053,3.0103788,10.241247498968422,3.7972926674667176,-129.06808471679688,-11.954310417175293,100.76836395263672,15333301.0,49882.0,0.016824360582399996,-0.5527459837767521,-0.558719477827,0.007369907007985979,-0.03302001332881514,-0.03184057628308752,15.333301840117201
1638,B,1140528815136746.0,-3.3174658,4.643380996897638,-0.33952773,195,1970-01-14 04:48:48.815136746,-0.4802108,2.99954,0.8127384,8.180215887475622,3.1445804697719537,-128.26963806152344,-11.228803634643555,100.46398162841797,15383190.0,49889.0,-0.014169084645800004,-0.24250718636977378,-0.18487742718448502,6.623453060051851e-05,-0.019837192702720014,-0.01854865299705899,15.383190490072593
1638,B,1140528865025396.0,-2.2688055,12.922530436897638,0.31648353,195,1970-01-14 04:48:48.865025396,-1.9726462,2.5755649,-0.33774716,2.429607854470969,3.2617389117730613,-128.70436096191406,-8.478968620300293,100.4302749633789,15433079.0,49889.0,-0.13934674444285,-0.050739322239693775,-0.0005748260469000004,-0.00382937559870183,-0.007314887534008864,-0.0046260137307302844,15.433079140027985
1638,B,1140528914914046.0,-5.55365,7.525999696897638,1.0084078,195,1970-01-14 04:48:48.914914046,-0.6666321,1.9864737,-1.3177904,7.273266377624054,2.4752873885418354,-128.00672912597656,-7.424282073974609,100.2929458618164,15482967.0,49888.0,-0.19512332999200002,0.021165735657389353,0.03304808933552,-0.008343021536702898,-0.0007376835437090016,0.0008100130794713374,15.482967790216208
1638,B,1140528964802696.0,-8.697237,9.958508596897637,-4.285172,195,1970-01-14 04:48:48.964802696,-3.1614814,-0.27721322,0.46120116,9.932090661872895,3.2069484439064615,-128.46144104003906,-6.0729265213012695,100.32270050048828,15532856.0,49889.0,-0.3554812507715,-0.0527698828654238,-0.0817372445869,-0.013734555964855127,-0.0007883496500308153,-0.0012145266331680484,15.5328564401716
1638,B,1140529014691346.0,-5.2017026,-1.7946275031023617,-8.226028,195,1970-01-14 04:48:49.014691346,4.8354588,-1.4266336,-1.7769194,16.97489613921608,5.345501640561226,-128.0437774658203,-5.519108772277832,100.41658782958984,15582745.0,49889.0,-0.3467020988522,-0.2852682680558238,-0.3120856284,-0.017515612564688386,-0.00843219265565506,-0.009823714655221728,15.582745090126991
1638,B,1140529064579996.0,-1.8737621,-7.7968910031023615,-19.698444,195,1970-01-14 04:48:49.064579996,5.246651,-3.595512,-0.7915498,28.0703238613746,6.409493298524076,-127.96328735351562,-5.207911491394043,100.59950256347656,15632633.0,49888.0,-0.17649039147679998,-0.7281532376187707,-0.696548029568,-0.013050513478766575,-0.025278786037547088,-0.02515935796435379,15.632633740082383
1638,B,1140529114468646.0,2.732682,-3.6525280031023613,-16.577003,195,1970-01-14 04:48:49.114468646,3.8394365,-5.142276,2.0484452,23.039448099173168,6.7364978167525065,-127.99422454833984,-5.010458469390869,100.7588119506836,15682522.0,49889.0,0.021425327445550004,-0.7745122324002738,-0.9048728876915001,-0.0038680204897275153,-0.03748323881689006,-0.0399466440705796,15.682522390037775
1638,B,1140529164357296.0,4.7557826,1.4782459968976376,-8.044068,195,1970-01-14 04:48:49.164357296,-1.50393,-4.0045733,0.8020858,14.157058287021064,4.352212585632109,-128.06027221679688,-5.217044830322266,100.89071655273438,15732411.0,49889.0,0.18679600521470002,-0.5431485775037738,-0.6141603055595001,0.005193977032543607,-0.032868390072651514,-0.037891523489049575,15.732411039993167
1638,B,1140529214245946.0,5.270536,6.482127996897638,-3.8494275,195,1970-01-14 04:48:49.214245946,-0.44718763,-3.680733,-0.3899451,8.619933870385623,3.728247493760041,-128.0243377685547,-5.888319492340088,101.0414810180664,15782299.0,49888.0,0.2500964911584,-0.2903388310987707,-0.296671351752,0.010897846429530606,-0.02079050992018187,-0.022719784859978057,15.78229969018139
1638,B,1140529264134596.0,6.8195844,9.431784296897638,-0.1743278,195,1970-01-14 04:48:49.264134596,-1.9950168,-2.3086724,-1.5510833,7.329801562027521,3.4228525656742637,-127.84188842773438,-7.159583568572998,101.14849853515625,15832188.0,49889.0,0.3015820083178,-0.09194761478742378,-0.10037056408085002,0.013761344330184073,-0.009535944249408177,-0.009904012069492527,15.832188340136781
1638,B,1140529314023246.0,7.8562737,10.557059196897638,0.36436757,195,1970-01-14 04:48:49.314023246,-2.4477541,-1.4031978,-2.2094166,8.017151859708699,3.583571669765684,-127.75711059570312,-8.57409954071045,101.24385070800781,15882076.0,49888.0,0.3660746044464,0.009699312109229327,0.00474035202288,0.016654026548790207,-0.0020516016620048825,-0.002385400009574004,15.882076990092173
1638,B,1140529363911896.0,3.407847,13.126037596897639,1.1640309,195,1970-01-14 04:48:49.363911896,-4.199049,0.6240005,0.79356366,3.7409427321646302,4.318695683985368,-127.7164535522461,-11.416088104248047,101.1570816040039,15931965.0,49889.0,0.28097785880115,0.10185080797282627,0.038125135634915,0.016140400169478514,0.002782561970386836,0.0010692581568798674,15.931965640047565
1638,B,1140529413800546.0,8.981548,5.378400996897638,0.32366616,195,1970-01-14 04:48:49.413800546,-5.832099,2.773704,2.2156918,11.230657448588357,6.827598609907018,-127.399658203125,-12.405844688415527,100.8600082397461,15981854.0,49889.0,0.3090472635775,-0.02732823149707372,0.03710985931317,0.014717881665174236,0.0018589284088994095,0.0018766993314825063,15.981854290002957
1638,B,1140529463689196.0,12.302306,-7.7968910031023615,-19.698444,195,1970-01-14 04:48:49.463689196,3.986443,4.7007675,1.4849203,30.5905022873554,6.339868388117954,-127.31912994384766,-12.772614479064941,100.65886688232422,16031742.000000002,49888.00000000186,0.5309044541760197,-0.5492292147147911,-0.48328445844097806,0.02095175564764458,-0.014381648938309295,-0.01112937920064446,16.03174294019118
1638,B,1140529513577846.0,1.9617491,-2.9749690031023626,-19.698444,195,1970-01-14 04:48:49.513577846,0.687319,1.9587768,3.0892086,24.890232873842034,3.721884433226427,-127.63057708740234,-12.514891624450684,100.56735229492188,16081631.000000002,49889.0,0.35580972244195,-0.7576108619247739,-0.9827356727159999,0.02211864177864695,-0.03259847229173563,-0.03656913916164524,16.08163159014657
1638,B,1140529563466496.0,-3.9926307,3.8580819968976385,-5.647473,195,1970-01-14 04:48:49.563466496,-0.04558293,3.0240412,2.4937258,10.769334881532494,3.919894303216665,-127.5137939453125,-11.7020263671875,100.35114288330078,16131519.999999998,49888.999999996275,-0.05065932607119621,-0.4668833879262389,-0.6322412266064528,0.0076118240622697,-0.030544396815406306,-0.04028479126514591,16.131520240101963
1638,B,1140529613355146.0,-3.0612862,7.983292196897638,1.3555671,195,1970-01-14 04:48:49.613355146,0.48811454,0.698569,0.072379656,5.3163377939738075,0.8552737962331654,-126.49894714355469,-10.77695083618164,100.12899017333984,16181408.000000002,49888.000000003725,-0.17595290315361314,-0.1935311621099851,-0.107057300769608,-0.005652615445784067,-0.016473380536104802,-0.018441062466869836,16.181408890057355
1638,B,1140529663243796.0,-3.580828,12.146809096897638,1.2861352,195,1970-01-14 04:48:49.663243796,-1.3569235,1.9577116,-0.47623152,3.804946331047345,2.429129999458308,-125.72260284423828,-8.110109329223633,99.92549133300781,16231297.000000002,49889.0,-0.1656842176619,0.013223111723076225,0.06589594302235001,-0.008521967160182567,-0.004497694162876249,-0.0010267494883264769,16.231297540012747
1638,B,1140529713132446.0,-7.4498577,9.59937849689764,0.405069,195,1970-01-14 04:48:49.713132446,0.31767225,1.9257536,-0.43575147,7.872909782613195,1.99983047530039,-125.36908721923828,-6.795566558837891,99.81709289550781,16281186.000000002,49889.0,-0.27515493944365,0.053535576433426255,0.042186243166900006,-0.010996512354419393,0.001665262096719876,0.002696056093397747,16.28118619020097
1638,B,1140529763021096.0,-3.9686885,11.699093366897639,-1.6994343,195,1970-01-14 04:48:49.763021096,-1.3334876,1.7893997,0.37811056,4.337035461944986,2.2634283866067784,-125.80691528320312,-5.479001522064209,99.772705078125,16331074.000000002,49888.0,-0.2848242164128,0.04236668217050938,-0.0322866480432,-0.013968120063683288,0.0023921859386165705,0.00024693550076557294,16.33107484015636
1638,B,1140529812909746.0,-8.678083,1.576408996897639,-19.698444,195,1970-01-14 04:48:49.812909746,-2.0269747,-1.2583218,-0.108715296,23.9657543344404,2.3882669872482216,-126.50151824951172,-4.815128326416016,99.8792953491211,16380963.000000002,49889.0,-0.31546739168175003,-0.15776143128630873,-0.53375937525435,-0.014973974018114502,-0.002878464319319057,-0.014119735028145739,16.380963490111753
1638,B,1140529862804546.0,6.8938046,-7.7968910031023615,-19.698444,195,1970-01-14 04:48:49.862804546,2.306521,-5.064512,1.4977034,28.843658560211136,5.763023199324861,-126.59850311279297,-4.829734802246094,100.05558013916016,16430858.0,49894.99999999814,-0.044513285383998354,-0.6441564748497682,-0.9828538633799632,-0.008980617941097422,-0.020005846963329032,-0.03783570877082811,16.430858290055767
1638,B,1140529912699346.0,3.077447,6.235525296897638,-13.957747,195,1970-01-14 04:48:49.912699346,3.233301,-5.1763644,-0.4559915,15.454254573045395,6.120205225828673,-127.17205047607422,-4.874780654907227,100.33829498291016,16480753.0,49895.0,0.24875779929100003,-0.5279231709555424,-0.8396378249725001,0.005095390010694925,-0.029240456963727988,-0.04546661139517308,16.48075308999978
1638,B,1140529962594146.0,2.6919806,12.462843696897638,-5.223699,195,1970-01-14 04:48:49.962594146,0.81728125,-4.954789,-1.2442871,5.886950628727461,5.173599623410085,-128.2210693359375,-5.36478328704834,100.66951751708984,16530646.999999998,49893.99999999814,0.14392991033719463,-0.02249298871178845,-0.4785195333619821,0.009796380292094205,-0.013731231935220389,-0.03288407161836909,16.530647890176624
1638,B,1140530012488946.0,7.7629,12.730994296897638,-0.67232174,195,1970-01-14 04:48:50.012488946,-1.16198,-2.7145383,-3.1660242,7.816428916768035,4.329275336306589,-128.46914672851562,-6.822157859802246,100.89409637451172,16580542.000000002,49895.000000003725,0.26082313376851946,0.13955227335021803,-0.14709097741116098,0.010097576567828058,0.00292033650351744,-0.015607418217514154,16.580542690120637
1638,B,1140530062383746.0,7.7605057,7.521211296897638,0.41704002,195,1970-01-14 04:48:50.062383746,-1.6402838,-0.12807621,-3.0179524,9.026838422800433,3.4372912516654974,-128.0541229248047,-8.096246719360352,100.92866516113281,16630437.0,49894.99999999814,0.3872701637007356,0.016270899051207006,-0.006368640709699762,0.016168307538613636,0.003887398593484406,-0.00382843382307003,16.63043749006465
1638,B,1140530112278546.0,8.378209,12.932107226897639,-0.8686463,195,1970-01-14 04:48:50.112278546,1.7046465,0.25115794,-2.0261912,8.462853173749036,2.659765173797253,-128.1809844970703,-9.590132713317871,101.01220703125,16680332.0,49895.0,0.40262058497825004,0.021288163872382634,-0.0112664476703,0.019705799452668996,0.0009370047222862526,-0.0004399513673600441,16.680332290008664
1638,B,1140530162173346.0,10.54975,11.768525236897638,0.87672675,195,1970-01-14 04:48:50.162173346,-0.91696924,2.9036663,0.057465956,10.591719950814312,3.0455562554254128,-128.08145141601562,-11.09029769897461,100.8724136352539,16730227.0,49895.0,0.47220525715250006,0.12724802839053262,0.00020158702637500042,0.02182471769655689,0.0037056066564790783,-0.00027604061091431894,16.730227090185508
1638,B,1140530212068146.0,19.510649,-7.483250003102361,-17.970428,195,1970-01-14 04:48:50.212068146,-1.0980642,7.928519,0.6305782,32.97899889678985,8.028996661289497,-128.1602325439453,-11.920307159423828,100.5522689819336,16780121.0,49894.0,0.749916773853,-0.3820564387425093,-0.42643656508375,0.03048827830749421,-0.006356705413050762,-0.010633283997597333,16.78012189012952
1638,B,1140530261962946.0,1.3895348,-7.7968910031023615,-19.698444,195,1970-01-14 04:48:50.261962946,-4.735942,3.3862312,1.3038254,28.042162973555925,5.966210609834571,-128.5269012451172,-11.74997329711914,100.40888214111328,16830016.0,49895.0,0.5214073353505,-0.8701723177522924,-0.9397441842199998,0.03171635821435431,-0.031239976902654065,-0.034082794243255304,16.830016690073535
1638,B,1140530311857746.0,0.012868834,2.3473409968976373,-6.624307,195,1970-01-14 04:48:50.311857746,0.5530957,0.9957778,1.6031647,11.800403754094075,1.966627909813501,-128.36952209472656,-11.428812026977539,100.29589080810547,16879911.0,49895.0,0.034986464659215004,-0.6249236487797925,-0.6566868305725,0.013880634325742365,-0.03729890662505919,-0.03982696274153589,16.879911490017548
1638,B,1140530361752546.0,-4.8090534,6.683240996897638,-1.766472,195,1970-01-14 04:48:50.361752546,0.47959244,0.60269547,-1.3188556,7.46522625198564,1.5272952667100865,-127.96163177490234,-10.391064643859863,100.24039459228516,16929806.0,49895.0,-0.119652814460285,-0.26368055570979243,-0.20932895910250002,-0.0021122137616621938,-0.02216845339150392,-0.021604928912917064,16.929806290194392
1638,B,1140530411647346.0,-2.9966426,9.319256996897638,1.9205986,195,1970-01-14 04:48:50.411647346,-1.1396095,0.31294352,-0.8586615,4.5247669019754735,1.4608021874239132,-126.98363494873047,-9.441780090332031,100.0755386352539,16979701.0,49895.0,-0.19473260096,-0.08974868129979241,0.0038450733534999976,-0.00784313015119756,-0.008817175890296618,-0.005126309239723178,16.979701090138406
1638,B,1140530461542146.0,-3.961506,8.553112396897639,2.81603,195,1970-01-14 04:48:50.461542146,-0.30018112,1.3856648,0.99383336,6.024640271059672,1.731438820811288,-125.92981719970703,-8.467559814453125,99.824951171875,17029595.0,49894.0,-0.17358493312419998,-0.04309920073298928,0.11816467368419999,-0.009188417522798538,-0.003314156113071805,0.0030437771593495016,17.02959589008242
1638,B,1140530511436946.0,-6.417957,8.775773196897639,1.9613001,195,1970-01-14 04:48:50.511436946,1.0345953,0.6133481,1.4774635,7.494924467981372,1.9051198703462076,-125.18580627441406,-7.1678972244262695,99.66390991210938,17079490.0,49895.0,-0.25894165319250007,-0.05665862664879235,0.11918244266975002,-0.010790457012135875,-0.0024887083986069973,0.005921217185240168,17.079490690026432
1638,B,1140530561331746.0,-4.912004,8.074271996897638,-5.0106153,195,1970-01-14 04:48:50.561331746,4.6426463,0.13824016,1.2004946,8.096005196488642,4.797339084677012,-125.2637939453125,-6.12397575378418,99.66197967529297,17129385.0,49895.0,-0.2826542020475,-0.06860449752779238,-0.07607279095200002,-0.013511462598599902,-0.0031250017903953473,0.001075478036228568,17.129385490203276
1638,B,1140530611226546.0,1.0280104,-7.7968910031023615,-11.333702,195,1970-01-14 04:48:50.611226546,0.120598316,-4.1760807,-0.8725099,22.93279328082901,4.267958234604989,-125.13773345947266,-5.951166152954102,99.84392547607422,17179280.0,49895.0,-0.09689593033599998,-0.4820510376572924,-0.40774985584175,-0.009468826927637366,-0.013737478964029904,-0.01207016548088708,17.17928029014729
1638,B,1140530661121346.0,5.5913587,-7.7968910031023615,-11.783812,195,1970-01-14 04:48:50.661121346,4.409353,-4.636275,2.003704,23.80178393770798,6.704645365256093,-124.82073211669922,-5.926920413970947,99.96517944335938,17229175.0,49895.0,0.16513671062225002,-0.8779968765997925,-0.5767241805150001,0.0017024368661912228,-0.033929795340928624,-0.024560166022010024,17.229175090091303
1638,B,1140530711016146.0,5.2513824,1.6434469968976373,-4.2660184,195,1970-01-14 04:48:50.711016146,-1.0394746,-4.3135,3.1605814,12.465443500658303,5.447574183071867,-124.59571838378906,-6.143467903137207,100.02251434326172,17279069.0,49894.0,0.2704938622217,-0.6424711676227893,-0.4003951189887999,0.010867675900738021,-0.037931116299220746,-0.0243761951647213,17.279069890035316
1638,B,1140530760910946.0,7.6886797,6.814921996897638,-0.49275663,195,1970-01-14 04:48:50.760910946,-1.8235092,-3.697777,0.36852318,9.35030158627849,4.139390036999528,-124.3017349243164,-7.118542194366455,100.11973571777344,17328964.0,49895.0,0.32282219923975,-0.2779558395272924,-0.118719540060925,0.014801752443309524,-0.022962352760876666,-0.012950612956643012,17.32896469021216
1638,B,1140530810805746.0,7.3343377,9.735847996897638,1.7003322,195,1970-01-14 04:48:50.810805746,-1.2109822,-2.6506221,-1.984646,7.895216775393005,3.5257758225731326,-123.88174438476562,-8.423904418945312,100.21955871582031,17378859.0,49895.0,0.37478672658650003,-0.07607066557979239,0.030125991532575006,0.017403598677050373,-0.008832076236158998,-0.0022101875519110114,17.378859490156174
1638,B,1140530860700546.0,7.05661,12.194693132897639,0.1249474,195,1970-01-14 04:48:50.860700546,-5.3431425,-0.5307459,-1.9857112,7.058188987544448,5.724850387169825,-124.14997863769531,-9.911978721618652,100.29971313476562,17428754.0,49895.0,0.35901816774575,0.05814117483556763,0.045536162821,0.018306597601353808,-0.00044729597034154714,0.0018875815957358126,17.428754290100187
1638,B,1140530910601076.0,5.976825,9.324045296897637,-0.19587563,195,1970-01-14 04:48:50.910601076,-3.1774604,1.547585,2.849524,6.598410601091856,4.539940633132681,-123.97212219238281,-11.024909019470215,100.09818267822266,17478654.0,49900.0,0.32518420325,0.04787252382339209,-0.0017696593384999998,0.017070849156343965,0.0026450417815410453,0.001091974261888375,17.47865482000634
1638,B,1140530960501606.0,8.809166,9.407842296897638,0.7115268,195,1970-01-14 04:48:50.960501606,-0.87861973,3.4096673,1.4817245,9.24259192498435,3.8201192678416223,-123.6448745727539,-12.343283653259277,99.84408569335938,17528555.0,49901.0,0.3689178684455,-0.021659838591011036,0.012865754517085002,0.01731819373983857,0.0006540196028905236,0.0002768531227532851,17.528555350145325
1638,B,1140531010402136.0,12.812271,-7.7968910031023615,-19.698444,195,1970-01-14 04:48:51.010402136,0.82686865,6.594808,1.0183345,30.799129621671145,6.724002489225228,-123.79193878173828,-12.792716979980469,99.58921813964844,17578455.0,49900.0,0.53945485315,-0.44882676521980797,-0.47372358413999993,0.022663899403807725,-0.011738640765079935,-0.011498402849091727,17.57845588005148
1638,B,1140531060302666.0,2.768595,-0.8920130031023614,-15.889868,195,1970-01-14 04:48:51.060302666,0.23990794,2.244268,1.9802682,20.719149412354383,3.0026249881445874,-124.16964721679688,-12.658952713012695,99.53044891357422,17628356.0,49901.0,0.388750397133,-0.7058222994068111,-0.8879461785560001,0.023159185097185994,-0.02880907148696646,-0.033974341414146556,17.628356410190463
1638,B,1140531110203196.0,-3.973477,3.8652654968976385,-2.8031614,195,1970-01-14 04:48:51.110203196,-2.2070045,2.0024529,-0.16623957,9.57450830211814,2.984681234968392,-123.9092788696289,-11.86638069152832,99.37469482421875,17678256.0,49900.0,-0.0300618059,-0.41483735027980784,-0.46639108353000003,0.00894928035126335,-0.027960458259681145,-0.0337907146890457,17.678256940096617
1638,B,1140531160103726.0,-1.4164696,7.2578493968976385,1.9373581,195,1970-01-14 04:48:51.160103726,-1.0352136,0.8562284,-0.2493302,5.415915665093976,1.3663673807668126,-122.79071807861328,-11.371111869812012,99.11079406738281,17728157.0,49901.0,-0.1344818626433,-0.21150252184236099,-0.02160222523665,-0.004105446801989606,-0.015627492979384174,-0.012175677050382302,17.72815747000277
1638,B,1140531210004256.0,-2.3310547,12.182722120897639,-0.37304655,195,1970-01-14 04:48:51.210004256,-0.8882071,2.590479,0.13629553,2.3617455774306633,2.7419098769706842,-123.24999237060547,-8.603913307189941,99.07135009765625,17778058.0,49901.0,-0.09350260504715001,-0.0039778203452489735,0.039030355328275,-0.005688326461110573,-0.005376342277751962,0.00043484055985108956,17.778058000141755
1638,B,1140531259904786.0,-6.3916206,6.355235196897638,-5.175815,195,1970-01-14 04:48:51.259904786,-3.506627,1.2141572,0.23216932,10.039602913512217,3.718133028361156,-123.58558654785156,-7.5626139640808105,99.03582000732422,17827958.0,49900.0,-0.21763074873500002,-0.02649796492100788,-0.1384440956725,-0.007762777176864643,-0.0007603708423931085,-0.0024803728215884134,17.82795853004791
1638,B,1140531309805316.0,-5.2711344,5.692041496897638,-4.51741,195,1970-01-14 04:48:51.309805316,3.2226484,0.27246347,0.7200604,9.456238335221549,3.3133345789634894,-123.45297241210938,-6.592189311981201,99.00968933105469,17877859.0,49901.0,-0.29099156862750003,-0.188444222851461,-0.2418508103625,-0.012690381129353058,-0.005362915056016985,-0.009488548053026267,17.877859060186893
1638,B,1140531359705846.0,-3.5832222,1.4207859968976386,-13.359197,195,1970-01-14 04:48:51.359705846,3.4602022,-1.4063933,-0.39207563,17.4823017243556,3.7556177492936667,-123.72055053710938,-6.124684810638428,99.12821960449219,17927759.0,49900.0,-0.22091619716999997,-0.3115549540298079,-0.44602134465,-0.012772098756647624,-0.012474979463187659,-0.017162410267561875,17.927759590093046
1638,B,1140531409606376.0,-1.9958664,-7.7968910031023615,-18.1069,195,1970-01-14 04:48:51.409606376,4.314544,-2.191493,2.4042435,26.986046608396958,5.4035468263241,-123.72122192382812,-5.707828521728516,99.17556762695312,17977660.0,49901.0,-0.13920105011429998,-0.648116807957311,-0.7850948531984999,-0.008985105378366927,-0.02394429029745961,-0.030716964694418997,17.9776601199992
1638,B,1140531459506906.0,7.0374565,-2.807374003102362,-14.063092,195,1970-01-14 04:48:51.459506906,0.71395063,-4.5265527,3.3874826,21.677491605881922,5.698635206192571,-123.9217300415039,-5.7709503173828125,99.29292297363281,18027560.0,49900.0,0.12578767299500002,-0.7535964119048079,-0.8026413004,-0.00033466375912653406,-0.034972744835559864,-0.039614017032282574,18.027560650138184
1638,B,1140531509407436.0,4.8012724,3.992158996897638,-8.01055,195,1970-01-14 04:48:51.509407436,-1.1076516,-3.9779415,0.09048916,12.376148041039496,4.130266206006861,-124.24018096923828,-6.078098773956299,99.4819107055664,18077461.0,49901.0,0.29538220541945,-0.459468822012311,-0.550748404721,0.010508399051379734,-0.030266584118849076,-0.033767749837621513,18.077461180044338
1638,B,1140531559307966.0,6.6017118,8.086242996897639,-2.3338978,195,1970-01-14 04:48:51.559307966,-1.7968776,-3.87035,-1.4477527,8.077399153601863,4.5060366301483885,-124.2932357788086,-7.105897903442383,99.67807006835938,18127361.0,49900.0,0.28450445579,-0.18766387025480788,-0.25809397261,0.014468172197175777,-0.016145960672064617,-0.02018061731440845,18.127361710183322
1638,B,1140531609208496.0,8.095694,13.466014296897638,1.4226047,195,1970-01-14 04:48:51.609208496,-1.3771634,-3.1331868,-3.2949212,8.330350384254013,4.750783542554137,-124.25096893310547,-10.014411926269531,99.88380432128906,18177262.0,49901.0,0.36670762341290003,0.04870979560883902,-0.02273721849155,0.01624806698215196,-0.0034669736394542464,-0.007006878633579222,18.177262240089476
1638,B,1140531659109026.0,7.669526,13.554599696897638,1.5901989,195,1970-01-14 04:48:51.659109026,0.15042572,-0.39758784,-1.4797106,7.964207258111312,1.539560796950138,-124.0689468383789,-12.922810554504395,99.90608978271484,18227162.0,49900.0,0.393342239,0.1851443191451921,0.07516944982,0.018963244067201852,0.005834660163113076,0.0013081841716448275,18.22716276999563
1638,B,1140531709009556.0,6.640019,8.763802196897638,2.373103,195,1970-01-14 04:48:51.709009556,-4.4717565,2.0546508,0.29715046,7.806313841181088,4.93016171145644,-123.54381561279297,-14.095074653625488,99.6423568725586,18277063.0,49901.0,0.3570303025225,0.06782548645113899,0.09888636405595001,0.018722170097257136,0.0063117231345312585,0.0043427795841118905,18.277063300134614
1638,B,1140531758910086.0,10.104429,1.916384996897639,-12.537986,195,1970-01-14 04:48:51.758910086,-1.8799683,4.4845195,0.44096115,19.05967870325922,4.882585656257805,-123.96090698242188,-14.655172348022461,99.52994537353516,18326963.0,49900.0,0.41777397759999996,-0.22254932951480788,-0.25361383085,0.01933136678905637,-0.0038603598844385383,-0.0038604502965115467,18.326963830040768
1638,B,1140531808810616.0,4.6791677,-7.7968910031023615,-19.698444,195,1970-01-14 04:48:51.808810616,2.8583279,3.4831705,5.5286636,28.395892443094358,7.132225201012207,-124.01232147216797,-14.400452613830566,99.28986358642578,18376864.0,49901.0,0.36885812946335,-0.6357513651078109,-0.804315046715,0.019626864387284112,-0.02141503148118165,-0.026395854459685533,18.376864360179752
1638,B,1140531858711146.0,3.0750527,7.561912696897638,-8.0823765,195,1970-01-14 04:48:51.858711146,1.4489831,2.926037,2.3350012,9.772055704316285,4.0141593333419205,-124.52069091796875,-14.51991081237793,99.25409698486328,18426764.0,49900.0,0.19346779898,-0.4948827087398079,-0.693131471475,0.014030031914661581,-0.02820932014249809,-0.0373612906288405,18.426764890085906
1638,B,1140531908611676.0,-2.7715878,6.752672996897638,0.7234978,195,1970-01-14 04:48:51.908611676,-1.3356181,2.3230975,0.0201817,6.07767694607386,2.679750922113611,-123.68168640136719,-13.713595390319824,98.93950653076172,18476665.0,49901.0,0.007571600987450007,-0.131873729646961,-0.18360770300435003,0.005016033548887861,-0.015637886515969077,-0.021875080772847024,18.47666541999206
1638,B,1140531958517536.0,-1.5050551,10.676769296897639,-2.0011036,195,1970-01-14 04:48:51.958517536,1.0686836,2.5766304,-1.3124641,2.886579159406487,3.082802437539897,-124.05377197265625,-12.842875480651855,98.96886444091797,18526571.0,49906.0,-0.10671507028369999,-0.05416192644292649,-0.031880097527399995,-0.0024739269893493255,-0.004642147726410963,-0.005377067086668758,18.52657128009014
1638,B,1140532008423396.0,-8.01489,9.664021896897639,-8.182933,195,1970-01-14 04:48:52.008423396,-4.5569777,2.3625124,-2.3500316,11.713082593721595,5.645366163452076,-124.94994354248047,-11.870223045349121,99.07872772216797,18576477.0,49906.0,-0.23755119008029998,0.018484962658773533,-0.25412226527980003,-0.008590475994862892,-0.0008902472773059687,-0.007136616959128063,18.576477140188217
1638,B,1140532058329256.0,-4.509778,2.0815859968976387,-3.3370683,195,1970-01-14 04:48:52.058329256,0.7320601,-1.0143759,1.6020994,11.493615998552148,2.032632023754713,-124.5302963256836,-10.965447425842285,98.99895477294922,18626383.0,49906.0,-0.31252804060399997,-0.19599064622612647,-0.2874585924389,-0.013726127043265337,-0.004429299322056158,-0.01351406714265472,18.626383000053465
1638,B,1140532108235116.0,-3.1833904,6.374388996897638,-5.185392,195,1970-01-14 04:48:52.108235116,3.1182525,-1.3169111,0.6231214,8.363839880514222,3.441806760728647,-124.55863952636719,-10.11745548248291,99.06970977783203,18676288.0,49905.0,-0.19196378450099996,-0.2780712839673234,-0.21265669063575002,-0.01258833226593251,-0.011829030313152057,-0.012479126600920204,18.676288860151544
1638,B,1140532158140976.0,-1.4236522,4.205241996897638,-10.572346,195,1970-01-14 04:48:52.158140976,0.723538,-2.408807,0.8777196,13.279073001429047,2.6638787691854824,-124.99723815917969,-9.62419319152832,99.22439575195312,18726194.0,49906.0,-0.1149595339978,-0.22508526781182647,-0.393202836314,-0.007658657566500555,-0.012555265436545126,-0.01511801277597711,18.726194720016792
1638,B,1140532208046836.0,9.048586,-7.7968910031023615,-19.586515,195,1970-01-14 04:48:52.208046836,2.4609842,-2.3768492,0.31739047,29.358335778762136,3.4360721853065166,-125.11824035644531,-9.753498077392578,99.35234069824219,18776100.0,49906.0,0.1902649731114,-0.5787012176518265,-0.752554058533,0.0018790966222016609,-0.020056884171774533,-0.028590071797117193,18.77610058011487
1638,B,1140532257952696.0,2.057517,3.3385409968976383,-11.707197,195,1970-01-14 04:48:52.257952696,2.254323,-3.101229,0.2683883,14.774397131680129,3.8433872792560067,-125.4711685180664,-9.620820045471191,99.54821014404297,18826006.0,49906.0,0.277130588159,-0.6003280077048265,-0.780871995536,0.011662921440380291,-0.029420316260324562,-0.03826358032718375,18.82600644021295
1638,B,1140532307858556.0,2.9744964,6.029623696897638,-4.59163,195,1970-01-14 04:48:52.307858556,-0.22454736,-3.6477096,-1.2027419,8.181567856909961,3.8474400477240374,-125.55107879638672,-9.854336738586426,99.74069213867188,18875912.0,49906.0,0.1255638303702,-0.25531498639572653,-0.40670463013100006,0.010048433825559127,-0.0213508596317911,-0.02963359954026865,18.8759123000782
1638,B,1140532357764416.0,4.7486,10.506780896897638,-0.97638535,195,1970-01-14 04:48:52.357764416,0.86947924,-2.8924372,-1.8173994,5.107097139964799,3.524929457997022,-125.49919891357422,-11.066429138183594,99.90669250488281,18925818.0,49906.0,0.19271442446919998,-0.07644589617102651,-0.13893868702855,0.007941997293007548,-0.008278429302688189,-0.013615437693082252,18.925818160176277
1638,B,1140532407670276.0,5.9073935,13.082941996897638,-0.21024084,195,1970-01-14 04:48:52.407670276,-0.32894328,-1.5874882,-0.9204468,5.990183980233592,1.8642813034053198,-125.714599609375,-12.474464416503906,100.03712463378906,18975724.0,49906.0,0.2658990058055,0.09955555536887349,-0.029609883319070003,0.01144378092564459,0.0005766553259638757,-0.004205792475884162,18.975724020041525
1638,B,1140532457576136.0,9.833884,15.606430396897638,-1.376217,195,1970-01-14 04:48:52.457576136,-0.9329482,1.5049744,-1.4456222,10.526317808142473,2.285861726717397,-126.19945526123047,-13.942998886108398,100.11940002441406,19025629.0,49905.0,0.39278422681874997,0.22680256465617663,-0.0395860892526,0.016435793362056597,0.008143450989925062,-0.001726612505594596,19.025629880139604
1638,B,1140532507481996.0,9.781212,11.009563196897638,-0.119261175,195,1970-01-14 04:48:52.507481996,-2.6096745,5.003303,-2.4064906,9.843977058415932,6.1347077284616915,-126.21202850341797,-15.53539752960205,99.9642105102539,19075535.0,49906.0,0.489455490488,0.17507008814597352,-0.037316666900775,0.02201452766595533,0.010027928305372052,-0.0019189544742951661,19.075535740004852
1638,B,1140532557387856.0,4.442142,-7.7968910031023615,-13.96493,195,1970-01-14 04:48:52.557387856,-1.8650546,7.3298407,4.203475,24.721555305178274,8.65298765883684,-126.15913391113281,-15.452799797058105,99.52057647705078,19125441.0,49906.0,0.354915352362,-0.40891299074822646,-0.35144282238977503,0.02106958564163605,-0.0058350819486340175,-0.009700715536267095,19.12544160010293
1638,B,1140532607293716.0,4.1787796,-5.479304003102362,-6.9116116,195,1970-01-14 04:48:52.607293716,1.4734842,2.0610425,1.886525,19.357722418240627,3.158801742762735,-125.67886352539062,-15.374059677124023,99.27871704101562,19175347.0,49906.0,0.21511785668479996,-0.8203596939898264,-0.5209323425448,0.0142240386653448,-0.030674041302268633,-0.02176837749061245,19.17534746020101
1638,B,1140532657199576.0,-1.0022727,4.533247596897638,0.10339958,195,1970-01-14 04:48:52.657199576,-0.7337437,0.72200507,0.72858256,7.646420865225313,1.261151729623184,-124.82872009277344,-14.879693031311035,98.99836730957031,19225253.0,49906.0,0.0792633766757,-0.5126857455040266,-0.16988531453506,0.007345694916044556,-0.03326348285169012,-0.01723797299711375,19.22525332006626
1638,B,1140532707105436.0,-1.2919711,10.150044796897639,0.5223849,195,1970-01-14 04:48:52.707105436,-0.96703666,1.2908562,-0.29407132,2.40732903672881,1.639496133605974,-123.91521453857422,-13.982878684997559,98.7151870727539,19275159.0,49906.0,-0.05724826554140001,-0.12268660489762648,0.015615200129440001,0.0005493430681341878,-0.015854446259572448,-0.003849502164763436,19.275159180164337
1638,B,1140532757011296.0,-4.3613377,11.258560256897638,-1.2253823,195,1970-01-14 04:48:52.757011296,-1.6520017,1.8714254,-0.8884888,4.610084620053251,2.6496707328069067,-124.15709686279297,-12.652531623840332,98.69965362548828,19325065.0,49906.0,-0.1410670144864,0.045130121907353514,-0.017541894122199995,-0.004948561182533693,-0.001935266920056281,-4.807679520134013e-05,19.325065040029585
1638,B,1140532806917156.0,-6.1234703,5.680070496897638,-1.4432547,195,1970-01-14 04:48:52.806917156,-1.10126,0.5238659,-0.3963367,8.997907468038022,1.2822994379432988,-123.81707763671875,-11.518394470214844,98.60611724853516,19374970.0,49905.0,-0.26162217162,-0.06640781611592339,-0.0665891647425,-0.010048101916319947,-0.0005309316647393399,-0.002099280246321426,19.374970900127664
1638,B,1140532856823016.0,-3.7029321,5.201229996897638,-3.2987611,195,1970-01-14 04:48:52.856823016,1.6077075,-1.2050583,1.0982293,8.506819091364564,2.289759050060427,-123.55117797851562,-10.573472023010254,98.59033203125,19424876.0,49906.0,-0.24519821908719996,-0.2175577087783265,-0.1183275202574,-0.012646689209316761,-0.0070857917426862165,-0.0046142260408025045,19.424876759992912
1638,B,1140532906728876.0,-3.5161846,0.6426699968976379,-10.78543,195,1970-01-14 04:48:52.906728876,0.5232683,-2.698559,1.1951684,16.13249262417988,2.9974085298177906,-123.7780990600586,-9.889100074768066,98.71350860595703,19474782.0,49906.0,-0.1801386190151,-0.3432559634548265,-0.3514428205183,-0.01061343012116669,-0.013993983563233867,-0.011722179313376041,19.47478262009099
1638,B,1140532956634736.0,2.5890298,-7.7968910031023615,-15.485248,195,1970-01-14 04:48:52.956634736,0.5775968,-3.6477096,1.8439144,25.355460598867378,4.127883683418146,-123.86969757080078,-9.610965728759766,98.83282470703125,19524688.0,49906.0,-0.023135293724399996,-0.6675980767678266,-0.655532228134,-0.0050722939445887434,-0.02522384086567586,-0.025127048389020846,19.52468848018907
1638,B,1140533006545546.0,2.840421,-0.26952100310236204,-15.545103,195,1970-01-14 04:48:53.006545546,-2.0834339,-5.527901,1.2889116,20.075976244456804,6.046460071321464,-124.4405517578125,-9.376254081726074,99.10044860839844,19574599.0,49911.0,0.13549465943939998,-0.6904291448208421,-0.7743779243804999,0.0028039841511006817,-0.03389024832835602,-0.0356841228110756,19.574599290033802
1638,B,1140533056456356.0,7.0709753,4.497334596897638,-6.7368345,195,1970-01-14 04:48:53.056456356,-3.5439112,-2.928656,-1.6160644,12.384742757783114,4.8731916343161386,-124.79296875,-9.976238250732422,99.29507446289062,19624510.0,49911.0,0.24734385036464998,-0.383620597860042,-0.5560568912812499,0.009553926431414969,-0.026803448353472797,-0.033201666042246794,19.624510100111365
1638,B,1140533106367166.0,4.4948144,9.072654196897638,-2.9587843,195,1970-01-14 04:48:53.106367166,0.93659085,-1.2572563,-1.6927634,6.180728830955787,2.3072372553712315,-124.928466796875,-10.867609977722168,99.42610168457031,19674420.0,49910.0,0.28862428196350004,-0.15047892965083892,-0.241954167154,0.013375084742248983,-0.013328453709034033,-0.019914365963251662,19.67442091018893
1638,B,1140533156277976.0,6.256947,14.114842796897637,-2.989909,195,1970-01-14 04:48:53.156277976,2.3342178,-0.73634195,-2.9955819,7.217780283317943,3.868369569311372,-125.56548309326172,-12.184646606445312,99.68927764892578,19724331.0,49911.0,0.26831558161769997,0.08952778122865794,-0.14845261564815,0.013898712765600636,-0.0015210663844497374,-0.009742796468219054,19.72433172003366
1638,B,1140533206188786.0,4.882675,22.91113999689764,-1.3953707,195,1970-01-14 04:48:53.206188786,1.6172948,0.58884704,-3.6507194,11.93262738763951,4.036103993229134,-127.73179626464844,-14.22014331817627,100.2815933227539,19774242.0,49911.0,0.27799483682099996,0.43487411361055794,-0.10943684755335,0.013633449647346977,0.01308671148666005,-0.006435760498925032,19.774242530111223
1638,B,1140533256099596.0,11.038168,10.827603996897638,0.22071546,195,1970-01-14 04:48:53.256099596,-3.1763952,1.0916518,-2.149762,11.11494884604855,3.9878147870319003,-127.76860046386719,-15.689486503601074,100.27400970458984,19824153.0,49911.0,0.3973125974865,0.35283942573715804,-0.029314108841819994,0.016852634676860816,0.019657785231191924,-0.0034625994923196644,19.824153340188786
1638,B,1140533306010406.0,19.510649,-7.7968910031023615,-17.266533,195,1970-01-14 04:48:53.306010406,-0.6208257,6.106917,0.14055657,32.79027275725552,6.140001298374427,-127.79518127441406,-16.380680084228516,100.03643035888672,19874064.0,49911.0,0.7623610026434999,-0.413494841883342,-0.4253868996194699,0.02894023452804421,-0.001513686237636094,-0.01134729101665572,19.87406415003352
1638,B,1140533355921216.0,1.7845781,-7.7968910031023615,-8.776694,195,1970-01-14 04:48:53.355921216,1.8228909,2.9995403,1.5765331,21.83159357029531,3.8478084489774838,-127.29581451416016,-16.13085174560547,99.76229858398438,19923974.0,49910.0,0.5314223922805,-0.878260829964839,-0.649908729785,0.032286364620328425,-0.03223576279097136,-0.02683400243178855,19.92397496011108
1638,B,1140533405832026.0,2.8021138,1.4207859968976386,-0.09053075,195,1970-01-14 04:48:53.405832026,-0.76676697,2.260247,3.0721643,11.053654840226873,3.8903523713780053,-126.41709899902344,-16.11457061767578,99.33184051513672,19973885.0,49911.0,0.11446318971045,-0.648246688482342,-0.22128602724862498,0.016118397641375154,-0.038094758376608626,-0.02174110075915263,19.973885770188645
1638,B,1140533455742836.0,-0.20021512,3.024900996897639,2.2629695,195,1970-01-14 04:48:53.455742836,-1.8053998,1.599783,1.3411096,9.367737021303856,2.759954536607659,-125.33067321777344,-15.821451187133789,98.90782165527344,20023796.0,49911.0,0.06493168250873999,-0.378183458226342,0.054214295225624994,0.004476888733665995,-0.02561507752618856,-0.004169358608499976,20.023796580033377
1638,B,1140533505653646.0,0.21877018,10.822815596897637,0.34521395,195,1970-01-14 04:48:53.505653646,-0.77955014,1.6679599,-0.08208369,1.3533608630727412,1.8429667335429705,-124.22034454345703,-15.84616470336914,98.53105163574219,20073707.0,49911.0,0.00046305079983000025,-0.143551108543542,0.065088522086475,0.0016319582670820182,-0.013020146981025838,0.002977261457432111,20.07370739011094
1638,B,1140533555564456.0,-2.0222025,11.026322696897639,2.3802855,195,1970-01-14 04:48:53.555564456,-1.9076651,1.551846,-0.49434102,3.306948745708253,2.50834311559018,-121.88993835449219,-14.242152214050293,97.85161590576172,20123618.0,49911.0,-0.045005555261760005,0.05612837069080797,0.068016201524475,-0.0011115804700996942,-0.002181678134483904,0.0033216949300730624,20.123618200188503
1638,B,1140533605475266.0,-1.469142,11.703881796897639,-2.5589528,195,1970-01-14 04:48:53.605475266,-4.461104,2.2911396,2.5640333,2.9789239645073993,5.632498231603189,-123.03885650634766,-13.30754566192627,97.91041564941406,20173529.0,49911.0,-0.08712824766975,0.078115818244908,-0.004458731805150007,-0.0032974651190572977,0.0033501308569852594,0.0015861084355806147,20.173529010033235
1638,B,1140533655386076.0,-13.253403,-7.7968910031023615,-8.290671,195,1970-01-14 04:48:53.655386076,0.2889101,-1.2252983,-2.1891768,25.3138562444479,2.5253356275004593,-122.823486328125,-12.359969139099121,97.97395324707031,20223439.0,49910.0,-0.367401110475,-0.3916190447408389,-0.270752361929,-0.011342780132502239,-0.007823473017205956,-0.006867892844135713,20.223439820110798
1638,B,1140533705296886.0,-2.2209213,-3.894343003102362,-17.077393,195,1970-01-14 04:48:53.705296886,-0.37261912,-3.9608974,1.3006295,23.51179671749479,4.185593185939908,-123.22320556640625,-11.768963813781738,98.18165588378906,20273350.0,49911.0,-0.38616950006865003,-0.7808883902418421,-0.633072721152,-0.01880573137142206,-0.029260509293710293,-0.02255540686082789,20.27335063018836
1638,B,1140533755207696.0,1.178845,-7.7968910031023615,-16.100557,195,1970-01-14 04:48:53.755207696,4.3124137,-6.0733166,0.2055377,25.632421120491095,7.451465103582284,-123.20446014404297,-11.368138313293457,98.46504974365234,20323261.0,49911.0,-0.026005535104650004,-0.780888390241842,-0.8279723312249998,-0.010286034090267288,-0.03897492044536057,-0.036461109804594216,20.323261440033093
1638,B,1140533805118506.0,1.8372505,3.7240069968976375,-13.584251,195,1970-01-14 04:48:53.805118506,1.6151643,-4.715104,2.0548368,16.07116726261684,5.3910403190334915,-123.76670837402344,-11.058328628540039,98.7285385131836,20373172.0,49911.0,0.07526817125024998,-0.590768656816842,-0.7407992260439998,0.0012293737163315201,-0.03423038743787299,-0.03914947859742652,20.373172250110656
1638,B,1140533855029316.0,5.9337296,6.462973996897638,-5.0968065,195,1970-01-14 04:48:53.855029316,-1.7947471,-4.8131084,1.0630755,9.64931477176734,5.245689577339591,-124.05674743652344,-11.529952049255371,98.93547821044922,20423083.0,49911.0,0.19392869388554998,-0.23490659580934203,-0.46619513044125,0.0067179423678964565,-0.020605138766912733,-0.03012114766326765,20.42308306018822
1638,B,1140533904940126.0,6.209063,12.359893046897637,-0.36586395,195,1970-01-14 04:48:53.904940126,-1.5465405,-3.241844,-1.7598752,6.224731350843409,3.9998125903661146,-124.2783203125,-12.911550521850586,99.14678192138672,20472993.0,49910.0,0.303023389333,-0.01939335292208894,-0.13632094107974999,0.012401439236718916,-0.006346055220592861,-0.015035788564806555,20.47299387003295
1638,B,1140533954850936.0,6.9895725,13.856269096897638,-1.0290579,195,1970-01-14 04:48:53.954850936,-3.228593,-2.5057461,-1.1931545,7.276819526980746,4.257486810101056,-124.84552764892578,-14.268044471740723,99.37765502929688,20522904.0,49911.0,0.32937854822025003,0.16510963437948298,-0.034810972227675,0.01578190655261013,0.0036364226619099967,-0.004270682462543444,20.522904680110514
1638,B,1140534004761746.0,5.1149125,10.286514396897639,2.136077,195,1970-01-14 04:48:54.004761746,-3.0315192,1.0298665,-0.25572178,5.83619495929778,3.2118728643203265,-124.27599334716797,-15.506669998168945,99.16009521484375,20572815.0,49911.0,0.3020734754175,0.11336743347940798,0.027626215150049992,0.01575820097589187,0.006949534466952552,-0.00017929920525067085,20.572815490188077
1638,B,1140534054677156.0,5.4070053,2.3904369968976376,-4.854992,195,1970-01-14 04:48:54.054677156,0.2409732,1.8778169,0.047878575,12.13815100899672,1.893820675509664,-124.06224060058594,-15.832444190979004,99.02953338623047,20622730.0,49915.0,0.26260076349350003,-0.17278198558935443,-0.06785732111250001,0.014092857317621282,-0.0014828386842839886,-0.0010040678270578462,20.622730900067836
1638,B,1140534104592566.0,4.123713,-6.135315003102361,-19.698444,195,1970-01-14 04:48:54.104592566,0.41354603,3.7441602,0.613534,27.166788120739284,3.8165665055582094,-124.32693481445312,-15.745085716247559,98.94145965576172,20672646.0,49916.0,0.23786766733140002,-0.5826414652788575,-0.612804655688,0.012490691096527857,-0.018853858486768835,-0.01698796161698688,20.672646310180426
1638,B,1140534154507976.0,0.23313539,-6.0180000031023635,-13.624953,195,1970-01-14 04:48:54.154507976,-3.2488332,3.844295,3.3672426,22.68097288487336,6.05572819202629,-124.48600006103516,-15.340662002563477,98.69583129882812,20722561.0,49915.0,0.10873604369342502,-0.7924833592673545,-0.8316686806275,0.00865036211790207,-0.03431967780861209,-0.036050443291094095,20.722561720060185
1638,B,1140534204423386.0,-3.2408512,5.241931596897638,-6.6290956,195,1970-01-14 04:48:54.204423386,-0.2170905,3.3979492,0.927787,10.082632704448237,3.529019094357509,-124.68348693847656,-14.600884437561035,98.58360290527344,20772477.0,49916.0,-0.07506657118598,-0.5085459152820576,-0.5055005449588,0.0008403226948408129,-0.032471088634204226,-0.03337306953218288,20.772477130172774
1638,B,1140534254338796.0,-2.3047185,8.97209749689764,-2.539799,195,1970-01-14 04:48:54.254338796,-0.44292656,2.3667734,-0.81711614,4.6505395711665,2.542730628821994,-124.78240966796875,-13.702188491821289,98.5305404663086,20822392.0,49915.0,-0.13840355578775,-0.1344203688916044,-0.2288326869795,-0.005327680693946866,-0.016046831037264172,-0.018327121636100122,20.822392540052533
1638,B,1140534304254206.0,-1.2345103,11.806832456897638,-2.5230396,195,1970-01-14 04:48:54.304254206,-1.56465,4.0743923,-0.9950153,2.825504831988291,4.476478268017548,-125.81497192382812,-13.047460556030273,98.61587524414062,20872307.0,49915.0,-0.088330302776,0.029423144321845597,-0.1263557943595,-0.0056587102751047905,-0.002620468232199756,-0.008864616523018093,20.872307950165123
1638,B,1140534354169616.0,-9.944616,13.461225796897638,1.6045641,195,1970-01-14 04:48:54.354169616,-3.2839868,3.920994,-0.48155785,10.163058123143635,5.137184171655408,-125.78726959228516,-10.321786880493164,98.43204498291016,20922223.0,49916.0,-0.2790086341954,0.1414633978982225,-0.022923311529000005,-0.009168045188932203,0.0042649863207284595,-0.0037257079247651837,20.92222336004488
1638,B,1140534404085026.0,-6.0875573,0.09918699689763777,-7.5412865,195,1970-01-14 04:48:54.404085026,2.0742934,-1.4031974,-5.9421034,15.435700259666925,6.448274875417601,-125.638916015625,-9.730920791625977,98.65172576904297,20972138.0,49915.0,-0.40012296513475,-0.15073299769885443,-0.148165749298,-0.01694942689028222,-0.00023134603702427162,-0.004269955235589853,20.97213877015747
1638,B,1140534454000436.0,-2.3023243,4.004128996897638,-12.868385,195,1970-01-14 04:48:54.454000436,5.4490514,0.19469918,3.537685,15.383422006356046,6.499637227550445,-125.88898468017578,-9.159878730773926,98.62942504882812,21022054.0,49916.0,-0.20939466497280002,-0.38676623942685756,-0.509384581297,-0.015212341012224233,-0.01341490596018352,-0.01641114115099001,21.02205418003723
1638,B,1140534503915846.0,3.0870237,-7.7968910031023615,-19.698444,195,1970-01-14 04:48:54.503915846,0.4199376,-5.5108566,0.39622006,28.177327988995366,5.541017811702442,-126.12223815917969,-8.912749290466309,98.8783187866211,21071969.0,49915.0,0.0195841352755,-0.5838248577698545,-0.8127866347675,-0.004737196294920365,-0.02422352730828694,-0.03299808812492976,21.07196959014982
1638,B,1140534553831256.0,5.756559,-1.3373350031023623,-17.647211,195,1970-01-14 04:48:54.553831256,2.5547276,-4.5670323,1.7704111,22.923204337641756,5.524379838719298,-126.41522216796875,-8.855607032775879,99.07403564453125,21121885.0,49916.0,0.22071813702660004,-0.7171488126628576,-0.9320728574899999,0.005997464112115813,-0.03246970086665962,-0.04354820320776269,21.12188500002958
1638,B,1140534603746666.0,2.3807342,7.954561996897638,-12.150125,195,1970-01-14 04:48:54.603746666,2.290542,-3.9055035,-0.5689095,13.06085619684696,4.5632442693183215,-127.13900756835938,-8.840410232543945,99.37495422363281,21171800.0,49915.0,0.203086495039,-0.32401755730235443,-0.74366701322,0.010577104104777213,-0.02598490967840678,-0.04182227782324482,21.17180041014217
1638,B,1140534653662076.0,3.6424787,12.070194641897638,-3.3969233,195,1970-01-14 04:48:54.653662076,0.13125096,-4.532944,-1.4861022,4.9808202651810145,4.77213871031446,-127.95177459716797,-9.703228950500488,99.72978210449219,21221715.0,49915.0,0.15032433595175,0.010600863812733072,-0.38801545794725,0.008820250814451643,-0.007822097127767226,-0.02824396527415664,21.221715820021927
1638,B,1140534703577486.0,10.578481,12.570582796897638,-0.5669769,195,1970-01-14 04:48:54.703577486,-0.45570973,-2.2564743,-3.6155658,10.603542489560828,4.286217875785924,-128.1118927001953,-11.184844970703125,99.9522476196289,21271631.0,49916.0,0.3549267121926,0.12580772331745246,-0.09893102119160001,0.012610055659586688,0.0034044855175951703,-0.01215321022634742,21.271631230134517
1638,B,1140534753492896.0,6.0893526,13.817961796897638,0.5391443,195,1970-01-14 04:48:54.753492896,-0.41629496,-0.05244217,-2.4895813,6.346480685561241,2.5246914116829013,-128.44358825683594,-14.130754470825195,100.09829711914062,21321546.0,49915.0,0.415987457072,0.1694251016996456,-0.0006946321144999997,0.019240090379421256,0.007368273230364226,-0.0024864072423869906,21.321546640014276
1638,B,1140534803408306.0,6.168361,14.909717996897639,1.283741,195,1970-01-14 04:48:54.803408306,-1.5603889,1.3441195,-0.51777685,6.89335551773815,2.1235733130549983,-128.83717346191406,-17.039854049682617,100.14957427978516,21371462.0,49916.0,0.3059280160288,0.22780863229354253,0.0454955713174,0.018017566377649764,0.00991415953300199,0.0011181418406259783,21.371462050126866
1638,B,1140534853323716.0,7.2218103,8.062300996897637,-8.465448,195,1970-01-14 04:48:54.853323716,-1.5571932,2.4370809,2.8271534,11.841724677005038,4.044380091238039,-129.37217712402344,-17.541540145874023,100.11029815673828,21421377.0,49915.0,0.33418520021974996,0.08415716403764556,-0.1792374524525,0.015975625594523184,0.007785886361935627,-0.003337862998429258,21.421377460006624
1638,B,1140534903239126.0,4.384681,-7.7968910031023615,-19.698444,195,1970-01-14 04:48:54.903239126,-1.7670503,5.2941203,2.1560369,28.348854028810774,5.983199113163776,-129.5121307373047,-17.4129638671875,99.8653793334961,21471292.0,49915.0,0.28966900661975,-0.4825430300798545,-0.7029003345899999,0.015569841367196819,-0.009942715251748429,-0.02201595382011319,21.471292870119214
1638,B,1140534953154536.0,2.2969372,2.581973996897638,-12.739099,195,1970-01-14 04:48:54.953154536,2.0135732,0.48658162,3.9350286,16.07485144213886,4.446986483844765,-129.7177734375,-17.059816360473633,99.819091796875,21521208.0,49916.0,0.1667598270356,-0.6193306986408575,-0.809576198194,0.011391550830370226,-0.027500564521411534,-0.03774838930522307,21.521208279998973
1638,B,1140535003069946.0,0.101454295,9.532340996897638,-1.7090111,195,1970-01-14 04:48:55.003069946,1.3818713,2.667178,1.4817245,3.096896242433246,3.349464773265714,-129.44174194335938,-16.71490478515625,99.61585235595703,21571123.0,49915.0,0.0598578557364625,-0.18682398354235444,-0.36058870782075,0.005655810817783749,-0.020119605480587513,-0.029204390641863122,21.571123690111563
1638,B,1140535052985356.0,-4.196138,9.853163896897637,0.66364276,195,1970-01-14 04:48:55.052985356,-0.9585146,1.974756,-1.2016766,4.811944965379262,2.5024863933569588,-128.87677001953125,-15.513461112976074,99.40876007080078,21621039.0,49916.0,-0.10219511590939001,-0.005353368860657557,-0.026090303029720003,-0.0010566533393959248,-0.004796362361274374,-0.00965073475280603,21.62103909999132
1638,B,1140535102905066.0,-0.7125743,11.433336996897639,1.0754455,195,1970-01-14 04:48:55.102905066,-1.1183043,1.6892651,-0.0011235876,1.4581751322138023,2.02588803933623,-126.28535461425781,-14.243842124938965,98.6649398803711,21670958.0,49919.0,-0.12251900465185,0.04209421905868316,0.043406773425469995,-0.00560875209214827,0.0009170332505176199,0.0004322104428427219,21.670958810020238
1638,B,1140535152824776.0,-1.2847885,10.090189796897638,-1.541417,195,1970-01-14 04:48:55.152824776,-3.9785392,2.579826,0.23962617,2.8492757943629625,4.747809711599814,-126.48011016845703,-13.370156288146973,98.55481719970703,21720878.0,49920.0,-0.049854175488,0.04801122877313008,-0.01163064864,-0.004302434576290656,0.002249031977882058,0.0007931320746453311,21.720878520049155
1638,B,1140535202744486.0,-8.534431,4.523670996897638,-6.040122,195,1970-01-14 04:48:55.202744486,0.10781515,1.8501201,-0.57423586,12.919650317676753,1.9401843504944247,-126.50079345703125,-12.27920913696289,98.50489044189453,21770798.0,49920.0,-0.24508771872,-0.12445403458686993,-0.18923521344,-0.007361749679431679,-0.0019080124331109468,-0.0050136119175168,21.77079823007807
1638,B,1140535252664196.0,-1.3757682,3.740766996897639,-14.565874,195,1970-01-14 04:48:55.252664196,2.218104,-0.99307066,-0.17369643,16.856795609788453,2.436461602480856,-126.98384094238281,-11.863526344299316,98.67354583740234,21820717.0,49919.0,-0.24735361693239996,-0.2829299598938668,-0.514315357162,-0.012291089517216075,-0.01016810081024195,-0.017560270466940617,21.820717940106988
1638,B,1140535302583906.0,-0.1882441,-7.7968910031023615,-19.698444,195,1970-01-14 04:48:55.302583906,3.116122,-4.930288,1.761889,28.008347561329725,6.092799761205763,-127.05369567871094,-11.343520164489746,98.86048126220703,21870637.0,49920.0,-0.039037747007999994,-0.5904568551948699,-0.85523737728,-0.0071483284439523825,-0.021799734904614867,-0.03418403625167232,21.870637650135905
1638,B,1140535352503616.0,4.1189246,3.7096419968976377,-17.05345,195,1970-01-14 04:48:55.352503616,3.2322357,-6.9180713,1.7331269,19.452556931642334,7.830120496118933,-127.57791137695312,-11.115760803222656,99.21382141113281,21920557.0,49920.0,0.09810978527999999,-0.59123373519487,-0.9173272742399999,0.0014744380752691197,-0.029494997136127906,-0.0442432137019392,21.92055736016482
1638,B,1140535402423326.0,4.6791677,9.08223099689764,-5.396082,195,1970-01-14 04:48:55.402423326,-0.103107214,-4.750258,-0.13215111,7.758725249230525,4.753214289301195,-128.07943725585938,-11.619956970214844,99.5003433227539,21970477.0,49920.0,0.219600383808,-0.1699308500748699,-0.56034031872,0.00793004582043648,-0.01899866804833271,-0.0368825831202816,21.970477070193738
1638,B,1140535452343036.0,6.474819,12.924924636897638,0.03875614,195,1970-01-14 04:48:55.452343036,-0.6666321,-3.9449184,-1.8450963,6.525643214037399,4.405809788867725,-128.2651824951172,-12.991903305053711,99.74103546142578,22020396.0,49919.0,0.27839793103865,0.060081401041713174,-0.13371617480266998,0.012429788939414961,-0.0027417873231430755,-0.01732330305007908,22.020396779989824
1638,B,1140535502262746.0,8.112453,11.919359926897638,0.64688337,195,1970-01-14 04:48:55.502262746,-1.858663,-0.84180313,-2.5716066,8.140506419312063,3.282745978964921,-128.27195739746094,-14.467459678649902,99.83154296875,22070316.0,49920.0,0.36409830912,0.13089734271233003,0.0171135621696,0.016036706154359905,0.004766829444100918,-0.0029104012113214265,22.07031649001874
1638,B,1140535552182456.0,6.81719,13.753318496897638,0.115370594,195,1970-01-14 04:48:55.552182456,-1.1758285,0.48338583,-1.1324344,7.0127073357809655,1.7025399238668086,-128.53189086914062,-15.944311141967773,99.90061950683594,22120236.0,49920.0,0.37264388928000003,0.15157405345793004,0.01902585894144,0.018389085272064,0.007050486048409691,0.0009020399509315584,22.120236200047657
1638,B,1140535602102166.0,9.187449,9.288132296897638,-0.9093477,195,1970-01-14 04:48:55.602102166,-2.8120747,2.8685129,1.938723,9.654841223037383,4.460356179339885,-128.458740234375,-17.15511703491211,99.67520904541016,22170155.0,49919.0,0.3994677871205,0.08589689108773316,-0.019817271577207,0.01927152138711828,0.00592715604038748,-1.975326368242643e-05,22.170155910076573
1638,B,1140535652021876.0,13.801077,-0.48739400310236114,-17.072603,195,1970-01-14 04:48:55.652021876,-0.72096056,5.151375,1.391177,25.31231324284217,5.384405442110532,-128.74644470214844,-17.6655330657959,99.51661682128906,22220075.0,49920.0,0.57379360896,-0.2695495721868699,-0.4488294894720001,0.02429260444616928,-0.0045839709202344535,-0.011697423155788207,22.22007562010549
1638,B,1140535701941586.0,2.8595746,-7.7968910031023615,-19.698444,195,1970-01-14 04:48:55.701941586,0.01726767,3.3777094,3.066838,28.153317107723293,4.562314575028731,-128.8284912109375,-17.360301971435547,99.3246078491211,22269995.0,49920.0,0.41584986393600004,-0.6959917537548699,-0.9178053331199999,0.024701501083484158,-0.024099911495505826,-0.03411120517189632,22.269995330134407
1638,B,1140535751861296.0,0.8771756,4.286644996897638,-6.492626,195,1970-01-14 04:48:55.751861296,-1.5007341,1.6935263,2.18906,10.206631232724506,3.148367489873839,-128.88400268554688,-17.019916534423828,99.1901626586914,22319915.0,49920.0,0.093269284992,-0.57683174031487,-0.6537291071999999,0.01270761395724288,-0.031769674411980704,-0.03922549963038719,22.319915040163323
1638,B,1140535801781006.0,-3.5784338,1.6147159968976386,1.1712135,195,1970-01-14 04:48:55.801781006,0.8076939,1.7989874,-0.6317601,11.153058212848602,2.070711453923018,-127.82447052001953,-16.378938674926758,98.84952545166016,22369834.0,49919.0,-0.0674220540429,-0.3419111802753668,-0.13281979529375,0.0006451339608740615,-0.022931363926472013,-0.01963186733179275,22.36983475019224
1638,B,1140535851700716.0,-1.4452,13.494744696897637,-0.3179799,195,1970-01-14 04:48:55.851700716,-0.26289687,3.598219,-0.34413874,2.0245882406720876,3.6241862822688327,-129.8591766357422,-14.43853759765625,99.26034545898438,22419754.0,49920.0,-0.12538989964799999,-0.11208386108286995,0.021296710655999997,-0.004812586364124864,-0.01133171623230159,-0.00278361619255824,22.419754460221156
1638,B,1140535901620426.0,-5.6901197,10.133285396897637,-1.7329531,195,1970-01-14 04:48:55.901620426,-3.6941135,2.7566602,-0.6477391,6.268957083103941,4.654590846767856,-130.0369873046875,-13.142991065979004,99.17432403564453,22469674.0,49920.0,-0.178097579712,0.10053963114113001,-0.05119128768,-0.0075750474848255995,-0.00028814397934582886,-0.0007461686425190401,22.469674170017242
1638,B,1140535951540136.0,-8.85286,4.482969396897638,-5.3505917,195,1970-01-14 04:48:55.951540136,-4.1361985,0.76461565,1.8566976,12.853761758184856,4.5978365675035615,-130.13116455078125,-11.900707244873047,99.06106567382812,22519593.0,49919.0,-0.36298550182215,-0.12439178847426685,-0.1768017364356,-0.013505163173551616,-0.0005953379209564289,-0.005690591885413317,22.51959388004616
1638,B,1140536001459846.0,-5.460276,-0.2336080031023613,-14.453347,195,1970-01-14 04:48:56.001459846,3.0181177,-2.081771,2.921962,19.777572155484254,4.688354389008822,-130.20574951171875,-11.054829597473145,99.09275817871094,22569513.0,49920.0,-0.35725587456,-0.38315193961086996,-0.494306309952,-0.017977224754498464,-0.012668291453005015,-0.016750856837834498,22.569513590075076
1638,B,1140536051379556.0,-4.5025954,-7.7968910031023615,-19.698444,195,1970-01-14 04:48:56.051379556,3.7179964,-5.710061,0.44415694,28.367330903896494,6.828291824569606,-130.1710205078125,-10.36015796661377,99.3218765258789,22619433.0,49920.0,-0.248673270144,-0.68965725519487,-0.8524287033600001,-0.015123991451811841,-0.026777317502351267,-0.03361450593226752,22.619433300103992
1638,B,1140536101299266.0,1.1381437,-2.651752003102361,-19.698444,195,1970-01-14 04:48:56.101299266,1.6971897,-8.489336,3.1946697,24.64389788485244,9.22795714612829,-130.45152282714844,-9.777939796447754,99.6038818359375,22669353.0,49920.0,-0.08397671443199999,-0.7500141294348699,-0.9833463244799999,-0.00830294361501696,-0.035934197760358305,-0.0458209446948864,22.66935301013291
1638,B,1140536151216686.0,5.5291095,2.1414399968976383,-11.376798,195,1970-01-14 04:48:56.151216686,0.61488104,-6.059468,1.7118216,16.10696786926066,6.326576034997291,-130.6483612060547,-9.774359703063965,99.81499481201172,22719270.0,49917.0,0.16640463899219998,-0.5019232222068606,-0.775591427457,0.0020572773551357517,-0.03124647839095013,-0.043900447881719616,22.719270430039614
1638,B,1140536201134106.0,-1.5050551,5.9697686968976384,-5.56607,195,1970-01-14 04:48:56.201134106,0.9067635,-4.7481275,-0.61258537,8.425289687966421,4.872596395837289,-130.6744842529297,-9.151565551757812,100.02416229248047,22769187.0,49917.0,0.1004343617424,-0.2867429978159106,-0.42286857097800007,0.006659901199834514,-0.019683925852438337,-0.029911763870939953,22.76918785017915
1638,B,1140536251051526.0,2.162862,7.130956296897638,-3.2891843,195,1970-01-14 04:48:56.251051526,1.207168,-3.524139,1.5104866,6.349596455083943,4.0197487533830465,-130.455810546875,-9.248772621154785,100.08213806152344,22819105.0,49918.0,0.016418202417099997,-0.16221540487986372,-0.2210182920737,0.0029165231488569605,-0.011205552772883832,-0.01607077221490738,22.819105270085856
1638,B,1140536300968946.0,5.8092313,11.304050096897639,-3.0689178,195,1970-01-14 04:48:56.300968946,-0.17554519,-3.1182733,3.5089228,6.619653324740605,4.697550819691562,-130.8633575439453,-10.16386604309082,100.1541748046875,22869022.0,49917.0,0.19897149062805003,-0.02907649292046062,-0.15868869126285,0.005375803653867377,-0.004774358831249396,-0.009476916743605283,22.869022689992562
1638,B,1140536350886366.0,-0.5042787,3.532470996897638,-0.28924948,195,1970-01-14 04:48:56.350886366,-2.0536063,-1.2988015,1.7650849,8.60019102923615,3.0032830163023183,-130.0526580810547,-9.774510383605957,99.9872055053711,22918940.0,49918.0,0.1324063119434,-0.11889167001996372,-0.08381649714152,0.00827085857438082,-0.0036931373788300506,-0.006052686997384671,22.918940110132098
1638,B,1140536400803786.0,0.7957728,3.953849996897638,-0.21263504,195,1970-01-14 04:48:56.400803786,5.927355,-0.5786828,2.809044,8.200612773892976,6.584765696133526,-128.84352111816406,-9.593805313110352,99.7668685913086,22968857.0,49917.0,0.00727525549485,-0.30233925747636065,-0.01252628479242,0.003486242400907563,-0.010513292103917013,-0.0024045713228982414,22.968857530038804
1638,B,1140536450721206.0,-9.721955,6.4126959968976385,3.14643,195,1970-01-14 04:48:56.450721206,1.9390047,2.8269675,-1.1366955,11.700845860618367,3.6115870655985285,-127.98910522460938,-8.501534461975098,99.57525634765625,23018774.0,49917.0,-0.2227841184387,-0.2304531618138606,0.07322312150916001,-0.005378777955784081,-0.013297699596854989,0.0015149019991947555,23.01877495017834
1638,B,1140536500638626.0,-11.49127,6.819710396897638,4.204667,195,1970-01-14 04:48:56.500638626,4.0418367,-0.8695,0.6753193,13.33219150417985,4.189096599079494,-126.3702163696289,-5.9538068771362305,99.41472625732422,23068692.0,49918.0,-0.529460882775,-0.15892876881726373,0.18347603002299998,-0.01877528298529274,-0.009718583606622233,0.006406954123091181,23.068692370085046
1638,B,1140536550556046.0,-7.737162,7.739083996897638,4.228609,195,1970-01-14 04:48:56.550556046,4.613884,0.74011457,-2.081585,9.842554157015037,5.115534307812555,-125.26663208007812,-4.923881530761719,99.36579895019531,23118609.0,49917.0,-0.479912820072,-0.12582093012246065,0.210481919046,-0.02519245356250685,-0.007106925360987111,0.009832599471838635,23.11860978999175
1638,B,1140536600473466.0,-8.400356,9.393476996897638,3.812018,195,1970-01-14 04:48:56.600473466,0.71182007,0.4514279,-0.3068545,9.617339473849096,0.8970142948267129,-123.83135223388672,-2.4483842849731445,99.26702117919922,23168527.0,49918.0,-0.40277631176199996,-0.061584810155863735,0.200686009293,-0.022031038041444805,-0.0046774598716066975,0.0102623403234131,23.168527210131288
1638,B,1140536650390886.0,-3.7292683,9.175604696897638,2.7896938,195,1970-01-14 04:48:56.650390886,1.2742797,0.9819296,0.84469634,5.506184870359061,1.8169992845341587,-122.7369613647461,-1.460607886314392,99.16818237304688,23218444.0,49917.0,-0.30273722809155,-0.02573017454541064,0.16476882396030001,-0.017608559684434828,-0.0021792510456667565,0.009121204455752489,23.218444630037993
1638,B,1140536700308306.0,-3.5784338,15.991896996897639,-1.8550574,195,1970-01-14 04:48:56.700308306,3.5177267,0.8562284,0.60181606,5.593955503497789,3.670110458682868,-124.62435150146484,0.5271084308624268,99.13575744628906,23268362.0,49918.0,-0.1823929367139,0.13895927477543626,0.023327589907599994,-0.012108363783379227,0.002826085112641209,0.004694698393728916,23.26836205017753
1638,B,1140536750225726.0,-3.4419641,14.833103296897638,-1.850269,195,1970-01-14 04:48:56.750225726,0.28677958,0.76674616,0.3653274,4.761262769755635,0.8964409130391595,-126.51531219482422,2.660017967224121,99.04110717773438,23318279.0,49917.0,-0.17521860098715,0.2801591698326894,-0.0924793889544,-0.008925447563711658,0.010460567699751904,-0.0017259251765095582,23.318279470084235
1638,B,1140536800143146.0,-19.715353,13.693463396897638,-0.8159739,195,1970-01-14 04:48:56.800143146,-2.112196,3.4512126,1.8641545,19.795424984759787,4.455032250465198,-126.74818420410156,4.059467315673828,98.83841705322266,23368196.0,49917.0,-0.57797189884035,0.22279371482708943,-0.06654542341965,-0.018798505089944663,0.01255294957178109,-0.003969020779637727,23.36819688999094
1638,B,1140536850060566.0,-14.405014,12.651985666897637,1.2143092,195,1970-01-14 04:48:56.850060566,-4.779618,0.7060261,1.479594,14.46614981353674,5.052961456872713,-126.86507415771484,6.958828449249268,98.77175903320312,23418114.0,49918.0,-0.851610239953,0.16835966318326623,0.009942050752699999,-0.03568094060214322,0.009762797161760466,-0.001412763578394405,23.418114310130477
1638,B,1140536899977986.0,-12.080244,14.505097796897639,1.4226047,195,1970-01-14 04:48:56.899977986,-2.4445584,-0.42421946,-1.5148643,12.396704165809732,2.9069987562205357,-127.04849243164062,9.774425506591797,98.82180786132812,23468031.0,49917.0,-0.661032311793,0.18861346763113443,0.06581341557315,-0.03775328912775255,0.008909513885431219,0.0018907428062937273,23.468031730037183
1638,B,1140536949895406.0,-7.674913,13.149979596897637,0.75462246,195,1970-01-14 04:48:56.949895406,-2.1068697,-0.81730205,-3.27042,7.781329576058028,3.9752395588331897,-127.13406372070312,11.100943565368652,98.95342254638672,23517949.0,49918.0,-0.493068963563,0.20104667667173629,0.05434141268644,-0.028805213731610404,0.00972552754165535,0.0029989443585311066,23.51794915017672
1638,B,1140536999812826.0,0.118213706,10.942525596897639,-2.515857,195,1970-01-14 04:48:56.999812826,-2.595826,-2.1041415,-5.1847005,2.7773188829035127,6.168212330083855,-127.89935302734375,10.655250549316406,99.06986236572266,23567866.0,49917.0,-0.18860387932929903,0.11212619087933937,-0.043957772266590006,-0.017013531649327444,0.007816325014773522,0.0002591600894188261,23.567866570083424
1638,B,1140537049730246.0,14.710873,12.369469846897639,-5.6163483,195,1970-01-14 04:48:57.049730246,-3.4885175,-2.669797,-3.483473,15.748616893223963,5.606438665565177,-128.45907592773438,9.231025695800781,99.21410369873047,23617783.0,49917.0,0.37011176055170103,0.0926458382839644,-0.20296764598005004,0.0045301644534893205,0.0051108026898723175,-0.006162888051308766,23.61778398999013
1638,B,1140537099647666.0,5.131672,2.7112599968976383,-3.6961985,195,1970-01-14 04:48:57.099647666,-2.9441674,0.3981647,-3.225679,11.330864338758419,4.385391866024044,-128.21588134765625,8.255836486816406,99.35832214355469,23667701.0,49918.0,0.495250080655,-0.11279646382871371,-0.23243185558119997,0.021598566194678048,-0.0005029394629713979,-0.01086713615946724,23.667701410129666
1638,B,1140537149565086.0,7.2673,0.38170199689763784,-5.944354,195,1970-01-14 04:48:57.149565086,-1.6061953,1.418688,-3.9074483,15.025715802211787,4.456533540798159,-128.03871154785156,7.196210861206055,99.4581298828125,23717618.0,49917.0,0.30945974266200005,-0.4119909080778606,-0.24061372957125002,0.020084350125257347,-0.013097905621730237,-0.011806508237027424,23.717618830036372
1638,B,1140537199483856.0,3.3096845,-4.919060003102361,-19.189077,195,1970-01-14 04:48:57.199483856,-2.8557506,5.740466,-1.86001,25.870165226918637,6.675919306481794,-128.4591827392578,6.588515758514404,99.25813293457031,23767537.0,49919.0,0.26399624462775,-0.6024563871558668,-0.6273178710445,0.014313174714758514,-0.025320097265386216,-0.021663138785568813,23.76753760012798
1638,B,1140537249402626.0,-5.568015,-7.7968910031023615,-18.796429,195,1970-01-14 04:48:57.249402626,-7.5258694,5.2057033,-0.10019318,27.941222869555833,9.151398567804037,-128.9790802001953,6.544826984405518,99.04248809814453,23817456.0,49919.0,-0.056366800114749996,-0.8065899791393669,-0.9480992370069999,0.005182327120322224,-0.035169092779545885,-0.039321623308411414,23.81745637021959
1638,B,1140537299321396.0,-4.3709145,1.3944489968976388,-12.533197,195,1970-01-14 04:48:57.299321396,-0.9212303,3.7015498,1.5680109,17.060863495523407,4.124171961744192,-129.30123901367188,6.698126792907715,98.81864929199219,23867375.0,49919.0,-0.24807071085525,-0.6490079512538669,-0.781971800147,-0.007598608055055714,-0.03633099654364992,-0.04318170805184526,23.867375140078366
1638,B,1140537349240166.0,-4.437952,3.491769996897638,-6.2508116,195,1970-01-14 04:48:57.349240166,-2.3646636,2.784357,-0.33668187,11.536616277914403,3.6684646006470687,-129.3531494140625,6.990190505981445,98.72984313964844,23917293.0,49918.0,-0.2198604989735,-0.3672412601338637,-0.46883007064739995,-0.011679095066115771,-0.025364564067026366,-0.031218763893157427,23.917293910169974
1638,B,1140537399158936.0,-6.358102,10.008786996897637,-2.8630164,195,1970-01-14 04:48:57.399158936,-0.04771346,3.279705,0.48037595,7.283542985572953,3.315041857145785,-129.5490264892578,8.063176155090332,98.5634994506836,23967212.0,49919.0,-0.269464109813,-0.15223904771336685,-0.22747658996599998,-0.012213297573006645,-0.01296596874371295,-0.017379466095580155,23.96721268002875
1638,B,1140537449077706.0,-9.188048,5.285026996897638,1.6476597,195,1970-01-14 04:48:57.449077706,-0.7891375,0.1883076,-0.78409296,11.565297269097933,1.1282728021385482,-128.8812713623047,9.07970142364502,98.68609619140625,24017131.0,49919.0,-0.388024130925,-0.10748024962186685,-0.030334695553649996,-0.016410577744700113,-0.0064824638018387655,-0.006434840780927703,24.01713145012036
1638,B,1140537498996476.0,-7.2319856,10.339186796897637,-0.2653075,195,1970-01-14 04:48:57.498996476,2.6154475,-0.48493952,1.3198043,7.451066039708764,2.969446977740564,-128.57684326171875,10.472112655639648,98.69488525390625,24067050.0,49919.0,-0.4098358286392,-0.09923363581376685,0.0345028197359,-0.01991418566074265,-0.0051594752235306985,0.00010403429552686893,24.067050220211968
1638,B,1140537548915246.0,-4.6151233,5.818933996897639,-10.883592,195,1970-01-14 04:48:57.548915246,1.727017,-0.03113688,0.47611487,13.392799984167459,1.7917149865478748,-128.99200439453125,10.749115943908691,98.5893325805664,24116968.0,49918.0,-0.29569199103509997,-0.08590586310766374,-0.2782653826205,-0.017609268851250852,-0.004620896753579986,-0.006084069807036731,24.116968990070745
1638,B,1140537598834016.0,2.2155344,-7.7968910031023615,-19.698444,195,1970-01-14 04:48:57.598834016,4.413614,-3.0660753,-0.08421421,28.095207597607164,5.374746349311009,-128.89291381835938,10.466240882873535,98.68608856201172,24166887.0,49919.0,-0.059892539149549985,-0.5385750178963667,-0.763312327542,-0.008875212081143771,-0.0155867305494201,-0.025997258856800914,24.166887760162354
1638,B,1140537648752786.0,4.9928083,-1.009329003102362,-18.997541,195,1970-01-14 04:48:57.648752786,2.1264913,-4.513769,1.9845293,23.622658210913304,5.369770235018923,-129.16932678222656,10.143680572509766,98.72879791259766,24216806.0,49919.0,0.17991662962065,-0.7090050482448669,-0.9658324376074998,0.002995741286113421,-0.031138974660852116,-0.04315858876574894,24.21680653002113
1638,B,1140537698671556.0,3.7095163,8.507622596897638,-9.200468,195,1970-01-14 04:48:57.698671556,-1.282355,-4.6607757,-0.021363612,10.554989526224471,4.83401705371973,-129.87014770507812,9.589228630065918,98.79850769042969,24266725.0,49919.0,0.21720567085370002,-0.3020525410456668,-0.7038082056355,0.00991197405868954,-0.025235491899897076,-0.041673395635023654,24.26672530011274
1638,B,1140537748590326.0,2.9242182,9.865134896897638,-2.8151324,195,1970-01-14 04:48:57.748590326,-0.21815577,-3.327065,-1.3625315,4.6399223654117545,3.6018669523875455,-130.07835388183594,8.572202682495117,98.9364242553711,24316644.0,49919.0,0.16557469625275,-0.030631359333616826,-0.2999033781838,0.00955400657279344,-0.00830362381151673,-0.025052139276337818,24.316644070204347
1638,B,1140537798509096.0,6.031892,12.900982636897638,-1.2062287,195,1970-01-14 04:48:57.798509096,0.11101094,-2.6239905,-2.6728067,6.201583636546199,3.747204988848999,-130.7177276611328,5.769088268280029,99.04010772705078,24366562.0,49918.0,0.2235355544818,0.07902312752599625,-0.10036915169489999,0.009711802748083632,0.0012078101423135979,-0.009990402073242472,24.366562840063125
1638,B,1140537848427866.0,10.204986,13.853874996897638,-0.7968203,195,1970-01-14 04:48:57.848427866,-1.166241,-1.5736398,-1.8493574,10.38303129881366,2.693804574047605,-131.25466918945312,2.9283077716827393,99.12458801269531,24416481.0,49919.0,0.405264356441,0.17858166911071313,-0.0499951015155,0.015694531376677624,0.006429686921653947,-0.003753016578004978,24.416481610154733
1638,B,1140537898346636.0,8.926482,16.006262196897637,-1.4815619,195,1970-01-14 04:48:57.898346636,-2.2080698,1.5411934,-0.4677094,9.85061760483093,2.73305715650514,-132.4694061279297,0.21611280739307404,99.05442810058594,24466400.0,49919.0,0.47751187554599994,0.2560878942885331,-0.0568672805209,0.022033653362279526,0.010849134967663486,-0.0026672316244375255,24.46640038001351
1638,B,1140537948265406.0,7.5857286,12.604101616897639,-3.7345057,195,1970-01-14 04:48:57.948265406,-1.7670503,3.8293815,0.5112686,8.469415614861939,4.248296719465143,-133.0784454345703,-1.1793631315231323,98.9013900756836,24516319.0,49919.0,0.4121365204707,0.22489417561042319,-0.1301904392622,0.022205179140378818,0.012005071973643,-0.004668867156926285,24.51631915010512
1638,B,1140537998184176.0,3.896264,-7.7968910031023615,-19.698444,195,1970-01-14 04:48:57.998184176,-3.1700034,7.049676,0.13416499,28.277428638982645,7.7307731505671065,-133.2706756591797,-1.58378267288208,98.64078521728516,24566237.0,49918.0,0.2865790533034,-0.3692132302902837,-0.5848629915622999,0.01743924200582776,-0.003602059285754638,-0.017847018579948692,24.566237920196727
1638,B,1140538048102946.0,0.72634095,-1.2295955031023613,-15.054292,195,1970-01-14 04:48:58.048102946,-1.0096473,0.90842634,2.7717597,20.12918014492625,3.0866288925212855,-133.44691467285156,-1.526464819908142,98.51614379882812,24616156.0,49919.0,0.11537790824952499,-0.7145027899516168,-0.8674109141919999,0.010032644781880231,-0.027049010007227713,-0.03624803055067445,24.616156690055504
1638,B,1140538098021716.0,-1.5026609,-0.8130050031023615,-3.1048307,195,1970-01-14 04:48:58.098021716,-2.4051437,0.41946998,0.19488506,13.378315889829604,2.4492144594506406,-132.85606384277344,-1.3399182558059692,98.47625732421875,24666075.0,49919.0,-0.019376557792025,-0.5401884873346168,-0.45324262303065,0.0023961457067439708,-0.031316466935425745,-0.032962851962308734,24.666075460147113
1638,B,1140538147940486.0,-2.024597,5.893154296897638,1.4680946,195,1970-01-14 04:48:58.147940486,1.243387,0.76887673,1.1110125,6.703779780215417,1.8361730400103207,-131.65866088867188,-0.8741614818572998,98.38861846923828,24715994.0,49919.0,-0.08803859355504999,-0.3624082137015168,-0.04085211468795,-0.002681028470047318,-0.022528362359511375,-0.012332357606087396,24.71599423000589
1638,B,1140538197859256.0,1.0375872,7.387135996897638,2.5023897,195,1970-01-14 04:48:58.197859256,2.8902857,2.341207,1.6074257,5.447223778154789,4.052014193644191,-130.19383239746094,-1.1551417112350464,98.2240219116211,24765913.0,49919.0,-0.0246352711031,-0.15773679441201685,0.09910130288584999,-0.0028122833249350945,-0.012982559330009745,0.001453870612825485,24.7659130000975
1638,B,1140538247780056.0,-0.9496002,13.794019796897638,1.1233295,195,1970-01-14 04:48:58.247780056,2.290542,2.8695781,2.5342057,2.233711604446673,4.461306944795,-130.7736053466797,1.6270807981491089,98.0326156616211,24815833.0,49920.0,0.0021961555199999983,0.03946564861313008,0.09049795123200001,-0.000560080324954176,-0.002952047799140214,0.004732397382781536,24.815833800006658
1638,B,1140538297700856.0,-3.9208045,12.448478496897637,-7.265953,195,1970-01-14 04:48:58.297700856,-3.0240622,2.6501336,1.3528275,8.263130931316864,4.242440633889182,-131.9222412109375,2.2472522258758545,97.8536148071289,24865754.0,49921.0,-0.12156773651435,0.16580007866227695,-0.15332295387175,-0.0029795743474094736,0.0051235351856577975,-0.0015681434783894794,24.865754600148648
1638,B,1140538347621656.0,-9.336489,-7.7968910031023615,-19.698444,195,1970-01-14 04:48:58.347621656,-0.31189904,-3.5305305,-1.509538,29.522908463127084,3.852354033059159,-131.99575805664062,2.708563804626465,98.0326919555664,24915675.0,49921.0,-0.33090867440675,-0.37311985036112305,-0.6730448313184999,-0.011294037454796116,-0.005174805161489048,-0.02062655310224123,24.915675400057808
1638,B,1140538397542456.0,0.72155255,-2.376418003102362,-19.698444,195,1970-01-14 04:48:58.397542456,6.5270987,-5.3052607,1.8204786,24.46410242115636,8.605983434074465,-131.9526824951172,2.8451812267303467,98.15543365478516,24965596.0,49921.0,-0.215033121260225,-0.7431566794493731,-0.9833660229239999,-0.013626980190745529,-0.02786282032233489,-0.04134484312731992,24.965596200199798
1638,B,1140538447463256.0,3.6783917,5.7183776968976385,-11.6329775,195,1970-01-14 04:48:58.447463256,-0.7475922,-6.3673296,1.7150174,13.774897831587428,6.636494934439395,-132.43701171875,2.6757376194000244,98.31319427490234,25015517.0,49921.0,0.109824808452125,-0.4058088150630231,-0.7820479463507499,-0.00262605209184658,-0.028678753225776666,-0.0440656153800824,25.015517000108957
1638,B,1140538497384056.0,4.7102923,6.869988596897638,-5.127931,195,1970-01-14 04:48:58.497384056,-1.7755724,-3.6242738,-0.07143104,8.716169115993909,4.0364737480235995,-132.560791015625,1.9660698175430298,98.44831848144531,25065437.0,49920.0,0.20938155264,-0.1750103773068699,-0.41835227616,0.00796739077285944,-0.014497247041552528,-0.029961989553868317,25.065437800018117
1638,B,1140538547304856.0,8.124424,8.299326996897637,0.19677345,195,1970-01-14 04:48:58.547304856,-1.4602541,-2.4631355,-1.066388,8.977138643649038,3.055578814966333,-132.1961669921875,0.6994867920875549,98.58600616455078,25115358.0,49921.0,0.32036093620615,-0.11059209812107307,-0.123084158026775,0.013222637392844329,-0.007128780587919171,-0.013514524115518997,25.115358600160107
1638,B,1140538597225656.0,8.031051,10.968861796897638,0.713921,195,1970-01-14 04:48:58.597225656,-0.11162932,-1.4447428,-2.339379,8.143494028065266,2.7518061285047866,-131.97361755371094,-0.7521295547485352,98.7180404663086,25165279.0,49921.0,0.4032487337375,-0.008282173612473069,0.022731388819225002,0.018061659166628476,-0.0029671612596051783,-0.0025048552958050517,25.165279400069267
1638,B,1140538647146456.0,7.5019317,9.960902796897638,2.1288943,195,1970-01-14 04:48:58.647146456,-1.1705022,-0.116358034,-0.8394867,8.08966339179923,1.4451133214243357,-131.49758911132812,-2.107267379760742,98.73780059814453,25215200.0,49921.0,0.38771101468335,0.033191589143426965,0.07095809129564999,0.019742750800458626,0.0006217514663603747,0.002338536268407337,25.215200200211257
1638,B,1140538697067256.0,7.1451955,4.157357996897638,-1.4695909,195,1970-01-14 04:48:58.697067256,0.52433354,1.8799475,-0.6562612,10.793776566951534,2.059079169568432,-130.9149169921875,-3.1074678897857666,98.66362762451172,25265121.0,49921.0,0.3655996184756,-0.13682695145647303,0.016456542515699994,0.018803010058963975,-0.0025867904610147865,0.002181912967248201,25.265121000120416
1638,B,1140538746988056.0,9.76924,-7.7968910031023615,-14.834024,195,1970-01-14 04:48:58.746988056,1.1059679,4.613416,-0.0011235876,26.681261579320044,4.744130420565554,-130.75076293945312,-3.7099554538726807,98.48284149169922,25315041.0,49920.0,0.42218431007999996,-0.5800587438348699,-0.40693822790399997,0.019663086856747777,-0.01789346695447192,-0.009746422867291967,25.315041800029576
1638,B,1140538796908856.0,2.366369,-3.470569003102362,-12.56911,195,1970-01-14 04:48:58.796908856,-3.2317889,2.7577255,1.6212741,20.160098479666736,4.547311198372536,-130.85568237304688,-3.814484119415283,98.32222747802734,25364962.0,49921.0,0.3029108684445,-0.7704672354848731,-0.683995926207,0.01809873820356078,-0.03370980370681044,-0.027230261953687617,25.364962600171566
1638,B,1140538846829656.0,-2.7093384,-0.7531490031023615,-6.380099,195,1970-01-14 04:48:58.846829656,-3.5918481,2.0290844,-0.11617214,14.614504313014367,4.12699070048736,-130.67796325683594,-3.529470920562744,98.22612762451172,25414883.0,49921.0,-0.008560687708699997,-0.594651913293873,-0.4729817312445,0.007347127686255936,-0.034074056513091894,-0.028878740818818166,25.414883400080726
1638,B,1140538896750456.0,-1.4164696,4.413537596897638,-1.838298,195,1970-01-14 04:48:58.896750456,-0.37048858,1.9214928,0.14481764,8.041598617395655,1.962235591670232,-130.04525756835938,-3.256967306137085,98.110107421875,25464804.0,49921.0,-0.10298223058400001,-0.3978606705045731,-0.2051352983185,-0.0027841670120449385,-0.024773610347901112,-0.01692614011640726,25.464804199989885
1638,B,1140538946671256.0,-2.2711997,10.032728996897639,-0.8806173,195,1970-01-14 04:48:58.946671256,-0.058366105,2.627763,-0.3057892,3.2033302819071556,2.646139078207816,-129.7465362548828,-2.284158945083618,98.0049057006836,25514725.0,49921.0,-0.09204606956265,-0.12863976268557303,-0.06786548534565,-0.004868003885810458,-0.013141714062642643,-0.006814236060649016,25.514725000131875
1638,B,1140538996592056.0,-6.5759745,11.904994716897638,-1.814356,195,1970-01-14 04:48:58.996592056,-1.3739676,2.4594514,0.49422437,6.82485097067182,2.8602352845025907,-130.0769500732422,-0.9540387392044067,97.90122985839844,25564645.0,49920.0,-0.22082546803199998,0.05834958389633008,-0.067266533568,-0.007809273578362463,-0.0017544428625795043,-0.0033728951920847044,25.564645800041035
1638,B,1140539046512856.0,-8.467394,11.670362966897638,-0.8662521,195,1970-01-14 04:48:59.046512856,-1.8959472,0.48871216,0.8862417,8.523090602881803,2.149157907492745,-130.2350616455078,0.4893360137939453,97.85307312011719,25614566.0,49921.0,-0.37548999944425,0.09922691546637197,-0.06690931848005001,-0.014884332225940938,0.003933188212342725,-0.003349096355045352,25.614566600183025
1638,B,1140539096433656.0,-7.0859394,4.858858996897638,-7.428759,195,1970-01-14 04:48:59.096433656,-0.5142993,-1.1688393,-1.1281734,12.57057789180662,1.703955486411702,-130.37184143066406,1.2814502716064453,97.9322280883789,25664487.0,49921.0,-0.3882189783307,-0.07664815517268804,-0.20704762456155,-0.01906255793975164,0.0005635771463104977,-0.006838102276789857,25.664487400092185
1638,B,1140539146354456.0,0.50607437,-7.7968910031023615,-19.698444,195,1970-01-14 04:48:59.146354456,3.796826,-4.6554494,-1.9739933,28.012286742481965,6.32342836906383,-130.28453063964844,1.2990373373031616,98.17115020751953,25714408.0,49921.0,-0.16423672108131498,-0.562560547890873,-0.6771085504815,-0.0137895704851736,-0.015954968832818016,-0.02206898020716205,25.714408200001344
1638,B,1140539196275256.0,6.484396,-3.599856003102362,-19.698444,195,1970-01-14 04:48:59.196275256,5.9305506,-5.9795732,1.0193998,26.018640401668975,8.483271893883789,-130.25184631347656,1.1434307098388672,98.36019897460938,25764329.0,49921.0,0.17448563567038503,-0.773694303648373,-0.9833660229239999,0.00025581803260048275,-0.03335358922184535,-0.04144627558948798,25.764329000143334
1638,B,1140539246196056.0,7.1858974,8.304115396897638,-8.910769,195,1970-01-14 04:48:59.246196056,-0.71883005,-4.6213613,0.6817109,12.064263713586634,4.7263544785700855,-130.8009033203125,0.4459202289581299,98.50761413574219,25814249.0,49920.0,0.341210523264,-0.37179768553086995,-0.71408595648,0.01287177612700225,-0.028591480049913905,-0.04236840140592383,25.814249800052494
1638,B,1140539296123216.0,3.716699,9.551494496897638,-3.1048307,195,1970-01-14 04:48:59.296123216,-1.4421446,-3.1321216,-0.1832838,5.478602874070701,3.4530507838487057,-131.0498809814453,-0.4381813704967499,98.6326904296875,25864176.0,49927.0,0.2721669652314,-0.04354608241624168,-0.29995142311094997,0.015312048934054917,-0.010368434151147722,-0.025313922125418678,25.864176960196346
1638,B,1140539346050376.0,6.0151324,13.614454796897638,-0.03546411,195,1970-01-14 04:48:59.346050376,-1.4251003,-2.3267817,-1.9644059,6.199795886586775,3.362099713641728,-131.60159301757812,-3.259593963623047,98.80216217041016,25914104.0,49928.0,0.24294543906960003,0.08902035817030522,-0.07839431963684,0.012859266060970164,0.0011352198199244422,-0.00944502312195583,25.914104120107368
1638,B,1140539395977536.0,5.2777185,13.178709996897638,-0.4640262,195,1970-01-14 04:48:59.395977536,-2.0056696,-0.8322157,-1.473319,5.404201131202436,2.6241117337971054,-132.27084350585938,-6.095372200012207,98.93095397949219,25964031.0,49927.0,0.28190908344215,0.17956656932990828,-0.012469026353684999,0.013102205872722072,0.0067048697646515795,-0.002268267137634471,25.96403128001839
1638,B,1140539445904696.0,5.830779,13.983161796897638,-0.18390462,195,1970-01-14 04:48:59.445904696,-0.07008401,0.57286805,-0.6520001,6.126119773337033,0.8707431892174021,-132.9375,-8.926490783691406,99.01847839355469,26013958.0,49927.0,0.27730697734125,0.1887707865244083,-0.016174621025070002,0.013959990133366407,0.009194989582869233,-0.0007150456913395505,26.01395844016224
1638,B,1140539495831856.0,7.813178,4.595496996897638,-7.2491937,195,1970-01-14 04:48:59.495831856,-1.3526623,2.4402766,0.20340718,13.04259467283407,2.797502397358115,-133.01016235351562,-9.671957015991211,98.92463684082031,26063885.0,49927.0,0.3406009205695,-0.025496251201091627,-0.18555614991132,0.015425143809495006,0.004075903862543615,-0.005035906100270572,26.063885600073263
1638,B,1140539545759016.0,5.816414,-7.7968910031023615,-19.698444,195,1970-01-14 04:48:59.545759016,1.5757495,4.780663,1.4210044,28.605292676259335,5.230389919608156,-132.93479919433594,-9.834504127502441,98.70502471923828,26113812.0,49927.0,0.340242319892,-0.5692025992738916,-0.67270735372395,0.01699623023326065,-0.014845764753832244,-0.02142526097299906,26.113812760217115
1638,B,1140539595686176.0,4.846762,-0.6238630031023611,-9.696068,195,1970-01-14 04:48:59.595686176,-1.246136,2.994214,3.107318,16.725199142688375,4.491502817700997,-132.8223114013672,-9.998472213745117,98.46275329589844,26163739.0,49927.0,0.266190194076,-0.6994960926338917,-0.733789900312,0.015138678062440169,-0.03167115979543995,-0.03511109420112644,26.163739920128137
1638,B,1140539645613336.0,-1.1411364,6.285803496897638,-6.5213566,195,1970-01-14 04:48:59.645613336,-1.2855507,3.0080626,1.3869159,8.81965976372812,3.553113693855301,-132.9947967529297,-9.622016906738281,98.32591247558594,26213667.0,49928.0,0.0925072374784,-0.3479497175128947,-0.4048517877144,0.008954522681324042,-0.026148437204504372,-0.028425051099891054,26.21366708003916
1638,B,1140539695540496.0,-2.3430257,7.818092496897638,-2.539799,195,1970-01-14 04:48:59.695540496,-2.5585418,2.0333457,0.0010069412,5.512395261278326,3.2681236041475406,-132.82876586914062,-8.8792142868042,98.2044906616211,26263594.0,49927.0,-0.08697688058335,-0.13720199235889166,-0.2261981578206,0.00013805706434958084,-0.012111084709384339,-0.015753215315362973,26.26359424018301
1638,B,1140539745467656.0,-2.513014,11.330386296897638,-2.669086,195,1970-01-14 04:48:59.745467656,-0.2469179,2.7172453,-0.18008801,3.748563665733062,2.734377838020609,-133.377197265625,-7.8886399269104,98.19015502929688,26313521.0,49927.0,-0.12122374705095,-0.011271549631091672,-0.1300320006975,-0.005197416367948848,-0.0037064192654669486,-0.00889275156216659,26.313521400094032
1638,B,1140539795394816.0,-8.108263,6.415089996897638,-4.3522096,195,1970-01-14 04:48:59.795394816,-0.7316132,0.6282618,-0.876771,10.823665418207558,1.303341148815029,-133.31472778320312,-6.7497148513793945,98.18437194824219,26363448.0,49927.0,-0.2651442483895,-0.04629540253984166,-0.1752761127106,-0.009645097454177675,-0.001437072610519094,-0.007621559089063105,26.363448560005054
1638,B,1140539845321976.0,-5.31423,6.233130996897638,-6.487838,195,1970-01-14 04:48:59.845321976,2.3800242,-1.107054,1.439114,10.242355003940451,2.9935151338347428,-133.29139709472656,-5.777894496917725,98.18679809570312,26413375.0,49927.0,-0.33507240400550004,-0.17354073522139166,-0.2706055282626,-0.014983508402062584,-0.005487879425002548,-0.011130766344434478,26.413375720148906
1638,B,1140539895249136.0,-2.2616227,-2.1896710031023616,-13.244275,195,1970-01-14 04:48:59.895249136,1.4628315,-2.396024,0.7339089,19.623758503381158,2.901625282400789,-133.21205139160156,-5.361598491668701,98.24818420410156,26463302.0,49927.0,-0.18911979887645,-0.3883456864448916,-0.49258260287549993,-0.01308567205664356,-0.01402665168726626,-0.019051846911665955,26.463302880059928
1638,B,1140539945176296.0,-1.2967595,-1.6054850031023626,-15.77734,195,1970-01-14 04:48:59.945176296,3.2301052,-2.8168035,1.4305918,20.947616247177535,4.518246834659051,-133.20001220703125,-4.991848468780518,98.31563568115234,26513230.0,49928.0,-0.08883145324080001,-0.5840366745388947,-0.72449559686,-0.006938775057855029,-0.024274553259599242,-0.030383140178197023,26.51323004020378
1638,B,1140539995103456.0,2.6943748,0.4822579968976388,-11.716774,195,1970-01-14 04:48:59.995103456,-0.20643786,-3.218408,0.01272485,16.727713491306577,3.2250470642012194,-133.2703399658203,-4.988065719604492,98.4372787475586,26563157.0,49927.0,0.034889369541549996,-0.5173242773693916,-0.686349314839,-0.0013465832064262276,-0.027493824122962505,-0.03521962695319798,26.5631572001148
1638,B,1140540045030616.0,1.7558477,3.137427996897639,-9.478195,195,1970-01-14 04:49:00.045030616,1.2092986,-3.2695408,-1.6778498,13.171177349447134,3.868782766993598,-133.3070831298828,-5.004035949707031,98.6216049194336,26613084.0,49927.0,0.11109312937874999,-0.3989245686938916,-0.5291006086315,0.0036442341117969086,-0.022872778068700767,-0.030341884164555827,26.613084360025823
1638,B,1140540094957776.0,4.490026,9.501216296897638,-4.507833,195,1970-01-14 04:49:00.094957776,0.7128853,-2.8977635,-1.8866416,6.877663769051602,3.5305318692427776,-133.5991973876953,-5.813645362854004,98.82173919677734,26663011.0,49927.0,0.15591886810995,-0.17377980317184163,-0.349140209978,0.006665553999309162,-0.01429670558707023,-0.021923964675358253,26.663011520169675
1638,B,1140540144884936.0,4.9497128,12.012733800897639,-1.2014403,195,1970-01-14 04:49:00.144884936,0.4178071,-2.1084025,-2.2456357,5.094425100273604,3.108505038106123,-133.82276916503906,-7.180727958679199,99.00212860107422,26712938.0,49927.0,0.23564891953380002,0.047778893266312364,-0.14252344402455,0.009774902466844752,-0.0031454237144266798,-0.012273645626692656,26.712938680080697
1638,B,1140540194812096.0,4.7773304,14.215399396897638,0.09382278,195,1970-01-14 04:49:00.194812096,-0.68048054,-0.9717654,-0.32283345,5.220326574573821,1.2294727302363213,-134.65049743652344,-9.91491985321045,99.16681671142578,26762865.0,49927.0,0.2428210429232,0.16546140308316235,-0.02765000996052,0.01194428490779532,0.0053232241379201125,-0.004248125018556295,26.76286583999172
1638,B,1140540244739256.0,8.562563,13.315179496897638,1.84159,195,1970-01-14 04:49:00.244739256,-0.6591752,0.76674616,-0.09699739,8.84048618836098,1.0157854654584293,-134.5238800048828,-12.805441856384277,99.11267852783203,26812793.0,49928.0,0.33301709883760006,0.19797897150470525,0.048315644639920004,0.014375223370916613,0.009072925511211527,0.0005158969041365417,26.81279300013557
1638,B,1140540294666416.0,13.099575,-7.7968910031023615,-17.431734,195,1970-01-14 04:49:00.294666416,-1.3239002,5.21316,0.76160574,29.527404502958007,5.432291618494077,-134.46441650390625,-13.296565055847168,98.87732696533203,26862720.0,49927.0,0.540762781963,-0.3515288051851416,-0.38918455974399996,0.02181260405436578,-0.0038331412730815734,-0.0085092811622007,26.862720160046592
1638,B,1140540344601206.0,4.408623,-7.7968910031023615,-15.1333,195,1970-01-14 04:49:00.344601206,-0.21282944,3.1976795,3.4812257,25.39401754154023,4.731742060762765,-134.23721313476562,-13.203933715820312,98.59309387207031,26912654.0,49934.0,0.437127179466,-0.8786831553489134,-0.8130512038779999,0.024414978666997843,-0.030714702018653756,-0.030016220310350467,26.912654950050637
1638,B,1140540394535996.0,0.63536125,2.8118169968976385,-4.356998,195,1970-01-14 04:49:00.394535996,-1.5571932,2.53402,2.4415278,10.290721707843506,3.8480080588142065,-133.7931671142578,-12.98135757446289,98.3034439086914,26962589.0,49935.0,0.125935676761875,-0.6138278352499166,-0.486624015315,0.01405827186286947,-0.03726426815777628,-0.032449641035201225,26.962589740054682
1638,B,1140540444470786.0,-2.3813329,8.126944396897638,-0.35628715,195,1970-01-14 04:49:00.444470786,-1.1151084,2.1206973,1.0268565,4.656850267213784,2.606771576791894,-133.0371551513672,-12.08625602722168,98.01763153076172,27012524.0,49935.0,-0.043592547171375,-0.21624947490041646,-0.117678946982625,0.0020559020880508085,-0.02072495524117844,-0.015087934211165954,27.012524530058727
1638,B,1140540494405576.0,-1.0453683,10.470867896897637,1.84159,195,1970-01-14 04:49:00.494405576,0.052421395,2.8312287,0.25667042,2.6797046266890128,2.843322644171852,-130.31092834472656,-11.072346687316895,97.3611068725586,27062459.0,49935.0,-0.085556162211,-0.025022121554666495,0.037084298907375,-0.0032245204015044476,-0.006023948584492284,-0.0020122468758188043,27.06245932006277
1638,B,1140540544340366.0,-3.307889,9.288132296897638,0.56548053,195,1970-01-14 04:49:00.544340366,1.4820063,3.6205895,0.24708302,4.386539016251397,3.919956762455711,-129.46096801757812,-10.005790710449219,97.07655334472656,27112394.0,49935.0,-0.10868995163775,0.0039698373385835,0.060098533457775,-0.004849839847518666,-0.0005256229061650522,0.0024264123670768825,27.112394110066816
1638,B,1140540594275156.0,-0.839467,11.919359926897638,-7.3760867,195,1970-01-14 04:49:00.594275156,-1.7159176,5.1226125,2.3307402,7.426227362616582,5.883696279979283,-130.58981323242188,-9.757892608642578,96.9876937866211,27162328.0,49934.0,-0.103547037252,0.040134258351496616,-0.17004040424639,-0.005298920901610388,0.0011011469570942302,-0.002744918687979351,27.16232890007086
1638,B,1140540644209946.0,-18.642752,-0.9207430031023627,-19.698444,195,1970-01-14 04:49:00.644209946,1.2764102,-0.7374072,-1.0067332,30.090847780303502,1.7850781812733356,-130.84791564941406,-8.714054107666016,97.09982299804688,27212263.0,49935.0,-0.4864223028825,-0.2147550319551415,-0.6759833452522499,-0.014730059499808127,-0.004359844164949004,-0.021123097965607292,27.212263690074906
1638,B,1140540694144736.0,4.0470986,-7.7968910031023615,-19.698444,195,1970-01-14 04:49:00.694144736,2.4141126,-7.5316634,1.2345831,28.298606049648132,8.004879052626837,-130.86016845703125,-8.409214973449707,97.36160278320312,27262198.0,49935.0,-0.36441697626450004,-0.7070205270499165,-0.9836418011399999,-0.021243329702102725,-0.023014431269458787,-0.041436690842548494,27.26219848007895
1638,B,1140540744079526.0,5.342362,-0.31022200310236236,-17.391033,195,1970-01-14 04:49:00.744079526,3.5699246,-5.994487,2.8441978,22.030094911041623,7.53443409742092,-131.03146362304688,-8.2514066696167,97.54473114013672,27312133.0,49935.0,0.23443135753049998,-0.6917773439824165,-0.9260315169975001,-0.0032454159357411462,-0.03492448584499978,-0.04767976857059803,27.312133270082995
1638,B,1140540794014316.0,11.428423,6.625779996897638,-7.452701,195,1970-01-14 04:49:00.794014316,0.22712503,-5.6248403,0.7083425,14.705818203039605,5.673813821149126,-131.24798583984375,-9.015026092529297,97.76582336425781,27362068.0,49935.0,0.4187245744875,-0.3316793057899165,-0.620285928645,0.016307670732659416,-0.025553153903190722,-0.038607680824079116,27.36206806008704
1638,B,1140540843949106.0,7.0254855,10.094978196897639,-1.5222634,195,1970-01-14 04:49:00.843949106,-1.7947469,-3.612556,-1.4019463,7.466398598431084,4.270495371298194,-131.33248901367188,-10.203841209411621,97.94564056396484,27412002.0,49934.0,0.4607387335195,-0.07188603017551336,-0.2240779361748,0.021957560411010768,-0.010075815743048888,-0.021081232612955945,27.412002850091085
1638,B,1140540893883896.0,8.050204,9.376717696897638,2.2055087,195,1970-01-14 04:49:00.893883896,-2.6363058,-1.9518087,-2.0826502,8.783919662638349,3.885498337159517,-130.9156494140625,-11.492368698120117,97.983642578125,27461937.0,49935.0,0.37640227759125006,-0.003203432771666471,0.01705892702775001,0.02090131819490765,-0.0018747961661337124,-0.005168747110878971,27.46193764009513
1638,B,1140540943818686.0,6.719028,10.190746296897638,1.3340193,195,1970-01-14 04:49:00.943818686,-0.4514484,0.03597478,-2.1731977,7.114771215171615,2.219884701047308,-130.4852752685547,-12.877874374389648,97.95669555664062,27511872.0,49935.0,0.36875079996000004,-0.0008123427349164956,0.08837316534,0.018604609463760836,-0.00010026387496061022,0.0026323757661917985,27.511872430099174
1638,B,1140540993753476.0,7.339126,11.438125396897638,0.8264485,195,1970-01-14 04:49:00.993753476,-1.2280262,1.938537,-1.4030116,7.416281490416313,2.6896868959025695,-130.32736206054688,-14.376808166503906,97.87834167480469,27561807.0,49935.0,0.350996959995,0.05065585401483351,0.053941479796500005,0.017970302196676464,0.001244467867881328,0.0035532409024455636,27.56180722010322
1638,B,1140541043688266.0,7.2625117,7.006457996897638,-4.4312186,195,1970-01-14 04:49:01.043688266,-3.3937087,3.5353684,-0.33561662,9.922522549922064,4.912100057999071,-130.47552490234375,-15.27737045288086,97.75409698486328,27611742.0,49935.0,0.36456638927475005,-0.02884786411541646,-0.09000209747175,0.017865827922892485,0.0005444909878136952,-0.0009003434718068043,27.611742010107264
1638,B,1140541093623056.0,8.074146,-7.7968910031023615,-19.698444,195,1970-01-14 04:49:01.093623056,-3.0741293,5.9599104,1.8385881,29.148309228913707,6.953503371007184,-130.6556854248047,-15.422365188598633,97.48505401611328,27661676.0,49934.0,0.3829103327959,-0.5090879408659134,-0.6024452861342,0.018662251319937918,-0.013430643242968863,-0.017288333826489755,27.66167680011131
1638,B,1140541143557846.0,6.6256537,-2.048413003102361,-14.156466,195,1970-01-14 04:49:01.143557846,0.39437154,2.9185803,4.178974,21.091471731785234,5.112481156130168,-130.67446899414062,-15.432123184204102,97.25732421875,27711611.0,49935.0,0.36701724900975,-0.7351756277749165,-0.8452724654249999,0.018723816898732565,-0.03106615065003992,-0.036145892962054324,27.711611590115353
1638,B,1140541193492636.0,-2.0772693,5.766261696897638,-6.291513,195,1970-01-14 04:49:01.193492636,-1.7958121,2.9026012,1.6116867,9.174919965938122,3.7745951893818677,-130.8228302001953,-14.782854080200195,97.1153793334961,27761546.0,49935.0,0.113561787507,-0.39653761273766647,-0.5105349156825,0.011998857094231957,-0.028256050332497916,-0.0338511207878015,27.7615463801194
1638,B,1140541243427426.0,-3.927987,5.943432496897638,-0.8925883,195,1970-01-14 04:49:01.243427426,-1.4943423,0.8604894,0.98318076,7.368123765952099,1.9849799303559286,-130.20892333984375,-13.773717880249023,96.88233947753906,27811481.0,49935.0,-0.14993623667025,-0.19700121021641648,-0.17936904920775001,-0.0009081790594834444,-0.014819180562106068,-0.017225177243397317,27.811481170123443
1638,B,1140541293362216.0,-2.9439702,11.124484996897639,0.37633857,195,1970-01-14 04:49:01.293362216,0.106750146,2.0567813,0.43563482,3.1282160043375655,2.1051181929044134,-129.3182373046875,-11.085864067077637,96.60191345214844,27861415.0,49934.0,-0.17157215541239998,-0.06321850393241335,-0.01288920700891,-0.008027100025127522,-0.006496905603153834,-0.004800111882961351,27.861415960127488
1638,B,1140541343297006.0,-7.6820955,10.865911196897638,-2.7002106,195,1970-01-14 04:49:01.343297006,-0.4993853,1.8245537,0.14375238,8.2377749776891,1.8971153440936175,-129.55848693847656,-9.737935066223145,96.56681060791016,27911350.0,49935.0,-0.26530629536475,0.05968221696858355,-0.058021274909025,-0.010907762719778492,-8.829224476942054e-05,-0.0017704574572860422,27.911350750131533
1638,B,1140541393236986.0,-5.220856,5.610638296897638,-6.499809,195,1970-01-14 04:49:01.393236986,-1.1673061,-0.6149018,0.32804313,10.572863616088798,1.359529348664694,-129.7382049560547,-8.798823356628418,96.59895324707031,27961290.0,49940.0,-0.322186698955,-0.07799255913993199,-0.22972448941200002,-0.014669700068164157,-0.0004572092440185704,-0.007185011735095994,27.961290730163455
1638,B,1140541443176966.0,-3.082834,-3.379588003102361,-13.811701,195,1970-01-14 04:49:01.443176966,2.426896,-2.4663312,0.7967595,20.983015847494325,3.550695633780751,-129.67677307128906,-8.264827728271484,96.67693328857422,28011230.0,49940.0,-0.20734313929999998,-0.43370267416393193,-0.5071784047,-0.01322236006122735,-0.012777029975597482,-0.018400465265976638,28.011230710195377
1638,B,1140541493116946.0,-2.2257097,-5.4481790031023625,-19.698444,195,1970-01-14 04:49:01.493116946,2.547271,-3.878872,0.7722584,26.483526416599247,4.704319353125972,-129.78262329101562,-7.789148807525635,96.83334350585938,28061170.0,49940.0,-0.13255433618899998,-0.709841342144932,-0.8367483206499998,-0.008487239962960328,-0.02855429408723233,-0.03355785033198949,28.06117068999447
1638,B,1140541543056926.0,4.597765,3.513317996897639,-13.366379,195,1970-01-14 04:49:01.543056926,1.303042,-5.7558675,0.46865803,16.54551015453422,5.920098772858754,-130.1624298095703,-7.802598476409912,97.09796142578125,28111110.0,49940.0,0.059230220841,-0.537725479324932,-0.8256286303099999,-0.0018309031602395595,-0.031151743532102504,-0.041509552465471194,28.11111067002639
1638,B,1140541592996906.0,2.8691514,8.086242996897639,-6.257994,195,1970-01-14 04:49:01.592996906,-0.115890115,-5.0027256,-1.0930196,7.975538735136452,5.122048983915932,-130.5960693359375,-8.01905632019043,97.38117218017578,28161050.0,49940.0,0.18644890250799998,-0.19977096198493194,-0.49002059380999996,0.006134607710024529,-0.0184152861395073,-0.0328517611262764,28.161050650058314
1638,B,1140541642936886.0,4.3056726,12.594524826897638,-2.0322282,195,1970-01-14 04:49:01.642936886,-1.3760979,-3.3643494,-1.5116686,4.785461610409227,3.9367034777705485,-131.25465393066406,-9.201669692993164,97.64534759521484,28210990.0,49940.0,0.17915535527999998,0.026986772560168026,-0.20700684833400002,0.00912913831696636,-0.004314421209936355,-0.01740477523033568,28.210990630090237
1638,B,1140541692876866.0,7.291242,10.973650196897639,-0.0067336923,195,1970-01-14 04:49:01.692876866,-1.6733067,-1.6343598,-2.190242,7.3797257878406715,3.2044105989534066,-131.2145538330078,-10.600371360778809,97.75701904296875,28260930.0,49940.0,0.28957495756199997,0.09908533034416803,-0.050912878450731,0.011704195911664739,0.0031480204095212707,-0.006440255577814733,28.26093061012216
1638,B,1140541742816846.0,6.1468134,13.070970996897639,-0.3155857,195,1970-01-14 04:49:01.742816846,-1.3185737,-0.28040877,-1.4307084,6.229015571409663,1.9657548693708387,-131.49642944335938,-12.055683135986328,97.85694885253906,28310870.0,49940.0,0.335548243338,0.11098219120906805,-0.008048315225731,0.015609326326472998,0.005245386013184305,-0.0014722610061012563,28.31087059015408
1638,B,1140541792756826.0,5.7876835,9.908230396897638,0.56069213,195,1970-01-14 04:49:01.792756826,-2.4349709,1.692461,-0.23228596,6.218731805129447,2.974468740393977,-131.16070556640625,-13.362093925476074,97.70320129394531,28360810.0,49940.0,0.29800438759299996,0.08437865880306802,0.006120307557099998,0.01581980919434707,0.004878160424803038,-4.8142351485716117e-05,28.360810570186004
1638,B,1140541842696806.0,15.970223,-7.7968910031023615,-19.40695,195,1970-01-14 04:49:01.842696806,-1.4549274,5.9119735,0.7136688,32.063704281105025,6.1300544500082905,-131.24305725097656,-13.937446594238281,97.4664535522461,28410750.0,49940.0,0.543294925305,-0.43669185533693194,-0.47059105901389997,0.02100724384306306,-0.008797260517450582,-0.011597834663876294,28.410750550217927
1638,B,1140541892636786.0,7.906552,-6.312485003102362,-18.1476,195,1970-01-14 04:49:01.892636786,1.7557795,3.9731922,1.938723,27.043430183970376,4.756854504973858,-131.18385314941406,-14.072490692138672,97.26625061035156,28460690.0,49940.0,0.59620307175,-0.8417231188749319,-0.9377371135,0.028453264986463347,-0.031922021906070235,-0.03516595446767208,28.46069053001702
1638,B,1140541942576766.0,-0.27443537,2.318610996897638,-8.738387,195,1970-01-14 04:49:01.942576766,-6.76314,3.557739,2.2082348,13.12877000021236,7.9544874368907035,-131.48495483398438,-13.729829788208008,97.05599212646484,28510630.0,49940.0,0.1905739522511,-0.589139033934932,-0.67134309539,0.019645822289307464,-0.0357286279556623,-0.0401787328159833,28.51063051004894
1638,B,1140541992516746.0,-0.23612814,0.24762699689763856,1.199944,195,1970-01-14 04:49:01.992516746,-3.2019613,0.42479628,0.6231214,11.92822220425709,3.289572666067355,-130.5546417236328,-13.4600248336792,96.76380920410156,28560570.0,49940.0,-0.012748770844699999,-0.425333037294932,-0.18823492170999997,0.004440294779717808,-0.025331367618609706,-0.021463663086987002,28.560570490080863
1638,B,1140542042456726.0,-0.9256582,9.678386996897638,-2.0346224,195,1970-01-14 04:49:02.042456726,2.5898814,1.4091007,0.55174863,3.305121488028088,2.9995794704447034,-130.3922576904297,-12.774579048156738,96.68759155273438,28610510.0,49940.0,-0.029009804909799996,-0.24155943057493198,-0.020841919648,-0.0010427116365898648,-0.016652304922710505,-0.005220648728709259,28.610510470112786
1638,B,1140542092396706.0,-1.9431939,12.953655096897638,-3.0066683,195,1970-01-14 04:49:02.092396706,2.7507365,4.644309,0.7509531,3.677332311370691,5.4497787054441815,-131.33966064453125,-12.045327186584473,96.72540283203125,28660450.0,49940.0,-0.071635236937,0.075710091082068,-0.12588102877899998,-0.0025131066949145957,-0.004141258007136814,-0.0036636720222221896,28.660450450144708
1638,B,1140542142336686.0,-16.837523,16.894510996897637,-7.2731357,195,1970-01-14 04:49:02.142336686,-0.5590401,2.248529,3.6655166,18.954250636639358,4.336406397251597,-132.6585693359375,-9.435608863830566,96.76448822021484,28710390.0,49940.0,-0.468954500993,0.255896707362068,-0.25668670588,-0.013498525756112099,0.008280221757150076,-0.009552716334435229,28.71039043017663
1638,B,1140542192276666.0,-3.0732572,4.358470996897638,-18.434904,195,1970-01-14 04:49:02.192276666,-1.3729022,-3.157688,-1.1633271,20.23420805806266,3.634444097479455,-133.34725952148438,-8.944135665893555,97.01665496826172,28760330.0,49940.0,-0.497172181594,0.04127496038506795,-0.641929751309,-0.02412418326419739,0.007420376543645984,-0.022438452936009327,28.760330410208553
1638,B,1140542242216646.0,4.9736547,-7.7968910031023615,-19.698444,195,1970-01-14 04:49:02.242216646,1.190124,-2.5440958,2.6460586,28.44590196056177,3.858813896728838,-133.3215789794922,-8.788808822631836,97.02362060546875,28810270.0,49940.0,0.047452925575,-0.575269347554932,-0.9521896995599999,-0.011229489822794429,-0.013333839847631505,-0.039805162688198927,28.810270390007645
1638,B,1140542292156626.0,2.9433718,3.4486739968976377,-16.883461,195,1970-01-14 04:49:02.292156626,-1.8512058,-5.185951,0.4249822,19.203777804589524,5.522830846465559,-133.9188995361328,-8.607278823852539,97.2718276977539,28860210.0,49940.0,0.197688151705,-0.5979869786449321,-0.91345016785,0.0061211726996816,-0.029296210465210606,-0.046585027489227694,28.860210370039567
1638,B,1140542342096606.0,4.1907506,3.024900996897639,-7.3641157,195,1970-01-14 04:49:02.342096606,0.19942816,-3.8202825,-0.38568404,12.425215108097197,3.844877390700249,-133.8154296875,-8.76539421081543,97.40695190429688,28910150.0,49940.0,0.17813903632800002,-0.327766832404932,-0.6054619901989999,0.00938440488518401,-0.023116072661915104,-0.037927236586483525,28.91015035007149
1638,B,1140542392036586.0,1.439813,10.865911196897638,-3.277213,195,1970-01-14 04:49:02.392036586,2.2191696,-3.2887156,-2.7005036,3.7905665209709802,4.799279498514385,-134.31236267089844,-9.10292911529541,97.71070098876953,28960090.0,49940.0,0.140595173092,-0.14255841952093196,-0.265713977639,0.0079587932092174,-0.011744021540588822,-0.02175326391691486,28.960090330103412
1638,B,1140542441980406.0,4.121319,11.057447296897639,-0.33713353,195,1970-01-14 04:49:02.441980406,1.1560357,-3.8767414,-2.9529712,4.267681082206232,5.00855082136319,-134.1267852783203,-10.386695861816406,97.9272232055664,29010034.0,49944.0,0.138872588304,0.058018908307055625,-0.09025746154716001,0.006978868937580913,-0.00211112067403292,-0.00888931877935679,29.01003415021114
1638,B,1140542491924226.0,7.5689692,12.249759766897638,0.8336311,195,1970-01-14 04:49:02.491924226,-0.086062714,-2.6133378,-3.628349,7.61596620645622,4.47234364885469,-134.07777404785156,-11.84918212890625,98.13349151611328,29059977.0,49943.0,0.2919240317863,0.09257452119356371,0.012398289069255,0.010757637798584928,0.0037605438247747154,-0.001944260325532005,29.059977970086038
1638,B,1140542541868046.0,7.624036,13.339121596897638,-1.8119618,195,1970-01-14 04:49:02.541868046,-0.66343606,-0.70012295,-1.787572,7.931741721854766,2.031190095980439,-134.5301513671875,-13.221704483032227,98.31034088134766,29109921.0,49944.0,0.3793997258544,0.1495543454166956,-0.0244308742404,0.016764296875803563,0.006046442056991396,-0.000300477716893833,29.109921790193766
1638,B,1140542591811866.0,11.287165,4.727178196897638,-12.56911,195,1970-01-14 04:49:02.591811866,-3.0506935,3.0155194,0.38982844,18.437267982159636,4.30720957179372,-134.95620727539062,-13.91719913482666,98.25747680664062,29159865.0,49944.0,0.47225051137199997,-0.03829956154934441,-0.35912412498960006,0.021267409724017663,0.002778254462735494,-0.009578135440771563,29.159865610068664
1638,B,1140542641755686.0,-1.2440871,-7.7968910031023615,-19.698444,195,1970-01-14 04:49:02.641755686,-1.2951379,7.396952,2.6822774,28.035332171876373,7.974139020663683,-134.9267120361328,-13.677648544311523,97.88884735107422,29209809.0,49944.0,0.2507957413188,-0.5661080681965445,-0.8057853584879999,0.018055911022194657,-0.01509326733001434,-0.02909011962140263,29.209809430176392
1638,B,1140542691699506.0,2.7949312,-1.5480245031023614,-9.226805,195,1970-01-14 04:49:02.691699506,-3.9636252,0.85196733,4.6903005,16.72031445314348,6.199604167828993,-134.80322265625,-13.446139335632324,97.62279510498047,29259753.0,49944.0,0.0387276788652,-0.7228124300209444,-0.722321318028,0.0072299788488348485,-0.03218692268148714,-0.03815987992595755,29.25975325005129
1638,B,1140542741643326.0,-1.56491,6.841257996897638,-2.0968719,195,1970-01-14 04:49:02.741643326,-0.9276216,0.26500663,1.4529624,5.885319353815782,1.7440785769409237,-134.27978515625,-12.737354278564453,97.43452453613281,29309697.0,49944.0,0.030716089406400006,-0.35726857319294436,-0.28277485954680004,0.0017341497812783954,-0.026971782812257233,-0.02509926174639791,29.309697070159018
1638,B,1140542791587146.0,-0.64793086,9.146874296897638,-0.22221185,195,1970-01-14 04:49:02.791587146,0.4668095,1.4144269,0.8138037,3.0441814636515434,1.697289317372719,-133.3186492919922,-12.221532821655273,97.15487670898438,29359640.0,49943.0,-0.055257955535490004,-0.09019375442549132,-0.057910999863125,-0.0006128472100425709,-0.011173805514123766,-0.008507436938254943,29.359640890033916
1638,B,1140542841530966.0,0.22834699,11.320809496897638,-3.238906,195,1970-01-14 04:49:02.841530966,0.0044847634,3.9742575,0.92672175,3.342185804772127,4.0808768654949725,-134.07516479492188,-12.16598892211914,97.1423568725586,29409584.0,49944.0,-0.01047784840164,0.021667799698655593,-0.0864310349502,-0.0016415544959180106,-0.0017112301414385419,-0.003604509293358352,29.409584710141644
1638,B,1140542891474786.0,-8.057985,13.846692296897638,-4.675427,195,1970-01-14 04:49:02.891474786,0.32193357,6.134614,1.6074257,9.476099413269981,6.349877757367415,-134.7054443359375,-11.067792892456055,97.00260925292969,29459528.0,49944.0,-0.19552172038572002,0.13903165479465562,-0.19763672367600002,-0.005144221231757955,0.004012986777606968,-0.007093740068413468,29.45952853001654
1638,B,1140542941418606.0,-8.230368,9.312074296897638,-11.628189,195,1970-01-14 04:49:02.941418606,-0.3321388,-2.1052067,0.32378206,14.518914256771541,2.1557008731658884,-135.3642578125,-9.991747856140137,97.18206024169922,29509472.0,49944.0,-0.406752751116,0.0888695193802556,-0.40713389875200007,-0.015039998102340954,0.005691148121495884,-0.015102331983272018,29.50947235012427
1638,B,1140542991362426.0,0.52043957,-7.7968910031023615,-17.043873,195,1970-01-14 04:49:02.991362426,1.0612271,-5.5630546,-0.4826231,26.21388688157624,5.683898705730881,-135.22637939453125,-9.591402053833008,97.37720489501953,29559416.0,49944.0,-0.19253233275396003,-0.45161404278734446,-0.7159987322640001,-0.014965347114400642,-0.009058456238521823,-0.028046868061731556,29.559416169999167
1638,B,1140543041306246.0,-0.5282208,-1.136222003102361,-19.698444,195,1970-01-14 04:49:03.041306246,3.8831124,-4.7875423,1.4092865,23.74551238348117,6.32338608851344,-135.3248291015625,-9.105940818786621,97.54244232177734,29609359.0,49943.0,-0.00019430898494500207,-0.7125146314344414,-0.9175107689655,-0.004812673334183067,-0.029070039188329323,-0.040791182509952464,29.609359990106896
1638,B,1140543091250066.0,4.2434235,2.2635449968976378,-14.759805,195,1970-01-14 04:49:03.091250066,1.2391262,-6.498357,0.21832089,18.2447272696879,6.619043847111593,-135.56614685058594,-8.979165077209473,97.80809020996094,29659303.0,49944.0,0.0927760418244,-0.46129969019894446,-0.8604913940279999,0.0023119510324668704,-0.029312491239828913,-0.04440027001427368,29.659303810214624
1638,B,1140543141193886.0,5.5889645,7.743872296897639,-6.54051,195,1970-01-14 04:49:03.141193886,0.63725185,-3.7712803,-0.5167116,9.649041064118752,3.8594864812654897,-135.77838134765625,-9.50269603729248,97.99576568603516,29709247.0,49944.0,0.245534393136,-0.2395459753393444,-0.5319114661800001,0.00844828818183111,-0.01750151795982215,-0.03477108422511418,29.70924763008952
1638,B,1140543191137706.0,4.260183,13.044634696897639,-1.3738228,195,1970-01-14 04:49:03.191137706,-0.82748675,-2.5654008,-1.8653363,4.572144820873298,3.27803219907369,-136.3662567138672,-10.773536682128906,98.24658203125,29759191.0,49944.0,0.24595291137000003,0.029679396649055625,-0.19763671868160002,0.012273420968123833,-0.005240788203053892,-0.01821827727236388,29.75919145019725
1638,B,1140543241081526.0,6.8842278,11.861899096897638,0.2829647,195,1970-01-14 04:49:03.241081526,-1.5987382,-1.344608,-2.3052905,6.894614461011184,3.11099643124088,-136.39273071289062,-12.210564613342285,98.36444854736328,29809135.0,49944.0,0.2782982264976,0.1325147618986556,-0.0272409084732,0.013091599414829708,0.004050312527253445,-0.005615644105309667,29.809135270072147
1638,B,1140543291025346.0,7.7676883,12.513121956897638,-0.5669769,195,1970-01-14 04:49:03.291025346,-2.6544151,0.48658162,-2.073063,7.798624822123514,3.402979782190725,-136.66795349121094,-13.688586235046387,98.45500946044922,29859079.0,49944.0,0.3658876488492,0.1192418257553756,-0.0070923526584,0.01608660967916029,0.0062868655068964675,-0.0008573701969783152,29.859079090179875
1638,B,1140543340969166.0,6.343138,12.058223633897638,-1.5366286,195,1970-01-14 04:49:03.340969166,-3.9380589,1.7840737,0.2683883,6.526838944346024,4.3316577827060385,-137.0777587890625,-15.036788940429688,98.44112396240234,29909022.0,49943.0,0.35236849895044997,0.12414195642054422,-0.052530184743250004,0.01793593339477896,0.006077658116605982,-0.001488864192725303,29.909022910054773
1638,B,1140543390912986.0,11.093234,0.7216779968976379,-19.698444,195,1970-01-14 04:49:03.390912986,-8.667833,4.9255385,4.4463553,25.3150261399008,10.9161501402605,-137.7193145751953,-15.347712516784668,98.1776123046875,29958966.0,49944.0,0.435421081584,-0.1703114964757804,-0.5302822329672,0.019672681405106283,-0.0011529457542593577,-0.014553991695065358,29.9589667301625
1638,B,1140543440856806.0,-5.019743,2.771114996897639,-19.698444,195,1970-01-14 04:49:03.440856806,-3.9945178,2.7960749,4.0522075,22.37179391570021,6.339920577103714,-138.27304077148438,-14.652104377746582,98.03280639648438,30008910.0,49944.0,0.15166721725200003,-0.4022291733589444,-0.983819087136,0.014660768998532593,-0.01429748560711275,-0.03781013816561712,30.0089105500374
1638,B,1140543490803616.0,-0.81073654,8.021599396897638,-13.73748,195,1970-01-14 04:49:03.490803616,-1.6935468,-0.013027385,3.6527333,14.356710476715818,4.0262552126608995,-138.9493408203125,-14.124245643615723,98.0479965209961,30058857.0,49947.0,-0.14560748079219,-0.21994874708655368,-0.835012048014,0.00015133282847906588,-0.015537960296245648,-0.04542257935366852,30.058857360156253
1638,B,1140543540750426.0,-1.7396868,12.754936296897638,-6.576423,195,1970-01-14 04:49:03.540750426,0.6734708,0.8732726,1.0705324,6.832857630978077,1.5369474850537868,-139.93431091308594,-13.534735679626465,98.22470092773438,30108804.0,49947.0,-0.06369299728149,0.029382214148996298,-0.5073092565705,-0.005226965489173047,-0.004759113310316089,-0.03352246110004101,30.108804170042276
1638,B,1140543590697236.0,-4.1458597,8.059906596897637,1.7961001,195,1970-01-14 04:49:03.590697236,1.9155692,1.6626335,-0.24080808,6.069729926020388,2.547890116685603,-138.7989959716797,-12.584068298339844,97.9474868774414,30158750.0,49946.0,-0.1469797527445,0.03033827158674936,-0.1193790037817,-0.005261130586399048,0.0014913996902787764,-0.015650285925775487,30.15875098016113
1638,B,1140543640644046.0,-4.531326,9.927383996897639,-2.3219268,195,1970-01-14 04:49:03.640644046,3.9811168,2.4892788,0.7903679,5.540860704013704,4.76135288932905,-138.54649353027344,-11.32872486114502,97.82952117919922,30208697.0,49947.0,-0.21669969707894995,-0.040274998355853714,-0.013131733092449997,-0.009082348740165927,-0.00024815484596822754,-0.0033092568873265846,30.208697790047154
1638,B,1140543690590856.0,-15.068208,9.975268296897639,-11.182867,195,1970-01-14 04:49:03.690590856,3.521988,1.3185532,0.8329785,18.885901223215384,3.8518612637057026,-138.803466796875,-10.084059715270996,97.83845520019531,30258644.0,49947.0,-0.48946896234899995,0.0075582870590963315,-0.33726196796429997,-0.017635503016223908,-0.0008170507895695706,-0.008750557093340744,30.258644600166008
1638,B,1140543740537666.0,-6.6717424,2.5173299968976384,-17.865084,195,1970-01-14 04:49:03.740537666,4.232519,-4.4125695,0.6689277,21.348303984296617,6.150808966755393,-138.92153930664062,-9.222945213317871,98.01358795166016,30308591.0,49947.0,-0.5429226513144,-0.17749669650990368,-0.7254290042984999,-0.02578243196382292,-0.004243956868419737,-0.026539112995805032,30.30859141005203
1638,B,1140543790484476.0,0.3552397,-7.7968910031023615,-19.698444,195,1970-01-14 04:49:03.790484476,5.030402,-6.5803823,0.08516283,28.009967735067388,8.283334365059211,-138.5970458984375,-8.761687278747559,98.21343231201172,30358538.0,49947.0,-0.15774518017845,-0.6213297167884537,-0.9380927665079999,-0.017498128089786687,-0.019949491432506527,-0.04154396094323612,30.358538220170885
1638,B,1140543840431286.0,2.4812908,-0.7411790031023617,-13.914651,195,1970-01-14 04:49:03.840431286,6.0828834,-6.140428,1.2026253,19.10507793427877,8.726547661783533,-138.2836456298828,-8.459632873535156,98.36894226074219,30408485.0,49947.0,0.07083809444174999,-0.7027060912999537,-0.8394366279825,-0.0021703741056454773,-0.03306580825329584,-0.04439113033330849,30.40848503005691
1638,B,1140543890378096.0,2.8811226,4.370441996897638,-6.54051,195,1970-01-14 04:49:03.890378096,4.31561,-4.383807,0.77332366,10.536897243198862,6.200022819995488,-137.8891143798828,-8.457317352294922,98.45836639404297,30458431.0,49946.0,0.13391554983819998,-0.39883721525595056,-0.510826735653,0.00511331275860319,-0.027508840994620594,-0.03372012698006934,30.458431840175763
1638,B,1140543940324906.0,3.0008326,6.312139696897638,-0.8734347,195,1970-01-14 04:49:03.940324906,3.4847035,-3.1470354,0.0681186,6.589215452016919,4.695916357371729,-136.9126434326172,-8.838298797607422,98.43904113769531,30508378.0,49947.0,0.1468930081872,-0.22269914607000368,-0.18515214796545,0.007012772523847325,-0.015521938319573717,-0.017381028650045358,30.508378650061786
