Subject-id_accel,Activity_accel,Timestamp_accel,accel_x,accel_y,accel_z,Segment_accel,DateTime,gyro_x,gyro_y,gyro_z,accel_magnitude,gyro_magnitude,Roll,Pitch,Yaw,Time_Difference,Difference_Microseconds,vx,vy,vz,dx,dy,dz,Time_diff
1603,B,8761486318695.0,1.1695676,19.612701,-0.99299514,17,1970-01-01 02:26:01.486318695,0.5792375,-7.291735,1.3542174,19.672619760327663,7.439006664743218,61.450233459472656,-19.384456634521484,-102.89354705810547,15028222.0,39911.0,0.17619145181680002,0.39163470961100005,0.28980632021573005,0.007446801285908756,0.009880373226442068,0.010516090237402628,15.028222389999428
1603,B,8761525604528.0,3.8007953,6.7265096,1.0516531,17,1970-01-01 02:26:01.525604528,0.39547944,4.8706555,1.0751182,7.797304056796417,5.003555548918609,61.83188247680664,-19.58334732055664,-102.78824615478516,15067508.0,39286.0,0.0976328384447,0.1323783138158,0.0011522183082800003,0.005378730533606645,0.010293187819172635,0.005715298572227129,15.067508222999095
1603,B,8761566113224.0,-3.7906199,8.289924,-2.681506,17,1970-01-01 02:26:01.566113224,0.38589206,3.8013961,-0.10865697,9.501690038097854,3.822477119381597,62.792747497558594,-18.643951416015625,-102.94097900390625,15108016.0,40508.0,0.00020609255160000117,-0.09283555386560005,-0.03301104063660001,0.0019816297083990603,0.00080089906003135,-0.0006452685874377935,15.108016918999056
1603,B,8761605962911.0,-6.505645,-1.0139444,-1.5442601,17,1970-01-01 02:26:01.605962911,0.18109496,0.48496163,-0.42903525,6.762857337602825,0.6723499184592953,63.27109146118164,-15.785511016845703,-103.06855010986328,15147866.0,39850.0,-0.2051530781325,-0.24555610647,-0.0841983895425,-0.004083568687699432,-0.006742453832186831,-0.0023353978963185675,15.147866605999297
1603,B,8761645876299.0,-6.531382,-4.0306387,0.17537527,17,1970-01-01 02:26:01.645876299,0.7688546,-2.0831246,0.06897587,7.676962657535157,2.2215542229953735,62.31317138671875,-13.147544860839844,-102.90675354003906,15187779.0,39913.0,-0.26017342932549997,-0.49181962263515,-0.027318150109895,-0.009286288446085575,-0.014715438737886926,-0.002225479823573021,15.187779993999357
1603,B,8761685817027.0,2.7569232,-7.123947,10.210073,17,1970-01-01 02:26:01.685817027,0.69002503,3.257845,0.83490103,12.751346480071671,3.4331834084340094,59.44496536254883,-13.773294448852539,-102.07176971435547,15227720.0,39941.0,-0.07537782946539999,-0.61418445372185,0.20740259467603497,-0.006701126413683667,-0.022087454406887468,0.003596376400208098,15.227720721999503
1603,B,8761725850673.0,2.5372553,4.6112323,-12.169727,17,1970-01-01 02:26:01.725850673,-0.4878911,-0.61838603,-1.7531589,13.259086810051075,1.9219794838154702,62.317508697509766,-14.345626831054688,-102.84468841552734,15267754.0,40034.0,0.1059735710345,-0.4426302101499,-0.03922639411800001,0.000612434958988675,-0.021154259126720823,0.0033663830065701855,15.267754368000169
1603,B,8761765616766.0,-8.917803,19.612701,19.612701,17,1970-01-01 02:26:01.765616766,-1.2402341,1.726261,-0.6332997,29.134915331567573,2.2179328603327693,61.822837829589844,-13.529489517211914,-102.68111419677734,15307520.0,39766.0,-0.1268644299191,0.09193766580390002,0.14798865204200004,-0.0004153729472025016,-0.006972819859231518,0.0021625199743028926,15.307520460999513
1603,B,8761805484787.0,1.2814964,19.575592,-7.5926123,17,1970-01-01 02:26:01.805484787,0.38748994,-3.7404099,0.31292143,21.035536520654478,3.7734247700162857,62.99600601196289,-13.494450569152832,-103.10379028320312,15347388.0,39868.0,-0.1522221357644,0.390473032662,0.23960844814580004,-0.005563311600334889,0.009616374863219252,0.007726360595143607,15.347388481999587
1603,B,8761845437601.0,-6.4960675,19.115906,-9.403227,17,1970-01-01 02:26:01.845437601,0.23355924,3.3659694,-3.721235,22.271897835140166,5.023135459605956,64.11672973632812,-12.65269947052002,-103.29092407226562,15387341.0,39953.0,-0.10416887957915,0.38138130979699997,-0.33951738377645,-0.005121795118010427,0.015418948272132214,-0.0019958308526256793,15.387341296000159
1603,B,8761885360308.0,1.4000094,19.612701,-0.2657564,17,1970-01-01 02:26:01.885360308,4.2248387,5.615009,-1.3060142,19.664401676624447,7.147255501358569,64.93439483642578,-12.291826248168945,-103.2026138305664,15427264.0,39923.0,-0.10172496376314999,0.3818356886305,-0.1930074121391,-0.004109949953877321,0.01523495611411054,-0.010629993713668252,15.427264002999436
1603,B,8761925252288.0,6.95336,14.3658085,-1.5107412,17,1970-01-01 02:26:01.925252288,-0.23489082,-3.063168,-2.1883194,16.03146930638766,3.7718581216637292,65.64612579345703,-12.627233505249023,-103.53952026367188,15467155.0,39891.0,0.1666121293677,0.28678656123225,-0.0354331328808,0.0012942069615655524,0.01333600508463748,-0.0045563608906944155,15.46715598299852
1603,B,8761965100570.0,8.406042,0.98341835,2.932897,17,1970-01-01 02:26:01.965100570,-1.7121463,-1.0428939,-0.95900434,8.957150136594212,2.2223325501372955,65.20293426513672,-13.843092918395996,-103.52241516113281,15507004.0,39849.0,0.306028405149,-0.08469452962717504,0.028335743237100003,0.009417126329977989,0.004026582683715316,-0.00014141193995590064,15.507004264998614
1603,B,8762005062026.0,6.5684924,-4.8494554,1.0767922,17,1970-01-01 02:26:02.005062026,1.0274476,-2.1510353,-2.880475,8.235398686610612,3.7389487370405137,64.16239929199219,-16.405399322509766,-103.39201354980469,15546965.0,39961.0,0.2991986845792,-0.46886315327752504,0.08011559506060001,0.0120927398663143,-0.01106035928327736,0.002166911964857195,15.546965720999651
1603,B,8762044921921.0,3.156755,-2.7329812,5.0374002,17,1970-01-01 02:26:02.044921921,-0.91799164,-3.162504,-1.7507621,6.542911366092199,3.7295184852635197,62.859798431396484,-17.07276725769043,-103.2029037475586,15586825.0,39860.0,0.19382418068200002,-0.541745961438,0.121855854532,0.009825945704655717,-0.020141439656280416,0.004025290990380518,15.58682561599926
1603,B,8762084857032.0,2.9400797,1.6059108,-1.4862007,17,1970-01-01 02:26:02.084857032,-2.4735441,-0.08868326,3.1310785,3.664943473041463,3.9912326051498535,63.55973434448242,-18.225261688232422,-103.3869400024414,15626760.0,39935.0,0.12173854687225001,-0.41386777821200005,0.07090857601625,0.006300998762439487,-0.019081217346461374,0.0038490237669721815,15.626760727000146
1603,B,8762124781452.0,0.1340753,14.077308,5.122993,17,1970-01-01 02:26:02.124781452,-2.4778051,2.2602248,5.3731937,14.981109237669388,6.333983327878338,63.53275680541992,-17.98249626159668,-103.20756530761719,15666685.0,39925.0,0.061367819187500006,-0.07818874470500002,0.07259946628875001,0.0036552608324677597,-0.009822678338730614,0.0028647792945135633,15.666685146999953
1603,B,8762163623700.0,19.612701,19.612701,4.2838254,17,1970-01-01 02:26:02.163623700,-1.5275892,-7.864315,3.417102,28.065410046683574,8.709624863424695,63.81330108642578,-18.955163955688477,-103.58240509033203,15705527.0,38842.0,0.3835021425223,0.273642064789,0.18268982014639998,0.008639819526366027,0.0037958989293513635,0.0049579732318570475,15.70552739499908
1603,B,8762204840146.0,1.2641385,8.69155,-4.1000705,17,1970-01-01 02:26:02.204840146,0.6530071,0.039947417,0.86685896,9.692866740786881,1.0860287865925393,65.01241302490234,-18.87877082824707,-103.94078063964844,15746743.0,41216.0,0.43022990841600006,0.179377204608,0.003786820979199988,0.01676939010573649,0.009335821103733377,0.0038429106203163644,15.746743840998533
1603,B,8762246876001.0,-0.12030864,11.097723,-1.5041572,17,1970-01-01 02:26:02.246876001,0.97951066,5.090899,0.22929817,11.199840125461591,5.189342098187398,65.79750061035156,-18.377029418945312,-103.95281982421875,15788779.0,42036.0,0.02404101599748,0.003978139913999963,-0.1177896577986,0.009547866289322523,0.0038537626311633947,-0.0023961116242701493,15.788779695998528
1603,B,8762281957393.0,-6.6612678,2.920926,-2.9783869,17,1970-01-01 02:26:02.281957393,0.11930962,0.79388833,-0.39947417,7.859712839976054,0.8967012202690048,67.2835922241211,-15.857112884521484,-104.36186981201172,15823861.0,35082.0,-0.11895563233404001,-0.09790247789100003,-0.0786283060581,-0.0016648972851595993,-0.0016475268124545581,-0.003445367504010375,15.82386108799983
1603,B,8762324052079.0,-6.2889695,-5.1678843,-0.43873745,17,1970-01-01 02:26:02.324052079,0.8290421,-1.200553,-0.006924219,8.151727182637385,1.459001800612381,66.39643096923828,-13.165528297424316,-104.18158721923828,15865955.0,42094.0,-0.27256364445310005,-0.4598129313401,-0.07192021619444999,-0.008240306218538936,-0.01173823621808696,-0.00316859474784942,15.865955773999303
1603,B,8762361882496.0,-1.9470845,-7.7847466,6.6445084,17,1970-01-01 02:26:02.361882496,0.9374327,0.48070058,0.44767737,10.418392848900563,1.1446694467188958,63.511070251464844,-12.887720108032227,-103.49022674560547,15903786.0,37831.0,-0.15578907943700002,-0.6157492897889499,0.11738526040472501,-0.008102505948743186,-0.020344797193766542,0.000859994043759457,15.903786191000108
1603,B,8762404053016.0,1.9506758,3.8067808,-6.0956373,17,1970-01-01 02:26:02.404053016,-0.1667139,-0.6777745,-0.7616641,7.446711370068372,1.0331040598759982,64.92698669433594,-13.200555801391602,-103.8578109741211,15945956.0,42170.0,7.57225604999969e-05,-0.497141408893,0.011572947143500007,-0.0032832161297410025,-0.023465300381708916,0.0027190838061543245,15.945956710998871
1603,B,8762443955255.0,-2.8921957,13.624205,7.0581064,17,1970-01-01 02:26:02.443955255,-1.2921658,1.1768509,-0.22503711,15.614116171043575,1.7621896028514077,64.79315185546875,-12.585875511169434,-103.79545593261719,15985858.0,39902.0,-0.018784263524899997,-0.043274002304200025,0.019202221014099997,-0.0003732541007807444,-0.010781827868795339,0.0006139953799122777,15.985858949999965
1603,B,8762483861819.0,1.0851719,19.612701,-8.7538,17,1970-01-01 02:26:02.483861819,1.5321167,-5.1228566,0.20186761,21.50499135103176,5.35086832752868,66.03096008300781,-12.566191673278809,-104.27027130126953,16025765.0,39907.0,-0.036056449393299994,0.272104003871,-0.0338350222476,-0.0010942641652133035,0.0045659594362631424,-0.00029197559941264233,16.02576551399943
1603,B,8762522625933.0,-1.2174516,14.745889,-9.197326,17,1970-01-01 02:26:02.522625933,-0.17230652,2.0839236,-3.0365362,17.42165997684892,3.6868657693740237,67.22541809082031,-12.11095142364502,-104.4946517944336,16064529.0,38764.0,-0.0025638451454,0.28605099138,-0.34792872413200004,-0.0007485385487490833,0.010818160117954882,-0.007399344932329408,16.064529627999946
1603,B,8762563674787.0,-0.018555064,19.612701,-0.01436521,17,1970-01-01 02:26:02.563674787,3.4959316,5.7447047,-1.6998957,19.612715038083316,6.936340190111724,67.91842651367188,-11.64377498626709,-104.37384033203125,16105578.000000002,41049.00000000186,-0.02536841877526915,0.3029126804550138,-0.18906535623965356,-0.0005732957508398,0.012088184882578288,-0.011021535002588505,16.105578482000055
1603,B,8762603558172.0,6.445191,14.830882,4.919486,17,1970-01-01 02:26:02.603558172,2.3670175,-4.3220444,-2.1691446,16.902570527248248,5.384053114205577,68.17510986328125,-11.89219856262207,-104.63836669921875,16145461.000000002,39883.0,0.12815676051774402,0.2960033103945,0.097815466233785,0.0020497537168575625,0.01194328323152558,-0.001819659681552028,16.14546186699954
1603,B,8762643474475.0,9.194932,3.2674868,2.7988217,17,1970-01-01 02:26:02.643474475,-2.5523736,0.5030711,-0.87511474,10.151681997639066,2.744725365823954,67.84534454345703,-12.993148803710938,-104.58668518066406,16185378.0,39916.99999999814,0.3121533948954854,-0.029970306305198605,0.15404584423044282,0.008787930236814527,0.005309619712116074,0.0050267739649000566,16.18537816999924
1603,B,8762683421662.0,7.511808,-5.16549,-0.04369418,17,1970-01-01 02:26:02.683421662,1.3036174,-1.5835156,-3.04133,9.116548445016342,3.668327704816749,67.285888671875,-15.67519760131836,-104.56080627441406,16225325.000000002,39947.00000000186,0.33369207139001555,-0.42939036691522003,0.055029539520722565,0.012899794420854054,-0.00917504040656846,0.004175967177354097,16.225325356999747
1603,B,8762723281454.0,2.1871033,-1.7729063,6.4589577,17,1970-01-01 02:26:02.723281454,-0.5589975,-2.0114856,-1.9662119,7.045903218455379,2.8678461882944872,65.89027404785156,-16.001375198364258,-104.31332397460938,16265184.999999998,39859.999999996275,0.19329930220898195,-0.5289102382589506,0.12785620195358804,0.010502938075827039,-0.019098931061119435,0.0036449128275826696,16.26518514899908
1603,B,8762763195152.0,1.7657237,0.2148796,-0.8499416,17,1970-01-01 02:26:02.763195152,-2.1960428,-0.69987875,2.5209484,1.9713838161678232,3.415789085935483,66.43161010742188,-17.393409729003906,-104.4803466796875,16305098.000000002,39913.000000003725,0.07888459202550736,-0.4222401598385894,0.11193632979966044,0.005431837885291092,-0.018981632919635328,0.00478541965993415,16.30509884699859
1603,B,8762803130672.0,0.11432313,14.009671,4.188656,17,1970-01-01 02:26:02.803130672,-2.8751488,2.808836,5.179848,14.622885843520423,6.556436959213551,66.39643096923828,-17.160221099853516,-104.29120635986328,16345033.999999998,39935.999999996275,0.0375407751014365,-0.10733697361919,0.06666744913919377,0.002324781730790598,-0.010574596200883954,0.003566360257850708,16.345034366999244
1603,B,8762842991245.0,19.612701,19.612701,2.7976246,17,1970-01-01 02:26:02.842991245,-1.5499598,-8.175904,3.1582427,27.877280793386706,8.900689779502223,66.70404815673828,-18.14097785949707,-104.7048568725586,16384894.0,39860.00000000186,0.39315959091091834,0.27946587396001304,0.1392365723580065,0.008583858294626632,0.003430528983792764,0.004103667148439393,16.384894939999867
1603,B,8762882903798.0,2.5899277,8.942344,-3.4398694,17,1970-01-01 02:26:02.882903798,0.4679174,0.18269286,1.2466258,9.925016029942705,1.3440235338502742,67.73406219482422,-18.23946762084961,-104.98771667480469,16424807.000000002,39913.00000000186,0.44308675965157074,0.1787113555425084,-0.012816958351200605,0.016688550295001093,0.009143613880567496,0.0025228930269269394,16.424807493000117
1603,B,8762922799370.0,1.0283096,9.750386,-1.3730747,17,1970-01-01 02:26:02.922799370,0.83729786,5.1942296,0.53130066,9.900140499721621,5.288040207410792,68.44920349121094,-17.922060012817383,-104.95872497558594,16464703.0,39895.99999999814,0.07217659766039662,-0.018098221959999165,-0.09600860890679551,0.010278473451658644,0.003203910788703744,-0.0021708524156624047,16.464703064999412
1603,B,8762962749318.0,-5.342661,2.6198552,-3.8229415,17,1970-01-01 02:26:02.962749318,-0.15819177,1.2647352,-0.5515407,7.072662125558543,1.3888041280077126,70.33489227294922,-15.66816234588623,-105.45986938476562,16504653.000000002,39950.00000000186,-0.08617916921500401,-0.14441443203000676,-0.10379042359500486,-0.00027970136680329573,-0.00324619026345052,-0.003990985674223649,16.50465301300028
1603,B,8763002608745.0,-7.2370734,-3.9252937,-1.1941081,17,1970-01-01 02:26:03.002608745,0.31372038,-0.9824402,-0.45593318,8.319198049255279,1.1276011209768713,70.26570892333984,-12.800662994384766,-105.49054718017578,16544512.000000002,39859.0,-0.25070781672479997,-0.41663493658575,-0.0999872900032,-0.006713989186287323,-0.011181433391827722,-0.0040611879431554235,16.54451243999938
1603,B,8763042544423.0,-5.8502316,-6.9186444,2.4121583,17,1970-01-01 02:26:03.042544423,1.2397015,-0.068176925,0.7653925,9.37610568261412,1.4585381658568128,68.22663879394531,-10.841687202453613,-105.04951477050781,16584447.999999998,39935.999999996275,-0.26132730623997563,-0.6079045559807433,0.024322026393597734,-0.010224317335359685,-0.020458004587565828,-0.001510883983756397,16.584448117999273
1603,B,8763082551507.0,3.651756,-0.3441665,5.17387,17,1970-01-01 02:26:03.082551507,-0.11558119,1.9483687,-0.6764429,6.342137119312247,2.065689860453867,67.0686264038086,-11.513248443603516,-104.74958038330078,16624455.000000002,40007.000000003725,-0.0439772066646041,-0.5373502378382001,0.15174711709906416,-0.00610715882388733,-0.02290910426815937,0.0035219991118557903,16.624455201999808
1603,B,8763122383224.0,-1.5999253,5.9358244,-8.653243,17,1970-01-01 02:26:03.122383224,-1.4721955,1.0309097,-1.2026836,10.614724993623925,2.1625406912895997,68.40447235107422,-11.166892051696777,-105.0033950805664,16664286.0,39830.99999999814,0.04086323430584809,-0.278983137092537,-0.06929345298149676,-6.201631651080243e-05,-0.016257687328432337,0.0016421059477333367,16.664286919000006
1603,B,8763162280463.0,0.5554548,19.612701,-16.913239,17,1970-01-01 02:26:03.162280463,2.2128205,-7.1870728,1.6588831,25.904135268743584,7.700810550661904,69.8689956665039,-11.270746231079102,-105.56477355957031,16704184.000000002,39898.00000000186,-0.020836142004500974,0.11866713320460552,-0.5100257494180238,0.0003995204643195922,-0.0031981439615604945,-0.011556838768668577,16.704184157999407
1603,B,8763202202236.0,-4.398747,19.335573,-11.589732,17,1970-01-01 02:26:03.202202236,-0.7747136,0.5587312,-3.5420043,22.96813545414956,3.668535971896267,70.94977569580078,-10.65086841583252,-105.81190490722656,16744105.000000002,39921.0,-0.0767140339581,0.386201223177,-0.5689335526455,-0.0019471502873014968,0.010077424827555036,-0.021536567148838965,16.744105930998558
1603,B,8763242033016.0,1.6729485,19.612701,-0.95708215,17,1970-01-01 02:26:03.242033016,4.159325,5.9966397,-1.5441009,19.707176445165906,7.459485219277662,71.64961242675781,-10.35567569732666,-105.64728546142578,16783936.0,39830.99999999814,-0.05428564002674747,0.385330550846982,-0.24987607720431332,-0.0026089240072451076,0.015365441045573896,-0.016307003183273196,16.783936710999114
1603,B,8763281950515.0,5.9501896,16.096218,12.992734,17,1970-01-01 02:26:03.281950515,1.7302558,-6.133793,-2.1108215,21.524500620786263,6.7136256303985915,71.30420684814453,-10.510597229003906,-105.88822174072266,16823854.0,39918.0,0.15215021333790002,0.321517914321,0.24021957527415003,0.001953279018717294,0.014107988516287754,-0.00019273412202412915,16.8238542099989
1603,B,8763321876454.0,14.308348,1.555034,6.927623,17,1970-01-01 02:26:03.321876454,-2.7654266,0.55580175,-1.1531488,15.973068385892205,3.04733523266346,70.6089859008789,-11.647501945495605,-105.77210998535156,16863780.0,39926.0,0.4044211861088,-0.03890285632400002,0.397670086791,0.011110834847154475,0.0056418444027941115,0.012734191323806592,16.863780148998558
1603,B,8763362474840.0,6.534375,-4.685453,-1.055843,17,1970-01-01 02:26:03.362474840,1.6535567,-1.0977551,-3.181146,8.10964431380828,3.749534090124652,70.49239349365234,-14.371786117553711,-105.83160400390625,16904378.0,40598.0,0.42308643417700004,-0.46140477528100005,0.11919126222,0.016797577184181456,-0.010155744613949896,0.01049176852357429,16.904378534998614
1603,B,8763401656558.0,3.389591,-4.4298716,5.0427876,17,1970-01-01 02:26:03.401656558,0.40213734,-2.1190772,-2.3539681,7.5194944190737525,3.192705504051341,68.02732849121094,-15.805731773376465,-105.31958770751953,16943560.0,39182.0,0.194420417906,-0.5625619242386,0.0781082316586,0.012097576739158055,-0.020060531610288482,0.0038652943845756526,16.943560252999305
1603,B,8763441673275.0,0.3609259,-3.750517,1.0576386,17,1970-01-01 02:26:03.441673275,-1.865278,-1.3877733,2.1369205,3.9134696473576702,3.1577849788731878,65.25728607177734,-17.190345764160156,-104.58158874511719,16983576.0,40016.0,0.0750403421352,-0.5558300151088,0.1220573274096,0.00539137088690433,-0.02237678592246278,0.004004912505836546,16.983576970000286
1603,B,8763481460466.0,1.2976574,9.758167,-3.6343982,17,1970-01-01 02:26:03.481460466,-2.4277377,1.3651364,4.428038,10.49354983805895,5.231159360987797,66.14341735839844,-17.23480224609375,-104.73196411132812,17023364.0,39788.0,0.0329958561702,-0.2704062109,-0.051262055482399996,0.0021492721290876276,-0.016437143480219067,0.0014084011397197168,17.023364160999336
1603,B,8763521346611.0,19.612701,19.612701,3.6750996,17,1970-01-01 02:26:03.521346611,-1.9254655,-3.6661077,7.9540634,27.978964207073897,8.967434841185582,66.29556274414062,-18.336894989013672,-104.8134536743164,17063250.0,39886.0,0.4170152775712,0.194860420524,0.0008117080201999933,0.008974572040204739,-0.001506609697468568,-0.0010061312794386545,17.063250305998736
1603,B,8763561250933.0,3.643975,17.258602,-2.054225,17,1970-01-01 02:26:03.561250933,0.66845345,-2.1624868,0.9683254,17.758314591921554,2.461875962609876,67.10466766357422,-18.321502685546875,-105.13288116455078,17103154.0,39904.0,0.46401719955200005,0.344597037456,0.03233969001919999,0.017578359983562088,0.01076325520161696,0.0006614366936821087,17.103154627999174
1603,B,8763601208274.0,2.8341362,8.615535,-0.39504328,17,1970-01-01 02:26:03.601208274,1.1155982,4.4663877,0.21438447,9.078316503044416,4.608594051501142,67.70845794677734,-18.28310775756836,-105.10569763183594,17143111.0,39957.0,0.1294229446092,0.1253478460545,-0.04893270633198,0.011856043920124536,0.009388793855214524,-0.00033150357640487535,17.14311196899871
1603,B,8763641074006.0,-6.6486983,6.7684083,-2.441487,17,1970-01-01 02:26:03.641074006,0.11584751,2.2932482,-0.5115933,9.796805539108183,2.352474369038126,68.42166137695312,-17.047456741333008,-105.22880554199219,17182977.0,39866.0,-0.0760356663393,-0.08403865820110004,-0.05654055807124,0.0010641686177539167,0.0008234160414818213,-0.002102398579349384,17.18297770099889
1603,B,8763681022960.0,-7.9062524,-2.256535,-0.5267244,17,1970-01-01 02:26:03.681022960,0.52411014,-1.4250575,-0.3864247,8.238823691054817,1.566781531014187,68.32240295410156,-14.195011138916016,-105.26453399658203,17222926.0,39949.0,-0.29072786275714996,-0.30137778676915,-0.059288538609299994,-0.007325918111937039,-0.00769850078005826,-0.002313628291645446,17.222926655000265
1603,B,8763720883175.0,-5.5264163,-5.513248,3.3746274,17,1970-01-01 02:26:03.720883175,1.1004182,-1.3140037,0.773382,8.504427712623611,1.8803312624186543,66.1563720703125,-12.388822555541992,-104.79825592041016,17262786.0,39860.0,-0.267713087191,-0.54547977519,0.05675870679,-0.011129728132466628,-0.016877871209845862,-5.041954815864884e-05,17.262786870000127
1603,B,8763760827081.0,4.1138372,-1.8124107,4.7099934,17,1970-01-01 02:26:03.760827081,0.2543319,0.3022688,-0.57391125,6.510954375636639,0.6967246699289559,65.02954864501953,-13.226354598999023,-104.5435562133789,17302730.0,39944.0,-0.028212029785200005,-0.5377592555564,0.1614660466176,-0.005910216436248667,-0.0216344499220671,0.004358384775056587,17.302730775998498
1603,B,8763800705305.0,-0.20829555,4.1282024,-6.181829,17,1970-01-01 02:26:03.800705305,-1.6468989,1.2620721,-0.9896307,7.4364273597445,2.298797706367855,66.39139556884766,-13.06248950958252,-104.83674621582031,17342609.0,39879.0,0.07787454773017499,-0.34463847139785003,-0.02934766594619999,0.0009902457765638287,-0.017594569476604267,0.0026343744513973805,17.342608999999356
1603,B,8763840659996.0,-2.718616,19.612701,0.6973112,17,1970-01-01 02:26:03.840659996,2.1955101,-5.143097,0.7323693,19.81250000329344,5.639864904604853,67.08637237548828,-12.707304000854492,-105.18216705322266,17382563.0,39954.0,-0.05847091203435,0.0827228272218,-0.10956421209060001,0.00038762643029549587,-0.005232288823704952,-0.002775042587541154,17.382563690998722
1603,B,8763880490829.0,-0.38845924,14.720749,-10.131663,17,1970-01-01 02:26:03.880490829,-0.042077947,-1.6788567,-2.7142937,17.874617390246744,3.1918209007740885,68.34921264648438,-12.410808563232422,-105.5842056274414,17422394.0,39831.0,-0.061878956942219995,0.293424023475,-0.1878898332729,-0.0023968278156028798,0.00749115260505212,-0.005923946040436784,17.422394523999174
1603,B,8763920199993.0,-2.3582888,19.612701,0.23044191,17,1970-01-01 02:26:03.920199993,2.231729,6.7702885,-2.2764702,19.75532004431948,7.4832972194188105,68.92239379882812,-11.728577613830566,-105.41381072998047,17462103.0,39709.0,-0.05453530896018,0.292525283025,-0.196583794131405,-0.002311347042359201,0.011633730505904253,-0.007633531635298774,17.462103687999843
1603,B,8763960315202.0,6.3177,14.726136,19.612701,17,1970-01-01 02:26:03.960315202,3.7159088,-1.257012,-1.7662084,25.3264773566301,4.3020401544258045,68.37571716308594,-11.77928352355957,-105.35320281982422,17502218.0,40115.0,0.07941589014400001,0.2956242231275,0.398003838917325,0.0004990422570944697,0.011796808719653768,0.00403998254829359,17.502218896999693
1603,B,8764000266350.0,13.670892,5.5096564,2.566584,17,1970-01-01 02:26:04.000266350,-2.8775456,1.036236,-1.0705907,14.961181609444521,3.240404014116426,68.19039916992188,-12.873041152954102,-105.31517791748047,17542170.0,39952.0,0.399292113792,0.012700588982399995,0.44305339716000003,0.009562671086625537,0.006159096446707362,0.016800959347880645,17.542170044998784
1603,B,8764040120933.0,5.837064,-5.4192758,-0.29209262,17,1970-01-01 02:26:04.040120933,1.0349044,-1.5789882,-2.4319987,7.970268780613368,3.0787738679026573,67.53855895996094,-15.564699172973633,-105.25897979736328,17582024.0,39854.0,0.38873503921200003,-0.38876818578380007,0.04532378972926,0.01570301707791071,-0.007493899001461499,0.009731892203142285,17.582024628
1603,B,8764080223796.0,4.2293572,-5.9172697,3.3446999,17,1970-01-01 02:26:04.080223796,0.1438107,-1.7132115,-2.4051008,8.005533114589555,2.9563973040387146,65.42957305908203,-17.473787307739258,-104.77776336669922,17622127.0,40103.0,0.2018468446918,-0.62032414209325,0.061209354874920005,0.011842052645097047,-0.02023381481242667,0.0021361493490307153,17.622127490998537
1603,B,8764120419527.0,1.1659763,-1.8680758,2.3798366,17,1970-01-01 02:26:04.120419527,-1.4112091,-1.0042781,1.092695,3.242349482922359,2.047942379337715,62.609519958496094,-18.70173454284668,-103.94507598876953,17662323.0,40196.0,0.108435412683,-0.5503906738590001,0.115051734577,0.006236052808718731,-0.023529026371008323,0.0035424953758046887,17.66232322199903
1603,B,8764159862493.0,4.597466,6.618172,-4.845266,17,1970-01-01 02:26:04.159862493,-2.4234767,1.6785904,3.8807585,9.402845146735961,4.873519424577817,63.61749267578125,-19.318880081176758,-104.15713500976562,17701766.0,39443.0,0.11366372731944999,-0.2928623777917,-0.04862196591209999,0.0043801281895583175,-0.01663021505812928,0.0013100946827248258,17.701766187999965
1603,B,8764199726300.0,10.63684,19.612701,12.925097,17,1970-01-01 02:26:04.199726300,-1.3936322,-1.1816446,7.652327,25.784850943148964,7.867439429987052,63.3369140625,-19.816654205322266,-103.97571563720703,17741629.0,39863.0,0.303642570039,0.13216324519950004,0.16104315157649998,0.008317540465799947,-0.0032029747612614336,0.0022407228620699884,17.74162999500004
1603,B,8764239684996.0,1.0265139,19.612701,-3.8163576,17,1970-01-01 02:26:04.239684996,0.35127094,-4.27464,0.9938917,20.006907722918402,4.402699071503454,64.34320831298828,-19.63820457458496,-104.46815490722656,17781588.0,39959.0,0.23302797924504998,0.39210571925900006,0.1819880588423,0.010722409239420678,0.010474631775398605,0.006853592068562414,17.781588690999342
1603,B,8764279565203.0,3.518878,6.9425864,0.5351041,17,1970-01-01 02:26:04.279565203,0.5422196,3.8962047,0.85993475,7.8018167562552865,4.026648846520368,64.79312133789062,-19.80079460144043,-104.42792510986328,17821468.0,39880.0,0.090635114486,0.138688430756,-0.06542819479,0.006453842088997136,0.010584035351299101,0.0023242036892028614,17.821468897998784
1603,B,8764319498797.0,-4.9266686,8.582615,-1.1091139,17,1970-01-01 02:26:04.319498797,0.340352,2.9142973,-0.20453078,9.958086029736045,2.9412244179352753,65.47313690185547,-18.706838607788086,-104.5264663696289,17861402.0,39934.0,-0.028109354910200002,-0.08136150364620001,-0.011461253676600001,0.0012484518414499987,0.001144646753601376,-0.0015352516175326022,17.861402491998888
1603,B,8764359347443.0,-5.819107,-1.1246762,-1.1563994,17,1970-01-01 02:26:04.359347443,0.32037827,0.026365295,-0.47217846,6.038556317913728,0.5712178767831076,65.83561706542969,-15.839484214782715,-104.63713073730469,17901251.0,39849.0,-0.2141042059422,-0.24192449837940003,-0.04513921974585001,-0.004825984093203645,-0.006441311947359069,-0.0011277361327056052,17.90125113799877
1603,B,8764399249422.0,-5.08289,-4.868609,0.51235914,17,1970-01-01 02:26:04.399249422,0.7222493,-2.2048311,-0.01571265,7.057027436203046,2.3201661833256084,64.27780151367188,-13.487869262695312,-104.32988739013672,17941153.0,39902.0,-0.217505742147,-0.5106116330252,-0.012849247227259998,-0.00861105007432763,-0.015013848357653174,-0.0011569279045805178,17.941153116998976
1603,B,8764439151349.0,3.6541502,-4.1000705,8.383297,17,1970-01-01 02:26:04.439151349,0.3717773,1.6588831,-0.22929817,10.0221285353631,1.7154268130777974,62.90515899658203,-13.946622848510742,-103.93222045898438,17981055.0,39902.0,-0.028504787749799997,-0.5699737247045,0.17747723564914,-0.004908156081971057,-0.021558758472065245,0.003284492997004928,17.98105504399973
1603,B,8764479106714.0,0.74998367,4.586692,-14.201806,17,1970-01-01 02:26:04.479106714,-1.330249,1.0996193,-1.072455,14.942941901438507,2.031965731492165,65.7744140625,-14.109472274780273,-104.62007904052734,18021010.0,39955.0,0.08798358438792499,-0.38183751898375,-0.11623926354749997,0.001188237659838142,-0.019014809120782013,0.0012233815876605137,18.021010409000155
1603,B,8764516695516.0,-3.0113072,19.612701,19.612701,17,1970-01-01 02:26:04.516695516,1.6018914,-4.051201,2.2509038,27.899534979701258,4.903555191557387,65.3687515258789,-13.820768356323242,-104.63702392578125,18058599.0,37589.0,-0.042500445084585003,0.08644329173849997,0.10169506607750002,0.0008548328616366233,-0.005551786803960851,-0.00027335091934991407,18.05859921099909
1603,B,8764558866506.0,2.6402059,14.601039,-9.481637,17,1970-01-01 02:26:04.558866506,0.12543489,-4.0972733,-1.164334,17.60859072366908,4.261344397027563,66.65896606445312,-13.875068664550781,-105.14873504638672,18100770.0,42171.0,-0.007824856461149996,0.30813801477,0.21361854997200005,-0.0010611341457425953,0.008319944138384976,0.006648545251211734,18.10077020099925
1603,B,8764598814473.0,-6.131551,19.612701,-5.2852,17,1970-01-01 02:26:04.598814473,0.4708469,5.9633503,-3.4123085,21.21761761416682,6.886733108152367,67.50774383544922,-12.940872192382812,-105.1397705078125,18140718.0,39948.0,-0.0697361270274,0.29189484276,-0.29495280223799997,-0.0015492030842002974,0.01198505629630422,-0.0016245703547610821,18.140718167998784
1603,B,8764636364683.0,2.0368671,18.000805,12.448651,17,1970-01-01 02:26:04.636364683,4.4573326,4.6810384,-1.4527544,21.980598716843186,6.624985264588646,67.37957763671875,-12.601082801818848,-104.87785339355469,18178268.0,37550.0,-0.07687769022249999,0.33820357515,0.13449379252500002,-0.002752674418866872,0.01183009779626025,-0.003012617907361574,18.17826837800021
1603,B,8764676278642.0,9.3583355,9.802461,-6.081871,17,1970-01-01 02:26:04.676278642,-3.159308,-2.2256038,-1.4274544,14.854488878710107,4.119728799025222,68.1812515258789,-13.315206527709961,-105.21912384033203,18218182.0,39914.0,0.22741405828820002,0.16371257956199992,0.12706182846,0.0030042542974871756,0.010016740699587382,0.005219865527997645,18.218182336999234
1603,B,8764715938329.0,7.6692266,-3.4302924,5.697003,17,1970-01-01 02:26:04.715938329,-0.84874946,-0.86392945,-1.6463662,10.150851480228361,2.04383742135475,67.20024108886719,-14.341316223144531,-105.0632095336914,18257842.0,39660.0,0.337656556443,-0.26230789666200005,-0.00763193244,0.011205350290119697,-0.001955145138093003,0.0023682948380766,18.25784202399882
1603,B,8764756486038.0,4.6321816,-5.3941364,2.4462755,17,1970-01-01 02:26:04.756486038,1.7315874,-0.7909589,-3.0570426,7.519180653441156,3.601322029969374,65.45948028564453,-16.45525550842285,-104.67212677001953,18298389.0,40547.0,0.2493925991427,-0.5762626572768,0.16509275666974998,0.01190154105576669,-0.017000760125278264,0.0031922820200218365,18.298389732999567
1603,B,8764795716767.0,1.5586253,-1.1420342,4.3885717,17,1970-01-01 02:26:04.795716767,-1.117995,-2.4892566,-0.95660746,4.795113815730615,2.891610117771103,64.04943084716797,-16.840566635131836,-104.41161346435547,18337620.0,39231.0,0.12143577274695001,-0.5126740544043001,0.1340689452516,0.00727398392880143,-0.021360038067980622,0.005868206364038241,18.337620461999904
1603,B,8764835758433.0,1.9339164,3.762488,-1.0522517,17,1970-01-01 02:26:04.835758433,-2.781938,-0.39947417,3.475159,4.359309834421712,4.469394670827604,64.78466796875,-17.334291458129883,-104.61236572265625,18377662.0,40042.0,0.0699241773757,-0.33994749447020006,0.06679646271999999,0.0038312175614055757,-0.017070336030016366,0.004021526332999404,18.37766212799943
1603,B,8764875533069.0,2.397793,17.638084,5.6497173,17,1970-01-01 02:26:04.875533069,-1.9579561,1.6000272,5.691974,18.675404253504777,6.228342247094571,64.81942749023438,-17.31361961364746,-104.46705627441406,18417436.0,39774.0,0.0861447048378,0.03580797536399994,0.09142979838719999,0.0031037418605798744,-0.006048422616465002,0.0031466456546388856,18.41743676399892
1603,B,8764915467027.0,11.988366,19.612701,3.9965212,17,1970-01-01 02:26:04.915467027,-0.93796533,-7.9303613,2.1880531,23.33133390030254,8.27997498047182,65.17686462402344,-17.92738151550293,-104.8873519897461,18457370.0,39934.0,0.287248436753,0.35243322409499994,0.19260644412949995,0.007455540858143503,0.00775201202959785,0.005671351654330948,18.457370721998814
1603,B,8764955567183.0,5.631761,7.9224133,-2.7712884,17,1970-01-01 02:26:04.955567183,0.65673554,2.0991037,0.73290193,10.107492461194935,2.3183362896375725,66.04582214355469,-18.41191291809082,-105.04295349121094,18497470.0,40100.0,0.35328354635,0.15909904171499997,0.02456591764,0.012842666261215148,0.010256221929490496,0.004354305853478474,18.49747087799915
1603,B,8764995431194.0,-0.2705448,9.831191,-1.567005,17,1970-01-01 02:26:04.995431194,0.7928231,5.430186,0.23515713,9.958966594848736,5.492794128517785,66.82231140136719,-17.896329879760742,-105.03242492675781,18537334.0,39864.0,0.1068597612984,-0.036802359092400025,-0.08647086404879999,0.009171576408047907,0.002437617478033662,-0.0012338893918202012,18.537334888998885
1603,B,8765035520464.0,-5.379771,1.9710265,-3.6493618,17,1970-01-01 02:26:05.035520464,0.11105382,1.3960291,-0.66206187,6.792990727466252,1.5490500697818967,68.6539306640625,-15.582399368286133,-105.50973510742188,18577424.0,40090.0,-0.113260580211,-0.15630655021250003,-0.10456207250599998,-0.00012830441510306697,-0.0038708680870167215,-0.0038292552132409654,18.577424158998838
1603,B,8765075467443.0,-8.028357,-3.2531216,-0.87927055,17,1970-01-01 02:26:05.075467443,0.8277105,-1.4527544,-0.35606465,8.706918683663748,1.7094976026626163,68.55699920654297,-12.732168197631836,-105.54630279541016,18617371.0,39947.0,-0.26780724460800004,-0.41708852647985006,-0.090452638242725,-0.007611258199022298,-0.011452706564314656,-0.0038951263251396587,18.617371137999726
1603,B,8765115206037.0,-3.040636,-8.898649,7.029376,17,1970-01-01 02:26:05.115206037,1.1611383,2.335326,1.4282533,11.740679207740625,2.9735327754984944,65.69773864746094,-12.245619773864746,-104.7835922241211,18657109.0,39738.0,-0.219929821917,-0.6308759300514001,0.12219644518605001,-0.009690847774785226,-0.02082200578681941,0.0006307177001569248,18.6571097319993
1603,B,8765155484109.0,2.949058,2.356493,-4.569334,17,1970-01-01 02:26:05.155484109,-0.32037827,-1.6993631,-1.0801781,5.926956685346114,2.0389364652311786,66.97688293457031,-12.910032272338867,-105.16295623779297,18697387.0,40278.0,-0.0018442893420000032,-0.5264768796840001,0.04954278583800001,-0.004466308826645001,-0.023307928235261226,0.003458656373593344,18.697387803998936
1603,B,8765195241453.0,-2.540248,14.736312,2.0638018,17,1970-01-01 02:26:05.195241453,-1.5928366,2.6812706,-0.24234766,15.095397614257507,3.128110108840703,67.24609375,-12.306954383850098,-105.12387084960938,18737145.0,39758.0,0.008126733989999997,-0.04984052940500003,-0.0498074746038,0.00012488871715759188,-0.011456613775280235,-5.261747975338039e-06,18.7371451479994
1603,B,8765235396036.0,4.6399627,19.612701,-12.330139,17,1970-01-01 02:26:05.235396036,1.0942929,-4.2330947,-0.1717739,23.626671837821622,4.375622694300745,68.5214614868164,-12.478690147399902,-105.57988739013672,18777299.0,40154.0,0.042155972031899996,0.29611593400100006,-0.20611725196440003,0.0010095258888016862,0.004944471298073893,-0.005138200735309752,18.777299730998493
1603,B,8765277144578.0,-5.3648076,19.612701,-7.4764934,17,1970-01-01 02:26:05.277144578,-0.27537087,4.237622,-3.2218924,21.664190607097748,5.330465267507735,69.43269348144531,-11.682790756225586,-105.63864135742188,18819048.0,41749.0,-0.015130774865049998,0.40967045404900004,-0.4134535480338,0.0005641374782594103,0.014732937957349729,-0.012933230664562428,18.81904827299877
1603,B,8765317665879.0,1.4945804,19.612701,-2.456451,17,1970-01-01 02:26:05.317665879,4.0621195,4.3518715,-1.350489,19.822360167317772,6.104377193777716,70.27638244628906,-11.393183708190918,-105.59000396728516,18859569.0,40521.0,-0.07841273818559999,0.39762045722100003,-0.20124642001620002,-0.0018952383461626943,0.016356117507785838,-0.012454128702677026,18.85956957399867
1603,B,8765356952442.0,11.279683,14.2143755,-3.316568,17,1970-01-01 02:26:05.356952442,-1.2620721,-1.2610068,-1.6572852,18.44666210277928,2.4350684527100444,70.85997009277344,-12.005916595458984,-105.80641174316406,18898856.0,39287.0,0.25093124309790005,0.27946957722775,-0.1134022987265,0.0033888672512447666,0.013300418091694022,-0.0061808021066222275,18.898856136998802
1603,B,8765396859578.0,11.237784,-2.5863364,4.361038,17,1970-01-01 02:26:05.396859578,-1.3731259,-0.10066749,-0.9757822,12.328648654336165,1.687530616797974,70.20287322998047,-13.262398719787598,-105.69725799560547,18938763.0,39907.0,0.4493022777845,-0.15906852181815004,0.02084083214499999,0.013972109558926967,0.002402422459115453,-0.0018469252234339603,18.938763272999495
1603,B,8765436974942.0,5.175067,-6.582259,2.9628246,17,1970-01-01 02:26:05.436974942,2.1784658,-2.2588933,-3.2479913,8.88176680666269,4.516387900460967,68.49044799804688,-15.374309539794922,-105.40564727783203,18978878.0,40115.0,0.3292007589325,-0.5770261022355,0.1468983740995,0.015614824658951228,-0.014764217921956084,0.003364429129249058,18.97887863699907
1603,B,8765474410776.0,1.3018472,-2.5923219,2.731784,17,1970-01-01 02:26:05.474410776,-1.4972292,-1.5747272,-0.4908206,3.9846684665130487,2.227636840496413,65.7309799194336,-16.576236724853516,-104.74515533447266,19016314.0,37436.0,0.1212348799956,-0.5386026052862,0.1065916837748,0.008431254289456175,-0.02088233814739118,0.004744826903291147,19.016314470998623
1603,B,8765514487234.0,1.8794483,2.6743233,-1.8148049,17,1970-01-01 02:26:05.514487234,-1.8282601,-0.13342437,2.47674,3.7386960093540353,3.0813273249302657,66.73008728027344,-17.19478416442871,-105.01849365234375,19056390.0,40076.0,0.063746799229,-0.3911016559468,0.018374427205800004,0.003706662888302535,-0.018629413986586855,0.002504070931829263,19.056390928999463
1603,B,8765554320671.0,1.447295,14.826094,4.7279496,17,1970-01-01 02:26:05.554320671,-1.9390476,2.4876587,5.2171326,15.628858996548697,6.09645995383667,66.71131134033203,-17.092344284057617,-104.83401489257812,19096224.0,39834.0,0.0662587463061,-0.04181738863590004,0.05802110298989999,0.0025893204504225872,-0.008622448610953636,0.001521569774907757,19.09622436599966
1603,B,8765595708119.0,19.612701,19.612701,3.867833,17,1970-01-01 02:26:05.595708119,-2.0551615,-5.844307,3.2298818,28.004931943261195,6.986540599130766,66.89913940429688,-18.020788192749023,-105.11639404296875,19137611.0,41387.0,0.43580502722600006,0.30706660433250005,0.1778768272331,0.010389456697586513,0.005488934645017591,0.00488155381906965,19.137611813999683
1603,B,8765635103747.0,3.5966895,12.146982,-2.694674,17,1970-01-01 02:26:05.635103747,0.8032094,0.7091998,1.2809805,12.951703171166725,1.6700361486951862,67.76335906982422,-18.09651756286621,-105.31696319580078,19177007.0,39396.0,0.45717857406900003,0.23952143573399995,0.023108885982,0.017589990978308913,0.010766691213229916,0.00395901657891104,19.177007442000104
1603,B,8765675318222.0,-0.11492168,9.472659,-1.8417397,17,1970-01-01 02:26:05.675318222,1.1249193,4.5321674,0.5965481,9.650724358584236,4.707637879950927,68.57218933105469,-17.64990997314453,-105.3376235961914,19217221.0,40214.0,0.07000790555674,0.04060892158699996,-0.0912136702659,0.010600138545834754,0.005632581094653344,-0.0013693828975963772,19.217221916998824
1603,B,8765715226610.0,-6.4463882,1.3431472,-2.641403,17,1970-01-01 02:26:05.715226610,0.18269286,1.247691,-0.59122175,7.094855533016587,1.3927141380229622,69.83601379394531,-15.007569313049316,-105.64523315429688,19257130.0,39909.0,-0.13092765800046002,-0.1752841951821,-0.08945887100715,-0.0012156232001382112,-0.0026873777469534235,-0.0036052302248330763,19.25713030499901
1603,B,8765756021505.0,-7.3460093,-4.0096893,-0.82360536,17,1970-01-01 02:26:05.756021505,0.7392935,-1.4317155,-0.716923,8.409505735014497,1.7636163811927752,69.59840393066406,-12.148841857910156,-105.65670776367188,19297925.0,40795.0,-0.28133042800624997,-0.45418179248475005,-0.0706775080231,-0.008409034309321866,-0.012839532483434573,-0.003266381791269524,19.297925199998645
1603,B,8765795885202.0,-3.2842462,-7.6231384,3.7834373,17,1970-01-01 02:26:05.795885202,1.0207896,-0.081226416,0.6649913,9.122111047931849,1.2209924517375426,66.86590576171875,-11.295121192932129,-105.08309936523438,19337788.0,39863.0,-0.21187693749825,-0.6225171053025501,0.058993890312110005,-0.009830362605552942,-0.021460224081247575,-0.00023287202640659698,19.337788896998973
1603,B,8765835835256.0,6.870162,2.054225,0.093972415,17,1970-01-01 02:26:05.835835256,0.096939065,-0.83889574,-1.5792545,7.1713176663462574,1.7908623678785234,67.03289031982422,-12.509115219116211,-105.18482971191406,19377738.0,39950.0,0.07162866810499999,-0.502749045165,0.07745125905712501,-0.002801459181130169,-0.022477191355589312,0.0027254918586504693,19.37773895099963
1603,B,8765876431714.0,-9.909601,19.612701,19.612701,17,1970-01-01 02:26:05.876431714,-4.3095274,-2.4029703,1.4767228,29.453629199302473,5.150437156404561,66.31825256347656,-11.882526397705078,-105.16040802001953,19418335.0,40597.0,-0.06169605254150001,0.04195549741100001,0.40001591031437755,0.00020161719701570425,-0.009353417829084568,0.009691867337487446,19.418335409000065
1603,B,8765913642389.0,3.1190462,8.801684,-13.761871,17,1970-01-01 02:26:05.913642389,1.2357068,-5.1841097,-0.304133,16.630910493843427,5.338020378275951,67.8539047241211,-12.18352222442627,-105.70611572265625,19455546.0,37211.0,-0.1263416673314,0.16399604011749996,0.10885761756500004,-0.0034985357970952415,0.0038318313314865066,0.00946784642295976,19.45554608400016
1603,B,8765955543901.0,-10.495582,19.612701,-5.513248,17,1970-01-01 02:26:05.955543901,-0.58935755,7.083476,-4.7327037,22.917486457803985,8.539406236753917,68.57140350341797,-10.977959632873535,-105.62290954589844,19497447.0,41901.0,-0.15454211327790002,0.18466577294249997,-0.4038233806095,-0.00588465564565514,0.007304639314513529,-0.006179680218663796,19.497447595998892
1603,B,8765995402234.0,0.623091,19.612701,-1.8884265,17,1970-01-01 02:26:05.995402234,4.8272457,4.080762,-1.5283881,19.713255376917946,6.503144603423339,69.44140625,-10.63397216796875,-105.58101654052734,19537305.0,39858.0,-0.196748873139,0.391114636458,-0.14750797111049999,-0.0070008780683024005,0.011474727778942562,-0.01098748250842788,19.537305928999558
1603,B,8766035353380.0,13.074736,15.57907,4.292804,17,1970-01-01 02:26:06.035353380,-0.41252366,-2.2905848,-1.8908445,20.786637768456252,2.9987076248329188,69.5499267578125,-11.266352653503418,-105.74345397949219,19577257.0,39952.0,0.273627792152,0.311461217496,0.04802984494000001,0.0015357332862036882,0.014034655258585103,-0.0019871750483819077,19.57725707499958
1603,B,8766077912441.0,8.929773,-0.6997054,3.8349125,17,1970-01-01 02:26:06.077912441,-1.5448998,-1.5584819,-0.9291769,9.743561328435021,2.383054958695091,68.91351318359375,-12.517655372619629,-105.71492004394531,19619816.0,42559.0,0.4682449492655,-0.10045276099430003,0.17295374326175,0.015786681000993688,0.004490154450127924,0.0047024202651391395,19.619816135998917
1603,B,8766115120360.0,4.7483006,-5.866991,0.15861586,17,1970-01-01 02:26:06.115120360,0.88017476,-2.0785973,-2.9710226,7.549377522225584,3.7312530915791693,67.92027282714844,-15.085236549377441,-105.61520385742188,19657024.0,37208.0,0.25446688125440003,-0.4868052198256,0.07429560160944,0.01344533089499222,-0.010925347475173418,0.004599826811983618,19.657024054999056
1603,B,8766155251662.0,3.9510314,-2.0015526,3.9707835,17,1970-01-01 02:26:06.155251662,-1.0229203,-1.0748519,-1.1382351,5.948443791297433,1.8700940323838557,66.77879333496094,-15.991872787475586,-105.39146423339844,19697155.0,40131.0,0.174556446246,-0.5511700616058,0.08285846285808,0.008608567577959277,-0.020827493009561753,0.0031533748805730225,19.697155357000156
1603,B,8766194943798.0,3.116652,3.74094,1.8716671,17,1970-01-01 02:26:06.194943798,-2.2724755,-0.21864553,2.4578314,5.216444143851865,3.3545321516889937,66.58351135253906,-16.61579704284668,-105.33102416992188,19736847.0,39692.0,0.14026524475639998,-0.35446171765960005,0.1159492746076,0.0062479512796336295,-0.01797316829130113,0.003945538357743885,19.736847492999004
1603,B,8766234839786.0,1.7669208,15.041573,-0.4297592,17,1970-01-01 02:26:06.234839786,-3.0003173,2.7672908,5.136173,15.151093043004728,6.560493530091538,66.99380493164062,-16.58821678161621,-105.27169036865234,19776743.0,39896.0,0.09741751021440001,-0.016307230676000033,0.028763178789199997,0.004741295596157519,-0.00739609898139855,0.0028867240203593663,19.776743480999357
1603,B,8766274234420.0,18.629284,19.612701,-2.1613655,17,1970-01-01 02:26:06.274234420,0.25406557,-7.4099793,2.5497105,27.136318167589486,7.840495276071414,67.63053131103516,-17.530994415283203,-105.73394775390625,19816138.0,39395.0,0.401754244048,0.296531562115,-0.051038678778249996,0.009832435629583624,0.005519718768519701,-0.0004387716610343123,19.816138115000285
1603,B,8766314643849.0,-0.56802434,7.7889366,-1.447295,17,1970-01-01 02:26:06.314643849,0.46871635,-0.9712549,1.8359833,7.942597045468,2.1292876215791567,68.4692153930664,-17.173566818237305,-105.98654174804688,19856547.0,40409.0,0.36491872080046994,0.1576281868892,-0.07291118107225,0.01549024391828091,0.009176070648755358,-0.002504344943349427,19.856547543999113
1603,B,8766354542911.0,0.56802434,7.0365586,-1.5239093,17,1970-01-01 02:26:06.354542911,0.84022737,4.739362,0.27537087,7.222057057147422,4.82113713934645,69.27118682861328,-16.856426239013672,-105.99337768554688,19896446.0,39899.0,0.0,-0.09524898350760001,-0.05927404018285,0.007279946020608974,0.0012444339178612287,-0.0026370290714286177,19.89644660599879
1603,B,8766394454421.0,-5.298967,2.569577,-3.2477345,17,1970-01-01 02:26:06.394454421,-0.12463594,2.3947146,-0.4878911,6.725292306547594,2.447085993268739,70.973876953125,-14.468361854553223,-106.3560791015625,19936358.0,39912.0,-0.09441069172296002,-0.19943755796640003,-0.0952229236728,-0.0018840597640233901,-0.005880764621655145,-0.0030831414107033513,19.93635811599961
1603,B,8766434398535.0,-6.2404866,-3.7942111,-2.15957,17,1970-01-01 02:26:06.434398535,0.54275227,-1.2407668,-0.56938386,7.615999833314255,1.4691086612639968,71.48365783691406,-11.63351821899414,-106.53022003173828,19976302.0,39944.0,-0.2304659672992,-0.4159095922452,-0.10799468547400001,-0.00648843663399058,-0.012289713284026076,-0.00405866208987989,19.97630222999942
1603,B,8766474250724.0,-5.1361613,-6.2512608,1.5370775,17,1970-01-01 02:26:06.474250724,0.829841,-0.091080114,0.3882889,8.235351949385077,0.9207062193286537,69.61258697509766,-9.492152214050293,-106.17695617675781,20016154.0,39852.0,-0.2266910860554,-0.5907156730794,-0.012403785554999998,-0.009109311445143759,-0.020058015036857977,-0.002399059933723854,20.016154418999577
1603,B,8766514161348.0,2.9173348,0.9247604,5.3755813,17,1970-01-01 02:26:06.514161348,0.48655954,2.4016387,-0.39361522,6.1857011280540295,2.4818423746721607,68.5097885131836,-9.99075984954834,-105.88209533691406,20056065.0,39911.0,-0.04427779222075001,-0.4974207787322001,0.13794556268340002,-0.005407319450439712,-0.02171430696412639,0.002505248933485787,20.056065042999762
1603,B,8766551641817.0,-3.4099417,13.429676,-10.787076,17,1970-01-01 02:26:06.551641817,-1.1155982,2.5302694,-0.42077947,17.559752517964224,2.797119579637789,69.67224884033203,-9.528997421264648,-105.98050689697266,20093545.0,37480.0,-0.009231453306000004,-0.09830186186400001,-0.10141141067800001,-0.0010027632611712954,-0.011163842284772789,0.0006846500085811963,20.093545511999764
1603,B,8766594022493.0,3.169923,18.134283,-17.406445,17,1970-01-01 02:26:06.594022493,1.4277207,-6.7212863,1.6578178,25.335448669562634,7.0684111214454,71.09024047851562,-9.79145336151123,-106.48902130126953,20135926.0,42381.0,-0.005086116262350005,0.2535222731895,-0.5974348067505001,-0.00030339645793812085,0.003289198126193007,-0.014808900770418632,20.135926187998848
1603,B,8766633858431.0,-7.5094137,19.612701,-12.410344,17,1970-01-01 02:26:06.633858431,-0.99921805,3.6985981,-4.5566688,24.393974109018906,5.953259205650536,72.09928131103516,-8.93571949005127,-106.56206512451172,20175762.0,39836.0,-0.08643397576260001,0.36145162731200003,-0.5938908033020001,-0.0018228971929529546,0.012249050150188878,-0.023728823501025696,20.175762125998517
1603,B,8766673775099.0,-1.0181342,19.612701,-1.780089,17,1970-01-01 02:26:06.673775099,4.2938147,5.749765,-1.4572818,19.719618520968698,7.322589192203283,72.84249114990234,-8.501648902893066,-106.39324951171875,20215678.0,39916.0,-0.1701928009882,0.391683773116,-0.283212661814,-0.005121757210392467,0.015031076321742023,-0.01750523095678513,20.21567879400027
1603,B,8766713722701.0,7.587824,15.743671,11.584944,17,1970-01-01 02:26:06.713722701,2.3166838,-6.330334,-1.7289242,20.967812882948785,6.9591185699112845,72.564208984375,-8.839282035827637,-106.65850067138672,20255626.0,39948.0,0.1312229840652,0.314717774328,0.19584217377,-0.0007783831232200019,0.014109664508646454,-0.0017451381281908564,20.25562639599957
1603,B,8766753583225.0,14.425065,5.8622026,-1.8950106,17,1970-01-01 02:26:06.753583225,-3.7398772,-0.16884442,-0.3009372,15.685629880619526,3.7557626532555033,72.70953369140625,-10.058450698852539,-106.7235107421875,20295486.0,39860.0,0.43871687777,0.039977060847999984,0.19312037266200002,0.011358901446375537,0.007069068065057679,0.00775202355038976,20.295486920000258
1603,B,8766793478064.0,7.877522,-7.463325,1.1611878,17,1970-01-01 02:26:06.793478064,0.93610114,-1.2945626,-3.1092405,10.913520514617538,3.495647887941277,71.75503540039062,-12.613030433654785,-106.6340103149414,20335381.0,39895.0,0.4448808541825,-0.42290938907400005,-0.014637930303,0.017625565758122495,-0.007638542617288137,0.003560278518956153,20.335381758999574
1603,B,8766833382236.0,3.4823663,-5.1583076,2.5570073,17,1970-01-01 02:26:06.833382236,0.7965515,-1.5970978,-2.574478,6.728543577613713,3.132595193669474,69.7944107055664,-14.595162391662598,-106.27738189697266,20375285.0,39904.0,0.2266524913616,-0.6428860136352001,0.0741854286352,0.013398433310295884,-0.021264749874853963,0.0011880916867240544,20.37528593099887
1603,B,8766871479574.0,0.7404069,-1.4640543,1.6226702,17,1970-01-01 02:26:06.871479574,-1.8639464,-1.1369035,1.4732608,2.3075346040491223,2.6338836601493716,66.9979476928711,-15.852705955505371,-105.59336853027344,20413383.0,38098.0,0.0804396066868,-0.4995097718331,0.0796186766975,0.005849797375723971,-0.02176149731738565,0.002929814402482602,20.413383268998587
1603,B,8766913210256.0,4.582502,10.425551,-6.4661403,17,1970-01-01 02:26:06.913210256,-2.393383,0.6111955,3.6693034,13.095892814653345,4.423305276053283,67.99175262451172,-16.278804779052734,-105.80506896972656,20455113.0,41730.0,0.1110624941985,-0.22197237135450004,-0.10105900363650001,0.003995691334971785,-0.015053724917609276,-0.0004473524215822353,20.455113950998566
1603,B,8766952145878.0,19.612701,19.612701,0.8738836,17,1970-01-01 02:26:06.952145878,0.2580603,-3.3537188,7.663779,27.75031087352268,8.369440451353396,68.36199188232422,-17.400449752807617,-105.92011260986328,20494049.0,38936.0,0.471032212004,0.20321188993600003,-0.1088700534356,0.011332219740350268,-0.00036522905225535814,-0.004086898883079643,20.494049572998847
1603,B,8766992233849.0,-0.6368576,16.084248,-1.043872,17,1970-01-01 02:26:06.992233849,0.23329292,-3.3507893,1.1361046,16.130663039086947,3.54583532917954,69.0564956665039,-17.072343826293945,-106.25102996826172,20534137.0,40088.0,0.38035180510960004,0.32264724575599996,-0.0034072474895999985,0.017065141239024997,0.010540320515810447,-0.002250486219744709,20.53413754400026
1603,B,8767032908118.0,0.86490536,5.5659204,3.5482068,17,1970-01-01 02:26:07.032908118,1.4612765,4.123106,0.57604176,6.6571242046742025,4.4121600385697874,68.77017974853516,-16.79426383972168,-105.95230865478516,20574811.0,40674.0,0.004637807295119999,0.04169427475079994,0.05093065682760001,0.007829533747474792,0.00740961350254679,0.0009664835757069062,20.574811812999542
1603,B,8767072806765.0,-6.6959834,6.0202203,-1.335366,17,1970-01-01 02:26:07.072806765,0.34807515,2.1475732,-0.28309402,9.102881329972595,2.1939391932242613,69.31927490234375,-15.500107765197754,-106.00906372070312,20614710.0,39899.0,-0.11632709135898,-0.15987248610535,0.04414506753959999,-0.002228145372431975,-0.002357596227417596,0.001896713163263456,20.614710459998605
1603,B,8767112903170.0,-6.4404025,-3.4081461,-0.47524905,17,1970-01-01 02:26:07.112903170,0.5651228,0.20852552,-0.4660532,7.302061754085442,0.7616116180845395,68.93174743652344,-12.638922691345215,-105.90581512451172,20654806.0,40096.0,-0.2633582645232,-0.3405739364384,-0.0362992105224,-0.0076119320147259445,-0.010032949879157099,0.00015729374148082552,20.654806864999046
1603,B,8767152185150.0,-5.8717794,-6.4487824,2.4797945,17,1970-01-01 02:26:07.152185150,0.6314355,-1.2804478,-0.007190535,9.06719187659798,1.427693616634422,66.90975952148438,-10.635266304016113,-105.54936981201172,20694088.0,39282.0,-0.2418235646979,-0.5785635326684999,0.03937127718345,-0.009922276307731624,-0.01805277903072862,6.033846128968314e-05,20.694088844998987
1603,B,8767192526088.0,4.9943047,-0.7858967,5.0020857,17,1970-01-01 02:26:07.192526088,0.5472796,0.644485,-0.5997439,7.112072441254902,1.0366140175534815,65.9245376586914,-11.535776138305664,-105.33729553222656,20734429.0,40341.0,-0.017699103436350012,-0.54126889478655,0.15091326457410004,-0.0052347019776018905,-0.022587579977982088,0.0038381343495206637,20.73442978299863
1603,B,8767232475098.0,0.74758947,4.5561657,-10.348338,17,1970-01-01 02:26:07.232475098,-1.4658039,1.8743328,-1.3622069,11.331621034245513,2.741771718582468,67.29808807373047,-11.526782035827637,-105.56993865966797,20774378.0,39949.0,0.114691465098665,-0.3161909618595,-0.10678871656634999,0.0019373739280239106,-0.017127331906576525,0.0008813657841808034,20.774378792999414
1603,B,8767270116609.0,2.6431987,19.612701,6.271013,17,1970-01-01 02:26:07.270116609,2.9683595,-5.997705,1.8660771,20.759820421411447,6.947364041952146,67.62150573730469,-11.623706817626953,-105.8409652709961,20812020.0,37642.0,0.06381802414757,0.08599064016070002,-0.076739333825,0.003359727097103389,-0.004332600254693115,-0.0034541814364155987,20.812020303999816
1603,B,8767312288171.0,1.5370775,11.717223,-8.38629,17,1970-01-01 02:26:07.312288171,-0.6852314,-1.1619372,-1.5566177,14.490886171550562,2.0597812486385756,68.83683776855469,-11.567018508911133,-106.17378997802734,20854191.0,42171.0,0.0881432138151,0.24733131250200002,-0.044601673183500015,0.003204178683061878,0.0070282600328693615,-0.002558535803277727,20.854191865999383
1603,B,8767352122182.0,-7.337031,19.612701,-2.8233624,17,1970-01-01 02:26:07.352122182,2.299906,6.8421936,-2.4594293,21.129634158027816,7.625875251432812,69.56780242919922,-10.60776138305664,-106.02224731445312,20894025.0,39834.0,-0.11551767385949999,0.233624896308,-0.22326264685080002,-0.0005452171207043146,0.00957920481086877,-0.005335053662123154,20.894025876999876
1603,B,8767391507495.0,0.58777654,18.092981,19.612701,17,1970-01-01 02:26:07.391507495,3.3060482,0.5571333,-1.779258,26.690063380268256,3.7955383340517237,69.07595825195312,-10.310050010681152,-105.90740203857422,20933411.0,39386.0,-0.13291306808078,0.356555195626,0.3306324450498,-0.004892346601029933,0.011622416550456262,0.0021144334359329063,20.93341118999888
1603,B,8767431696816.0,8.345589,9.473258,-7.8182654,17,1970-01-01 02:26:07.431696816,-3.470099,-1.4610102,-0.48389637,14.849806286828194,3.7960892470020005,69.96671295166016,-10.998908042907715,-106.17877197265625,20973600.0,40189.0,0.17951151384353,0.16007758958549997,0.23700328616420005,0.0009363724683795803,0.010381477502432488,0.011406356200879724,20.97360051099895
1603,B,8767471854421.0,10.691308,-5.430648,6.43322,17,1970-01-01 02:26:07.471854421,0.32969934,1.0237192,-1.8852518,13.608171222437202,2.17045548322197,68.26830291748047,-13.217000961303711,-105.80377960205078,21013758.0,40158.0,0.382241854863,-0.31237683381000003,-0.027810326586599984,0.011279445890258416,-0.0030580165247837366,0.004200385435358632,21.013758115999735
1603,B,8767511799369.0,4.691438,-3.618836,4.061165,17,1970-01-01 02:26:07.511799369,1.102815,-2.2469091,-3.0274816,7.183218335813342,3.9281606721500553,66.24195098876953,-15.113207817077637,-105.45133209228516,21053703.0,39945.0,0.307231894485,-0.57220181919,0.20959910441250004,0.01377051445885293,-0.0176672471470425,0.003630776365127789,21.05370306399891
1603,B,8767549720462.0,0.82121116,-3.833117,3.0484173,17,1970-01-01 02:26:07.549720462,-1.4154701,-2.0373182,0.6490124,4.96588579610293,2.5642617158548795,63.35512924194336,-16.040769577026367,-104.77178955078125,21091624.0,37921.0,0.10452258439818,-0.5129185548565001,0.13480123519915,0.0078070707968645355,-0.020574424852108666,0.006530002639206692,21.091624156999387
1603,B,8767591564889.0,3.5116954,6.403891,-5.453393,17,1970-01-01 02:26:07.591564889,-2.245045,0.41199103,3.0796795,9.114895486768411,3.833326164513752,64.48700714111328,-16.554676055908203,-105.0363998413086,21133468.0,41844.0,0.09065307104831999,-0.35628546637200004,-0.0503169015954,0.004083465063251673,-0.01818548653214268,0.0017675812276576573,21.133468583999274
1603,B,8767631516921.0,15.689802,19.612701,5.015254,17,1970-01-01 02:26:07.631516921,-0.97951066,-1.2343752,7.664844,25.612120177742433,7.825148996138328,64.63426971435547,-17.451797485351562,-104.98857879638672,21173420.0,39952.0,0.3835691120624,0.12817784179199995,-0.00875226466400001,0.009473062329819744,-0.004556677908610082,-0.0011799656651977745,21.17342061599993
1603,B,8767671388639.0,-0.17956513,19.612701,-0.43275195,17,1970-01-01 02:26:07.671388639,-0.11797804,-4.776912,0.8338358,19.618296521399145,4.850576173510513,65.36209869384766,-17.192819595336914,-105.39591979980469,21213292.0,39872.0,0.30921208224032,0.391252014272,0.09135676086879999,0.013811285889619026,0.010355353610491903,0.0016468032363388923,21.21329233399956
1603,B,8767711323741.0,3.2004492,6.613982,2.4636335,17,1970-01-01 02:26:07.711323741,0.7685883,3.5886097,0.78936094,7.749653089037398,3.753923047616808,65.44499206542969,-17.334543228149414,-105.23763275146484,21253227.0,39935.0,0.060319502667725,0.1323182928025,0.040551627349624995,0.007378621921651388,0.01045439010651008,0.0026338807417514007,21.25322743600009
1603,B,8767751175256.0,-5.3205147,8.127118,-2.2014685,17,1970-01-01 02:26:07.751175256,0.45140582,2.6650252,-0.16112125,9.960139919465606,2.70778259617837,66.23786926269531,-16.26319694519043,-105.34756469726562,21293078.0,39851.0,-0.04224336512025,-0.09681601195000003,0.0052237687075,0.000360176078702213,0.0007074006971264879,0.000912097654136244,21.29307895099919
1603,B,8767791135461.0,-7.49026,-2.3529017,-1.4694413,17,1970-01-01 02:26:07.791135461,0.43356264,0.076166406,-0.63436496,7.987452598395096,0.7721378029099002,66.44332122802734,-13.373806953430176,-105.40296936035156,21333039.0,39961.0,-0.25596568389335,-0.27624607121785005,-0.0733466132589,-0.005958365903816236,-0.007453966952735229,-0.0013611284955592478,21.33303915599936
1603,B,8767830980305.0,-4.944625,-6.137536,0.5847838,17,1970-01-01 02:26:07.830980305,0.8165252,-2.0873857,-0.105993815,7.903204200491308,2.243908900026421,64.62908172607422,-11.211392402648926,-105.10231018066406,21372884.0,39845.0,-0.24773399641250002,-0.55963174507825,-0.01762458904375,-0.010034956880893297,-0.01665277579515905,-0.0018123737778745447,21.37288399999852
1603,B,8767870936766.0,5.0308166,-3.705027,8.431181,17,1970-01-01 02:26:07.870936766,1.1086739,0.38269624,-0.63010395,10.493862672454103,1.3314072316376198,63.40005111694336,-11.838560104370117,-104.84224700927734,21412840.0,39956.0,0.0017219357847999873,-0.5882035236140001,0.18012094477440002,-0.004914828947220191,-0.02293145299793377,0.003246352194786926,21.412840461000087
1603,B,8767910800357.0,1.2294226,5.5766945,-13.32912,17,1970-01-01 02:26:07.910800357,-0.7869641,1.6929716,-1.3430321,14.500911745477282,2.2998262009825394,66.26556396484375,-12.004863739013672,-105.39773559570312,21452704.0,39864.0,0.12477908773439997,-0.35336112339,-0.09762572014799997,0.0025214184007846933,-0.018767266544083727,0.0016442948172534057,21.452704051998808
1603,B,8767950811762.0,1.3156139,19.612701,19.612701,17,1970-01-01 02:26:07.950811762,0.38456047,-2.0567594,2.565423,27.767731649608603,3.3105197708976126,65.76338958740234,-11.952437400817871,-105.33110046386719,21492715.0,40011.0,0.05091472770075,0.11181865167525,0.12570617969550002,0.003514842624687893,-0.00483217791788943,0.0005617636334775122,21.492715456999576
1603,B,8767990593902.0,0.1412579,11.62744,-5.1439424,17,1970-01-01 02:26:07.990593902,-1.5140071,-5.876265,-0.32623723,12.715245108232487,6.076934965861778,66.83499908447266,-11.871020317077637,-105.83663177490234,21532497.0,39782.0,0.0289786369738,0.231534044631,0.2877980773126,0.0015891589167414738,0.006829628482227618,0.008225013176148117,21.532497596999747
1603,B,8768029503797.0,-7.1287355,18.897434,-9.884461,17,1970-01-01 02:26:08.029503797,0.1587244,4.7537427,-3.1039143,22.486316969967255,5.679572789805862,67.8831787109375,-11.013278007507324,-105.88883972167969,21571407.0,38910.0,-0.135941376708,0.21254342366999998,-0.292377588147,-0.002080960101528861,0.008639527145795954,-8.909438328325204e-05,21.571407491999707
1603,B,8768070412180.0,-0.91937345,19.612701,-2.9981391,17,1970-01-01 02:26:08.070412180,3.2972598,4.260525,-2.0807278,19.861825850583696,5.775242301584746,68.76319885253906,-10.537006378173828,-105.8666000366211,21612315.0,40908.0,-0.16461602046329998,0.38678790129,-0.26350070244539997,-0.00614760100174177,0.01225872292073184,-0.01136993455577695,21.612315874999695
1603,B,8768110316817.0,11.087548,11.142614,9.040505,17,1970-01-01 02:26:08.110316817,2.6189528,-6.288256,-2.2269354,18.133457973048742,7.166611372604001,68.60487365722656,-11.211196899414062,-106.14056396484375,21652220.0,39905.0,0.202880502708875,0.22257642253749998,0.12056030561975001,0.0007634720820048357,0.012158341671168194,-0.002852018267663781,21.652220511999985
1603,B,8768150267234.0,11.009736,2.445677,5.3737855,17,1970-01-01 02:26:08.150267234,-2.5688853,0.6263755,-1.7097495,12.492925733311443,3.148771396006161,67.9942626953125,-12.263426780700684,-106.04330444335938,21692170.0,39950.0,0.4413932479,-0.12008388727500002,0.2879254527375,0.012869368168412278,0.0020472883918684365,0.008159503023186068,21.692170928999985
1603,B,8768190111399.0,4.547188,-3.964798,-0.60094464,17,1970-01-01 02:26:08.190111399,0.89988214,1.3246564,-1.9582224,6.062810927984867,2.529651638430418,67.51945495605469,-14.968119621276855,-105.89777374267578,21732015.0,39845.0,0.30993281839,-0.42074568812249996,0.09508692203335001,0.014968293555662524,-0.010774677215856693,0.007630564036372259,21.732015093999507
1603,B,8768229099368.0,1.8501194,-5.571906,5.209184,17,1970-01-01 02:26:08.229099368,-1.3259879,-1.8927087,-0.6311692,7.848864644835478,2.3956136360086826,64.69110870361328,-15.96535587310791,-105.25660705566406,21771003.0,38988.0,0.12470911045560001,-0.567990907776,0.08983301808384,0.008472909760916126,-0.01927443120044536,0.0036048293126445022,21.771003062998716
1603,B,8768269007755.0,-0.16879122,0.5823896,3.8253357,17,1970-01-01 02:26:08.269007755,-2.4426515,-0.8546084,2.1475732,3.8730945431052595,3.3628815794138593,63.333553314208984,-15.796832084655762,-104.91169738769531,21810911.0,39908.0,0.03354922250372,-0.4906592102456,0.1802748060938,0.0031578867758702716,-0.021124304455003007,0.005389731523640628,21.810911450000276
1603,B,8768308922806.0,4.380192,8.200141,-9.248202,17,1970-01-01 02:26:08.308922806,-3.0794132,-1.0596718,4.04694,13.1132617837649,5.194556125757954,64.5265884399414,-16.364032745361328,-105.24226379394531,21850826.0,39915.0,0.08404903106685,-0.21588964555050003,-0.10822685418224998,0.0023469671456346508,-0.014100948789550666,0.0014378970002747596,21.850826500998664
1603,B,8768349741869.0,19.612701,19.612701,11.617864,17,1970-01-01 02:26:08.349741869,2.087652,-6.553507,6.407832,30.071429047408074,9.400375301676895,64.57685089111328,-17.38581657409668,-105.37907409667969,21891645.0,40819.0,0.48968294968350007,0.16761999879899997,0.048363616589000034,0.011709582861124269,-0.0009851593553747405,-0.0012217787476594348,21.89164556399919
1603,B,8768389185567.0,0.60932434,6.555923,-0.18914193,17,1970-01-01 02:26:08.389185567,0.06391586,-2.1166804,1.5121429,6.58689435188766,2.602114006519336,65.27946472167969,-17.244956970214844,-105.6474838256836,21931089.0,39444.0,0.39881878375548,0.12954640252799998,0.22539725666454002,0.017523031186883566,0.005860715766971093,0.005399111942306317,21.93108926199966
1603,B,8768429561608.0,1.0402806,8.968081,1.8555063,17,1970-01-01 02:26:08.429561608,1.7273263,4.694354,0.32437304,9.216917281750828,5.012567554962878,65.63363647460938,-16.90526008605957,-105.51577758789062,21971465.0,40376.0,0.033302224528720004,-0.08228620724800004,0.033640563901560006,0.00872365891524143,0.000954088822312639,0.005229455521588428,21.971465302998695
1603,B,8768469483693.0,-7.955932,4.6591167,-1.6292542,17,1970-01-01 02:26:08.469483693,0.6450176,1.3137374,-0.16751283,9.362622050529463,1.4730968089990313,66.19026184082031,-15.546660423278809,-105.60799407958984,22011387.0,39922.0,-0.1380433175954,-0.11922310671030002,0.004516218168099999,-0.0020907369587039996,-0.004022327415921628,0.0007616475268924834,22.011387388000003
1603,B,8768509352337.0,-9.744401,-6.019023,2.9233203,17,1970-01-01 02:26:08.509352337,0.5448828,-0.8199873,-0.004527374,11.82065100997919,0.9845287883106648,64.67699432373047,-13.124509811401367,-105.26213836669922,22051256.0,39869.0,-0.35284728818850003,-0.41782525213735,0.025796560670449997,-0.009785658780999155,-0.01070579050944848,0.0006042700897570749,22.05125603199849
1603,B,8768547004367.0,-3.0819361,-9.868899,4.9853263,17,1970-01-01 02:26:08.547004367,0.24687503,0.525708,0.26418558,11.478108551244665,0.6380518806346684,61.78752136230469,-12.635895729064941,-104.58645629882812,22088908.0,37652.0,-0.24146862224459997,-0.6680956195719999,0.14888818089159997,-0.011188591329813539,-0.020443546330800217,0.0032886149446471526,22.088908061999973
1603,B,8768589221556.0,6.3464303,2.1499932,-2.1033063,17,1970-01-01 02:26:08.589221556,0.96592855,-0.82211787,-1.7212011,7.023072383538705,2.138090031434516,62.45668029785156,-13.801088333129883,-104.80394744873047,22131125.0,42217.0,0.0689085758207,-0.5766611230793001,0.06083511916999999,-0.003642483739938893,-0.026274947702254966,0.004426944279350282,22.131125250998593
1603,B,8768629053638.0,1.3874398,10.977415,-4.9637785,17,1970-01-01 02:26:08.629053638,-1.7254621,3.1590416,-0.6037386,12.127148315985556,3.6498306243162753,63.4915771484375,-13.649595260620117,-104.9476318359375,22170957.0,39832.0,0.1540277569116,-0.12890813828880002,-0.1407480608768,0.004440000002696487,-0.01405211740940708,-0.001591546147032629,22.170957332999023
1603,B,8768668982286.0,0.6655881,19.612701,8.48984,17,1970-01-01 02:26:08.668982286,3.5803537,-7.582286,1.3984259,21.381731250295488,8.500916927055016,63.82488250732422,-13.586394309997559,-105.28321075439453,22210885.0,39928.0,0.0409866489956,0.219406675824,0.07039429178599999,0.003893267599531341,0.0018067128033527325,-0.0014045426461287314,22.210885980999592
1603,B,8768708928535.0,-1.5316905,9.326612,-3.9803603,17,1970-01-01 02:26:08.708928535,-0.5499428,-2.326005,-2.031992,10.25548805782301,3.137152822442802,64.93506622314453,-13.11770248413086,-105.69107055664062,22250832.0,39947.0,-0.0172990962864,0.18653876820550003,0.09007009278794999,0.0004731233340372062,0.00810815132632322,0.0032050353852877897,22.250832230000015
1603,B,8768748974211.0,-8.7609825,19.612701,-4.408324,17,1970-01-01 02:26:08.748974211,1.1502193,7.30585,-3.2373388,21.928205019328036,8.073339529994879,65.755615234375,-12.023944854736328,-105.60114288330078,22290877.0,40045.0,-0.2060850451425,0.1869963945425,-0.16796243139675002,-0.00447270897176015,0.00747910779612183,-0.0015595993497946985,22.290877905999878
1603,B,8768788729264.0,2.2170308,19.448698,-4.730344,17,1970-01-01 02:26:08.788729264,3.8131142,2.4485104,-1.6735305,20.138104027482047,4.830708790185975,66.82363891601562,-11.816671371459961,-105.70645904541016,22330632.0,39755.0,-0.13007739991675002,0.3868439586225,-0.18165387316999998,-0.006682069001665242,0.011406511620037288,-0.006949498094025572,22.33063295899956
1603,B,8768828591609.0,9.901819,9.239224,0.45130703,17,1970-01-01 02:26:08.828591609,-1.532383,-4.3191147,-1.5765914,13.550385886249307,4.846502851850915,67.14576721191406,-12.665152549743652,-106.01513671875,22370495.0,39863.0,0.2415468547887,0.181135917343,-0.085287625367555,0.002221753439780271,0.011320690897806362,-0.005320544478101278,22.370495303999633
1603,B,8768868546972.0,9.628283,0.40222588,1.4520833,17,1970-01-01 02:26:08.868546972,-1.6972326,-0.53076804,-0.4596616,9.745468952121783,1.8367367795366765,66.88958740234375,-14.004817962646484,-106.00721740722656,22410450.0,39955.0,0.39016261270499997,-0.19894693502230001,0.038024980317574994,0.01261997588685539,-0.00035581960568821606,-0.0009441894914859756,22.410450666999168
1603,B,8768908458951.0,6.043564,-3.6589386,3.5901055,17,1970-01-01 02:26:08.908458951,0.8082694,-1.0154634,-2.226669,7.924730594903287,2.5773087077951913,65.1690673828125,-16.211137771606445,-105.63661193847656,22450362.0,39912.0,0.31274737873200004,-0.45612855904032007,0.1006219196928,0.014027271789116775,-0.013072686559513647,0.002766837536607044,22.45036264599912
1603,B,8768948306244.0,2.1655555,-2.7700913,3.1411927,17,1970-01-01 02:26:08.948306244,-1.7257284,-3.018427,0.014114754,4.714883669026122,3.476958339004947,62.54728317260742,-17.73774528503418,-105.02632141113281,22490209.0,39847.0,0.16355439235825,-0.5185893772126501,0.13411101968769998,0.009489598336316598,-0.01941979280293605,0.004676701717747392,22.490209939000124
1603,B,8768988234472.0,2.0087352,4.8919525,-3.8642416,17,1970-01-01 02:26:08.988234472,-2.3025692,0.30786142,3.46424,6.549700719051661,4.171038522036575,63.709774017333984,-18.129304885864258,-105.33029174804688,22530138.0,39929.0,0.08333762668015,-0.3489423020726001,-0.014435309764050004,0.004929075714092137,-0.017319836211090376,0.00238926571077071,22.530138166999677
1603,B,8769027900409.0,6.0369797,19.612701,9.98442,17,1970-01-01 02:26:09.027900409,-0.51984906,-0.56459016,7.800399,22.820863418153422,7.838062876320444,63.61751937866211,-18.421682357788086,-105.1693344116211,22569804.0,39666.0,0.1595706636117,0.09727399286550001,0.12138149820720001,0.004817600121358261,-0.004991337576504415,0.002121063755392994,22.56980410399956
1603,B,8769067780306.0,-0.8984242,19.612701,-0.14664486,17,1970-01-01 02:26:09.067780306,-1.0820423,-6.93354,0.7603325,19.633815504723252,7.05853369908691,64.33955383300781,-18.140905380249023,-105.69155883789062,22609684.0,39880.0,0.10246279667,0.39133051588,0.1961652362916,0.005224947198017097,0.00974277390438527,0.006331881885906072,22.60968400099955
1603,B,8769105610877.0,6.2303114,8.562862,-1.7058687,17,1970-01-01 02:26:09.105610877,0.42663842,1.7049558,1.070857,10.726107112725177,2.0580644634759953,65.06692504882812,-18.651927947998047,-105.81941986083984,22647514.0,37830.0,0.100852646388,0.16220677414499998,-0.035040293987399995,0.0038457116054420697,0.010470157840822876,0.003047678283683943,22.647514571999636
1603,B,8769145385463.0,-2.5330653,9.650429,-2.3481133,17,1970-01-01 02:26:09.145385463,0.29454562,3.4301515,0.216515,10.249918817617141,3.4495760870632255,65.9389877319336,-17.906339645385742,-105.93656158447266,22687289.0,39775.0,0.07352898181374999,-0.027578175237499992,-0.08062356702499998,0.0034680146308623027,0.0026774262607729056,-0.0023002650358841044,22.687289157998748
1603,B,8769187507702.0,-6.704962,-1.7226281,-3.0382419,17,1970-01-01 02:26:09.187507702,-0.18588865,0.3387541,-0.63037026,7.560084446305426,0.7393751383148476,66.97222900390625,-15.18677806854248,-106.23127746582031,22729411.0,42122.0,-0.1945620929653,-0.2458281852451,-0.11344202686720001,-0.0025490783539627946,-0.005758211358124038,-0.004087215472963624,22.72941139700015
1603,B,8769227438223.0,-7.8487916,-5.8801594,-0.24779987,17,1970-01-01 02:26:09.227438223,0.4561995,-1.9531624,-0.06711166,9.810260390285823,2.0068545835416094,66.07831573486328,-12.507370948791504,-106.09929656982422,22769341.0,39930.0,-0.290565690624,-0.5431036524375,-0.06560582393805,-0.009685576199360373,-0.01575102413933311,-0.0035746903413268164,22.769341917999554
1603,B,8769267323066.0,2.4791958,-9.920973,9.381081,17,1970-01-01 02:26:09.267323066,0.91346425,1.0021476,0.35260254,13.877204250497563,1.4010871848062396,63.280128479003906,-13.266000747680664,-105.41352081298828,22809226.0,39885.0,-0.10708316424150001,-0.705987082887,0.18214045893502498,-0.007930112288155234,-0.02490999198920884,0.002323991958427173,22.80922676099908
1603,B,8769307221137.0,1.7806876,4.5483847,-13.743915,17,1970-01-01 02:26:09.307221137,-0.057790596,-0.26818034,-2.0426445,14.586084163860184,2.060984473771892,66.2032241821289,-13.601181030273438,-106.1497573852539,22849124.0,39898.0,0.0849804139466,-0.49817816399670006,-0.087034175466,-0.0004409277656329604,-0.024021892510082934,0.0018972752489235796,22.84912483199878
1603,B,8769347174315.0,-1.4969746,6.619369,1.1210849,17,1970-01-01 02:26:09.347174315,-1.3872406,3.4096453,-1.4703313,6.878503490165151,3.9638354766387747,66.45569610595703,-12.84350872039795,-106.10104370117188,22889078.0,39954.0,0.005667734601000002,-0.16845098433510006,-0.2521662769077,0.0018108780635354054,-0.013317250496224372,-0.006776207437069405,22.88907800999914
1603,B,8769385248171.0,-2.8808231,19.612701,-14.948797,17,1970-01-01 02:26:09.385248171,0.9406285,-5.742308,-0.12703279,24.827881786332554,5.820225122073152,67.83614349365234,-12.62982177734375,-106.654052734375,22927151.0,38073.0,-0.08333794591605001,0.12625140055499998,-0.26323124139165005,-0.0014785689776989496,-0.0008033323766298752,-0.009811364857105577,22.927151865998894
1603,B,8769426916555.0,-0.65900403,15.111603,-5.2157683,17,1970-01-01 02:26:09.426916555,-0.31025827,-1.2410331,-2.1622205,15.999970953112701,2.5122939398126274,68.80708312988281,-12.257554054260254,-106.96253967285156,22968820.0,41669.0,-0.073750528339985,0.31510731168799994,-0.42011863574284997,-0.003272859816887361,0.009195488090226783,-0.01423725301515874,22.968820250000135
1603,B,8769466886295.0,-2.2786815,19.612701,-4.8578353,17,1970-01-01 02:26:09.466886295,3.1766186,6.2658854,-1.5877767,20.33344519986147,7.202309381362482,69.74576568603516,-11.666971206665039,-106.86600494384766,23008789.0,39969.0,-0.05870817647428499,0.30225165328799997,-0.20131593114419996,-0.002647120986360778,0.012337610235562868,-0.012419059101954249,23.00878998999906
1603,B,8769506742077.0,-1.4263457,9.200917,19.612701,17,1970-01-01 02:26:09.506742077,3.9835565,-0.36325517,-1.7182716,21.710582125134245,4.353519725301648,68.93067932128906,-11.293645858764648,-106.70930480957031,23048645.0,39856.0,-0.0738337820416,0.18360897950400001,0.2940349636696,-0.002641296149304556,0.009682230690278976,0.0018477048801661725,23.048645771999873
1603,B,8769544864473.0,7.4244194,7.032369,-3.7343562,17,1970-01-01 02:26:09.544864473,-3.653058,-3.8272288,-0.7552725,10.886764138518654,5.344431643137527,69.59686279296875,-12.148581504821777,-107.06883239746094,23086768.0,38123.0,0.11433228183255,-0.06417461891100001,0.3026650694052,0.0007719621537651932,0.002276598064443469,0.0113739976804553,23.086768167999253
1603,B,8769586585619.0,10.008362,-3.0819361,0.55126494,17,1970-01-01 02:26:09.586585619,-0.6348976,-0.025300032,-0.937699,10.486635927770182,1.1327022859983822,69.11901092529297,-14.935705184936523,-106.98072814941406,23128489.0,41721.0,0.3636565363947,-0.32645779448955003,-0.06640087522923001,0.00997108574262955,-0.008148787459742174,0.0049285892226078225,23.128489314000035
1603,B,8769624355616.0,4.6040497,-3.9612067,6.1626754,17,1970-01-01 02:26:09.624355616,0.0479369,-2.1222732,-2.1694112,8.652571886205866,3.035240754290389,66.68449401855469,-16.46337127685547,-106.45433044433594,23166259.0,37770.0,0.27595539495449994,-0.503155751778,0.1267927633209,0.012079071323529639,-0.015667251821262683,0.0011405008066111878,23.16625931099952
1603,B,8769664224577.0,2.724003,-3.228581,-0.31244332,17,1970-01-01 02:26:09.664224577,-1.7741979,-1.8730012,1.1345067,4.235746503956844,2.818335880605919,65.78666687011719,-19.306262969970703,-106.26461791992188,23206128.0,39869.0,0.14608106654815,-0.53404102290565,0.11662145139876001,0.008413085841824576,-0.02067599910493122,0.004852340663329063,23.20612827199875
1603,B,8769703904785.0,4.405331,7.921815,-7.119757,17,1970-01-01 02:26:09.703904785,-2.6844664,0.33129725,3.636813,11.526189042907243,4.5323864042638204,66.90709686279297,-19.80203628540039,-106.59937286376953,23245808.0,39680.0,0.14144598656000001,-0.29575023744,-0.14745485434879999,0.005704536733665696,-0.016463058605257697,-0.0006117347145287931,23.24580848000005
1603,B,8769744930202.0,19.612701,19.612701,5.298967,17,1970-01-01 02:26:09.744930202,0.118776985,-4.2176485,6.842726,28.238185711867025,8.039002795919027,67.08811950683594,-20.78956413269043,-106.7164077758789,23286833.0,41025.0,0.4926698814,0.16275675944999995,-0.03734895487499999,0.013007301741529502,-0.002728028717269876,-0.0037907881367031967,23.28683389700018
1603,B,8769785734680.0,-0.7930793,16.365566,1.7411832,17,1970-01-01 02:26:09.785734680,0.2561961,-3.0027142,1.3044163,16.477027772398966,3.2838134679428035,67.58528900146484,-20.35647201538086,-106.99211883544922,23327638.0,40805.0,0.3839673317342501,0.33415759246750004,0.1436366644555,0.017885590740971537,0.010138295064996795,0.002168534994716151,23.32763837499988
1603,B,8769825229315.0,3.6613328,7.769783,1.0803835,17,1970-01-01 02:26:09.825229315,1.1249193,4.117247,0.655404,8.656911357205704,4.318184884154162,67.91291046142578,-20.439367294311523,-106.89659881591797,23367133.0,39495.0,0.05664083599125,0.08956180437750001,0.055718888408250004,0.008700909792159312,0.008367398789196638,0.003936773780176903,23.367133009998724
1603,B,8769863951607.0,-5.5096564,7.587225,-1.3263878,17,1970-01-01 02:26:09.863951607,0.7890946,2.4250746,-0.07057377,9.470037034915691,2.5512031985567774,68.56625366210938,-19.26408576965332,-107.00066375732422,23405855.0,38722.0,-0.035785393219600004,-0.08214856811200001,-0.004762889252300001,0.00040378222750191557,0.0001435276673363455,0.0009865590996583481,23.4058553019986
1603,B,8769905309368.0,-8.351574,-3.9606082,1.9357121,17,1970-01-01 02:26:09.905309368,0.63223445,-0.12756541,-0.022903185,9.443632083338997,0.6453819717643303,67.32649993896484,-16.669897079467773,-106.61369323730469,23447213.0,41358.0,-0.2866363834416,-0.3303135911928,0.012600217199699998,-0.006667359919576954,-0.00852930499226396,0.00016206810462428452,23.447213063000163
1603,B,8769945046973.0,-5.783194,-8.366538,1.4036007,17,1970-01-01 02:26:09.945046973,0.36112466,-0.5302354,0.7107977,10.267150815689837,0.9574935873407014,64.99893951416016,-14.95281982421875,-105.9844741821289,23486950.0,39737.0,-0.280836638008,-0.6343445042747,0.06634713636680001,-0.011274837726671379,-0.019166309369796027,0.0015685654943360056,23.486950667998826
1603,B,8769984987701.0,5.137358,-1.6585833,5.2941785,17,1970-01-01 02:26:09.984987701,0.6066681,-0.314253,-0.7366304,7.5611951286198895,1.004701685959952,63.95484161376953,-15.828193664550781,-105.72834014892578,23526891.0,39941.0,-0.012897667838,-0.59162848492165,0.13375799951359998,-0.005866020954897543,-0.024483293580745705,0.003996199616099528,23.526891395998973
1603,B,8770024850460.0,0.25438392,4.0898952,-9.627085,17,1970-01-01 02:26:10.024850460,-0.9712549,1.0242518,-1.4556838,10.462921175415715,2.0276693902507112,66.87738037109375,-15.829134941101074,-106.52538299560547,23566754.0,39863.0,0.10746550407847999,-0.34219770686515005,-0.08636132590474999,0.0018848788280271269,-0.018612556741598608,0.0009446868000347938,23.566754154999217
1603,B,8770066759161.0,0.40342298,19.612701,8.883087,17,1970-01-01 02:26:10.066759161,-0.5110606,-0.50786483,1.1227888,21.534391685528572,1.3340780756120418,66.81993865966797,-15.525997161865234,-106.51808166503906,23608662.0,41908.0,0.013783685782599999,0.08596580077480001,-0.01558973409199999,0.0025406555243490704,-0.005369083360217196,-0.002136282511171899,23.608662855998773
1603,B,8770105178537.0,-1.9285295,13.226169,-3.2453403,17,1970-01-01 02:26:10.105178537,-0.11851067,-3.365703,-1.2410331,13.75438134238452,3.5891732499850795,67.7459487915039,-15.035104751586914,-106.9363021850586,23647082.0,38420.0,-0.0292972962492,0.25431869270000007,0.108301114107,-0.00029801645706338607,0.006536865119650909,0.0017809856100881503,23.647082231998866
1603,B,8770145932128.0,-2.1703439,18.380287,-5.5982423,17,1970-01-01 02:26:10.145932128,0.66392606,3.6597161,-2.3094933,19.336123181655246,4.378136481254464,68.67481231689453,-14.416672706604004,-107.04249572753906,23687835.0,40753.0,-0.08352069383510001,0.2446495506839999,-0.18020126084889998,-0.002298835774952739,0.010167226411314075,-0.0014650733400863249,23.68783582299875
1603,B,8770185141659.0,0.9923966,19.612701,-1.8764555,17,1970-01-01 02:26:10.185141659,3.5950012,3.995807,-1.7062874,19.72723946147998,5.639319453679602,69.47970581054688,-14.016375541687012,-107.04521179199219,23727045.0,39210.0,-0.023093656816500007,0.36059452974,-0.146541450369,-0.0020901743445246187,0.011865810196712519,-0.00640579085342693,23.72704535399862
1603,B,8770224995514.0,6.9425864,7.0515227,7.772177,17,1970-01-01 02:26:10.224995514,-0.48496163,-3.7460024,-1.4815166,12.582933427043521,4.057414595460215,68.9414291381836,-14.522554397583008,-107.11378479003906,23766899.0,39854.0,0.158120406241,0.1407687856699,0.11748404233050001,0.002690678035782011,0.009990666786173077,-0.000579026969983189,23.766899209000258
1603,B,8770264916190.0,9.612122,2.7168205,-1.7004818,17,1970-01-01 02:26:10.264916190,-1.9449066,0.406931,-0.77258307,10.132405505319824,2.131933188806625,69.21891021728516,-15.726143836975098,-107.20564270019531,23806819.0,39920.0,0.33043197966399995,-0.196239869728,0.121191036192,0.009751505622663798,-0.001107202837799676,0.0047639545673091,23.80681988499964
1603,B,8770305648117.0,6.9569516,-4.6860514,3.6493618,17,1970-01-01 02:26:10.305648117,0.59148806,-1.6040219,-2.4652882,9.147463847181019,3.000065047605037,67.60263061523438,-18.010160446166992,-106.84278106689453,23847551.0,40732.0,0.3374457529376,-0.43927895650939996,0.03969089008,0.013601997902164183,-0.012942976415150888,0.0032765213104555516,23.847551811999438
1603,B,8770344946869.0,3.6876693,-5.221754,3.09271,17,1970-01-01 02:26:10.344946869,-1.3422332,-2.54758,-0.19068234,7.10144174423606,2.8858471155572527,65.37409210205078,-20.018449783325195,-106.25271606445312,23886850.0,39299.0,0.20916147837455,-0.5798136222073,0.13247833983409998,0.010740558791668091,-0.020024659625493796,0.003383039283197108,23.88685056400027
1603,B,8770382878482.0,0.4842273,2.4947581,1.8064252,17,1970-01-01 02:26:10.382878482,-2.2327943,-0.36112466,2.6913908,3.1179265640447564,3.5155889754772596,64.95375061035156,-19.881803512573242,-106.1102523803711,23924782.0,37932.0,0.07912419091560001,-0.4234538042394,0.0929169982032,0.005467626003756985,-0.019027970009988113,0.004274847981215432,23.924782176998633
1603,B,8770424146815.0,2.6749218,19.612701,4.122815,17,1970-01-01 02:26:10.424146815,-2.410427,2.1062942,5.323659,20.21907145928668,6.211922305338633,65.10212707519531,-19.78656578063965,-106.0058822631836,23966050.0,41268.0,0.0651858825294,0.051738911069400005,0.12234394228680001,0.00297769405546413,-0.00766996510566978,0.00444169424607066,23.96605051000006
1603,B,8770464631086.0,7.728483,19.612701,3.6409822,17,1970-01-01 02:26:10.464631086,-1.3073457,-5.9982376,1.5587482,21.392621189966576,6.333853727105283,65.47651672363281,-20.031330108642578,-106.38060760498047,24006534.0,40484.0,0.2105857199616,0.397257387284,0.15715478292239998,0.005582168777622821,0.009088583071269522,0.005657613195684626,24.006534780999573
1603,B,8770504584680.0,5.8424506,9.31105,-2.35769,17,1970-01-01 02:26:10.504584680,0.5763081,0.09081379,1.0396981,11.242267709498842,1.1922039715264263,66.31305694580078,-20.447362899780273,-106.635986328125,24046488.0,39954.0,0.2711065405272,0.18626057372699997,0.025636328279400003,0.009622766287784757,0.011656938307116747,0.0036516180284783583,24.04648837499917
1603,B,8770544461816.0,3.2860417,10.9834,-1.2707225,17,1970-01-01 02:26:10.544461816,1.2343752,3.755057,0.23222765,11.534638324895372,3.959553622448945,67.04765319824219,-20.350309371948242,-106.70500946044922,24086365.0,39877.0,0.18200844372355005,0.013846291324999961,-0.07234510263124999,0.00903443311348358,0.003989830728839301,-0.0009313028974143611,24.086365510998803
1603,B,8770581971868.0,-7.429208,4.911705,-1.8776526,17,1970-01-01 02:26:10.581971868,0.32623723,1.0910971,-0.21571605,9.10184359350213,1.159075936293255,67.65403747558594,-19.014738082885742,-106.86041259765625,24123875.0,37510.0,-0.0777050839565,-0.06948530572500003,-0.0590477750005,0.001956209512431024,-0.0010435097150720014,-0.0024642734199834715,24.123875563000183
1603,B,8770624300199.0,-9.894637,-5.379771,1.6980876,17,1970-01-01 02:26:10.624300199,0.6396913,-1.1986889,-0.05752428,11.389876156986244,1.3599151006840164,66.46707153320312,-16.424766540527344,-106.54207611083984,24166203.0,42328.0,-0.36664185557999995,-0.424720548824,-0.003800313659999999,-0.009404158628350484,-0.010459372705675036,-0.001330116948410822,24.16620389399941
1603,B,8770663635881.0,-2.2182279,-9.648034,5.4940944,17,1970-01-01 02:26:10.663635881,0.6279734,-0.31132352,0.71798825,11.322109713194171,1.0033842994340767,63.51435089111328,-16.36353874206543,-105.69957733154297,24205539.0,39336.0,-0.23823582685320002,-0.6810596687400001,0.141455835576,-0.011896734258096177,-0.021748485319048758,0.002707408805043888,24.205539575999865
1603,B,8770704073115.0,1.6418238,2.9586349,-8.017583,17,1970-01-01 02:26:10.704073115,0.63383234,-1.8165423,-1.4972292,8.702341238059644,2.4378811784522654,66.50663757324219,-16.918441772460938,-106.65779113769531,24245976.0,40437.0,-0.01165402629585,-0.5315322157033501,-0.051021154259100004,-0.005052397995894068,-0.02451678901561788,0.0018284536042057426,24.245976809999775
1603,B,8770743025675.0,-2.2463598,19.612701,0.8026561,17,1970-01-01 02:26:10.743025675,-0.86392945,3.178749,-0.8319715,19.75723740003456,3.3974984733463165,66.95994567871094,-16.27481460571289,-106.67625427246094,24284929.0,38953.0,-0.011774245404,0.057871223656349995,-0.14052152376785002,-0.0004563007337621285,-0.009225258311603398,-0.0037305809685918923,24.2849293700001
1603,B,8770782921605.0,0.49320555,19.612701,-5.48332,17,1970-01-01 02:26:10.782921605,0.9715212,-4.694088,-1.0106697,20.37076558336362,4.898955892462345,68.00749206542969,-16.035663604736328,-107.18042755126953,24324825.0,39896.0,-0.034971920979,0.39148751909600005,-0.0933698834772,-0.000932492527008084,0.008963808200423879,-0.0046656657917242585,24.324825300000157
1603,B,8770822837079.0,-1.1905168,14.2383175,-5.270835,17,1970-01-01 02:26:10.822837079,-0.27164245,0.48842376,-2.510562,15.229206055442074,2.5720165135197988,68.99827575683594,-15.508312225341797,-107.47691345214844,24364740.0,39915.0,-0.013916589271874998,0.28441470171375,-0.21462604841250002,-0.0009756924433318377,0.013489318571810587,-0.006146828810688688,24.364740773999074
1603,B,8770865416244.0,-1.2910733,19.612701,-3.0825348,17,1970-01-01 02:26:10.865416244,2.5031052,4.245079,-1.839179,19.89539975910474,5.260115089287404,69.81651306152344,-14.925474166870117,-107.49903869628906,24407319.0,42579.0,-0.05283181243395,0.30339705835575,-0.17783906635709998,-0.0014210400981161612,0.01251421846599962,-0.008355386060887399,24.407319938998626
1603,B,8770903582492.0,5.792771,13.297995,19.612701,17,1970-01-01 02:26:10.903582492,2.5166874,-4.6299057,-1.798699,24.393665312819785,5.568218777384043,69.16865539550781,-14.95871639251709,-107.53951263427734,24445486.0,38167.0,0.08590814805795001,0.254014667116,0.3154534266777,0.0006312122508806042,0.01063736666304014,0.0026261636451781704,24.445486186999915
1603,B,8770943615669.0,10.970831,4.268862,0.50158525,17,1970-01-01 02:26:10.943615669,-2.788596,0.6021407,-1.2088089,11.782779950785068,3.0983963643361867,69.15972900390625,-16.049184799194336,-107.56669616699219,24485519.0,40033.0,0.33554863943299995,-0.04069640685950002,0.4026176107231251,0.0084360897868126,0.004269884956424232,0.014373268920133613,24.48551936399963
1603,B,8770983402857.0,6.1926026,-5.4234653,3.3201592,17,1970-01-01 02:26:10.983402857,1.0399644,-0.6985472,-1.8730012,8.876134290059804,2.2533591899865053,67.476318359375,-18.296545028686523,-107.11853790283203,24525306.0,39787.0,0.34144076632160003,-0.41288170074855,0.076027873216075,0.013467688743379136,-0.009023256083700745,0.009521933934744478,24.525306551999165
1603,B,8771023305669.0,4.4161053,-4.2425256,4.1611223,17,1970-01-01 02:26:11.023305669,-0.34115094,-1.5243934,-0.8165252,7.4037793242978776,1.7626322940595078,65.2215347290039,-20.192333221435547,-106.46222686767578,24565209.0,39903.0,0.21165963566684998,-0.58390041744135,0.14926278784725,0.01103518267027256,-0.019887298431065792,0.004494886624204929,24.56520936400011
1603,B,8771063339732.0,1.6831238,0.480636,-0.7733272,17,1970-01-01 02:26:11.063339732,-1.7241305,-0.8633968,2.0072246,1.9136226505981475,2.7833488121551797,65.8604736328125,-21.45359992980957,-106.71644592285156,24605243.0,40034.0,0.1220882688947,-0.4676349441232,0.0678134945167,0.006680631805608545,-0.021048583332437597,0.004345215944079187,24.60524342699864
1603,B,8771103158846.0,1.0043676,16.079458,5.9603653,17,1970-01-01 02:26:11.103158846,-1.8301244,2.459163,5.256814,17.177999835811438,6.085304545430768,65.7850112915039,-21.199148178100586,-106.51799011230469,24645062.0,39819.0,0.0535066100283,-0.06052300850700004,0.10327133505195,0.0034960062419174685,-0.010515360757890968,0.0034062134142970376,24.64506254099979
1603,B,8771143011035.0,19.39902,19.612701,4.894945,17,1970-01-01 02:26:11.143011035,-2.791792,-3.9718385,2.2136195,28.01678968098997,5.3357019155989684,65.89618682861328,-21.938215255737305,-106.73588562011719,24684914.0,39852.0,0.40655790131759995,0.32065236023399996,0.21630291303779997,0.009167245453078402,0.0051833374625122,0.006367836467436358,24.684914729999946
1603,B,8771181196450.0,2.5246856,15.164275,-2.1392193,17,1970-01-01 02:26:11.181196450,0.4878911,-2.0173445,1.592304,15.52113181659008,2.6159412427566986,66.75419616699219,-21.818523406982422,-107.10174560546875,24723100.0,38186.0,0.4185893110208,0.28977400276799997,0.05261507079009999,0.015754535725177068,0.011654870548797184,0.005134451065226094,24.72310014499999
1603,B,8771222873635.0,6.803124,9.449914,2.753332,17,1970-01-01 02:26:11.222873635,0.7707188,3.4173684,0.5704491,11.96512464912071,3.5493416890576777,66.87989044189453,-22.098827362060547,-106.97821807861328,24764777.0,41677.0,0.1943775603496,0.10448817747649997,0.012797187498949994,0.01277331014905208,0.008215832443025012,0.001363093344356368,24.76477732999956
1603,B,8771262747859.0,-4.3885717,5.853823,-2.5270798,17,1970-01-01 02:26:11.262747859,0.20959078,2.2556975,-0.08735169,7.740344798323775,2.2670972242744942,67.76636505126953,-20.9907283782959,-107.205322265625,24804651.0,39874.0,0.04813892920510001,-0.08565459543100003,0.004510790111399996,0.004835051252252054,0.0003754851252411323,0.0003450691496175477,24.804651553999065
1603,B,8771301909783.0,-9.15842,-4.462792,-0.9947908,17,1970-01-01 02:26:11.301909783,0.18455707,-0.06524745,-0.6660566,10.236345933360626,0.6942261419898039,67.44956970214844,-18.114089965820312,-107.11054229736328,24843813.0,39162.0,-0.2652636444777,-0.3565498219890001,-0.0689617482186,-0.0042515190497527805,-0.008658804697501023,-0.0012620142106970834,24.843813477998992
1603,B,8771341743480.0,-7.1622543,-6.3548098,1.6430209,17,1970-01-01 02:26:11.341743480,0.8165252,-1.9156119,0.56432384,9.714989033955794,2.1574855156058397,65.70675659179688,-15.893747329711914,-106.66184997558594,24883647.0,39834.0,-0.3250588700331,-0.6058273750506001,0.0129107989017,-0.011757453521511604,-0.01916766663343772,-0.0011163667575446975,24.88364717500008
1603,B,8771380386400.0,5.451597,-0.7386112,6.775591,17,1970-01-01 02:26:11.380386400,1.3235911,0.3520699,-0.46525425,8.727776907921939,1.4464812932175384,64.66142272949219,-16.62799835205078,-106.34477996826172,24922290.0,38643.0,-0.03305246502195,-0.5157569338515,0.16266020982585,-0.006919248160266148,-0.021670691224451928,0.003392295245129357,24.92229009499897
1603,B,8771421759573.0,0.415394,5.0254292,-14.741698,17,1970-01-01 02:26:11.421759573,-1.551025,1.9134812,-1.8013622,15.580280830031679,3.0515560995936615,67.55419158935547,-16.65319061279297,-107.14961242675781,24963663.0,41373.0,0.12136750932149999,-0.31677613944300004,-0.16479087245549998,0.001826929163902641,-0.017222195420706674,-4.407595248825424e-05,24.963663267999436
1603,B,8771461455882.0,-0.81283146,19.612701,19.612701,17,1970-01-01 02:26:11.461455882,0.85301054,-3.7694383,1.3536848,27.748455380672414,4.094966986021868,67.06840515136719,-16.368539810180664,-107.14146423339844,25003359.0,39696.0,-0.00788833870608,0.0999968082096,0.09667966754400004,0.002252334578374856,-0.0043026361663205245,-0.0013518711950834508,25.003359577000083
1603,B,8771502307127.0,2.343325,15.433622,-9.40203,17,1970-01-01 02:26:11.502307127,0.16831179,-3.5428033,-2.0647488,18.223227711231864,4.104018967822315,68.33778381347656,-16.279653549194336,-107.69100189208984,25044210.0,40851.0,0.031261095801270004,0.3154988704365,0.20855806051050002,0.0004774002500478034,0.008486706984185915,0.00623463321437719,25.044210821999513
1603,B,8771542056033.0,-6.000468,19.612701,-3.7816415,17,1970-01-01 02:26:11.542056033,1.30415,6.752445,-2.4248083,20.85580181074195,7.2921886969738985,69.09265899658203,-15.323166847229004,-107.62005615234375,25083959.0,39749.0,-0.0726838885535,0.30698794646349997,-0.26201887922675,-0.000823257294554195,0.012371614242479049,-0.00106250704157611,25.083959727999172
1603,B,8771579705409.0,2.814384,18.150444,3.8624458,17,1970-01-01 02:26:11.579705409,4.077566,2.0141487,-1.3536848,18.76906663248148,4.745081875776089,69.50416564941406,-15.061445236206055,-107.60657501220703,25121609.0,37650.0,-0.0599780313,0.34192120462500003,0.001521140947500001,-0.002497360641242138,0.012215714769241014,-0.004903869923106882,25.121609103998708
1603,B,8771621914991.0,9.96347,11.217434,-4.907515,17,1970-01-01 02:26:11.621914991,-3.0149648,-1.8620822,-1.3904364,15.785603043928383,3.806662087346451,70.1873550415039,-15.692831993103027,-107.93463897705078,25163818.0,42209.0,0.26967021974300004,0.206146181251,-0.0220556629314,0.004425448790995295,0.011566688145220043,-0.00043337081920921753,25.163818686000013
1603,B,8771659541191.0,8.59279,-3.425504,5.5946507,17,1970-01-01 02:26:11.659541191,-0.76459354,-0.35553202,-0.89988214,10.810653731071332,1.2332048347886055,69.26927947998047,-16.7984676361084,-107.71890258789062,25201444.0,37626.0,0.34909891938000004,-0.22214522091000002,0.012927083924099997,0.011640903814321,-0.00030098993310476727,-0.00017173595686433493,25.20144488599908
1603,B,8771701793534.0,5.7359085,-6.9461775,4.6621094,17,1970-01-01 02:26:11.701793534,1.1696603,-1.3105416,-2.6397252,10.143238745067912,3.170768618843338,67.2360610961914,-18.72548484802246,-107.18497467041016,25243697.0,42253.0,0.30271524886025003,-0.63319672920975,0.21668944225265002,0.013770552025327643,-0.0180703817092049,0.004850993540273109,25.243697228999736
1603,B,8771741576659.0,2.9215245,-3.0747535,1.5580268,17,1970-01-01 02:26:11.741576659,-1.6993631,-2.2490396,0.10439592,4.518502185390722,2.8207999886773996,65.34041595458984,-21.052934646606445,-106.66346740722656,25283480.0,39783.0,0.1722093285195,-0.5892047489865,0.1237278392223,0.009446962230949298,-0.024315399003540707,0.0067714103544589685,25.28348035399904
1603,B,8771781527649.0,1.6238673,4.8177323,-0.3309984,17,1970-01-01 02:26:11.781527649,-2.3446472,0.6580671,2.9968553,5.094806126171549,3.86154949336511,65.88416290283203,-21.172529220581055,-106.81519317626953,25323431.0,39951.0,0.0907964739009,-0.3567029269806,0.0245105058042,0.0052536724062487005,-0.018894978781280807,0.002961135061076851,25.32343134399889
1603,B,8771821386503.0,2.7072437,19.612701,16.809092,17,1970-01-01 02:26:11.821386503,-1.9086876,1.5962988,5.997439,25.971768958448994,6.493114258350626,65.28024291992188,-21.057662963867188,-106.4499282836914,25363290.0,39859.0,0.0863168766745,0.09626812045234998,0.3284001664012,0.0035297805202924343,-0.005190335476704759,0.007033333241717519,25.36329019799996
1603,B,8771861346503.0,2.291251,19.612701,1.3497312,17,1970-01-01 02:26:11.861346503,-0.7187872,-5.8815913,0.90920323,19.79216122541082,5.994699473081362,65.8797836303711,-20.896493911743164,-106.90901947021484,25403250.0,39960.0,0.09986992410600001,0.39211553196000004,0.362813287536,0.0037200122795943906,0.009757905375198755,0.013810444809665257,25.403250198000023
1603,B,8771901195825.0,5.46297,7.837419,-0.14903906,17,1970-01-01 02:26:11.901195825,0.075101145,1.759018,1.0769824,9.5546528165008,2.0638981554849236,66.38125610351562,-21.295244216918945,-106.99263000488281,25443099.0,39849.0,0.15449897631450002,0.15640971594000003,0.02392319054343,0.005068173156428254,0.010929091301783551,0.007705530957493604,25.443099520000032
1603,B,8771941143221.0,0.044891283,10.777499,-2.3714569,17,1970-01-01 02:26:11.941143221,0.82398206,4.2205777,0.1635181,11.03541153518291,4.303366208675104,67.24805450439453,-20.8021183013916,-107.10578918457031,25483046.0,39947.0,0.11001126733600051,-0.019675535327000043,-0.050343126057060004,0.005283195351553273,0.002731060156473756,-0.000527698581981489,25.483046915998784
1603,B,8771980998116.0,-6.977901,1.2389994,-3.1920695,17,1970-01-01 02:26:11.980998116,0.25859293,0.30146983,-0.41998053,7.7727427316122855,0.5780467173380494,68.66514587402344,-18.23790740966797,-107.56942749023438,25522901.0,39855.0,-0.1381575511355175,-0.15112022813400003,-0.11086717233600002,-0.0005608850704148748,-0.0034035325763690787,-0.003212518221227704,25.52290181099852
1603,B,8772021012283.0,-8.154053,-6.619369,-1.1324574,17,1970-01-01 02:26:12.021012283,0.5608617,-0.8066715,-0.11345066,10.563478879980059,0.9890175972618361,68.01702880859375,-15.46004867553711,-107.4103775024414,25562915.0,40014.0,-0.302745003678,-0.4997822545872,-0.0865208096883,-0.008821137414154044,-0.013022605971803049,-0.00394914135636017,25.562915978000092
1603,B,8772060810252.0,-0.22924481,-8.292317,11.835137,17,1970-01-01 02:26:12.060810252,0.8375642,-0.5581986,0.30306774,14.45287314758453,1.0511657914869126,65.0938720703125,-15.597197532653809,-106.63595581054688,25602713.0,39798.0,-0.16681924312119,-0.686748039714,0.2129726213604,-0.009343858947057082,-0.023610766326299576,0.0025162646004631174,25.602713946998847
1603,B,8772100768742.0,1.1587936,5.954978,-15.148114,17,1970-01-01 02:26:12.100768742,0.25992453,-0.928378,-1.6253272,16.31777936316339,1.8897446862577922,68.0938491821289,-15.763141632080078,-107.51693725585938,25642672.0,39959.0,0.018571920049805003,-0.43829706455050005,-0.06619162397150001,-0.0029619073913047366,-0.022477838660652578,0.0029326109373315275,25.64267243699942
1603,B,8772140605877.0,-2.6683378,19.612701,4.6579194,17,1970-01-01 02:26:12.140605877,-1.9310582,-0.37603834,0.4564658,20.334066987870536,2.0195919467820316,68.21858978271484,-15.228885650634766,-107.5850830078125,25682509.0,39837.0,-0.030067856147700002,0.1188672141615,-0.20894894114009996,-0.00022898180316592153,-0.006362563474973298,-0.005480387346175403,25.682509571999617
1603,B,8772180640043.0,2.5396495,12.181698,-7.9631147,17,1970-01-01 02:26:12.180640043,0.691623,-6.4933195,-0.14460965,14.773448530096497,6.531650056002876,69.53437805175781,-15.360404968261719,-108.21659851074219,25722543.0,40034.0,-0.0025759537011000064,0.24409528478300002,-0.0661600943201,-0.0006534311417434297,0.007265420341372057,-0.005506857562806822,25.72254373800024
1603,B,8772220422857.0,-3.606865,18.136677,-10.210671,17,1970-01-01 02:26:12.220422857,-0.4135889,4.6104646,-3.5752938,21.123596521444803,5.848945662457022,70.58747863769531,-14.63424301147461,-108.34661102294922,25762326.0,39783.0,-0.021228517118250002,0.21320455631249996,-0.36150385825155,-0.0004735066313031007,0.009096379789151138,-0.008506877512578975,25.76232655199965
1603,B,8772260346034.0,-3.0358477,19.612701,-0.9660604,17,1970-01-01 02:26:12.260346034,3.8991342,5.610748,-1.9249328,19.86976810306161,7.098528503403327,71.2748031616211,-13.908034324645996,-108.24172973632812,25802249.0,39923.0,-0.13259850956105002,0.362288808947,-0.2231043238411,-0.0030706181930588473,0.01148771081062751,-0.011669656226842432,25.802249728998504
1603,B,8772300333584.0,6.9383965,13.661914,9.844957,17,1970-01-01 02:26:12.300333584,2.172607,-4.147341,-1.3507553,18.21297390506167,4.872904516528934,71.0374984741211,-14.136248588562012,-108.36981201171875,25842237.0,39988.0,0.07802756070719999,0.27341025231,0.17752465862040004,-0.0010910915513838776,0.012710167030772457,-0.0009113198264226748,25.842237278999164
1603,B,8772340132907.0,9.96347,4.5220485,1.1695676,17,1970-01-01 02:26:12.340132907,-2.9617014,0.66179556,-1.0663297,11.003978619036934,3.216629847386821,70.93440246582031,-15.184672355651855,-108.3663330078125,25882036.0,39799.0,0.33633869241674996,-0.028178438231250033,0.21918353227770004,0.008245681254040042,0.004879990484260085,0.007894294644776742,25.88203660199906
1603,B,8772378841712.0,7.267599,-5.858013,0.42437226,17,1970-01-01 02:26:12.378841712,1.303351,-0.8857674,-2.337989,9.344217642372607,2.8194858184117115,70.22728729248047,-17.849838256835938,-108.22541046142578,25920745.0,38709.0,0.3334987249605,-0.40520512491525,0.03084990902037,0.012964368294627984,-0.008387922172918935,0.004839272239603496,25.92074540700014
1603,B,8772419940356.0,4.5681367,-3.9851487,4.1102457,17,1970-01-01 02:26:12.419940356,-0.680704,-2.2644858,-1.4037522,7.3241656716220636,2.749868017382376,68.05543518066406,-19.80885887145996,-107.65872955322266,25961844.0,41099.0,0.24321845076714999,-0.60504225135415,0.09318413176902,0.01185124960261534,-0.020760078458648034,0.0025488375212015697,25.96184405099848
1603,B,8772457619835.0,2.0853498,0.17357962,2.8173769,17,1970-01-01 02:26:12.457619835,-1.6442357,-0.39601207,2.2522354,3.5094766375476834,2.816540589757821,66.85356903076172,-20.549556732177734,-107.2496566772461,25999523.0,37679.0,0.12534835891674997,-0.44106225568265994,0.1305129459727,0.006943614411039833,-0.019708085860319982,0.004214341096115133,25.99952352999935
1603,B,8772499795357.0,2.6940753,14.155119,-2.2421699,17,1970-01-01 02:26:12.499795357,-2.4551682,3.0423954,4.4474792,14.582618471546771,5.921494059328696,67.44550323486328,-20.523462295532227,-107.28758239746094,26041699.0,42176.0,0.1007885165088,-0.11116120350144004,0.012129965216000004,0.004768774428973998,-0.0116452883072743,0.0030080537111473057,26.041699051998876
1603,B,8772539641711.0,19.612701,19.612701,-1.2240356,17,1970-01-01 02:26:12.539641711,-1.5342472,-3.3316145,5.262939,27.763543437048334,6.414989989473023,67.86856079101562,-21.458093643188477,-107.51556396484375,26081545.0,39846.0,0.4444179042249001,0.28226547786,-0.0690572121765,0.010862147520277506,0.00340891045804559,-0.0011341615411940415,26.08154540599935
1603,B,8772577313430.0,-2.5312698,14.525023,-0.7386112,17,1970-01-01 02:26:12.577313430,-0.23462449,-1.6578178,1.4346449,14.76242413886305,2.204906913772237,68.51529693603516,-20.85799217224121,-107.79962158203125,26119217.0,37672.0,0.3217458380832,0.273832569264,-0.036968415124799994,0.014431460250115371,0.010474662815627664,-0.0019970987158472865,26.119217124998613
1603,B,8772619422909.0,3.5368345,9.330803,-0.24720132,17,1970-01-01 02:26:12.619422909,1.0285128,3.188603,0.6332997,9.981692812234256,3.409706172295925,69.06591033935547,-20.864219665527344,-107.82791137695312,26161326.0,42109.0,0.02117166197615,0.08960428851699995,-0.020755789702340002,0.007219956504999585,0.007651981322150064,-0.001215354270533019,26.161326603998532
1603,B,8772659379886.0,-6.2728086,4.5603557,-3.1112652,17,1970-01-01 02:26:12.659379886,0.3368899,1.2873721,-0.2412824,8.356132059002388,1.3524196557023933,69.8874740600586,-19.63153076171875,-108.05410766601562,26201283.0,39957.0,-0.054660658556850004,-0.11405408591205005,-0.06709712336982,-0.0006690599181875151,-0.0004884702772570084,-0.0017551694238121486,26.201283581000098
1603,B,8772699285306.0,-8.517372,-5.901707,-0.45250413,17,1970-01-01 02:26:12.699285306,0.5238438,0.26391926,-0.85727155,10.372103513169353,1.0387397234325786,69.15435791015625,-16.815078735351562,-107.81818389892578,26241189.0,39906.0,-0.2951084735118,-0.4178427824889,-0.07110788944148999,-0.006978943492165772,-0.010612938215204155,-0.0027576046206240676,26.24118900099893
1603,B,8772739223065.0,-5.412093,-7.904457,2.1769278,17,1970-01-01 02:26:12.739223065,0.7209177,-1.6817863,-0.46818373,9.82396079755568,1.8887359513912187,66.75423431396484,-15.209906578063965,-107.22872161865234,26281126.0,39937.0,-0.2781505218525,-0.667070985834,0.034434154054395004,-0.011447122248932023,-0.02166410058275583,-0.0007323194850772062,26.281126759999097
1603,B,8772779081658.0,6.238691,2.593519,3.1860838,17,1970-01-01 02:26:12.779081658,0.6508766,-0.15499598,-0.92757905,7.4698551644235,1.14370756587627,66.41397857666016,-16.14137840270996,-107.15279388427734,26320985.0,39859.0,0.01647368484100001,-0.496462538871,0.10688213968219999,-0.005215088523220689,-0.023188641380608298,0.0028163630760234698,26.320985352998832
1603,B,8772819027076.0,2.1859062,7.28795,-9.974843,17,1970-01-01 02:26:12.819027076,-1.5086808,2.735599,-0.44315,12.545512902721333,3.1553132281264316,67.73841857910156,-16.217670440673828,-107.43093872070312,26360930.0,39945.0,0.16826026757700002,-0.1941033603975,-0.135588493122,0.0036895988646685057,-0.013792327423140117,-0.0005733376440764056,26.360930770999403
1603,B,8772858888326.0,4.5543704,19.612701,0.29628247,17,1970-01-01 02:26:12.858888326,1.278051,-4.603274,2.3880565,20.136735424537576,5.3410073698572305,68.38188171386719,-16.36187171936035,-107.75467681884766,26400792.0,39862.0,0.1343404529146,0.14550927508099998,-0.19290338992343,0.00603113496011808,-0.0009685287144431621,-0.006547171720978465,26.40079202099878
1603,B,8772898791034.0,-0.23702596,12.281057,-7.8410106,17,1970-01-01 02:26:12.898791034,0.02956109,-4.4714475,-1.5949672,14.572645249654412,4.7474874378321505,69.66102600097656,-16.105327606201172,-108.33948516845703,26440694.0,39902.0,0.08613533892243999,0.245272765858,-0.15052487092163,0.004398712522940785,0.007796492498773989,-0.006851737232119792,26.440694728999006
1603,B,8772938750668.0,-9.314043,19.612701,-4.6339774,17,1970-01-01 02:26:12.938750668,1.0237192,7.149789,-3.2852757,22.200972592770814,7.934766547919361,70.38031768798828,-14.94996166229248,-108.25066375732422,26480654.0,39960.0,-0.19083035782080002,0.24562928484000002,-0.24925026024000002,-0.0020918064775892337,0.009808222972946042,-0.007987507120609368,26.480654363000212
1603,B,8772978597180.0,1.9081788,17.539324,0.61530983,17,1970-01-01 02:26:12.978597180,4.421114,2.3654196,-1.7241305,17.653544655299118,5.302271670340026,71.02471160888672,-14.628336906433105,-108.2784652709961,26520500.0,39846.0,-0.1475470324566,0.349688994075,-0.08006391399710999,-0.00674149274649664,0.011860526070823545,-0.0065609262933259424,26.520500874999925
1603,B,8773018536086.0,9.939528,9.531317,-0.5955577,17,1970-01-01 02:26:13.018536086,-3.1925976,-2.8919268,-1.4114754,13.783864102322768,4.533010352612176,71.30236053466797,-15.375931739807129,-108.54515838623047,26560439.0,39939.0,0.2365927809426,0.14918496544949994,0.0003944401600349996,0.001778199074391177,0.009962263534724502,-0.0015909595577894692,26.56043978100024
1603,B,8773056168898.0,10.298658,-1.5448587,2.2391772,17,1970-01-01 02:26:13.056168898,-1.0980214,-0.46365637,-1.5709988,10.651894645410717,1.9719699424435904,70.89366149902344,-16.670621871948242,-108.49234771728516,26598072.0,37633.0,0.380811826869,-0.21852620739805004,0.030927166321749997,0.01161739380288697,-0.001304759479124893,0.0005893630083645074,26.598072592998506
1603,B,8773098354001.0,7.0024414,-5.01705,4.0216603,17,1970-01-01 02:26:13.098354001,0.8655274,-1.2120047,-2.8285434,9.50677273482069,3.196678094312346,69.22230529785156,-18.8891658782959,-108.06863403320312,26640257.0,42185.0,0.3649234390945,-0.5518200592547501,0.13205671496875,0.015729421097335123,-0.016248528629374186,0.003437737516119871,26.640257695999026
1603,B,8773138206295.0,3.0364463,-3.5673606,1.7705121,17,1970-01-01 02:26:13.138206295,-1.8924423,-2.284726,0.23595607,5.00807157291731,2.976068887118565,67.27733612060547,-21.19183921813965,-107.5296630859375,26680109.0,39852.0,0.2000348763102,-0.5616025656156001,0.1154148272424,0.011257359392754051,-0.022186059223166594,0.004931117950099374,26.680109989998527
1603,B,8773178181345.0,1.0079589,3.763685,1.198298,17,1970-01-01 02:26:13.178181345,-2.4402544,-0.10945592,2.743855,4.0764229442144755,3.6736306831481316,67.26807403564453,-21.150964736938477,-107.52572631835938,26720085.0,39976.0,0.0808395711376,-0.3878406678928,0.05934057627879999,0.005614118455586626,-0.018977471351365897,0.0034930110055817454,26.720085039998594
1603,B,8773218056553.0,3.3183637,19.1596,10.046669,17,1970-01-01 02:26:13.218056553,-1.8644791,1.8109496,5.6067533,21.886922300795028,6.1799274538733755,66.97019958496094,-21.067487716674805,-107.27316284179688,26759960.0,39875.0,0.0862560568375,0.0662579946875,0.2241965295625,0.0033314690827535563,-0.006411554547030669,0.005653021047710919,26.759960247998606
1603,B,8773257933846.0,9.883265,19.612701,3.6984432,17,1970-01-01 02:26:13.257933846,-0.82877576,-5.674131,1.6716663,22.27140430415766,5.973031063378147,67.31244659423828,-21.396835327148438,-107.6251449584961,26799837.0,39877.0,0.26322067383495,0.38226692348850005,0.2740569195997,0.006968041794512644,0.008942914081052177,0.009934426396120527,26.79983754099885
1603,B,8773297833116.0,4.7267528,9.255385,-2.7665,17,1970-01-01 02:26:13.297833116,0.68150294,1.5789882,1.2775184,10.754434702974065,2.142359273162754,68.18536376953125,-21.64686393737793,-107.84219360351562,26839736.0,39899.0,0.29146255010109995,0.184893681657,0.018591800868399993,0.011065652975912228,0.011314570492350151,0.0058381956489783615,26.839736810999966
1603,B,8773337780408.0,-0.034117375,11.048642,-2.7665,17,1970-01-01 02:26:13.337780408,1.1353056,4.6384277,0.2926814,11.389783856133569,4.78430692320472,69.05558776855469,-21.141475677490234,-107.93351745605469,26879684.0,39948.0,0.09373069997894999,0.014062235297999963,-0.110516142,0.007693849977098917,0.003973945485259168,-0.0018360967897625782,26.879684102999818
1603,B,8773377639470.0,-7.9708962,1.5568297,-2.4558525,17,1970-01-01 02:26:13.377639470,0.53929013,1.4911039,-0.39867523,8.484698960348139,1.6349821478921962,70.11446380615234,-18.40997886657715,-108.22386169433594,26919543.0,39859.0,-0.1595359180429625,-0.13939745175485005,-0.10407887414875,-0.0013114650934067371,-0.0024978681963767936,-0.004276771374336513,26.919543164998686
1603,B,8773417605825.0,-9.228451,-6.2805896,0.6075287,17,1970-01-01 02:26:13.417605825,0.7438209,-0.4841627,-0.053263225,11.179409854923149,0.8891119291098847,69.07957458496094,-15.74395751953125,-107.93057250976562,26959509.0,39966.0,-0.3436945550976,-0.4860616940817001,-0.03693505449540001,-0.01005605454476786,-0.012498550111251783,-0.00281788133609605,26.95950952000021
1603,B,8773456076503.0,-2.8616695,-9.189545,6.5164185,17,1970-01-01 02:26:13.456076503,0.74461985,-0.32091093,0.6380934,11.623278354293916,1.0317973314227205,66.16497802734375,-15.439050674438477,-107.14039611816406,26997980.0,38471.0,-0.23255951287774998,-0.6745915740983001,0.13703268636559998,-0.011084535124539843,-0.022325745940076393,0.0019254279978392316,26.997980197998913
1603,B,8773497392283.0,3.0753522,4.9416323,-4.3400893,17,1970-01-01 02:26:13.497392283,0.3683152,-1.3696637,-0.92944324,7.260433600992617,1.6957297762410224,67.42996215820312,-15.859352111816406,-107.55522155761719,27039295.0,41315.0,0.0044141503752500024,-0.49263825660025,0.044957520449000005,-0.004712912825895393,-0.024112050227655297,0.003759462697272599,27.039295978000155
1603,B,8773537255459.0,-1.4820108,4.1018662,1.6166847,17,1970-01-01 02:26:13.537255459,-1.577124,1.2460932,-0.57550913,4.651379553770384,2.09076041984145,67.36444091796875,-14.998872756958008,-107.5146255493164,27079159.0,39864.0,0.0317584807848,-0.210412187898,-0.05428290048719999,0.0007209928842821167,-0.01401320145973912,-0.00018587347492140212,27.07915915400008
1603,B,8773577214054.0,7.167641,19.612701,-16.275784,17,1970-01-01 02:26:13.577214054,0.9491506,-6.870157,1.1755193,26.47516313141315,7.034329370366577,68.75845336914062,-15.386682510375977,-108.15209197998047,27119117.0,39958.0,0.1135932057658,0.0822049380888,-0.29287414491470004,0.002903981345594437,-0.002561452643938007,-0.0069358506100845605,27.119117748999997
1603,B,8773617067075.0,-1.395221,16.756418,-5.791574,17,1970-01-01 02:26:13.617067075,-1.0484866,1.8317223,-3.2589102,17.78388358112595,3.8826571347932446,69.65442657470703,-14.802668571472168,-108.37393188476562,27158970.0,39853.0,0.11502412712999999,0.3341498497535,-0.43972520918700003,0.004555543283948159,0.00829649367993959,-0.014598141029507527,27.158970769998632
1603,B,8773657014314.0,-0.7146692,19.612701,-3.429694,17,1970-01-01 02:26:13.657014314,3.8594532,7.151653,-1.6575515,19.92314215967114,8.293913226610915,70.51217651367188,-14.236030578613281,-108.24340057373047,27198918.0,39948.0,-0.0421429468548,0.334946382906,-0.184185607032,0.0014557286948168446,0.013364528151140852,-0.012461994643158305,27.19891800899859
1603,B,8773696877179.0,2.9532478,13.567343,19.612701,17,1970-01-01 02:26:13.696877179,2.6256106,-5.486112,-1.8221349,24.030241554409205,6.349128404212217,69.8581771850586,-14.129375457763672,-108.33098602294922,27238780.0,39862.0,0.044617110076600006,0.27066385696399997,0.32254351251700003,4.931254717369587e-05,0.01207041769084897,0.002757611414221536,27.23878087399862
1603,B,8773736875773.0,10.5045595,4.540005,2.111686,17,1970-01-01 02:26:13.736875773,-2.8639636,0.81412834,-1.4010891,11.636865275995131,3.2906143989010515,69.65748596191406,-15.153482437133789,-108.3015365600586,27278779.0,39999.0,0.26914941709635,-0.029852293674000063,0.4344768778065,0.006275173660195413,0.004816110860018354,0.015140029296274837,27.278779467998902
1603,B,8773776688741.0,6.307524,-4.557363,-0.060453594,17,1970-01-01 02:26:13.776688741,1.3440974,-0.056459017,-2.2967103,7.781906653344829,2.661703147124686,69.11445617675781,-17.84828758239746,-108.17076873779297,27318592.0,39813.0,0.33466974019275003,-0.3905129370270001,0.040832857890039,0.012019926054575471,-0.00836800046494946,0.009461753253643153,27.318592435998653
1603,B,8773816692074.0,4.0916905,-4.1174283,5.341464,17,1970-01-01 02:26:13.816692074,-0.83916205,-2.7667582,-1.4839134,7.888370212960796,3.249791202850885,66.63135528564453,-19.450584411621094,-107.53760528564453,27358595.0,40003.0,0.20799988882174997,-0.5655382381869499,0.105628129635609,0.01085420658473352,-0.019122457581041818,0.0029294394419942483,27.358595768999294
1603,B,8773856479054.0,1.3000516,-0.6422446,2.1559787,17,1970-01-01 02:26:13.856479054,-1.991512,-0.76272935,2.0956416,2.598241028801102,2.989914684927646,65.21720123291016,-20.183700561523438,-107.08513641357422,27398382.0,39787.0,0.10726062146635001,-0.48459915283615,0.14915037635245001,0.006271634961416317,-0.02089090818831804,0.005068436208873452,27.39838274899921
1603,B,8773896388794.0,4.2401314,9.090784,-8.298303,17,1970-01-01 02:26:13.896388794,-2.9878006,1.547563,4.169179,13.01855985521175,5.357607413610142,66.34233093261719,-20.594404220581055,-107.3807144165039,27438292.0,39910.0,0.110554351765,-0.22252739627300006,-0.12257008140650001,0.00434649779083159,-0.01411071028747309,0.0005304097856464324,27.43829248899965
1603,B,8773936344000.0,19.612701,19.612701,-1.0540473,17,1970-01-01 02:26:13.936344000,0.8612663,-4.081028,6.387326,27.75656853325784,7.628532139709164,66.89863586425781,-21.59673309326172,-107.62081146240234,27478247.0,39955.0,0.476519959271,0.18186487158749998,-0.18683657811825002,0.011728277048721689,-0.0008123355869045777,-0.006181171540655694,27.478247694998572
1603,B,8773976193014.0,-1.0540473,13.782222,0.02633622,17,1970-01-01 02:26:13.976193014,-0.15792546,-0.8988169,1.6136093,13.822494440744233,1.853792664698054,67.49247741699219,-21.10198974609375,-107.84891510009766,27518096.0,39849.0,0.36977189564565005,0.2748569433135,-0.020476629413460002,0.016861942063286794,0.009099953800994974,-0.0041306120034655565,27.51809670900002
1603,B,8774016152386.0,3.503914,7.7811556,-1.2306197,17,1970-01-01 02:26:14.016152386,1.1147993,4.454936,0.59867865,8.621961530697957,4.631160585570567,68.19747161865234,-21.185487747192383,-107.88048553466797,27558056.0,39960.0,0.04894833666600001,0.03922828444799999,-0.024061583930400005,0.008366030241586768,0.00627542285067477,-0.0008898735026103229,27.55805608099945
1603,B,8774057122645.0,-7.423821,6.0645127,-2.7898436,17,1970-01-01 02:26:14.057122645,0.34940675,1.887116,-0.2444782,9.983719739704398,1.9346993215166026,68.92271423339844,-19.906768798828125,-108.05125427246094,27599026.0,40970.0,-0.080299294895,-0.11787748487450003,-0.0823591907005,-0.0006422243793210648,-0.0016111288707368531,-0.0021800295683139866,27.59902633999991
1603,B,8774095968900.0,-11.60709,-5.5126495,0.6488287,17,1970-01-01 02:26:14.095968900,0.8892295,-0.46498793,-0.5949502,12.866033633559876,1.166579881189443,68.1697006225586,-17.12784194946289,-107.82735443115234,27637872.0,38846.0,-0.369637384353,-0.3699719610664,-0.041584932402699996,-0.008739120121033903,-0.009475499788510101,-0.0024073667030334533,27.637872594999862
1603,B,8774138549731.0,-6.161478,-7.349002,1.7723078,17,1970-01-01 02:26:14.138549731,0.8695221,-1.8178738,0.2908172,9.752574864025851,2.036003064568099,66.06295013427734,-15.214631080627441,-107.3031234741211,27680453.0,42581.0,-0.37830169700399996,-0.6911247912607501,0.05154720665325001,-0.01592399701163121,-0.02259128040542119,0.00021210179993133503,27.680453425999076
1603,B,8774175488582.0,5.8598084,1.4951789,1.411382,17,1970-01-01 02:26:14.175488582,0.69348717,-0.62264705,-1.0287791,6.210065505100552,1.388164342008943,65.94745635986328,-16.367061614990234,-107.31018829345703,27717392.0,36939.0,-0.005571686677199989,-0.47011938574545004,0.058801158761099995,-0.007089949459899922,-0.021447599327216012,0.0020380791350203373,27.717392276999817
1603,B,8774215623119.0,-0.7679402,9.066243,-2.1906946,17,1970-01-01 02:26:14.215623119,-1.7196032,2.489523,-0.989897,9.358719843883254,3.183497448340149,66.74076080322266,-15.838772773742676,-107.46475982666016,27757526.0,40134.0,0.10217851916940002,-0.18137714673270006,-0.015638465944200004,0.0019386093076209782,-0.01307358091723904,0.0008661457567567323,27.757526813998993
1603,B,8774255542858.0,1.8471266,19.612701,-7.5255747,17,1970-01-01 02:26:14.255542858,1.0490192,-8.72638,0.9108011,21.088010616393113,8.836272281348615,67.93724060058594,-15.887822151184082,-108.14583587646484,27797446.0,39920.0,0.021540560543999998,0.18121572224,-0.193936735228,0.002469432831079464,-3.2220328742933676e-06,-0.004183121015397112,27.797446552998736
1603,B,8774295659886.0,-1.5574282,12.514492,-9.779117,17,1970-01-01 02:26:14.295659886,-0.8042747,-1.6213325,-3.256247,15.958358998214957,3.7254156001210577,69.21678924560547,-15.43295669555664,-108.6333236694336,27837563.0,40117.0,0.0058109153564000005,0.2512767007905,-0.34710615846445,0.0005486295793481733,0.008675149267357284,-0.010852508883130007,27.837563580998903
