Subject-id_accel,Activity_accel,Timestamp_accel,accel_x,accel_y,accel_z,Segment_accel,DateTime,gyro_x,gyro_y,gyro_z,accel_magnitude,gyro_magnitude,Roll,Pitch,Yaw,Time_Difference,Difference_Microseconds,vx,vy,vz,dx,dy,dz,Time_diff
1626,B,598851385777183.0,-10.886430826506702,19.032013,-19.3098,130,1970-01-07 22:20:51.385777183,0.49752808,1.5705566,-1.4994202,33.18075426029627,2.2276541832968793,-10.061522483825684,-39.537322998046875,-121.59901428222656,15005505.0,20141.0,-0.14586354549617148,0.13823587031649995,-0.33437453758499996,-0.001400627375332373,0.0017798226682082514,-0.005565882461171701,15.005505842971615
1626,B,598851405918785.0,-4.568253826506702,13.6996155,-8.475967,130,1970-01-07 22:20:51.405918785,-1.7960663,-0.52246094,1.5015564,20.581799842813997,2.3986436188401004,-11.5091552734375,-40.54680633544922,-120.66424560546875,15025647.0,20142.0,-0.155644129140498,0.13224863062349998,-0.279830459457,-0.0030364837912658987,0.0027240494089667395,-0.006185658525209982,15.025647444999777
1626,B,598851426060386.0,1.7501514734932986,8.367035,2.358261,130,1970-01-07 22:20:51.426060386,-1.8009491,-1.5683289,2.5792084,10.849233849340665,3.5150233526957657,-12.75517463684082,-41.12075424194336,-119.80011749267578,15045789.0,20142.0,-0.028381108797197983,0.024841637185499983,-0.061611417126000004,-0.0018533181712705362,0.0015820560871044385,-0.003438661139067393,15.0457890459802
1626,B,598851446201988.0,0.6367938734932981,5.8578644,8.644653,130,1970-01-07 22:20:51.446201988,-1.9727325,-0.35362244,1.7666779,12.918037282715455,2.6716798365403394,-13.739407539367676,-40.866329193115234,-119.15149688720703,15065930.0,20141.0,0.02403773311682852,-0.05412995059230001,0.110804845437,-4.373996478916067e-05,-0.00029494796016317964,0.0004954024198059255,15.065930648008361
1626,B,598851466343590.0,-5.400330826506702,5.2191772,11.918228,130,1970-01-07 22:20:51.466343590,-2.422058,1.7473602,1.0161896,18.85159612725097,3.1547224801963485,-14.923038482666016,-40.32704544067383,-118.43885040283203,15086072.0,20142.0,-0.04797358065379799,-0.0858347140464,0.20708877455099997,-0.00024105792054481952,-0.0014095841375763476,0.0032015066468991478,15.086072250036523
1626,B,598851486485191.0,-10.8598038265067,4.637924,14.830612,130,1970-01-07 22:20:51.486485191,-2.9762268,2.0710754,0.62757874,24.623485162438904,3.679828032996024,-16.180810928344727,-39.69388961791992,-117.72368621826172,15106213.0,20141.0,-0.16374768602317147,-0.09811586236540003,0.26937419322,-0.0021321390160704205,-0.001852474279755032,0.004798220316937855,15.106213851016946
1626,B,598851506626793.0,-4.9764418265067025,5.1840363,10.650925,130,1970-01-07 22:20:51.506626793,-2.84375,1.6552124,0.90353394,17.749073410160424,3.4121863566261563,-17.352054595947266,-39.20135498046875,-117.05467224121094,15126355.0,20142.0,-0.159486829971498,-0.09847463781870001,0.25662455912700005,-0.0032552948105823163,-0.0019798629273540713,0.005297333434886637,15.126355453045107
1626,B,598851526768394.0,0.9069354734932986,5.7301483,6.471222,130,1970-01-07 22:20:51.526768394,-2.97818,1.0818787,0.55722046,11.336079494680362,3.217221203920598,-18.3341007232666,-39.030948638916016,-116.5210952758789,15146497.0,20142.0,-0.04098399848119799,-0.08747484689340003,0.172437142437,-0.0020189417133471012,-0.0018726972605355595,0.0043210803964510444,15.14649705402553
1626,B,598851546909996.0,5.403761673493298,4.5769043,5.029251,130,1970-01-07 22:20:51.546909996,-2.763443,0.69711304,0.12461853,7.368446406666452,2.852737909939573,-18.746192932128906,-38.992889404296875,-116.35262298583984,15166638.0,20141.0,0.06355187561872852,-0.09358462679170003,0.11581551334649999,0.00022726980671350117,-0.0018233594297458,0.002902848370067737,15.166638656053692
1626,B,598851567051597.0,9.004912173493299,2.325943,5.3557434,130,1970-01-07 22:20:51.567051597,-1.6029053,-0.29615784,-0.037872314,5.88870473195435,1.6304751390712064,-18.066696166992188,-38.70636749267578,-116.82698822021484,15186780.0,20142.0,0.14510975431300202,-0.12787302484170002,0.1045872786024,0.0021014312750424584,-0.0022303000095999716,0.002219676517717372,15.186780257034115
1626,B,598851587193199.0,12.292769173493298,0.37036133,5.408188,130,1970-01-07 22:20:51.587193199,0.21875,-1.2885742,0.4038391,6.76747343165109,1.3679769918000997,-16.595754623413086,-38.29946517944336,-117.70536804199219,15206921.0,20141.0,0.2144783000048285,-0.170228667244735,0.1083981711637,0.0036212315010077122,-0.0030020330901564434,0.00214486997186951,15.206921859062277
1626,B,598851607334801.0,13.461623173493297,0.4129486,3.606186,130,1970-01-07 22:20:51.607334801,1.5295563,-1.0894928,0.9324646,6.358074535309724,2.0966705192697037,-14.839072227478027,-38.125022888183594,-118.69737243652344,15227063.0,20142.0,0.259372485326502,-0.18950288569497,0.090783760554,0.00477215125907183,-0.0036228564696557694,0.0020059612343289565,15.227063460974023
1626,B,598851627476402.0,14.6304156734933,0.4555359,1.804245,130,1970-01-07 22:20:51.627476402,1.5690308,-0.5107422,1.1052551,6.654430881456059,1.9860272108623007,-12.989880561828613,-38.18509292602539,-119.7442626953125,15247205.0,20142.0,0.28291492322800205,-0.1886450926005,0.054488450601,0.0054613764915524094,-0.003808328289413678,0.001463036438542005,15.247205062070861
1626,B,598851647618004.0,15.088026773493297,-0.5316162,1.106781,130,1970-01-07 22:20:51.647618004,1.2653656,-0.24685669,0.6912384,6.95578399148372,1.4628393119873682,-9.316412925720215,-38.07867431640625,-121.94523620605469,15267346.0,20141.0,0.29927957466237853,-0.19814796666115,0.029315487333,0.005862989691005078,-0.003895199503294446,0.000843947556964347,15.267346663982607
1626,B,598851667759605.0,15.097807673493298,-2.1671295,1.1048279,130,1970-01-07 22:20:51.667759605,1.2786102,-0.39657593,0.082458496,7.27505825302938,1.341236711159513,-5.756523132324219,-37.366119384765625,-124.07862854003906,15287488.0,20142.0,0.30400153871560204,-0.22457066794470001,0.0222731132319,0.006075644092829642,-0.004257199369115516,0.0005195487962891079,15.28748826496303
1626,B,598851687901207.0,13.546294173493298,-2.99823,1.1173553,130,1970-01-07 22:20:51.687901207,1.8145142,-0.99835205,-0.7957611,6.1950814587027905,2.2186492120238506,-2.480250835418701,-36.07899856567383,-126.01053619384766,15307629.0,20141.0,0.28846042765007845,-0.24939955284475002,0.022378495915599997,0.005966388232285585,-0.004773117108460157,0.00044966402991989865,15.307629866991192
1626,B,598851708042808.0,4.747450573493298,-0.09539795,1.197113,130,1970-01-07 22:20:51.708042808,2.3682861,-0.87205505,-1.8486481,3.6946375032984173,3.128379590030168,-3.9400572776794434,-35.7802734375,-125.15727996826172,15327771.0,20142.0,0.18423630334690203,-0.22854752708445,0.023309010249300002,0.004760528777870591,-0.004813405041966974,0.0004601188745867079,15.327771467971615
1626,B,598851728184410.0,-4.051392826506701,2.8074493,1.2768555,130,1970-01-07 22:20:51.728184410,1.7456665,-1.2158661,-2.5254364,12.67385449226062,3.3020464734458868,-5.464596271514893,-35.957916259765625,-124.3117446899414,15347913.0,20142.0,0.007009997569902016,-0.17007853085415003,0.0249153367635,0.0019260414965331335,-0.004014563029499641,0.00048566739876590876,15.347913069999777
1626,B,598851748326011.0,-7.929947826506703,7.8957367,0.33085632,130,1970-01-07 22:20:51.748326011,2.9103394,-2.8848572,-3.605194,17.99907919111697,5.4580124830582974,-6.787821292877197,-36.533111572265625,-123.57803344726562,15368054.0,20141.0,-0.12065809104617149,-0.08959536538700003,0.016190461883309998,-0.0011444931253527717,-0.0026150459720965017,0.00041395594527270004,15.3680546709802
1626,B,598851768467613.0,-9.699631826506701,13.920807,-1.0548096,130,1970-01-07 22:20:51.768467613,4.9003754,-0.75605774,-3.8178253,22.732896777923003,6.257882420472532,-7.8221540451049805,-37.253318786621094,-122.9599380493164,15388196.0,20142.0,-0.177547496685498,0.02232281160269999,-0.00729093348288,-0.0030032284740456436,-0.0006775018891616857,8.962715052073051e-05,15.388196273008361
1626,B,598851788609215.0,-10.202850826506703,18.176178,-1.4395142,130,1970-01-07 22:20:51.788609215,-3.7682648,2.358551,1.0583801,25.935276903902253,4.569764858129578,-9.331792831420898,-37.88338088989258,-122.12455749511719,15408337.0,20141.0,-0.20042795155717147,0.12585088744249998,-0.0251190878279,-0.0038064017515278027,0.0014921832362346863,-0.00032638511961021003,15.408337875036523
1626,B,598851808750816.0,-5.0640728265067025,14.547882,2.6349792,130,1970-01-07 22:20:51.808750816,1.4076691,1.4471588,-1.0342865,19.890234638739702,2.268380358668823,-10.379369735717773,-38.43227005004883,-121.48363494873047,15428479.0,20142.0,-0.153753188109498,0.13217240825999996,0.012039528015,-0.003566958257583028,0.0025985526110198767,-0.0001317242468757159,15.428479476016946
1626,B,598851828892418.0,0.0748891734932986,10.919464,6.7096405,130,1970-01-07 22:20:51.828892418,1.5246124,0.24539185,-0.6097107,15.19694043493414,1.6602431351987796,-11.102032661437988,-38.7567253112793,-121.0106430053711,15448621.0,20142.0,-0.05024606856949799,0.05909004156599998,0.0941096649987,-0.0020544765140141684,0.0019262041321976453,0.0010690285228409726,15.448621078045107
1626,B,598851849034019.0,0.23264917349329828,8.922058,5.7687836,130,1970-01-07 22:20:51.849034019,1.2178192,0.0546875,-0.98088074,13.305005861381382,1.5646729219385878,-11.936843872070312,-39.024105072021484,-120.48634338378906,15468762.0,20141.0,0.0030970649233285235,0.00243224730099998,0.12566396989905,-0.0004748140412187496,0.0006195602100351231,0.002213230390237791,15.46876267902553
1626,B,598851869175621.0,-1.3105788265067009,7.4815063,3.1151428,130,1970-01-07 22:20:51.869175621,-0.12792969,-1.5481873,-0.45443726,12.526718332254283,1.618568239136396,-13.225751876831055,-39.40046310424805,-119.68032836914062,15488904.0,20142.0,-0.010855829535497978,-0.03219130393470001,0.0894700227744,-7.813851840915858e-05,-0.000299703459357993,0.002166614440214315,15.488904281053692
1626,B,598851889317222.0,-1.5819103265067014,5.518326,1.2701263,130,1970-01-07 22:20:51.889317222,-0.91996765,-1.6587067,0.038772583,11.338603417584016,1.8971430380611538,-14.812222480773926,-39.729469299316406,-118.68287658691406,15509045.0,20141.0,-0.029128812015421467,-0.06646698882285,0.04416185247155,-0.00040266533273853423,-0.0009935383372149072,0.0013457397996643394,15.509045882034115
1626,B,598851909458824.0,1.6721181734932982,2.1064453,1.6662292,130,1970-01-07 22:20:51.909458824,-1.5496521,-0.7500763,0.6056366,7.097168739013166,1.8250566506592776,-16.475004196166992,-39.64883804321289,-117.64057922363281,15529187.0,20142.0,0.0009084832270020162,-0.12060252823770003,0.029572036240500005,-0.0002842069312281723,-0.0018839771063167993,0.0007425739932190556,15.529187484062277
1626,B,598851929600426.0,4.926131073493298,-1.3054504,2.0623474,130,1970-01-07 22:20:51.929600426,-1.7721405,-0.04815674,1.1051178,4.116909552377673,2.089039582014787,-17.761751174926758,-38.6309928894043,-116.84352111816406,15549329.0,20142.0,0.06645096816640202,-0.18932478036210001,0.0375504949386,0.000678377034982972,-0.0031212779249085863,0.000675991011504716,15.549329085974023
1626,B,598851949742027.0,8.737440853493299,-2.3819885,0.62794495,130,1970-01-07 22:20:51.949742027,-1.5224762,0.01586914,1.5009918,2.512801620049775,2.1380275940310076,-16.842676162719727,-35.868202209472656,-117.39186096191406,15569470.0,20141.0,0.13759900109071851,-0.23451615344245,0.027092589110674997,0.0020548852154038326,-0.004268290123878721,0.0006509881779182238,15.569470687070861
1626,B,598851969883629.0,12.708433873493298,-2.7891846,-1.3310852,130,1970-01-07 22:20:51.969883629,-0.42622375,0.35472107,1.5569458,5.431860838937453,1.6527473934947372,-13.47031307220459,-35.236385345458984,-119.30937957763672,15589612.0,20142.0,0.215981404375482,-0.24947048429010002,-0.0070813254577500005,0.0035609082634501053,-0.004874229428604511,0.00020153343624860766,15.589612288982607
1626,B,598851990025230.0,15.142027673493299,-2.9269562,-2.1814117,130,1970-01-07 22:20:51.990025230,-0.594162,0.67526245,0.98306274,7.806621369935753,1.3324489518928333,-10.031991004943848,-35.03340148925781,-121.27308654785156,15609753.0,20141.0,0.2804680730089285,-0.2549461959264,-0.03537260003145,0.004999494461999705,-0.005079728178120263,-0.0004275322566389886,15.60975388996303
1626,B,598852010166832.0,14.064864173493298,-2.4493866,-0.49986267,130,1970-01-07 22:20:52.010166832,-0.9708252,0.24926758,0.1703186,6.337293328475816,1.0166829992185649,-6.681256294250488,-34.405826568603516,-123.20469665527344,15629895.0,20142.0,0.29414260779100204,-0.2515367483388,-0.027003114180270002,0.0057869041663361,-0.005100789731694829,-0.0006281858178262322,15.629895491991192
1626,B,598852030308433.0,12.9877154734933,-1.9718323,1.1816864,130,1970-01-07 22:20:52.030308433,-0.59950256,0.2208252,-0.65393066,5.273647628305473,0.914216821377527,-3.5158839225769043,-33.275367736816406,-125.01263427734375,15650037.0,20142.0,0.27244652962480204,-0.2419176955419,0.006866646784830001,0.005706119202914563,-0.00496957970432253,-0.00020279436313947626,15.650037092971615
1626,B,598852050450035.0,11.301710873493299,-0.121017456,-0.3368225,130,1970-01-07 22:20:52.050450035,-0.015274048,1.0563812,-1.2224426,3.081099460189796,1.615716697490778,-0.05128546431660652,-33.352500915527344,-126.97002410888672,15670178.0,20141.0,0.24460666802732853,-0.218457843467798,0.00850820190495,0.00520698422695578,-0.004636211865597164,0.00015483241373042948,15.670178694999777
1626,B,598852070591636.0,9.488508973493298,2.0166016,-2.5236359,130,1970-01-07 22:20:52.070591636,0.8190918,1.9610748,-1.4996185,3.4627342421380547,2.60107312345588,1.3702508211135864,-35.90073013305664,-127.81818389892578,15690320.0,20142.0,0.20937830407900201,-0.17830117208577603,-0.0288076765464,0.004572082654082855,-0.003995760045640045,-0.00020443600911404294,15.6903202959802
1626,B,598852090733238.0,5.773558373493298,5.4944305,-6.030533,130,1970-01-07 22:20:52.090733238,1.4359283,2.3031464,-1.6189728,8.523302088989682,3.1602921304388447,0.4854642450809479,-38.531795501708984,-127.30411529541016,15710461.0,20141.0,0.1536966492178285,-0.12174195123695002,-0.08614475790745,0.0036563463171757314,-0.0030215842734215123,-0.0011576284911674964,15.710461898008361
1626,B,598852110874840.0,-2.1624618265067017,11.946884,-12.467392,130,1970-01-07 22:20:52.110874840,1.9218903,2.1700592,-1.4456635,20.15950596725726,3.2392533417395715,-1.3044465780258179,-40.865478515625,-126.156494140625,15730603.0,20142.0,0.03636735332470201,-0.021740121670500007,-0.18629260267500003,0.0019141345696058248,-0.0014450079562509292,-0.0027437166584258544,15.730603500036523
1626,B,598852131016441.0,-10.098770826506703,18.399582,-18.904495,130,1970-01-07 22:20:52.131016441,0.73939514,2.2460327,-1.6474457,32.129253838789175,2.8819169656625085,-3.4826104640960693,-43.05826950073242,-124.73973846435547,15750745.0,20142.0,-0.123482874048498,0.10822765908599997,-0.31594627397700004,-0.0008773404092093495,0.0008710159893115002,-0.005058047726762293,15.750745101016946
1626,B,598852151158043.0,-5.133225826506701,15.448013,-9.2651825,130,1970-01-07 22:20:52.151158043,-2.184372,0.5790558,1.111084,22.435845844306833,2.518192667163027,-4.881288051605225,-44.10615921020508,-123.810791015625,15770886.0,20141.0,-0.15339382229417148,0.14348040544749996,-0.28368273726375,-0.0027882867705188528,0.0025348260638846107,-0.006038563957699973,15.770886703045107
1626,B,598852171299644.0,1.7915637734932988,11.068359,2.815628,130,1970-01-07 22:20:52.171299644,-2.0988312,-1.849884,2.3643188,13.116310901172406,3.662945072968318,-6.06296443939209,-44.79506301879883,-122.96604919433594,15791028.0,20142.0,-0.03365387853589797,0.06965478241199999,-0.0649534633695,-0.0018837573950596293,0.002146484476933024,-0.0035111151765774605,15.79102830402553
1626,B,598852191441246.0,3.2684466734932984,7.547119,9.944824,130,1970-01-07 22:20:52.191441246,-1.9779205,-0.07067871,1.5955048,13.438358619141077,2.5422038767948085,-6.823180675506592,-44.576416015625,-122.44456481933594,15811169.0,20141.0,0.050956835206378524,-0.009914628801000018,0.12850413186600002,0.00017424942515007443,0.0006016132169395752,0.0006399870070940034,15.811169906053692
1626,B,598852211582847.0,-3.531281826506701,5.3300476,9.551361,130,1970-01-07 22:20:52.211582847,-2.737915,2.2484741,1.122467,16.069709719798542,3.716415812538313,-8.310999870300293,-44.106651306152344,-121.47053527832031,15831311.0,20142.0,-0.0026470128259979795,-0.06770565517140001,0.19634607913500002,0.00048652822119281245,-0.0007817138798860407,0.0032715664749910713,15.831311507034115
1626,B,598852231724449.0,-10.330735826506702,3.1130676,9.157898,130,1970-01-07 22:20:52.231724449,-3.167038,1.7068634,1.3476257,20.940035439860143,3.8418234455794615,-10.131319999694824,-43.59245681762695,-120.28060913085938,15851453.0,20142.0,-0.139604379783498,-0.11236098682080001,0.188420947389,-0.0014326137749702337,-0.0018134511515034463,0.0038749887241232043,15.851453109062277
1626,B,598852251866051.0,-4.694031826506702,3.3114471,7.4134674,130,1970-01-07 22:20:52.251866051,-3.0877533,0.8209076,1.6213074,15.272601838192541,3.582840690666194,-11.822328567504883,-43.13169860839844,-119.17337799072266,15871594.0,20141.0,-0.15130692264967147,-0.13268372471365,0.16688193526069997,-0.0029296222711532325,-0.002467722767507679,0.0035780776797238035,15.871594710974023
1626,B,598852272007652.0,2.6343371734932983,3.8383942,5.4852448,130,1970-01-07 22:20:52.272007652,-2.8756409,0.94244385,0.9941101,8.7327607213266,3.1852418883151783,-12.977587699890137,-42.79867172241211,-118.45584106445312,15891736.0,20142.0,-0.02074318485049799,-0.12538554826770001,0.1299029305662,-0.0017327166326342068,-0.002599015648195176,0.00298892038374271,15.891736312070861
1626,B,598852292149254.0,8.136000423493298,3.7885742,4.8873596,130,1970-01-07 22:20:52.292149254,-2.4448242,0.29164124,0.046310425,6.184715190357949,2.46259307179202,-12.785399436950684,-42.67435073852539,-118.67005157470703,15911877.0,20141.0,0.10846268477045352,-0.12057441472780002,0.1044573126102,0.0008833792239439121,-0.002476939807346183,0.002360124828907936,15.911877913982607
1626,B,598852312290855.0,11.321104773493298,3.0073547,5.976471,130,1970-01-07 22:20:52.312290855,-1.2604523,-0.7463684,-0.21116638,7.365225273828388,1.4799989963294418,-11.706089973449707,-42.4592399597168,-119.44437408447266,15932019.0,20142.0,0.195952506438852,-0.12894980004810003,0.1094096379726,0.0030657653906689163,-0.0025129583670080893,0.002153854059319379,15.93201951496303
1626,B,598852332432457.0,14.506209173493298,2.2261353,7.0655823,130,1970-01-07 22:20:52.332432457,0.17346191,-0.9658356,0.2544098,9.701809051902607,1.0137316147700277,-10.209955215454102,-42.174015045166016,-120.42938232421875,15952161.0,20142.0,0.260106878760102,-0.14468512221000002,0.13134651878429998,0.004592974068338666,-0.0027557773020613257,0.00242465525469874,15.952161116991192
1626,B,598852352574058.0,15.873213573493299,0.5915375,4.6192627,130,1970-01-07 22:20:52.352574058,0.89733887,-0.5554962,0.73713684,8.940415375833995,1.287308741799147,-8.408998489379883,-41.90816116333008,-121.57482147216797,15972302.0,20141.0,0.3059359767735285,-0.1690064260676,0.1176722315725,0.005700334576651426,-0.003159030736929571,0.0025077433254681544,15.972302717971615
1626,B,598852372715660.0,17.1475051734933,-1.0865631,1.9927216,130,1970-01-07 22:20:52.372715660,1.0258942,-0.58296204,0.83348083,9.190703780379616,1.444643189044302,-4.609999179840088,-41.47837829589844,-124.03411102294922,15992444.0,20142.0,0.33255165850090207,-0.2023770028176,0.06658929388530001,0.006430208974848791,-0.003740202512302849,0.0018556978228855038,15.992444319999777
1626,B,598852392857261.0,16.5751331734933,-2.357193,0.40405273,130,1970-01-07 22:20:52.392857261,1.1709137,-0.6174469,0.4627838,8.670038818411683,1.4023011134238395,-0.8499348759651184,-40.91101837158203,-126.45318603515625,16012585.000000002,20141.000000001863,0.33960382947335993,-0.23206214580507148,0.02413671589026723,0.006768941841645431,-0.004375019446205017,0.0009136562814449344,16.0125859209802
1626,B,598852412998863.0,13.4173877734933,-3.0572662,0.2685547,130,1970-01-07 22:20:52.412998863,1.7395325,-0.884079,-0.21858215,6.017402396248775,1.9635037950296588,2.6133551597595215,-39.68516540527344,-128.64443969726562,16032727.000000002,20142.0,0.30205467845710204,-0.25192061860320003,0.00677382942753,0.006462142833367683,-0.004874190420355702,0.00031130010189553593,16.03272752300836
1626,B,598852433140465.0,10.259550873493298,-3.7573853,0.13305664,130,1970-01-07 22:20:52.433140465,2.5046082,-0.85092163,-1.178894,4.267118712899733,2.8960181144366306,4.7721943855285645,-37.317115783691406,-129.9556121826172,16052869.000000002,20142.0,0.23845044911380203,-0.2660219552565,0.00404462780514,0.005443427139766575,-0.00521619966134104,0.00010895268279021958,16.052869125036523
1626,B,598852453282066.0,1.623183173493298,5.507263,7.8316193,130,1970-01-07 22:20:52.453282066,2.680954,-0.954422,-2.0565338,11.638982609708526,3.5110919917801127,3.8655407428741455,-37.35051727294922,-129.40914916992188,16073010.0,20140.999999998137,0.11966507322016744,-0.1797596566221334,0.08020826905376258,0.003606402367663906,-0.004489243722423362,0.0008484687978174999,16.073010726016946
1626,B,598852473423668.0,-7.055466826506702,14.848511,15.590424,130,1970-01-07 22:20:52.473423668,2.3933258,-2.1400146,-2.9208221,26.4109040058267,4.340377012772878,2.9860763549804688,-37.60675811767578,-128.9229736328125,16093152.0,20142.0,-0.05470852866949799,0.007611399953999988,0.23588339807429998,0.000654177360169792,-0.0017337050929047716,0.0031833591796467183,16.093152328045107
1626,B,598852493565269.0,-8.335053826506703,15.711716,14.943634,130,1970-01-07 22:20:52.493565269,4.701782,-2.0221405,-4.508835,27.29379657651425,6.820952956478241,2.2476894855499268,-37.89683151245117,-128.5099639892578,16113292.999999998,20140.999999998137,-0.15499023823615715,0.11037496600348978,0.3074932310889716,-0.0021117714321232045,0.0011881816983747907,0.00547207434398822,16.11329392902553
1626,B,598852513706871.0,-3.021469826506701,9.020325,6.806793,130,1970-01-07 22:20:52.513706871,0.3315277,0.54525757,-0.87997437,15.954701155715671,1.087001069625275,0.9825804233551025,-38.149635314941406,-127.75431060791016,16133434.999999998,20142.0,-0.11437154970949799,0.051684784910999974,0.219048550317,-0.002712742566400693,0.0016321037514598264,0.00530280228053954,16.133435531053692
1626,B,598852533848472.0,2.1909015734932984,2.461441,-1.2104187,130,1970-01-07 22:20:52.533848472,-0.86073303,0.92277527,0.17346191,6.6432803273654235,1.2737600174590982,-0.7334075570106506,-38.68379211425781,-126.7071304321289,16153576.999999998,20142.0,-0.008364652876097977,-0.08175873461400002,0.0563610855753,-0.001236076296239537,-0.0003028747474589134,0.0027736504430713534,16.153577132034115
1626,B,598852553990074.0,-0.8760848265067018,6.7425537,0.566391,130,1970-01-07 22:20:52.553990074,2.1116486,0.37686157,-0.6884613,11.353969354599329,2.2527901398981918,-2.083632230758667,-39.267417907714844,-125.81887817382812,16173718.0,20141.000000001863,0.013240862050529744,-0.10469297137365968,-0.006485680952850599,4.910586449111965e-05,-0.0018776619051489006,0.0005022702622504232,16.173718734062277
1626,B,598852574131676.0,-3.9430858265067013,11.023682,2.3432007,130,1970-01-07 22:20:52.574131676,1.7566376,-0.19563293,-0.5996399,16.59745567566395,1.8664447247926081,-3.330169916152954,-39.855812072753906,-124.99224853515625,16193860.0,20142.0,-0.04853386764649798,-0.018467840265300003,0.0293024980107,-0.00035543585935699613,-0.001240352534015963,0.00022978816458960134,16.193860335974023
1626,B,598852594273277.0,-4.4140938265067025,11.02626,2.960205,130,1970-01-07 22:20:52.594273277,1.265274,-1.1317139,-0.7724304,17.04419250291999,1.8650317341464648,-4.612447738647461,-40.41998291015625,-124.15216064453125,16214001.0,20141.0,-0.08416097769567148,0.024672140911,0.053407947101850005,-0.0013363034400183176,6.248040965252181e-05,0.0008329355375059348,16.21400193707086
1626,B,598852614414879.0,-2.9362498265067014,7.81691,2.706543,130,1970-01-07 22:20:52.614414879,0.11251831,-1.9128113,-0.2728119,13.905785091173744,1.9354414928575228,-6.0899529457092285,-40.879825592041016,-123.19047546386719,16234143.0,20142.0,-0.07402531092949799,-0.007622034930000008,0.057069819108,-0.0015930941127440818,0.00017171161733465094,0.0011126215834993995,16.234143538982607
1626,B,598852634556480.0,-1.255906326506702,4.5447693,2.6101685,130,1970-01-07 22:20:52.634556480,-0.9535217,-1.423584,0.13969421,10.847490446025523,1.7191013669165685,-7.756194114685059,-41.08048629760742,-122.11797332763672,16254285.0,20142.0,-0.042219204616997984,-0.07289712776970002,0.0535446015165,-0.001170698516068761,-0.000810908487548679,0.0011139978301093396,16.25428513996303
1626,B,598852654698082.0,2.378126873493298,0.66664124,4.031372,130,1970-01-07 22:20:52.654698082,-1.6810303,-0.2783966,0.6244354,7.146688301040002,1.8147416083792232,-9.257102966308594,-40.55101013183594,-121.16737365722656,16274425.999999998,20140.999999998137,0.011301322018427469,-0.1449002901569166,0.06688363360524381,-0.00031135853670887555,-0.0021933288972297896,0.0012127725417934087,16.274426741991192
1626,B,598852674839683.0,6.012160173493298,-3.2114868,5.4525604,130,1970-01-07 22:20:52.674839683,-2.0298767,-0.19316101,1.0867767,6.709238481355645,2.310583084126169,-9.76796817779541,-39.23310852050781,-120.86375427246094,16294568.000000002,20142.000000003725,0.08449858085021765,-0.22302073963480126,0.09551268320041767,0.0009648008217903035,-0.0037053326910330762,0.0016354933065501193,16.294568342971615
1626,B,598852694981285.0,9.723982573493299,-4.555176,4.5443726,130,1970-01-07 22:20:52.694981285,-1.464798,-0.31341553,1.5219269,6.6029384897775865,2.135444675985026,-9.288413047790527,-37.889381408691406,-121.14888763427734,16314709.0,20140.999999998137,0.15847082553351385,-0.2755959777273745,0.10067411377649069,0.0024468234069871414,-0.005021319652195326,0.0019756991389557727,16.314709944999777
1626,B,598852715122886.0,13.494871873493299,-3.9725342,1.8657074,130,1970-01-07 22:20:52.715122886,-0.7900696,0.08692932,1.5489044,6.845446077572424,1.7409398380929717,-6.451773166656494,-36.22398376464844,-122.82317352294922,16334851.0,20142.0,0.23383708313560203,-0.2832741694242,0.06455591567999999,0.003950932948206667,-0.0056283812519635065,0.0016640316266563176,16.3348515459802
1626,B,598852735264488.0,16.732436173493298,-3.316864,-0.5260925,130,1970-01-07 22:20:52.735264488,-0.8397064,0.584198,0.97698975,9.130984651621162,1.4145328250026659,-3.084430456161499,-35.539817810058594,-124.78551483154297,16354993.0,20142.0,0.30441921934120203,-0.2708031292722,0.0134912616579,0.005420779222243894,-0.005580112475171445,0.0007860131229699909,16.35499314800836
1626,B,598852755406090.0,14.731795173493298,-1.944046,-0.100372314,130,1970-01-07 22:20:52.755406090,-0.9030762,0.5185852,0.27030945,6.775966428326642,1.0758923884035905,0.284258633852005,-34.89348220825195,-126.74494171142578,16375134.0,20141.0,0.3168605417798285,-0.250361794155,-0.006308813909387,0.006256597834369338,-0.0052483913613736175,7.233084005140017e-05,16.375134750036523
1626,B,598852775547691.0,12.7310931734933,-0.57118225,0.3253479,130,1970-01-07 22:20:52.775547691,-0.4414978,0.59750366,-0.5014801,4.5374909454593375,0.8963332091439241,3.7132935523986816,-34.39316940307617,-128.72772216796875,16395276.0,20142.0,0.27657874854250203,-0.22272246370575002,0.002265729126606,0.00597652709283619,-0.004764431560915614,-4.071790684738745e-05,16.395276351016946
1626,B,598852795689293.0,10.667189373493299,1.3805084,0.80940247,130,1970-01-07 22:20:52.795689293,0.14974976,1.126297,-1.0502472,2.906037558188246,1.547252113889943,5.1727519035339355,-34.617408752441406,-129.59051513671875,16415417.000000002,20141.000000001863,0.23563240438945035,-0.18923148100644252,0.011427503601086056,0.005158222415601704,-0.004148582200224519,0.0001378977001842356,16.415417953045107
1626,B,598852815830894.0,8.569975643493299,3.6376648,1.3242493,130,1970-01-07 22:20:52.815830894,0.72099304,1.9698944,-1.330658,3.8851200633367036,2.484142834831323,5.34317684173584,-35.334442138671875,-129.71495056152344,16435559.000000002,20142.0,0.19373748888607203,-0.14685357770280003,0.021488006975670004,0.004324184195177786,-0.0033847126262607817,0.0003314921070185103,16.43555955402553
1626,B,598852835972496.0,5.741850673493298,5.304352,0.53790283,130,1970-01-07 22:20:52.835972496,1.629242,2.3657074,-1.5454102,5.888427824128292,3.2617930166156768,4.707404613494873,-36.21784973144531,-129.3499298095703,16455701.000000002,20142.0,0.144134402838372,-0.10733654880720002,0.01875373410123,0.003402707821556876,-0.0025599487640822105,0.00040527457438545994,16.455701156053692
1626,B,598852856114097.0,-1.6001908265067009,3.324417,-8.284195,130,1970-01-07 22:20:52.856114097,1.9861603,1.9865112,-1.5926819,13.286756818107042,3.2291941904458366,2.1352479457855225,-37.977840423583984,-127.796875,16475842.0,20140.999999998137,0.04170858548907467,-0.11048578178548979,-0.07800903529797779,0.0018715318139513784,-0.0021935797802334796,-0.0005967305107017933,16.475842757034115
1626,B,598852876255699.0,-8.942230826506703,1.3444824,-17.106308,130,1970-01-07 22:20:52.876255699,0.6182556,1.7094421,-1.2087402,24.284006094645378,2.1829991184789357,-0.7951835989952087,-39.53460693359375,-125.98807525634766,16495984.0,20142.0,-0.10617272846749799,-0.15037111414260002,-0.255707755713,-0.0006492183839357012,-0.0026270897988917925,-0.0033608618022715566,16.495984359062277
1626,B,598852896397301.0,-6.716202826506702,2.5367584,-11.116272,130,1970-01-07 22:20:52.896397301,-1.2683563,-0.3961792,0.57455444,18.807939760046516,1.4476872821110378,-4.152588844299316,-40.960166931152344,-123.83634948730469,16516124.999999998,20140.999999998137,-0.1576882561026569,-0.15829576452358535,-0.2842154918899737,-0.002657212045113499,-0.003108429801607532,-0.005437297064985243,16.516125960974023
1626,B,598852916538902.0,-0.38946682650670184,5.0885773,1.2219696,130,1970-01-07 22:20:52.916538902,-1.8604126,-1.8860626,2.1465607,10.093556601986014,3.4097052676356077,-5.957907676696777,-41.405914306640625,-122.62252807617188,16536266.999999998,20142.0,-0.07156119907549799,-0.1205968441653,-0.09964551947040001,-0.002308771263099198,-0.0028087274621057643,-0.0038658642454103237,16.53626756207086
1626,B,598852936680504.0,2.8980241734932983,6.4759827,10.645569,130,1970-01-07 22:20:52.936680504,-2.2588348,0.36283875,1.3748779,13.557982730940665,2.6691339142315456,-6.719097137451172,-41.1129150390625,-122.14537048339844,16556408.999999998,20142.0,0.025263681041502013,-0.08092491624000002,0.1195179812406,-0.00046626230412037347,-0.0020295256490417764,0.000200135562487684,16.556409163982607
1626,B,598852956822105.0,-3.2359478265067025,4.2537384,11.03363,130,1970-01-07 22:20:52.956822105,-2.8638153,2.4779816,0.80007935,16.47927129288257,3.8706534136692055,-8.039700508117676,-40.55381774902344,-121.35699462890625,16576550.000000002,20141.000000003725,-0.0034030601476721166,-0.08932814366246655,0.2183203735295404,0.00022014738271135468,-0.001714533439748107,0.003402201151713328,16.57655076496303
1626,B,598852976963707.0,-9.369675826506702,2.0315704,11.421692,130,1970-01-07 22:20:52.976963707,-2.8858185,1.9347992,1.0597229,21.088735254728892,3.632410905176795,-9.619357109069824,-39.93714141845703,-120.40060424804688,16596692.0,20141.999999998137,-0.12695123580948625,-0.13409225507518763,0.2261475478619791,-0.0013127981145844205,-0.002250066835686707,0.004476236436333578,16.596692366991192
1626,B,598852997105308.0,-5.9500898265067015,2.2343597,9.503784,130,1970-01-07 22:20:52.997105308,-2.7244568,1.010498,1.2871704,17.22540624885582,3.1781407617829642,-11.134933471679688,-39.382843017578125,-119.47855377197266,16616833.0,20141.0,-0.15427770000867147,-0.15442175092795002,0.210730006058,-0.0028321159981567574,-0.0029054802974545976,0.0043995754067511494,16.616833967971615
1626,B,598853017246910.0,1.3607165734932982,3.4248505,6.6466064,130,1970-01-07 22:20:53.017246910,-2.539444,0.875885,0.9430237,10.161286037026906,2.8469710327157687,-12.28400707244873,-38.996517181396484,-118.80379486083984,16636975.0,20142.0,-0.04621957803109798,-0.14039769407580002,0.1626505817184,-0.0020192080871385184,-0.0029691266306327664,0.0037603158994961245,16.636975569999777
1626,B,598853037388511.0,7.411940373493298,4.096283,4.7490234,130,1970-01-07 22:20:53.037388511,-2.0771942,0.08340454,0.39744568,6.326205474047298,2.1165195794882017,-12.344651222229004,-39.022735595703125,-118.81657409667969,16657117.0,20142.0,0.08834942811310202,-0.12164626452150001,0.11476538771579999,0.0004242897201758627,-0.0026390447070334085,0.002793856228171828,16.6571171709802
1626,B,598853057530113.0,10.078398473493298,3.3727264,5.430298,130,1970-01-07 22:20:53.057530113,-0.974823,-1.2118073,0.3722229,6.651144938374102,1.5991581225590858,-11.599881172180176,-38.973785400390625,-119.29176330566406,16677257.999999998,20140.999999998137,0.1761364573585622,-0.12216514083728872,0.1025108561586905,0.0026635051096421483,-0.0024553027576654546,0.002188080413937854,16.67725877300836
1626,B,598853077671715.0,12.744856673493299,2.6491852,6.111557,130,1970-01-07 22:20:53.077671715,0.41119385,-1.7245178,0.9080353,8.040510566083741,1.991876033000235,-10.339143753051758,-38.84042739868164,-120.02262115478516,16697400.000000002,20142.000000003725,0.22985300258534455,-0.13674492827642531,0.11623802170502151,0.004088719851095842,-0.002607483306044697,0.0022030199489658513,16.697400375036523
1626,B,598853097813316.0,14.2176351734933,1.7140656,4.8224487,130,1970-01-07 22:20:53.097813316,1.1915131,-1.3882904,1.4155884,7.868201344957503,2.3132108032815193,-8.771971702575684,-38.71046447753906,-120.9028091430664,16717541.0,20140.999999998137,0.2715257741450534,-0.15344168281858583,0.11011090440183981,0.0050491349710630054,-0.0029223242670320393,0.0022794468603589356,16.717541976016946
1626,B,598853117954918.0,15.380583573493299,0.723999,3.0218048,130,1970-01-07 22:20:53.117954918,1.0476074,-0.97502136,1.4649506,7.7860409206214305,2.047981488547045,-7.013561725616455,-38.62104415893555,-121.90644073486328,16737683.0,20142.0,0.298083661000902,-0.17283785141340002,0.0789994769985,0.005736536621354917,-0.0032859611892503294,0.0019045306510828222,16.737683578045107
1626,B,598853138096519.0,15.518736673493297,-0.41600037,1.535965,130,1970-01-07 22:20:53.138096519,0.8699646,-0.8425598,0.9976654,7.449219224564503,1.5691021866616464,-5.192768573760986,-38.50470733642578,-122.97167205810547,16757825.0,20142.0,0.311187054207402,-0.19428974579727,0.0459012996558,0.006135965372862829,-0.003697342031508658,0.0012578757216854552,16.75782517902553
1626,B,598853158238121.0,12.944533173493298,-1.9529114,0.8831482,130,1970-01-07 22:20:53.158238121,1.354126,-0.90771484,0.13438416,5.168425743638889,1.6357452604519847,-1.759514331817627,-37.482322692871094,-125.03495025634766,16777966.0,20141.0,0.2866393589940785,-0.221237925979785,0.024361679480599998,0.00602041089414551,-0.004184571418630832,0.0007075833313931161,16.777966781053692
1626,B,598853178379722.0,10.370329673493298,-3.4898224,0.23031616,130,1970-01-07 22:20:53.178379722,2.172882,-0.8125763,-1.0105591,4.094380654697259,2.530400388048994,0.4752563238143921,-35.20564270019531,-126.33270263671875,16798108.0,20142.0,0.234803983732002,-0.2522053720998,0.01121369956956,0.005251455904594357,-0.0047680474549595,0.00035827964241416134,16.798108382034115
1626,B,598853198521324.0,2.740858773493298,1.4246216,6.655197,130,1970-01-07 22:20:53.198521324,2.3085938,-0.8894348,-1.9401398,8.75088044625132,3.1440168638850396,-0.449150025844574,-34.81271743774414,-125.81538391113281,16818249.0,20141.0,0.1320362232553785,-0.2181794046564,0.06934056027778,0.0036942643044664152,-0.004737009894323312,0.0008112216737926375,16.818249984062277
1626,B,598853218662926.0,-5.888459826506702,7.6151276,14.480026,130,1970-01-07 22:20:53.218662926,3.1950836,-1.7120972,-3.4308777,21.61749788643447,4.991067804147134,-1.3012220859527588,-34.75933837890625,-125.37833404541016,16838391.0,20142.0,-0.03169949020489799,-0.10635228580680002,0.212852830833,0.0010104912385513892,-0.0032683586546548874,0.0028419696418766657,16.838391585974023
1626,B,598853238804527.0,-8.254898826506702,10.590652,14.490036,130,1970-01-07 22:20:53.238804527,4.8350067,-1.3322144,-4.663986,24.377309331790986,6.848711587211733,-2.055460214614868,-34.84259796142578,-125.00033569335938,16858533.0,20142.0,-0.142437764994498,-0.014041193648400018,0.291757494402,-0.001753736297113117,-0.0012124827315933195,0.005081930585441686,16.85853318707086
1626,B,598853258946129.0,-0.861496826506702,8.555954,2.3219604,130,1970-01-07 22:20:53.258946129,-0.32115173,0.951355,-1.1239166,12.706684813374421,1.507117544673458,-3.2774410247802734,-35.41255569458008,-124.35383605957031,16878674.0,20141.0,-0.09180666242367148,-0.0045659042770000114,0.16930520974619997,-0.0023589585063146755,-0.000187382779657741,0.004643131962124447,16.878674788982607
1626,B,598853279087730.0,6.531889673493298,6.5212555,-9.846115,130,1970-01-07 22:20:53.279087730,-0.043762207,0.9990082,-0.23182678,11.9329550387289,1.0264872967328524,-4.007521629333496,-38.1659049987793,-123.92952728271484,16898816.0,20142.0,0.05710652636200201,-0.04554902312550002,-0.07577576097659999,-0.0003494650702770733,-0.0005047074338705778,0.0009419350785586414,16.89881638996303
1626,B,598853299229332.0,2.270079173493298,7.9388275,-6.6528015,130,1970-01-07 22:20:53.299229332,1.9449463,0.79255676,-0.72091675,11.955845783768646,2.22051419453602,-4.872737884521484,-39.33374786376953,-123.35829162597656,16918957.0,20141.0,0.08864022727357852,-0.05176153414850001,-0.16615233861325,0.0014677426824871137,-0.0009799659670278174,-0.002436336926919584,16.918957991991192
1626,B,598853319370933.0,-4.222458826506701,10.017151,-0.5194855,130,1970-01-07 22:20:53.319370933,1.4461365,0.35958862,-0.9015503,15.99883372407799,1.7416680785086014,-6.217461109161377,-39.974822998046875,-122.49020385742188,16939099.0,20142.0,-0.01966241548549798,-0.01655694052650001,-0.072232102377,0.0006946755425177592,-0.0006880353584519252,-0.0024007697052128075,16.939099592971615
1626,B,598853339512535.0,-6.699875826506702,9.96521,3.2369843,130,1970-01-07 22:20:53.339512535,0.5326233,-0.5930481,-0.74316406,18.249034717254812,1.0898102810545438,-7.656022548675537,-40.355072021484375,-121.57105255126953,16959241.0,20142.0,-0.10999883229049798,0.003850757630999995,0.0273679304148,-0.0013058184263520555,-0.00012796396794058064,-0.00045182707583131613,16.959241194999777
1626,B,598853359654136.0,-3.7950148265067014,7.0575104,3.8075104,130,1970-01-07 22:20:53.359654136,-0.6323242,-2.2129211,-0.27346802,14.463144041821346,2.317679539257654,-9.179579734802246,-40.64457702636719,-120.60110473632812,16979382.0,20141.0,-0.10568879632117147,-0.025954494211800006,0.07094158387635,-0.002172082263933817,-0.0002225956792369465,0.000990025963669026,16.9793827959802
1626,B,598853379795738.0,-0.8902598265067017,4.1499023,4.3780212,130,1970-01-07 22:20:53.379795738,-1.48909,-2.5658722,0.20910645,10.944278562638823,2.974023315689445,-10.715774536132812,-40.67910385131836,-119.62523651123047,16999524.0,20142.0,-0.04718540103049798,-0.08452174669830002,0.0824364887436,-0.0015395960415286632,-0.0011126062222056173,0.0015446705693555167,16.99952439800836
1626,B,598853399937340.0,3.7515094734932983,0.22903442,5.111023,130,1970-01-07 22:20:53.399937340,-1.904007,-1.1271667,0.782959,6.8069634184192465,2.347077378638994,-11.801952362060547,-39.955509185791016,-118.94737243652344,17019666.0,20142.0,0.028815645194802016,-0.15329132829288003,0.0955641641382,-0.00018500181102129408,-0.002395015478236174,0.0017926445751726078,17.019666000036523
1626,B,598853420078941.0,8.545073303493298,-3.780426,5.858246,130,1970-01-07 22:20:53.420078941,-1.5254059,0.42066956,1.2380981,6.978742179343285,2.009157272014566,-11.53049373626709,-38.579532623291016,-119.12503814697266,17039807.0,20141.0,0.12383273685564351,-0.23314608890639002,0.1104660234645,0.0015372455314390117,-0.003891618009905249,0.0020748270042529903,17.039807601016946
1626,B,598853440220543.0,12.171919573493298,-5.8651123,5.3190765,130,1970-01-07 22:20:53.440220543,-0.67085266,1.1316833,1.4624939,8.839714783369637,1.9671397485855384,-9.637722969055176,-36.11385726928711,-120.24732971191406,17059949.0,20142.0,0.208640835264132,-0.2945318162193,0.1125668148975,0.0033483413448182594,-0.005314244182520824,0.002246163715143702,17.059949203045107
1626,B,598853460362144.0,14.070631773493298,-5.0986023,2.8742523,130,1970-01-07 22:20:53.460362144,-0.7811127,0.8092346,1.3857727,8.26052106799924,1.7847587131048666,-7.064095497131348,-34.196563720703125,-121.70288848876953,17080090.0,20141.0,0.2642756133398285,-0.3077918878793,0.08251091768039999,0.004762505095666184,-0.0060657008621249515,0.001964530305925742,17.08009080402553
1626,B,598853480503746.0,15.969328673493298,-4.3320923,0.42944336,130,1970-01-07 22:20:53.480503746,-1.4189148,-0.07136536,0.858551,8.869681941699355,1.6599765190712699,-4.019378662109375,-33.03474044799805,-123.39312744140625,17100232.0,20142.0,0.30253244166160204,-0.2923681253166,0.033271518991860004,0.005708323921919407,-0.006044211492895909,0.0011660449197263302,17.100232406053692
1626,B,598853500645347.0,13.980345473493298,-1.0700226,1.9342804,130,1970-01-07 22:20:53.500645347,-1.1346436,-0.053237915,-0.008300781,6.149885382430847,1.1359222145814902,-2.4552054405212402,-32.624473571777344,-124.27229309082031,17120374.0,20142.0,0.301623168334302,-0.2517962991579,0.023805061986960002,0.006084451148268749,-0.005480279918882691,0.0005748182470376962,17.120374007034115
1626,B,598853520786949.0,11.838194673493298,2.2903137,3.5947418,130,1970-01-07 22:20:53.520786949,-0.56640625,0.8102875,-0.8152008,5.577108549725851,1.2813798098206295,-1.313909649848938,-32.599609375,-124.93843841552734,17140515.0,20141.0,0.26000560855022853,-0.18509285847745,0.0556800180651,0.0056558825976156645,-0.004399692261966792,0.0008004544986642703,17.140515609062277
1626,B,598853540928551.0,8.876875673493299,4.060379,5.5467987,130,1970-01-07 22:20:53.540928551,0.23570251,2.0118256,-1.3027802,6.903433556007108,2.408367531658675,-1.0712486505508423,-32.59170150756836,-125.11962127685547,17160657.0,20142.0,0.20862147346450202,-0.13343377381830002,0.0920644543755,0.004719543342970351,-0.0032078817138504983,0.0014879345819492826,17.160657210974023
1626,B,598853561070152.0,5.0504596734932985,4.150894,7.8068237,130,1970-01-07 22:20:53.561070152,1.0096741,3.2220917,-1.600708,9.399944622773473,3.736787766609672,-1.5170841217041016,-32.318817138671875,-124.92312622070312,17180798.0,20141.0,0.1402552306118285,-0.1146901752535,0.13447765437919998,0.0035133628484006864,-0.002498732229127562,0.002281392306214206,17.18079881207086
1626,B,598853581211754.0,1.223891173493298,4.2414093,10.066925,130,1970-01-07 22:20:53.581211754,2.0755157,2.2786102,-1.4184723,12.983795007309515,3.3929181437750335,-2.244974374771118,-31.99567413330078,-124.54268646240234,17200940.0,20142.0,0.06318898738000202,-0.11287271346570002,0.1800065231577,0.0020488867193957255,-0.0022917858522910634,0.0031671701519741195,17.200940413982607
1626,B,598853601353355.0,-3.677338826506702,6.3648987,2.3045502,130,1970-01-07 22:20:53.601353355,2.0136414,1.9538879,-1.2284698,13.706964333011365,3.0629344855991305,-3.5643718242645264,-32.30438232421875,-123.84249877929688,17221082.0,20142.0,-0.024708671313497993,-0.09057547213200001,0.12459312673919999,0.00038753526310576205,-0.002048926677154437,0.0030676230741116797,17.22108201496303
1626,B,598853621494957.0,-8.6859138265067,8.691666,-6.459961,130,1970-01-07 22:20:53.621494957,-0.2287445,1.5563049,-0.92214966,20.09508520026143,1.8233949060700962,-5.0123515129089355,-32.95099639892578,-123.11084747314453,17241223.0,20141.0,-0.12450413584217146,-0.04575466518865001,-0.0418470644614,-0.0015026475744611691,-0.001372912647887606,0.0008332942201685847,17.241223616991192
1626,B,598853641636558.0,-9.8259438265067,9.158493,-5.566025,130,1970-01-07 22:20:53.641636558,-1.4833984,-2.2143097,1.8598938,21.006904599303606,3.250052800788795,-6.669583797454834,-33.7127799987793,-122.15464782714844,17261365.0,20142.0,-0.18643291842349796,-0.017622648711000017,-0.121113705006,-0.003131447073509557,-0.0006382729282833755,-0.0016411779093061852,17.261365217971615
1626,B,598853661778160.0,-7.234970826506702,7.8315277,4.6428986,130,1970-01-07 22:20:53.661778160,-1.6864777,-1.8355408,2.1851807,17.95576588729507,3.3148803526996895,-8.26168155670166,-34.016334533691406,-121.21510314941406,17281506.0,20141.0,-0.17181194101317146,-0.026283796540650016,-0.009296344411200001,-0.003607704856956979,-0.00044215985690674166,-0.0013132944026559125,17.281506819999777
1626,B,598853681919761.0,-4.817795826506702,6.524826,14.251556,130,1970-01-07 22:20:53.681919761,-2.6453247,0.8469391,1.1356049,20.401583396678724,3.0007744161204304,-9.34524917602539,-33.71383285522461,-120.64374542236328,17301648.0,20142.0,-0.121383412962498,-0.05280876188730002,0.1902860522766,-0.002952770409888967,-0.0007965411559278849,0.0018227473479124434,17.3016484209802
1626,B,598853702061363.0,-5.602356826506702,5.591736,12.802399,130,1970-01-07 22:20:53.702061363,-3.2894287,2.1855621,0.7745056,19.667751522916213,4.024534978077773,-10.532389640808105,-33.3319206237793,-120.06237030029297,17321790.0,20142.0,-0.10494135736849798,-0.07536570409800002,0.272460380805,-0.0022793167620034603,-0.0012908450469379564,0.0046603193275647934,17.32179002300836
1626,B,598853722202965.0,-6.386948826506702,4.658615,11.353195,130,1970-01-07 22:20:53.722202965,-3.2221985,0.95043945,1.1305695,19.09419659501216,3.544585408175236,-11.824430465698242,-32.99030303955078,-119.40495300292969,17341931.0,20141.0,-0.12073830257867148,-0.0941556402545,0.243258909377,-0.0022727070154979698,-0.0017071646983018514,0.005193551111777831,17.341931625036523
1626,B,598853742344566.0,-3.3945938265067017,4.0009003,9.126663,130,1970-01-07 22:20:53.742344566,-2.7101135,0.93925476,1.5422058,15.319958970770061,3.256580018457791,-13.05923080444336,-32.66022872924805,-118.75411224365234,17362073.0,20142.0,-0.09850991605849799,-0.11018162141370003,0.206252649918,-0.002208048809894934,-0.002057880562260443,0.004527030913659945,17.362073226016946
1626,B,598853762486168.0,2.6692341734932983,3.567154,6.2679596,130,1970-01-07 22:20:53.762486168,-2.3467865,0.9636841,1.0601807,9.113819621990176,2.749559426131312,-13.949565887451172,-32.4456901550293,-118.30404663085938,17382214.0,20141.0,-0.007304734385671479,-0.12116770917185,0.1550315468933,-0.0010656064372980085,-0.0023298034336617815,0.003638312503988196,17.382214828045107
1626,B,598853782627769.0,8.413252623493298,3.1387177,3.721817,130,1970-01-07 22:20:53.782627769,-1.7183228,0.05065918,0.47831726,4.871650658193401,1.78437299876792,-13.678483009338379,-32.652679443359375,-118.47692108154297,17402356.0,20142.0,0.11161172453245202,-0.12985676610930003,0.10060704013860002,0.0010504756977682268,-0.002528067490556462,0.002574536209998265,17.40235642902553
1626,B,598853802769371.0,11.227690473493299,2.7591705,4.0379486,130,1970-01-07 22:20:53.802769371,-0.7965851,-1.0622864,0.35472107,5.730232839674659,1.3743461189485402,-12.590163230895996,-32.84221267700195,-119.06204986572266,17422498.0,20142.0,0.197803937929752,-0.1379939679378,0.0781485993576,0.003116125136656857,-0.0026975247425883443,0.0018002480453662305,17.422498031053692
1626,B,598853822910972.0,14.042128173493298,2.3796234,4.35408,130,1970-01-07 22:20:53.822910972,0.32034302,-1.259018,0.6659546,7.633365247812302,1.4598772222512002,-11.125726699829102,-32.95975875854492,-119.81002044677734,17442639.0,20141.0,0.2544797086844785,-0.14563157603005,0.08451192401629999,0.004554722463228608,-0.0028562510405282333,0.00163807280063686,17.442639632034115
1626,B,598853843052574.0,15.4599597734933,1.7079468,4.200775,130,1970-01-07 22:20:53.843052574,0.9359894,-1.1314392,0.99256897,8.524681777904886,1.7724062684429494,-9.536376953125,-32.987831115722656,-120.59959411621094,17462781.0,20142.0,0.29711552771410205,-0.15622568051580002,0.086155944705,0.005555115625770104,-0.003040004430673256,0.0017187961058922122,17.462781234062277
1626,B,598853863194176.0,16.026182873493298,0.8581543,3.7612152,130,1970-01-07 22:20:53.863194176,1.0857697,-0.9897766,1.0497894,8.688206717976225,1.805716296569871,-7.8907999992370605,-32.91960525512695,-121.41492462158203,17482922.0,20141.0,0.3170811995264785,-0.17153987887245,0.0801812223091,0.006185268141676267,-0.0033007630658193716,0.001675098440415494,17.482922835974023
1626,B,598853883335777.0,16.1486651734933,-0.036972046,3.2913208,130,1970-01-07 22:20:53.883335777,1.376358,-1.1381683,0.6841583,8.564923124180044,1.9125535293810159,-6.201509475708008,-32.75797653198242,-122.25862884521484,17503064.0,20142.0,0.324032894681202,-0.18912147351996603,0.071026090056,0.00645666004276555,-0.003632220479944022,0.001522808842828922,17.50306443707086
1626,B,598853903477379.0,12.406966173493299,-1.326828,2.5570374,130,1970-01-07 22:20:53.903477379,2.1465912,-1.1748047,-0.071014404,5.0646103565419285,2.448073305404682,-4.620413780212402,-32.171817779541016,-123.04695892333984,17523206.0,20142.0,0.287583763295502,-0.21112643026326602,0.0588988154322,0.006159591362483385,-0.00403089663900093,0.0013084737231716622,17.523206038982607
1626,B,598853923618980.0,8.665419373493298,-2.6166534,1.8227844,130,1970-01-07 22:20:53.923618980,2.6788177,-1.1853638,-1.2310333,3.2170097539011224,3.17751390144758,-4.157806396484375,-30.826311111450195,-123.2652359008789,17543347.0,20141.0,0.2122094586509285,-0.2370946294387,0.0441069954369,0.0050331676416115285,-0.004513810181728649,0.0010373200183572714,17.54334763996303
1626,B,598853943760582.0,2.435896673493298,0.9449463,6.315399,130,1970-01-07 22:20:53.943760582,2.7412567,-0.20462036,-2.5502777,8.63028737017725,3.7497032061402824,-4.972543239593506,-30.406627655029297,-122.8886489868164,17563489.0,20142.0,0.11180135390920201,-0.21422736220410002,0.0819596450214,0.003263112893293075,-0.004545263777834639,0.0012696171360555395,17.563489241991192
1626,B,598853963902183.0,-5.045838826506701,6.948761,13.439163,130,1970-01-07 22:20:53.963902183,1.421936,-0.031936646,-2.7792664,20.135762599478422,3.122057600305076,-5.815362453460693,-30.320884704589844,-122.5458984375,17583630.0,20141.0,-0.026283422451921473,-0.11788822063535002,0.19893831662099998,0.0008612083287405436,-0.0033445699769846815,0.002828782922719789,17.583630842971615
1626,B,598853984043785.0,-9.949234826506702,11.454269,16.947693,130,1970-01-07 22:20:53.984043785,3.4951782,-2.832962,-4.2718964,27.373824876370968,6.204115021139776,-6.518823623657227,-30.50528907775879,-122.27259063720703,17603772.0,20142.0,-0.151015386759498,-0.012054684870000004,0.306026026776,-0.0017855763075682054,-0.0013086550013443803,0.005085495902351187,17.603772444999777
1626,B,598854004185386.0,-3.480439826506702,9.351044,4.5110474,130,1970-01-07 22:20:54.004185386,3.184845,0.2922058,-0.66004944,15.658694809570296,3.265622018363876,-7.526334285736084,-30.957332611083984,-121.70657348632812,17623914.0,20142.0,-0.13525025343049799,0.012138707222999985,0.2161109745684,-0.00288298126235345,8.461891170628112e-07,0.005258441740539453,17.6239140459802
1626,B,598854024326988.0,2.9883561734932984,7.2478027,-7.925583,130,1970-01-07 22:20:54.024326988,-0.028442383,0.4309845,0.060699463,11.955781281822835,0.4361662907647232,-9.356504440307617,-33.345333099365234,-120.7329330444336,17644055.0,20141.0,-0.004955528427671479,-0.030223114307650012,-0.03438608075979999,-0.0014119423262026955,-0.0001821190215459681,0.0018300605430995064,17.64405564800836
1626,B,598854044468590.0,1.6016071734932984,8.103867,-7.5076294,130,1970-01-07 22:20:54.044468590,2.0382538,-0.5162506,-1.3253479,12.888945920457473,2.4854658097123785,-11.33993911743164,-35.64801025390625,-119.6043930053711,17664197.0,20142.0,0.046225520867502014,-0.04278493445130002,-0.15542788208039998,0.00041563009386153335,-0.0007352640590513858,-0.0019116164197636538,17.664197250036523
1626,B,598854064610191.0,-3.6336378265067015,10.409729,-0.7920685,130,1970-01-07 22:20:54.064610191,1.6564331,-0.1408081,-0.9668579,15.81164117426089,1.9231255119189778,-12.55013370513916,-36.342315673828125,-118.88223266601562,17684338.0,20141.0,-0.020463564691171474,-0.010940631482000017,-0.08358210770195,0.0002594357796737367,-0.000541043311731298,-0.0024069501021031555,17.684338851016946
1626,B,598854084751793.0,-7.0100868265067025,11.34465,4.414505,130,1970-01-07 22:20:54.084751793,0.8897095,0.073898315,-0.6461029,19.514069243462806,1.102040340794519,-13.756311416625977,-36.67882537841797,-118.16427612304688,17704480.0,20142.0,-0.107192950980498,0.021696750908999987,0.0364815579915,-0.0012856287693293832,0.0001083248787493167,-0.00047434963613394196,17.704480453045107
1626,B,598854104893394.0,-4.226746826506702,7.736496,4.6207123,130,1970-01-07 22:20:54.104893394,-0.7746124,-1.0005951,-0.21366882,15.383782458811723,1.283304051664282,-15.07814884185791,-36.886051177978516,-117.39466094970703,17724622.0,20142.0,-0.113166151719498,-0.005225378634000011,0.09099367342829999,-0.0022192365232916594,0.00016588319018152477,0.0012838030556288058,17.72462205402553
1626,B,598854125034996.0,-1.4433148265067022,4.128189,4.826935,130,1970-01-07 22:20:54.125034996,-1.8569183,-1.2082062,0.25497437,11.581722110316843,2.2300044224059796,-16.442508697509766,-36.808937072753906,-116.6097640991211,17744763.0,20141.0,-0.057100355876671484,-0.07789848970750002,0.09514253213465,-0.0017146688647472247,-0.000837098916133076,0.0018744846581216878,17.744763656053692
1626,B,598854145176597.0,2.6227405734932985,1.0370026,5.47081,130,1970-01-07 22:20:54.145176597,-2.1118774,-0.9598694,0.72875977,7.910451790445646,2.4315563370108397,-17.44582748413086,-36.2491455078125,-116.03695678710938,17764905.0,20142.0,0.011877996697902012,-0.14537295539640002,0.103708589895,-0.0004554343792893874,-0.0022485667236413773,0.002002629649960605,17.764905257034115
1626,B,598854165318199.0,7.116469173493298,-1.881897,6.2605896,130,1970-01-07 22:20:54.165318199,-1.9303284,-1.134613,1.1201019,6.633411147986921,2.50362590216653,-17.379711151123047,-35.15311050415039,-116.0758056640625,17785046.0,20141.0,0.09807871175702851,-0.2058903090552,0.1181410596718,0.0011073190324953778,-0.0035373967046598382,0.002234136895962459,17.785046859062277
1626,B,598854185459801.0,11.043135473493297,-4.230316,6.3919525,130,1970-01-07 22:20:54.185459801,-0.81747437,-0.3317871,1.2949982,8.161002651553787,1.5669611875654568,-16.495729446411133,-34.00767517089844,-116.54651641845703,17805188.0,20142.0,0.18288537839980198,-0.25894769712300003,0.1274237514891,0.00282958935196944,-0.004681383560220653,0.002473083213201424,17.805188460974023
1626,B,598854205601402.0,13.106657773493298,-4.7042694,4.3596344,130,1970-01-07 22:20:54.205601402,-0.28398132,0.6492157,0.9800873,8.050256070648292,1.2094203284452938,-14.056185722351074,-31.99299430847168,-117.8521499633789,17825330.0,20142.0,0.243212567790402,-0.2873718095634,0.1082792316699,0.004291232416081545,-0.005501983751838735,0.0023737647433942893,17.82533006207086
1626,B,598854225743004.0,15.170180173493298,-5.1782074,2.3273163,130,1970-01-07 22:20:54.225743004,-1.3019562,0.21188354,0.3932495,8.9575258391579,1.3764555025468936,-11.339554786682129,-30.39686393737793,-119.28006744384766,17845471.0,20141.0,0.2847618965451285,-0.2969032826144,0.06734093702435,0.00531696684309096,-0.005883942315776535,0.0017685829088354447,17.845471663982607
1626,B,598854245884605.0,14.015822173493298,-2.9648743,1.8551788,130,1970-01-07 22:20:54.245884605,-1.1777802,0.27624512,-0.20166016,6.750949604565192,1.2264356428150154,-8.43741226196289,-29.10922622680664,-120.76129150390625,17865613.0,20142.0,0.293932229636502,-0.2794005758007,0.042121908152100006,0.005828028544775201,-0.0058039561580984726,0.001102400313772028,17.86561326496303
1626,B,598854266026207.0,12.018385673493299,-0.047470093,1.7917938,130,1970-01-07 22:20:54.266026207,-0.2549286,1.129425,-0.7335968,4.180655053866573,1.3706763610324648,-6.861522197723389,-28.831743240356445,-121.56974792480469,17885754.0,20141.0,0.2621774901230785,-0.2277176142097065,0.036726837568299996,0.005600302932838856,-0.005106933732499798,0.0007940462937772882,17.885754866991192
1626,B,598854286167808.0,7.933348443493299,3.1167755,2.757141,130,1970-01-07 22:20:54.286167808,0.8162384,2.1340637,-1.0213776,4.172655556781195,2.5027355439746346,-6.776134967803955,-29.209909439086914,-121.6470947265625,17905896.0,20142.0,0.20093391429217203,-0.166480625246103,0.0458123223708,0.004663994953865988,-0.003969970469559457,0.0008312518797466761,17.905896467971615
1626,B,598854306309410.0,-0.720597826506701,6.821289,5.973892,130,1970-01-07 22:20:54.306309410,1.9447327,2.583603,-1.4778137,12.748961297363563,3.555407581131308,-7.68557596206665,-29.373178482055664,-121.23202514648438,17926038.0,20142.0,0.07263961146367202,-0.09730535242050002,0.087930233343,0.0027551589778871052,-0.002656588581080359,0.0013469212785936799,17.926038069999777
1626,B,598854326451011.0,-9.374527826506702,10.525803,9.190643,130,1970-01-07 22:20:54.326451011,2.9212036,2.5176544,-1.7745361,22.485190634109976,4.245113958505182,-8.667919158935547,-29.482961654663086,-120.7690200805664,17946179.0,20141.0,-0.10166296288867147,-0.022687910014000015,0.1527144497175,-0.00029227966052545687,-0.0012083921493466325,0.0024234122807607656,17.9461796709802
1626,B,598854346592613.0,-7.892212826506702,9.343536,9.026215,130,1970-01-07 22:20:54.346592613,0.4351654,2.630661,-1.5874786,20.714002922821194,3.1031974683761456,-9.750043869018555,-29.53713035583496,-120.31083679199219,17966321.0,20142.0,-0.17389334511649798,0.0027125130689999864,0.183461976918,-0.0027751275779200617,-0.00020117222263309529,0.0033856327926461206,17.96632127300836
1626,B,598854366734215.0,-3.8029188265067013,6.9044037,7.9921722,130,1970-01-07 22:20:54.366734215,-2.3645782,0.15237427,0.75053406,16.019141338460386,2.48550786707533,-10.970314025878906,-29.617948532104492,-119.73572540283203,17986462.0,20141.0,-0.11777582331167147,-0.03375692325115001,0.1713836682976,-0.0029372543606558804,-0.00031263273273934183,0.0035734730701437,17.986462875036523
1626,B,598854386875816.0,-2.612168826506702,5.1707916,8.143082,130,1970-01-07 22:20:54.386875816,-2.5437927,-2.677597,2.7803955,14.520617344465716,4.6228785546889,-12.223483085632324,-29.66929817199707,-119.0379409790039,18006604.0,20142.0,-0.06460634775349798,-0.07578230813370002,0.16249814504819998,-0.0018367708447973217,-0.0011031695992768245,0.0033625237422055514,18.006604476016946
1626,B,598854407017418.0,-6.628907826506701,4.704666,10.422882,130,1970-01-07 22:20:54.407017418,-1.9240417,-0.6061859,1.8092651,18.75895688676769,2.709767150656253,-13.454580307006836,-29.481882095336914,-118.39551544189453,18026746.0,20142.0,-0.09306688297249799,-0.09793586651040001,0.18697782344400002,-0.0015879271066415056,-0.0017495157368407313,0.003519572478684946,18.026746078045107
1626,B,598854427159019.0,-10.6457988265067,4.2385254,12.702759,130,1970-01-07 22:20:54.427159019,-1.9305573,2.5233307,1.0787048,23.15284164594813,3.3552724711547377,-14.654707908630371,-29.0598201751709,-117.83611297607422,18046887.0,20141.0,-0.17396493334917149,-0.10731939100630002,0.2328867676905,-0.0026891439062673725,-0.0020670230708219276,0.004228246365019983,18.04688767902553
1626,B,598854447300621.0,-6.038926326506701,5.8474884,11.28183,130,1970-01-07 22:20:54.447300621,-2.927948,2.0583954,1.1387024,19.115504292941235,3.755863984386405,-15.754229545593262,-28.796003341674805,-117.3499526977539,18067029.0,20142.0,-0.16803186701599798,-0.09581535502020001,0.241548795819,-0.0034442497764776213,-0.002045770027232882,0.004778040560104175,18.067029281053692
1626,B,598854467442222.0,-0.20817682650670122,7.750992,9.335724,130,1970-01-07 22:20:54.467442222,-3.2640839,1.5477905,1.3270874,14.786146797376116,3.848514012624642,-16.560022354125977,-28.83305549621582,-117.00263977050781,18087170.0,20141.0,-0.06291145230242146,-0.060438303131800014,0.20762907755699997,-0.002325714697196143,-0.0015735524644197164,0.004523445773833007,18.087170882034115
1626,B,598854487583824.0,4.324644873493298,7.953476,7.670624,130,1970-01-07 22:20:54.487583824,-3.27359,1.367157,0.43510437,11.72338541672253,3.5741887979711,-16.943981170654297,-29.11330795288086,-116.89439392089844,18107312.0,20142.0,0.04145694970120202,-0.03923190277200001,0.17127093070800004,-0.00021606829569688094,-0.00100377864365717,0.0038159019832368153,18.107312484062277
1626,B,598854507725426.0,6.571501473493298,5.1595306,6.5003815,130,1970-01-07 22:20:54.507725426,-2.839981,0.24769592,-0.45558167,8.465489222538878,2.8869360933670896,-17.014272689819336,-29.318872451782227,-116.95137023925781,18127454.0,20142.0,0.10973508986050202,-0.06533051053140002,0.1427161963905,0.0015226550304259215,-0.0010530480643785416,0.0031621643570089943,18.127454085974023
1626,B,598854527867027.0,8.818358213493298,2.3655853,5.3301544,130,1970-01-07 22:20:54.527867027,-1.4505005,-1.5245667,-0.40090942,5.8599778757165595,2.1421913281249823,-16.496706008911133,-29.310810089111328,-117.23754119873047,18147595.0,20141.0,0.15498358197779852,-0.12160012032905002,0.11913941178094999,0.002665849384747606,-0.001882484918080162,0.002637016902090587,18.14759568707086
1626,B,598854548008629.0,12.203917273493298,2.5956573,4.5284576,130,1970-01-07 22:20:54.548008629,0.53671265,-2.4297943,0.22950745,6.553270938946037,2.4989266653081312,-15.217617988586426,-29.568946838378906,-117.81342315673828,18167737.0,20142.0,0.21171533642944199,-0.14742692577540004,0.099286081452,0.003693024807279319,-0.0027093713813179164,0.0021997631423490392,18.167737288982607
1626,B,598854568150230.0,15.686949473493298,3.0844574,3.7583008,130,1970-01-07 22:20:54.568150230,1.747345,-1.6453094,0.96232605,8.892349478815117,2.5857936880698666,-13.650406837463379,-29.926908493041992,-118.48881530761719,18187878.0,20141.0,0.2808749735755285,-0.14018020491365,0.0834518004672,0.004960630716905055,-0.0028963476096040782,0.0018402618398673035,18.18787888996303
1626,B,598854588291832.0,17.371260173493297,1.8547211,2.9124908,130,1970-01-07 22:20:54.588291832,1.4775696,-0.8125458,1.1762695,9.760926017676338,2.0559797023735547,-11.99317455291748,-30.129741668701172,-119.2234878540039,18208020.0,20142.0,0.332929229354802,-0.1476491333265,0.06718154220360001,0.006181622127711359,-0.0028987292654165508,0.0015170283940376269,18.208020491991192
1626,B,598854608433433.0,16.7886341734933,-1.540741,1.971405,130,1970-01-07 22:20:54.608433433,1.0621643,-0.1822815,1.0346375,8.905860432340662,1.4939525768386994,-8.716429710388184,-29.634679794311523,-120.78430938720703,18228162.0,20142.0,0.34402429596850204,-0.1942295064129,0.049185714601800004,0.006817598953530996,-0.003443059780815498,0.0011719346432871836,18.228162092971615
1626,B,598854628575035.0,16.205992473493296,-4.9363403,1.0302887,130,1970-01-07 22:20:54.628575035,1.0607605,-0.79200745,0.24404907,9.426695166334524,1.3461235410554326,-5.790472507476807,-28.313827514648438,-122.16009521484375,18248303.0,20141.0,0.3322723876484785,-0.26260924723165,0.03022855640585,0.006810645752364803,-0.00460059466857744,0.0007997414161825392,18.248303694999777
1626,B,598854648716636.0,12.448714173493299,-4.809372,-1.847229,130,1970-01-07 22:20:54.648716636,1.6951752,-1.5055084,-0.7573395,6.651558050776525,2.3903425736546318,-3.178171157836914,-26.59200096130371,-123.35101318359375,18268445.0,20142.0,0.288581550641802,-0.2955406685733,-0.008227405761299999,0.006252620012521415,-0.005621127802071652,0.00022157358814126307,18.2684452959802
1626,B,598854668858238.0,8.436751153493299,-4.3997803,-4.8800964,130,1970-01-07 22:20:54.668858238,2.4466705,-1.4082184,-1.9064789,6.573548707758524,3.4064552534583545,-3.1499032974243164,-23.806007385253906,-123.38988494873047,18288586.0,20141.0,0.21032707857541852,-0.29012256823715,-0.06774753044069999,0.00502425935053202,-0.005897921626299636,-0.0007651055950222409,18.28858689800836
1626,B,598854688999840.0,2.942076473493298,-2.0993958,-4.8316193,130,1970-01-07 22:20:54.688999840,2.2532196,-1.4048309,-2.7189941,7.472320307240812,3.800457517096301,-6.109574317932129,-23.810239791870117,-122.2701187133789,18308728.0,20142.0,0.11459617303138202,-0.2628448025031,-0.09780668881469999,0.0032723020669320883,-0.005568934390725058,-0.0016672965421211333,18.308728500036523
1626,B,598854709141441.0,-4.1281288265067015,2.2101898,-1.5088654,130,1970-01-07 22:20:54.709141441,2.6238403,-1.6805725,-3.3854065,12.655772138788892,4.601069334176849,-7.45261812210083,-24.144222259521484,-121.81716918945312,18328870.0,20142.0,-0.011944733247197987,-0.19627579362600003,-0.06385502141369999,0.0010338026500665174,-0.004623803523616167,-0.0016280950837102163,18.328870101016946
1626,B,598854729283043.0,-11.075959826506702,6.479309,1.7726746,130,1970-01-07 22:20:54.729283043,5.042633,-0.9845886,-3.4402924,20.45206306280633,6.183297993905576,-8.582359313964844,-24.503543853759766,-121.39849090576172,18349011.0,20141.0,-0.1531127747801715,-0.10987420233460002,0.0026566905486000007,-0.0016622116345896244,-0.0030830835343212226,-0.0006162977909769894,18.349011703045107
1626,B,598854749424644.0,-1.9347698265067024,5.434143,-0.36108398,130,1970-01-07 22:20:54.749424644,0.1448822,0.79537964,0.22514343,11.541929300172596,0.8392313076116349,-9.96279525756836,-25.010009765625,-120.81263732910156,18369153.0,20142.0,-0.131031058335498,-0.07741122490800002,0.01421612913402,-0.0028616125433079073,-0.0018861515377602252,0.00016992616702366602,18.36915330402553
1626,B,598854769566246.0,7.206419773493298,4.388977,-2.4948578,130,1970-01-07 22:20:54.769566246,1.2939453,1.1971893,-0.8483124,5.1535193614839745,1.9563206760192309,-10.782524108886719,-27.704397201538086,-120.46849060058594,18389294.0,20141.0,0.05308815079112851,-0.09845807004000001,-0.02876076169549,-0.0007849240504255729,-0.001771091734773834,-0.00014647172221028364,18.389294906053692
1626,B,598854789707847.0,8.507628233493298,5.498123,-3.1287384,130,1970-01-07 22:20:54.789707847,1.9252625,-0.3429718,-0.61531067,6.331603362812902,2.0500908687463926,-10.839824676513672,-30.58740997314453,-120.41975402832031,18409436.0,20142.0,0.15825617747836201,-0.09781861590000002,-0.0566352373302,0.002128448730002039,-0.0019767025041017403,-0.0008600231061877241,18.409436507034115
1626,B,598854809849449.0,1.5283191734932986,8.88269,-2.178482,130,1970-01-07 22:20:54.809849449,1.4392395,-0.59198,-0.46603394,11.345234611189142,1.624511708788882,-11.795387268066406,-31.638957977294922,-119.90425109863281,18429578.0,20142.0,0.10107202633576202,-0.05256243227700002,-0.0534490166484,0.0026116943406120433,-0.0015144875361905675,-0.0011086585218184806,18.429578109062277
1626,B,598854829991051.0,-4.898209826506701,11.893402,-1.1544495,130,1970-01-07 22:20:54.829991051,0.47711182,-1.1062012,-0.0756073,17.760544164092924,1.207076322143071,-13.027820587158203,-32.43856430053711,-119.2314224243164,18449719.0,20141.0,-0.03393648382117147,0.011843834485999988,-0.033564286670749996,0.0006760884808931841,-0.0004100566390542658,-0.0008762674710755,18.449719710974023
1626,B,598854850132652.0,-1.143311826506702,8.0186,1.2279663,130,1970-01-07 22:20:54.850132652,-0.9830475,-1.897644,0.3289795,12.404836218664746,2.1623280623930543,-14.32337760925293,-33.09691619873047,-118.52499389648438,18469861.0,20142.0,-0.06084416456749798,0.003142172141999979,0.0007403876928000016,-0.00095453590992229,0.00015092407275058768,-0.0003305694866069344,18.46986131207086
1626,B,598854870274254.0,2.611739173493298,4.1436615,3.610489,130,1970-01-07 22:20:54.870274254,-1.9122314,-1.8283691,0.78674316,7.867618529046973,2.7601679827118413,-15.45271110534668,-33.31642532348633,-117.9078140258789,18490002.0,20141.0,0.014787797597828514,-0.07490174556425001,0.04872566409864999,-0.0004638106435680563,-0.0007226547841487689,0.0004981478745657972,18.490002913982607
1626,B,598854890415855.0,6.526732273493298,-0.0018157959,3.3505707,130,1970-01-07 22:20:54.890415855,-2.0003204,-1.2166443,1.141861,3.7638610427372114,2.6048707451041886,-15.941572189331055,-32.58774948120117,-117.63729858398438,18510144.0,20142.0,0.092033545942602,-0.15567907191400893,0.0701048322387,0.0010757977507956757,-0.0023221794128235455,0.0011967419286134518,18.51014451496303
1626,B,598854910557457.0,10.562681973493298,-4.351776,1.0947266,130,1970-01-07 22:20:54.910557457,-1.0241394,0.14250183,1.3309174,5.052168796250517,1.6853810868193784,-14.222750663757324,-30.150850296020508,-118.50758361816406,18530286.0,20142.0,0.172107490881402,-0.24123662297650894,0.0447685891083,0.0026601643818545445,-0.003997337963242405,0.0011568902263856368,18.530286116991192
1626,B,598854930699058.0,14.3580157734933,-8.3892975,-0.99617004,130,1970-01-07 22:20:54.930699058,-0.104766846,1.0006104,1.3125,10.429995666445476,1.6537392523033816,-12.02868366241455,-27.987110137939453,-119.53215789794922,18550427.0,20141.0,0.25096388666102853,-0.32569078068175006,0.00099251383748,0.004260540307541047,-0.005709242418540497,0.00046083718721547746,18.550427717971615
1626,B,598854950840660.0,13.856764573493297,-6.846527,-0.14091492,130,1970-01-07 22:20:54.950840660,-0.69166565,0.32939148,0.8874512,8.855864238213499,1.1723778191640921,-9.825236320495605,-25.92501449584961,-120.51217651367188,18570569.0,20142.0,0.28415105287450204,-0.35083158853950003,-0.01145158263216,0.0053891425560623285,-0.00681325678042721,-0.00010533328183122228,18.570569319999777
1626,B,598854970982261.0,13.355513173493298,-5.303772,0.71432495,130,1970-01-07 22:20:54.970982261,-1.1691895,-0.048736572,0.1565857,7.4022769197127785,1.1806347537680955,-7.568758487701416,-23.980728149414062,-121.48261260986328,18590710.0,20141.0,0.2740412430510285,-0.3197413860795,0.005774525707115,0.005621275516118055,-0.0067530051409006395,-5.717080176366567e-05,18.5907109209802
1626,B,598854991123863.0,12.212492773493299,-1.5753784,0.07435608,130,1970-01-07 22:20:54.991123863,-0.52682495,0.7581482,-0.5545044,4.272747870115493,1.0769439868094823,-4.6149468421936035,-23.048561096191406,-122.70177459716797,18610852.0,20142.0,0.257495387892102,-0.2666715236784,0.00794280665313,0.0053531054102282675,-0.005905764414171811,0.00013814725420002738,18.61085252300836
1626,B,598855011265465.0,10.662779573493298,3.5379486,-1.5131378,130,1970-01-07 22:20:55.011265465,0.12181091,1.9091034,-1.0661011,4.5463623207108075,2.1899966313005597,-2.9817333221435547,-25.42156219482422,-123.4259262084961,18630994.0,20142.0,0.23037686780650204,-0.1776265555158,-0.014489970702119999,0.004913361487140641,-0.004474525955564789,-6.593648913737828e-05,18.630994125036523
1626,B,598855031407066.0,8.093642023493299,8.5546875,-3.3090057,130,1970-01-07 22:20:55.031407066,1.1425476,2.718567,-1.3175507,9.173551646530687,3.2298547024324873,-2.944331645965576,-26.716577529907227,-123.483642578125,18651135.0,20141.0,0.18888654369245353,-0.07560290815495001,-0.04856139611675,0.004222192185500232,-0.002550147313896288,-0.0006349587895494303,18.651135726016946
1626,B,598855051548668.0,0.011489173493298921,13.047882,-6.231415,130,1970-01-07 22:20:55.051548668,2.0681915,2.4574738,-1.3295441,16.63761787001219,3.4762452548983793,-3.6339375972747803,-27.823591232299805,-123.18611907958984,18671277.0,20142.0,0.08162677628485203,0.020167877434499982,-0.09608157686970001,0.0027243396454914443,-0.0005582861943856523,-0.001456699380946538,18.671277328045107
1626,B,598855071690269.0,-8.0709848265067,17.541245,-9.153946,130,1970-01-07 22:20:55.071690269,1.6096344,2.2555084,-1.3502197,25.6434428075299,3.0824234430723516,-4.587271690368652,-28.789976119995117,-122.76235961914062,18691418.0,20141.0,-0.08116315097367145,0.1106660034535,-0.1549382779505,4.668938696243996e-06,0.001317562597482604,-0.002527895447966824,18.69141892902553
1626,B,598855091831871.0,-6.519684826506701,15.9626465,-5.511429,130,1970-01-07 22:20:55.091831871,-0.78575134,0.94558716,-0.19772339,22.429302269970844,1.2452448692613647,-5.733879566192627,-29.765071868896484,-122.23246002197266,18711560.0,20142.0,-0.14694263407549796,0.14002609129649995,-0.147694991625,-0.002297253361230185,0.00252472008622725,-0.0030478196578948603,18.711560531053692
1626,B,598855111973472.0,0.9443347734932983,10.657379,2.160431,130,1970-01-07 22:20:55.111973472,-2.350235,-1.1201935,1.8670044,13.095623685302865,3.203770194986933,-6.80527925491333,-30.662492752075195,-121.66612243652344,18731702.0,20142.0,-0.056149350383897983,0.07069867681049999,-0.033747900857999995,-0.0020453393754905768,0.0021222091396055965,-0.001827311370196293,18.731702132034115
1626,B,598855132115074.0,5.738463173493298,6.164459,8.603287,130,1970-01-07 22:20:55.132115074,-2.4289398,-1.0401154,1.9972992,10.875759329954208,3.312218696230948,-7.214272499084473,-30.806255340576172,-121.42845916748047,18751843.0,20141.0,0.06729911672512852,-0.027977480421000008,0.108396022119,0.0001122837219393621,0.0004302238082404595,0.0007517439051589006,18.751843734062277
1626,B,598855152256676.0,-1.6069198265067008,5.3645325,9.458923,130,1970-01-07 22:20:55.152256676,-2.7377625,1.3601685,1.1192169,14.671066735544702,3.2554643791699074,-8.352914810180664,-30.64583396911621,-120.87643432617188,18771985.0,20142.0,0.041608773047502025,-0.08128312660350001,0.18190451691,0.0010968113579001623,-0.0011003635733437397,0.002923616728561059,18.771985335974023
1626,B,598855172398277.0,-8.952301826506703,4.5645905,10.314545,130,1970-01-07 22:20:55.172398277,-3.112793,2.0531006,0.97457886,20.563343263928566,3.8541544194451083,-9.780111312866211,-30.352453231811523,-120.20272827148438,18792126.0,20141.0,-0.10633664165667148,-0.0973905668285,0.199128709494,-0.000651842000828641,-0.001799333429706956,0.003837195106501482,18.79212693707086
1626,B,598855192539879.0,-6.071076826506701,4.5345306,8.963989,130,1970-01-07 22:20:55.192539879,-3.1499329,0.8213501,1.5878143,17.486109903479772,3.621856914975647,-11.170783042907715,-30.145570755004883,-119.52023315429688,18812268.0,20142.0,-0.151300446414498,-0.1057543514019,0.194154115914,-0.002594663113964748,-0.0020458724714983584,0.003960751334683967,18.812268538982607
1626,B,598855212681480.0,1.1613605734932984,4.832062,6.674774,130,1970-01-07 22:20:55.212681480,-2.8629456,0.59339905,1.7160492,10.864132220785697,3.3901924426086643,-12.221094131469727,-30.12221908569336,-118.99702453613281,18832410.0,20142.0,-0.04944575238409798,-0.10306064592540001,0.157497982173,-0.00202171496810066,-0.0021029758380832386,0.0035414882798341773,18.83241013996303
1626,B,598855232823082.0,7.618834273493299,4.870636,4.9305267,130,1970-01-07 22:20:55.232823082,-2.5820618,0.3164215,0.9461365,6.95851009933929,2.768093203147925,-12.271587371826172,-30.452539443969727,-118.99923706054688,18852551.0,20141.0,0.08842095220657852,-0.09967077979100002,0.11687118069935,0.00039249974981229026,-0.0020416068226770064,0.002763034654706001,18.852551741991192
1626,B,598855252964683.0,10.757017873493298,3.8008423,5.5195465,130,1970-01-07 22:20:55.252964683,-1.7136993,-0.6820526,0.28659058,7.158196771338661,1.8665731168459452,-11.525350570678711,-30.643434524536133,-119.40364074707031,18872693.0,20142.0,0.185063206972302,-0.11006114204070001,0.10524268719719998,0.0027542589670905056,-0.002112210184767051,0.002236908763586155,18.872693342971615
1626,B,598855273106285.0,13.895201473493298,2.7310486,6.1085663,130,1970-01-07 22:20:55.273106285,-0.1928711,-1.2449036,0.21011353,8.760016987262121,1.277157754546098,-10.263236999511719,-30.675888061523438,-120.03263092041016,18892834.0,20141.0,0.24826017493382851,-0.13160239269155002,0.1171009099524,0.004363783117485687,-0.002433672626521124,0.0022391111950950462,18.892834944999777
1626,B,598855293247886.0,14.827284573493298,1.1770782,4.8161316,130,1970-01-07 22:20:55.293247886,0.8978882,-1.0366058,0.42477417,8.243397428264087,1.4356837743013149,-8.755136489868164,-30.574766159057617,-120.7520980834961,18912976.0,20142.0,0.289264156979202,-0.15803285499720002,0.1100226325509,0.0054134075466961305,-0.002916916579473402,0.0022873611965507344,18.9129765459802
1626,B,598855313389488.0,15.018034773493298,-0.53970337,2.8913422,130,1970-01-07 22:20:55.313389488,1.062439,-0.7434082,0.723526,7.387352758342703,1.4848980615598633,-7.123043537139893,-30.32637596130371,-121.51658630371094,18933118.0,20142.0,0.300572211143502,-0.19097259808707004,0.0776219686398,0.005940242063363752,-0.003514833918011684,0.0018897687785915398,18.93311814800836
1626,B,598855333531090.0,14.826323173493298,-1.9032593,1.5751648,130,1970-01-07 22:20:55.333531090,1.0963287,-0.6543274,0.7775879,7.033053555285324,1.4948992966286592,-3.940897226333618,-29.493690490722656,-123.03921508789062,18953259.0,20141.0,0.30054760670512853,-0.22198365556823502,0.0449799587435,0.006053577125644634,-0.00415867595243575,0.0012346627097135226,18.953259750036523
1626,B,598855353672691.0,13.574599173493297,-2.2879791,1.9456635,130,1970-01-07 22:20:55.353672691,1.5672913,-1.1449585,0.3354187,6.12068055155381,1.9697303597415636,-2.4164211750030518,-28.89417839050293,-123.72627258300781,18973401.0,20142.0,0.28602568895650204,-0.2396015619264,0.0354582618093,0.005907379660608281,-0.004648624725388469,0.0008100933191872489,18.973401351016946
1626,B,598855373814293.0,12.322874773493298,-2.6726837,2.316162,130,1970-01-07 22:20:55.373814293,2.304123,-1.5856781,-0.50071716,5.400529255749019,2.841491775505795,-1.034914255142212,-28.07269287109375,-124.34846496582031,18993542.0,20141.0,0.2608005113831285,-0.2473381547274,0.042918713697749994,0.005506813250520249,-0.004903726416562093,0.000789295331843747,18.993542953045107
1626,B,598855393955894.0,4.882673973493299,3.6003418,7.592682,130,1970-01-07 22:20:55.393955894,3.0574036,-1.3868256,-1.5251312,9.049463311461862,3.6874147034639,-1.4198942184448242,-28.075693130493164,-124.1615219116211,19013684.0,20142.0,0.17327708143090204,-0.18804915527490004,0.099791967924,0.004371595437230102,-0.004384785599033164,0.0014372392746126441,19.01368455402553
1626,B,598855414097496.0,-4.587357826506702,12.057083,14.478394,130,1970-01-07 22:20:55.414097496,2.655548,-1.9876556,-2.4588623,22.794208595256254,4.129008812642163,-2.112722396850586,-28.40761947631836,-123.87744140625,19033826.0,20142.0,0.0029741289163020164,-0.03970567483920001,0.22227780639599998,0.0017750259394066921,-0.0022937188940791017,0.0032435646971767196,19.033826156053692
1626,B,598855434228752.0,-9.3672648265067,17.035706,18.28067,130,1970-01-07 22:20:55.434228752,4.4778748,-1.4624481,-4.859619,30.56903151311948,6.768014036246501,-2.6619787216186523,-28.769411087036133,-123.71932220458984,19053957.0,20131.0,-0.1404602543139064,0.09554966767949997,0.329736358692,-0.001383866595189587,0.0005620977099340393,0.005556298578693263,19.053957412019372
1626,B,598855454370354.0,-3.587052826506701,14.183121,15.140427,130,1970-01-07 22:20:55.454370354,2.4514008,0.29940796,-2.6385803,23.881109349179194,3.6140167415633386,-3.2284436225891113,-29.052894592285156,-123.50260162353516,19074099.0,20142.0,-0.13046293308349796,0.117013206717,0.336583867887,-0.00272846742027926,0.002140720708047151,0.006710511001877109,19.074099014047533
1626,B,598855474511956.0,2.1929311734932986,11.330643,12.00029,130,1970-01-07 22:20:55.474511956,-0.26869202,0.9070587,-0.09527588,17.577691623617504,0.9508040703358104,-3.7390828132629395,-29.326494216918945,-123.26646423339844,19094240.0,20141.0,-0.01403950210667147,0.059554560361999985,0.2733205905485,-0.001455211773582601,0.0017781256983690694,0.006142042848674703,19.09424061595928
1626,B,598855494653557.0,2.1396321734932986,11.321777,8.201996,130,1970-01-07 22:20:55.494653557,0.9155731,0.25506592,-0.3633728,15.254107236948153,1.017532563001743,-4.283658981323242,-29.845985412597656,-122.99168395996094,19114382.0,20142.0,0.04363324546750202,0.030740921819999996,0.20345722230600002,0.0002980385893869244,0.0009093658010549218,0.00480162935325767,19.114382217056118
1626,B,598855514795159.0,0.9194781734932986,11.881714,4.271988,130,1970-01-07 22:20:55.514795159,1.6265564,-0.23774719,-0.5252533,14.59577203350412,1.7257173806549975,-4.983542442321777,-30.63445472717285,-122.62067413330078,19134523.0,20141.0,0.030806770749328527,0.036288956115499996,0.12561925587199999,0.000749648183311592,0.0006750243857494528,0.003313964673491549,19.134523818967864
1626,B,598855534936760.0,-0.03944482650670089,11.454498,1.4514008,130,1970-01-07 22:20:55.534936760,1.2816467,-0.73625183,-0.672699,14.20864614907559,1.6239485722769176,-5.861743927001953,-31.553375244140625,-122.16053771972656,19154665.0,20142.0,0.008862815837502026,0.037627391051999984,0.05764024860480001,0.00039951240651597044,0.0007444115323238923,0.001845606469585853,19.154665420064703
1626,B,598855555078362.0,-0.4346478265067013,8.896881,1.0249786,130,1970-01-07 22:20:55.555078362,0.44430542,-1.37146,-0.41731262,12.469165122665911,1.5008196629351045,-6.990435600280762,-32.37510681152344,-121.56310272216797,19174807.0,20142.0,-0.004774587108497974,0.007567137908999983,0.0249396169374,4.117255152979981e-05,0.00045515410116623065,0.0008316618258754963,19.17480702197645
1626,B,598855575219963.0,-0.8298348265067013,6.3393707,0.5985565,130,1970-01-07 22:20:55.575219963,-0.8086853,-1.3365936,0.05870056,11.083070288332864,1.5632978352640816,-8.414494514465332,-33.007625579833984,-120.80622100830078,19194948.0,20141.0,-0.01273397255717147,-0.043945127255150006,0.016349810224550003,-0.0001763199501131241,-0.0003663445417104038,0.00041580517623441746,19.194948623073287
1626,B,598855595361565.0,2.5814654734932985,1.4552917,3.3755188,130,1970-01-07 22:20:55.595361565,-1.8931732,-1.0350037,0.529953,6.748899390660378,2.2217532730753273,-9.82027530670166,-32.824493408203125,-120.06551361083984,19215090.0,20142.0,0.01764067224580202,-0.11889155496960002,0.0400229123463,4.9415372564198276e-05,-0.0016399282266854576,0.0005677296890110304,19.215090224985033
1626,B,598855615503166.0,6.525282673493298,-3.7541351,6.6006317,130,1970-01-07 22:20:55.615503166,-2.016571,-0.7354431,1.0042572,7.785060390959029,2.369803298826814,-10.077393531799316,-31.593647003173828,-119.93627166748047,19235231.0,20141.0,0.09170950721422852,-0.22053230245969999,0.10046482361024998,0.0011012109822522375,-0.003418167956241766,0.0014147817449504366,19.235231825965457
1626,B,598855635644768.0,10.387617873493298,-6.595871,7.2427826,130,1970-01-07 22:20:55.635644768,-0.95558167,-0.061080933,1.364502,10.02842800652303,1.666953183631784,-9.606134414672852,-30.27604103088379,-120.14588928222656,19255373.0,20142.0,0.170329821408702,-0.3016265114331,0.1394170254153,0.0026389980785615336,-0.005258661414714388,0.002415850101536314,19.255373427993618
1626,B,598855655786370.0,14.119170173493298,-5.6284637,3.7292786,130,1970-01-07 22:20:55.655786370,-0.78460693,0.5042572,1.0697174,8.9517870586848,1.4192176275041912,-7.337891101837158,-28.229707717895508,-121.23246002197266,19275515.0,20142.0,0.246807862421202,-0.32050287476370004,0.11049962834520001,0.004200993613850963,-0.006265465048387973,0.0025169106200219954,19.27551503002178
1626,B,598855675927971.0,17.8505851734933,-4.6611023,0.2158966,130,1970-01-07 22:20:55.675927971,-1.3117981,0.319458,0.42303467,10.682115721822754,1.4148590039115625,-4.403133869171143,-27.163267135620117,-122.61113739013672,19295656.0,20141.0,0.3219514212218285,-0.301002874403,0.039729886851600005,0.005727690365927139,-0.0062588736469832516,0.0015128863327893744,19.295656631002203
1626,B,598855696069573.0,16.0394731734933,-1.5798187,0.8361511,130,1970-01-07 22:20:55.696069573,-0.94215393,0.49317932,-0.34573364,8.000240132078343,1.1182180553531393,-1.2959988117218018,-26.56216049194336,-124.05391693115234,19315798.0,20142.0,0.34130677761250205,-0.260243915391,0.010595172386700002,0.006679673320460543,-0.005652316420015374,0.0005068236715889195,19.315798233030364
1626,B,598855716211174.0,13.496168873493298,1.780716,2.0024872,130,1970-01-07 22:20:55.716211174,-0.2883911,0.9141693,-0.91867065,5.89853993764558,1.3277163472644007,0.15329024195671082,-26.691911697387695,-124.751953125,19335939.0,20141.0,0.2974386832341785,-0.19535866374035,0.02858650700015,0.006432486163456496,-0.00458814577314226,0.0003945791022652729,19.335939834010787
1626,B,598855736352776.0,9.039641173493298,4.343628,5.4985046,130,1970-01-07 22:20:55.736352776,0.52633667,1.7945251,-1.1855774,7.052498534575471,2.214259333526102,0.38787686824798584,-26.88811492919922,-124.89860534667969,19356081.0,20142.0,0.22695814298320202,-0.13571333157600002,0.07554248841780001,0.005281200436835239,-0.003334226064830961,0.0010486831128541745,19.35608143603895
1626,B,598855756494377.0,2.1718738734932987,5.9012146,11.93074,130,1970-01-07 22:20:55.756494377,1.5865936,2.6677551,-1.1825562,14.6289739150986,3.3215411620654964,-0.1777530163526535,-26.742143630981445,-124.65950012207031,19376223.0,20142.0,0.11291116803820202,-0.09421579017540001,0.1755299223666,0.0034228238312965604,-0.0023156161851583495,0.0025285502490096927,19.376223037019372
1626,B,598855776635979.0,-4.695893826506701,7.458786,18.36296,130,1970-01-07 22:20:55.776635979,2.9321594,2.4878082,-0.9636383,23.668695569235854,3.964258715096997,-0.8781028389930725,-26.518030166625977,-124.3229751586914,19396364.0,20141.0,-0.02541814293682147,-0.06283991395770001,0.30507270585,0.0008810985092834527,-0.0015816294684723837,0.004839908767455271,19.396364639047533
1626,B,598855796777581.0,-6.269089826506702,7.6633453,9.868652,130,1970-01-07 22:20:55.796777581,1.3868866,2.6093597,-1.9176178,19.148719956608513,3.5227078380303536,-1.9605730772018433,-26.56139373779297,-123.89591979980469,19416506.0,20142.0,-0.11042835036949798,-0.04509661567770002,0.28432056445200005,-0.0013681100340879433,-0.0010870287899581138,0.005935779625211443,19.41650624095928
1626,B,598855816919182.0,-7.659592826506701,7.8211975,0.85928345,130,1970-01-07 22:20:55.816919182,-1.5881348,0.99438477,0.47842407,17.74128718862569,1.9338724892128636,-3.488888740539551,-27.017057418823242,-123.22270202636719,19436647.0,20141.0,-0.14026879865717148,-0.04144471173260002,0.108035673949225,-0.0025246456392730744,-0.0008715144376854265,0.003951223498819536,19.436647842056118
1626,B,598855837060784.0,-8.926575826506701,7.2549286,0.16184998,130,1970-01-07 22:20:55.837060784,-2.1861572,-2.111206,2.3240204,18.638721885610853,3.825904454787652,-5.146325588226318,-27.559429168701172,-122.40337371826172,19456789.0,20142.0,-0.16703930450449797,-0.04555993404690001,0.010283834773529999,-0.003094899906941173,-0.0008762237876453448,0.0011915957723468657,19.456789443967864
1626,B,598855857202385.0,-10.041626826506702,5.7981567,9.6866,130,1970-01-07 22:20:55.857202385,-2.5549622,-0.97998047,1.5873108,21.487681122516943,3.1635026696380235,-6.621866226196289,-27.587669372558594,-121.70545196533203,19476931.0,20142.0,-0.191028768918498,-0.06593397794370001,0.09918373974858,-0.003606103567442992,-0.001122855187657333,0.0011024479430121698,19.476931045064703
1626,B,598855877343987.0,-11.080033826506702,4.373047,19.063675,130,1970-01-07 22:20:55.877343987,-3.2314606,2.0637054,0.7898102,27.49304862594985,3.9147180919404096,-7.7924275398254395,-27.167465209960938,-121.21776580810547,19497072.0,20141.0,-0.21270568360617148,-0.09495269313915002,0.2895296443875,-0.004065807804149684,-0.0016202092211398413,0.003914538134942394,19.49707264697645
1626,B,598855897485588.0,-4.9524548265067025,5.9123993,14.617645,130,1970-01-07 22:20:55.897485588,-3.5894928,1.702301,0.65423584,20.559952367319372,4.02620314815253,-8.848905563354492,-26.92413902282715,-120.80075073242188,19517214.0,20142.0,-0.16146319322449798,-0.09380687031270002,0.33920457372,-0.003768254758561672,-0.0019009975635235815,0.006331982310560632,19.517214248073287
1626,B,598855917627190.0,1.1751241734932982,7.4517365,10.171616,130,1970-01-07 22:20:55.917627190,-2.9991302,1.1149292,1.1997681,14.454182113696826,3.4172053744752144,-9.627362251281738,-27.016464233398438,-120.47037506103516,19537355.0,20141.0,-0.03803960834117149,-0.06279827042610002,0.2496402529005,-0.0020090929631670744,-0.0015770920698100859,0.005929961826481745,19.537355849985033
1626,B,598855937768791.0,5.007963973493299,6.545868,7.2866516,130,1970-01-07 22:20:55.937768791,-2.6425323,0.6067505,0.74360657,10.315000498867347,2.811418477697816,-10.083638191223145,-27.30223846435547,-120.29399871826172,19557497.0,20142.0,0.062269880728302016,-0.05642172508050002,0.1758222129996,0.00024402307321079152,-0.001200664574746969,0.004284832494079907,19.557497450965457
1626,B,598855957910393.0,6.832793073493298,3.5003967,5.7677,130,1970-01-07 22:20:55.957910393,-2.1705322,-0.265213,0.24627686,6.892278919347511,2.200500001903499,-10.287947654724121,-27.39464569091797,-120.23707580566406,19577639.0,20142.0,0.119248264220202,-0.09621566820630001,0.1314703749636,0.001828069237776384,-0.001537211187791363,0.0030947436533773874,19.577639052993618
1626,B,598855978051995.0,8.693922773493298,0.5399475,4.256958,130,1970-01-07 22:20:55.978051995,-1.0500793,-1.3615112,0.25550842,4.3148521384484555,1.738293368998693,-9.903959274291992,-26.99053382873535,-120.41475677490234,19597780.0,20141.0,0.15636179193707853,-0.1566935137339,0.10095331838899999,0.002775531070531893,-0.002546921916728784,0.0023406228039073583,19.59778065502178
1626,B,598855998193596.0,12.363219173493299,1.8161011,3.1555786,130,1970-01-07 22:20:55.998193596,0.49238586,-1.7644958,0.7297516,5.499520212591201,1.9719093947360105,-8.557516098022461,-27.203189849853516,-120.97134399414062,19617922.0,20142.0,0.212066476548102,-0.17366383454940001,0.0746516560986,0.0037104410919142528,-0.0033270288545611142,0.0017685176980646194,19.617922256002203
1626,B,598856018335198.0,16.0326526734933,3.0923004,2.0541687,130,1970-01-07 22:20:56.018335198,1.1957855,-1.4593964,1.149643,8.630438641376932,2.2093935461551912,-7.032041072845459,-27.649850845336914,-121.58650207519531,19638063.0,20141.0,0.2859606274350785,-0.14795174269425002,0.052464760184649996,0.005015381950662619,-0.0032388296706321773,0.001280125870180469,19.638063858030364
1626,B,598856038476799.0,16.9596391734933,1.8648834,1.9068146,130,1970-01-07 22:20:56.038476799,0.9642334,-1.1110535,1.2087708,9.117029130329064,1.904025413819482,-5.439473628997803,-27.88884162902832,-122.24700927734375,19658205.0,20142.0,0.3322653711910021,-0.1474678019502,0.03989106281429999,0.006226154032163257,-0.0029751702341142563,0.0009301154934224252,19.658205459010787
1626,B,598856058618401.0,15.915495673493298,-1.161972,2.4452057,130,1970-01-07 22:20:56.058618401,0.95365906,-0.65945435,0.7615051,8.137560602957052,1.3871682161079155,-3.850187301635742,-27.58837890625,-122.92819213867188,19678347.0,20142.0,0.33108548304400204,-0.19031257929060003,0.0438291964413,0.006680606453000727,-0.003401786219476097,0.0008431467309631476,19.67834706103895
1626,B,598856078760002.0,14.648161673493298,-3.6819763,2.6203766,130,1970-01-07 22:20:56.078760002,1.5041199,-0.8252106,-0.01260376,7.84021886104881,1.71566548682851,-2.4315178394317627,-26.841819763183594,-123.54029846191406,19698488.0,20141.0,0.3077913113128285,-0.24616278135515002,0.051012946552149996,0.006433808757570461,-0.004395525119383026,0.0009551078010155381,19.698488662019372
1626,B,598856098901604.0,11.405821573493299,-1.7144165,-0.4194336,130,1970-01-07 22:20:56.098901604,2.1878204,-0.7423706,-1.0422058,3.6232960949482127,2.534534501630262,0.6479489803314209,-25.767990112304688,-124.90093231201172,19718630.0,20142.0,0.26238966528040203,-0.2517386718888,0.022165696953,0.005742292615270424,-0.005014365535619821,0.0007369821187403656,19.718630264047533
1626,B,598856119043206.0,8.163344173493298,0.25320435,-3.459381,130,1970-01-07 22:20:56.119043206,2.908783,-0.46646118,-2.1054382,3.4695147876388885,3.620977021130517,0.7768326997756958,-28.653486251831055,-124.99169158935547,19738771.0,20141.0,0.19707128365502855,-0.21209693695657503,-0.0390616024293,0.004627001486254253,-0.004671056498877349,-0.00017015021609907913,19.73877186595928
1626,B,598856139184807.0,2.5195605734932984,0.658371,-3.8218384,130,1970-01-07 22:20:56.139184807,2.2103577,-1.6551208,-2.469925,6.9123179293280135,3.7048124824566937,-2.0735561847686768,-29.84104347229004,-123.65510559082031,19758913.0,20142.0,0.10758753370690202,-0.18821112465015002,-0.0733291605774,0.0030682189496520026,-0.004031502488441328,-0.0011318873742404757,19.758913467056118
1626,B,598856159326409.0,-4.818482826506701,-0.03868103,-2.295517,130,1970-01-07 22:20:56.159326409,5.756958,-2.1332245,-5.105667,13.26021269669815,7.985051514927957,-4.944578170776367,-30.117345809936523,-122.29498291015625,19779055.0,20142.0,-0.023152446010097975,-0.19115070231213,-0.061607886233399994,0.0008503457681945136,-0.0038205529593371224,-0.0013589509984315666,19.779055068967864
1626,B,598856179468010.0,-9.7728898265067,-0.17826843,-1.0814972,130,1970-01-07 22:20:56.179468010,2.7259674,-0.29870605,-1.1726837,18.047674254807003,2.9825007343528105,-6.430111408233643,-30.09754180908203,-121.53079223632812,19799196.0,20141.0,-0.14694241830217145,-0.19956658953693,-0.03400822150109999,-0.001712940331056709,-0.003934718487565958,-0.0009629020129402822,19.799196670064703
1626,B,598856199609612.0,0.18022017349329822,3.168747,-1.8206635,130,1970-01-07 22:20:56.199609612,-1.1098633,1.2805481,1.1127014,8.850960884008146,2.0272405843072647,-8.057300567626953,-30.534700393676758,-120.69559478759766,19819338.0,20142.0,-0.09660777607549798,-0.16727449032153002,-0.029227660409700002,-0.002452794007577509,-0.0036944565152545513,-0.0006368485667236668,19.81933827197645
1626,B,598856219751213.0,10.132933373493298,6.515625,-2.5597992,130,1970-01-07 22:20:56.219751213,1.4325409,1.007431,0.005142212,7.25145350290735,1.7513186723946226,-7.628893852233887,-31.87364959716797,-120.88703155517578,19839479.0,20141.0,0.10385861279492851,-0.09985533177400001,-0.04411344962035,7.301955118302525e-05,-0.0026901308734130353,-0.0007385816485576185,19.839479873073287
1626,B,598856239892815.0,8.6385333734933,8.434418,-2.134262,130,1970-01-07 22:20:56.239892815,1.237381,-0.540802,-0.6265869,8.709313478242109,1.4886872356598648,-7.5271806716918945,-33.27081298828125,-120.93244171142578,19859621.0,20142.0,0.18904744160890202,-0.04682971694700001,-0.0472738903452,0.0029498568739009775,-0.0014772651256691912,-0.000920361900793054,19.859621474985033
1626,B,598856260034416.0,1.6133258734932987,9.663132,-1.1460114,130,1970-01-07 22:20:56.260034416,1.278122,-1.017334,-0.5428772,11.773773642451633,1.7214180110362038,-8.439250946044922,-34.32211685180664,-120.40696716308594,19879763.0,20142.0,0.10324647447640203,-0.015131173950000014,-0.0330356334114,0.0029436920288950976,-0.0006240081322236872,-0.0008087972137527186,19.879763075965457
1626,B,598856280176018.0,-3.930573826506702,10.1106415,-0.2960968,130,1970-01-07 22:20:56.280176018,0.49035645,-1.6280365,-0.33337402,15.826287487921528,1.7326541866742518,-9.747784614562988,-35.07755661010742,-119.65193176269531,19899904.0,20141.0,-0.023335845510821476,0.0017499860317499755,-0.014522750628099998,0.000804739988997879,-0.000134755252930737,-0.0004789367064697847,19.899904677993618
1626,B,598856300317620.0,-1.0775158265067013,6.130295,-0.23036194,130,1970-01-07 22:20:56.300317620,-0.8915558,-1.3202972,0.26895142,11.156929005808479,1.6156705441275756,-11.26762580871582,-35.67534637451172,-118.77759552001953,19920046.0,20142.0,-0.050436470895497985,-0.03382912850850001,-0.00530196597054,-0.0007429609985280432,-0.00032306904388334964,-0.00019965472086490342,19.92004628002178
1626,B,598856320459221.0,1.775526773493298,2.1499481,-0.16461182,130,1970-01-07 22:20:56.320459221,-1.7284241,-1.023468,0.9351349,6.815994791965079,2.2157197245325997,-13.048771858215332,-35.93531036376953,-117.74053955078125,19940187.0,20141.0,0.007029319241628522,-0.11399561186145,-0.003977583250079999,-0.0004371317207302924,-0.0014886690478955816,-9.34497004262537e-05,19.940187881002203
1626,B,598856340600823.0,6.233778773493299,-0.98321533,-0.48121643,130,1970-01-07 22:20:56.340600823,-2.2397156,-0.9471588,1.4994049,2.286723065852337,2.856860307303248,-16.48262596130371,-34.895118713378906,-115.7480697631836,19960329.0,20142.0,0.080661716163702,-0.18564143427333002,-0.00650413630575,0.0008831364175670836,-0.00301764469162337,-0.00010556139764676392,19.960329483030364
1626,B,598856360742424.0,11.420561573493298,-3.7320557,-0.97132874,130,1970-01-07 22:20:56.360742424,-1.0346832,-0.26235962,1.7675629,4.997834306656259,2.06486815560345,-13.823600769042969,-33.17211151123047,-117.19366455078125,19980471.0,20142.0,0.17779686163450203,-0.24487909454313003,-0.01462858240707,0.002602936337005713,-0.00433577224571057,-0.0002128276101568102,19.980471084010787
1626,B,598856380884026.0,15.415739773493298,-5.6940002,-1.0470886,130,1970-01-07 22:20:56.380884026,-0.2617035,0.3418274,1.4685974,9.21890402682848,1.5303963593101526,-10.847692489624023,-31.849205017089844,-118.7443618774414,20000612.0,20141.0,0.2702549727148285,-0.29230689594095,-0.02032647182247,0.004512105997814933,-0.005409731517169928,-0.0003520148736185825,20.00061268603895
1626,B,598856401025627.0,15.428023173493298,-5.025696,0.26211548,130,1970-01-07 22:20:56.401025627,-0.913147,0.10269165,0.7876282,8.773419128491904,1.2102649296843904,-7.966020107269287,-30.48429298400879,-120.22809600830078,20020754.0,20142.0,0.310627536639102,-0.3053496604302,-0.007905464291519998,0.005850067751703434,-0.006018999179213852,-0.00028432382860399326,20.020754287019372
1626,B,598856421167229.0,15.440321673493298,-4.3573914,1.5713043,130,1970-01-07 22:20:56.421167229,-0.99713135,0.23596191,-0.1592865,8.560334942789838,1.0369769241434066,-5.138511657714844,-29.062843322753906,-121.6659927368164,20040895.0,20141.0,0.3108596667815785,-0.29187418166170004,0.01846345389449,0.006258686882047962,-0.006014342701786479,0.0001063242342967094,20.040895889047533
1626,B,598856441308831.0,13.618239173493297,-1.5893402,1.2253723,130,1970-01-07 22:20:56.441308831,-0.36405945,0.7280426,-0.98114014,5.739093585039655,1.2748416705098253,-2.0349738597869873,-28.121370315551758,-123.20597839355469,20061037.0,20142.0,0.29264876629000197,-0.2572811339436,0.0281653300386,0.006077933429463888,-0.005530543183460977,0.0004695984829901494,20.06103749095928
1626,B,598856461450432.0,11.054548973493299,2.0275726,0.21025085,130,1970-01-07 22:20:56.461450432,0.37998962,1.1286926,-1.1640015,3.4739997163736964,1.6653043531453204,-0.6573038101196289,-28.775545120239258,-123.90640258789062,20081179.0,20142.0,0.24847964942830203,-0.1929781614996,0.01445816074365,0.00544970427469904,-0.004534561364408467,0.00042926117566803975,20.081179092056118
1626,B,598856481592034.0,6.932112473493298,6.2735596,-2.6596375,130,1970-01-07 22:20:56.481592034,1.2780457,2.8576813,-0.9282074,6.938705690112046,3.26516648902823,-0.8851860761642456,-30.030921936035156,-123.80587005615234,20101320.0,20141.0,0.1811346741018785,-0.11378524817990002,-0.024666548258825,0.004326431045110683,-0.0030892609171774047,-0.00010280356647156983,20.101320693967864
1626,B,598856501733635.0,-1.2845928265067013,12.171921,-10.401382,130,1970-01-07 22:20:56.501733635,2.8600159,2.7497406,-1.0525055,18.630358707443317,4.104696352115638,-2.4886133670806885,-32.32068634033203,-122.95145416259766,20121462.0,20142.0,0.05687617036480202,-0.011627164877400016,-0.1315375273845,0.0023970072146239398,-0.0012630284119000685,-0.001573131245803926,20.121462295064703
1626,B,598856521875237.0,-9.501297826506702,18.070297,-18.143127,130,1970-01-07 22:20:56.521875237,2.0009613,2.7716827,-1.2589722,31.15308125727898,3.6429496447178376,-4.432535648345947,-34.45709228515625,-121.88615417480469,20141603.0,20141.0,-0.10861931182117147,0.10717245636899995,-0.2874574778845,-0.0005210793060363686,0.0009621888579661571,-0.004219489200561465,20.14160389697645
1626,B,598856542016838.0,-5.015763826506701,14.544403,-8.955719,130,1970-01-07 22:20:56.542016838,-1.9590759,0.90315247,-0.8061981,21.62172028885905,2.302958562908052,-5.632162570953369,-35.5008430480957,-121.28984069824219,20161745.0,20142.0,-0.14620132790749799,0.1310710437,-0.272912478066,-0.0025662986627074304,0.0023993502891948987,-0.005643485826377486,20.161745498073287
1626,B,598856562158440.0,2.6456441734932987,8.662231,4.464264,130,1970-01-07 22:20:56.562158440,-2.3819427,-2.9329987,2.4607697,11.237310905625153,4.50904867091974,-6.660966396331787,-36.15940856933594,-120.64532470703125,20181887.0,20142.0,-0.023869475025497976,0.036322411013999995,-0.045233443305,-0.0017127830563382022,0.001685819482424694,-0.003204047574127341,20.181887099985033
1626,B,598856582300041.0,5.912443873493299,4.2746735,13.776123,130,1970-01-07 22:20:56.582300041,-2.2041473,-1.2157135,1.7589874,14.610912267574921,3.07087305298319,-6.92556619644165,-35.740501403808594,-120.47879028320312,20202028.0,20141.0,0.08618422567717852,-0.06710070323275001,0.18368981728349998,0.0006275406964377489,-0.00030995279178892203,0.0013943249141504838,20.202028700965457
1626,B,598856602441643.0,-2.021271826506702,3.696167,12.618118,130,1970-01-07 22:20:56.602441643,-2.7891693,1.5310211,0.8041992,16.67940062432982,3.281802453833616,-7.997406482696533,-35.222564697265625,-119.9131851196289,20222170.0,20142.0,0.03918799368520202,-0.11711726532450002,0.265816401111,0.0012626236211985345,-0.0018552591613400652,0.0045269771254510096,20.222170302993618
1626,B,598856622583245.0,-9.954682826506703,3.1176758,11.460175,130,1970-01-07 22:20:56.622583245,-3.2424774,1.7385712,1.0098877,21.729138524838824,3.8152539461471617,-9.50343132019043,-34.76096725463867,-119.11203002929688,20242311.0,20141.0,-0.12060385133317149,-0.1287629960826,0.2424804496565,-0.0008198983944438764,-0.0024761371725002005,0.005118803435654109,20.24231190502178
1626,B,598856642724846.0,-4.479477826506702,3.844635,9.657318,130,1970-01-07 22:20:56.642724846,-3.0939026,0.7384949,1.64505,16.427644438968052,3.581033023879111,-10.86674690246582,-34.4011116027832,-118.36479187011719,20262453.0,20142.0,-0.145366431936498,-0.1272741679332,0.212674272003,-0.0026785867228088416,-0.002578550278803122,0.004583863201832824,20.262453506002203
1626,B,598856662866448.0,3.3622881734932983,4.802002,7.740677,130,1970-01-07 22:20:56.662866448,-2.8101196,0.9049835,1.39888,10.333620413828543,3.2668995325807635,-11.60676097869873,-34.2232551574707,-117.97740173339844,20282595.0,20142.0,-0.011251216995497991,-0.11031131877300002,0.175215207645,-0.0015772963423941319,-0.0023927234366181403,0.003906434949535008,20.282595108030364
1626,B,598856683008049.0,9.080137973493299,4.3966675,6.3799286,130,1970-01-07 22:20:56.683008049,-2.2625885,0.6466675,0.50123596,7.793429245380217,2.4059765301194487,-11.264220237731934,-34.225547790527344,-118.21876525878906,20302736.0,20141.0,0.12530145251322852,-0.10474659880025,0.1422015586948,0.0011485428967813053,-0.002165740758921414,0.0031965455454249555,20.302736709010787
1626,B,598856703149651.0,11.080610973493298,1.6064148,5.9921265,130,1970-01-07 22:20:56.703149651,-1.4370422,-0.3287964,0.087509155,6.822526999739066,1.4767718880865164,-10.340752601623535,-33.887516021728516,-118.7701416015625,20322878.0,20142.0,0.20303890264510202,-0.1369345581567,0.12459896691210001,0.003306715716799547,-0.0024339709317134435,0.0026869480933870904,20.32287831103895
1626,B,598856723291252.0,13.081007773493297,-1.1837311,5.604355,130,1970-01-07 22:20:56.723291252,-0.18786621,-0.97398376,0.41337585,7.498743104282355,1.0746244325189727,-9.052252769470215,-33.242820739746094,-119.46366119384766,20343019.0,20141.0,0.24331958159152853,-0.19312516379915,0.11678236694574999,0.004495053115504988,-0.0033238664299563873,0.002430830722615478,20.343019912019372
1626,B,598856743432854.0,14.997481173493298,-1.0150452,3.9454803,130,1970-01-07 22:20:56.743432854,1.054184,-1.0013275,0.75190735,7.889285753468126,1.636864481591641,-7.45297908782959,-32.84076690673828,-120.2691879272461,20363161.0,20142.0,0.282778462185102,-0.2195354761173,0.0961763913063,0.005298333398874446,-0.004155905304598568,0.0021447076543563955,20.363161514047533
1626,B,598856763574456.0,16.898757173493298,-0.31159973,2.0569,130,1970-01-07 22:20:56.763574456,1.3758392,-0.4945221,0.8031311,8.903738962743688,1.6680842830721292,-5.719357967376709,-32.72697448730469,-121.13447570800781,20383303.0,20142.0,0.321227016392502,-0.21075224109003002,0.060449972001300006,0.00608293917475505,-0.004333427599995021,0.0015773841048708395,20.38330311595928
1626,B,598856783716057.0,16.9136951734933,-0.3784485,0.99931335,130,1970-01-07 22:20:56.783716057,1.2836914,0.047973633,0.42492676,8.737811753163173,1.3530439132789727,-2.2735307216644287,-32.54922103881836,-122.94103240966797,20403444.0,20141.0,0.3405083013603285,-0.204330930700215,0.030777596541175,0.006664005517429879,-0.004180095081513662,0.0009187072290069945,20.403444717056118
1626,B,598856803857659.0,14.220579873493298,-1.5511475,1.1347046,130,1970-01-07 22:20:56.803857659,1.5491028,-0.24180603,-0.12097168,6.280396313838155,1.572521474725933,1.03426992893219,-31.70272445678711,-124.66348266601562,20423586.0,20142.0,0.313553283998202,-0.21682456131600003,0.02149169477445,0.006587054226145761,-0.004241456960095302,0.0005264040328396594,20.423586318967864
1626,B,598856823999260.0,11.527479873493299,-2.7238312,1.2700958,130,1970-01-07 22:20:56.823999260,2.2085266,-0.7802429,-0.59313965,4.453118690062681,2.416233302127527,3.584244966506958,-29.772171020507812,-125.93492889404297,20443727.0,20141.0,0.2592958356820285,-0.24043297299834998,0.024217542428199998,0.005768877059739761,-0.004604811999312662,0.00046031487324928676,20.443727920064703
1626,B,598856844140862.0,2.877211173493298,5.58165,8.08725,130,1970-01-07 22:20:56.844140862,2.660843,-1.0554352,-1.5386658,11.195253153705993,3.249849438995241,2.8982269763946533,-29.94668197631836,-125.59683227539062,20463869.0,20142.0,0.14506964353420201,-0.16861050686520002,0.09423782955179999,0.004072364741186658,-0.004119476885705812,0.00119296405121058,20.46386952197645
1626,B,598856864282463.0,-5.978897826506701,14.214432,15.135178,130,1970-01-07 22:20:56.864282463,2.5402374,-2.0966797,-2.3312073,25.16629745888332,4.035269419546127,2.1092679500579834,-30.33535385131836,-125.24271392822266,20484011.0,20142.0,-0.031237086282497984,0.0019747418219999875,0.233873072388,0.0011464076840819112,-0.0016781887897500674,0.0033044048934357255,20.484011123073287
1626,B,598856884424065.0,-10.104279826506703,18.370956,17.454895,130,1970-01-07 22:20:56.884424065,4.003525,-3.270691,-3.7492218,31.284690987541527,6.38610179598644,1.4127531051635742,-30.828590393066406,-124.9541244506836,20504152.0,20141.0,-0.16196564055467147,0.13076934985399996,0.3281983301465,-0.001945648060613715,0.0013367993752231575,0.005660340059223682,20.504152724985033
1626,B,598856904565666.0,-7.6067978265067016,16.260864,13.155258,130,1970-01-07 22:20:56.904565666,4.1596985,-0.22946167,-3.284256,26.242028846420183,5.304911096563018,0.6882036924362183,-31.239402770996094,-124.6152114868164,20524294.0,20142.0,-0.178368263043498,0.15138545922,0.308274850863,-0.0034275027431371653,0.0028415810821842535,0.0064099214059466746,20.524294325965457
1626,B,598856924707268.0,-5.1093148265067025,14.150772,8.855606,130,1970-01-07 22:20:56.924707268,-1.9273987,1.2282562,1.7456512,21.375442433733998,2.8758958871387486,-0.5219710469245911,-31.68174171447754,-123.95831298828125,20544435.0,20141.0,-0.12805761247217148,0.10887858033799999,0.22166040591199998,-0.0030858617793805493,0.002620989010368839,0.005336713003352637,20.544435927993618
1626,B,598856944848870.0,-2.4482588265067022,14.364624,6.7679596,130,1970-01-07 22:20:56.944848870,1.9767609,0.3621521,-0.7435608,19.142047553033404,2.1428066787743263,-1.3402730226516724,-32.3061408996582,-123.50459289550781,20564577.0,20142.0,-0.076112324259498,0.08978695311599998,0.15734492915759998,-0.0020561954328246436,0.0020007605874152335,0.0038169627294859414,20.56457753002178
1626,B,598856964990471.0,0.21679617349329838,14.636215,4.7353363,130,1970-01-07 22:20:56.964990471,1.2495575,-0.77516174,-0.9917908,17.35043446595075,1.773673774945866,-2.0261542797088623,-33.14834213256836,-123.14152526855469,20584719.0,20142.0,-0.02247306037849799,0.09467584956899998,0.11584969300890001,-0.0009928534086892577,0.0018577248858406346,0.0027513430398388213,20.584719131002203
1626,B,598856985132073.0,1.2045886734932987,13.391739,3.4195862,130,1970-01-07 22:20:56.985132073,1.318161,-0.7130432,-1.0400238,15.50967215625887,1.8241788650112356,-2.696268081665039,-34.034393310546875,-122.77716827392578,20604860.0,20141.0,0.014314056101578525,0.08487371075699995,0.08212414703625,-8.216525257071746e-05,0.0018081538472629825,0.001993695556174683,20.604860733030364
1626,B,598857005273674.0,0.48414517349329866,10.603348,2.8339996,130,1970-01-07 22:20:57.005273674,0.4766693,-1.286026,-0.45658875,13.440186687054616,1.4455275095497324,-3.6475350856781006,-34.841888427734375,-122.24224853515625,20625002.0,20142.0,0.017007238573002022,0.04426292117699999,0.0629798625918,0.00031543675866770065,0.0013005350202073133,0.0014613424809640913,20.625002334010787
1626,B,598857025415276.0,-0.23631382650670218,7.8148346,2.2483826,130,1970-01-07 22:20:57.025415276,-0.7092285,-1.3759918,0.21865845,11.747326024948356,1.563384155169769,-4.939535140991211,-35.491268157958984,-121.50578308105469,20645143.0,20141.0,0.0024957855798285198,-0.011901492126699999,0.05118212994509999,0.00019640520473107996,0.00032589577125104603,0.0011496683458428513,20.64514393603895
1626,B,598857045556877.0,3.1527087734932984,2.146225,3.7582703,130,1970-01-07 22:20:57.045556877,-1.4801788,-0.5070343,0.74531555,6.680296386171444,1.733063279403765,-6.289313793182373,-35.35993194580078,-120.73432159423828,20665285.0,20142.0,0.02937101351110201,-0.09707376876840002,0.060493001355899995,0.00032093053364476133,-0.0010974898524745522,0.0011246802473323708,20.665285537019372
1626,B,598857065698479.0,6.663511973493298,-3.6076202,5.330261,130,1970-01-07 22:20:57.065698479,-1.8439636,-0.4560089,1.0910645,6.6269566741152675,2.1905633106953153,-6.676593780517578,-34.0557861328125,-120.5208969116211,20685427.0,20142.0,0.09885915914290201,-0.2121093110592,0.0915305987223,0.0012914060687984744,-0.00311378279694376,0.001531029676387552,20.685427139047533
1626,B,598857085840081.0,10.665556673493299,-6.029251,3.472763,130,1970-01-07 22:20:57.085840081,-1.4412384,-0.2925415,1.411972,7.368049313273239,2.038728423218946,-5.506239891052246,-31.41156768798828,-121.1347885131836,20705568.0,20141.0,0.17451238580947853,-0.2944299114196,0.088650853192,0.002752988143442948,-0.005101103239972755,0.0018145173115029583,20.70556874095928
1626,B,598857105981682.0,15.089690173493299,-5.587509,-1.3316498,130,1970-01-07 22:20:57.105981682,-0.6652527,0.45877075,1.4676208,8.938214524152015,1.675393257866789,-2.694730520248413,-29.955398559570312,-122.52668762207031,20725710.0,20142.0,0.25938109099600204,-0.31438398996,0.0215631510372,0.004369741204907995,-0.006131364800793951,0.0011099652365922732,20.725710342056118
1626,B,598857126123284.0,19.0758651734933,-4.9924316,-5.626648,130,1970-01-07 22:20:57.126123284,-0.7619324,0.8254547,0.9903412,13.189680727045616,1.4975620642695546,0.5090990662574768,-29.532955169677734,-124.09436798095703,20745851.0,20141.0,0.3440642251218285,-0.3039270918123,-0.0700735379949,0.006076996055964613,-0.006226701748987947,-0.0004885238518575178,20.745851943967864
1626,B,598857146264885.0,16.0860278734933,-1.954361,-1.807312,130,1970-01-07 22:20:57.146264885,-1.3618317,-0.017578125,0.1055603,8.283900336279444,1.366029848334031,3.700657844543457,-29.18928337097168,-125.68852233886719,20765993.0,20142.0,0.354115424876202,-0.2673527482746,-0.07486741116000001,0.007031367255130165,-0.005753359269515169,-0.001459700298938998,20.765993545064703
1626,B,598857166406487.0,13.096205473493299,1.0837097,2.0120392,130,1970-01-07 22:20:57.166406487,-0.9345093,0.31495667,-0.5725403,5.365742539364745,1.1403103660355232,5.10992431640625,-29.11420249938965,-126.42189025878906,20786135.0,20142.0,0.29389427203750207,-0.2061599292423,0.002061807631199998,0.006526105657617914,-0.0047687461752727,-0.0007332252331385449,20.78613514697645
1626,B,598857186548088.0,10.131285473493298,3.2083588,3.9421234,130,1970-01-07 22:20:57.186548088,-0.022598267,1.653183,-1.0552368,5.422666201981336,1.9613896648128448,5.597567558288574,-29.240283966064453,-126.69964599609375,20806276.0,20141.0,0.23391244758162855,-0.15415852417075002,0.0599613944633,0.005315277569924455,-0.00362858698509612,0.0006246046566926622,20.806276748073287
1626,B,598857206689690.0,7.187468273493298,4.5624237,4.278427,130,1970-01-07 22:20:57.206689690,0.59765625,2.534027,-1.4347076,6.342835762484435,2.9726876269448193,5.2801690101623535,-29.547571182250977,-126.58077239990234,20826418.0,20142.0,0.17441716898590198,-0.11913204944250003,0.08278916307840001,0.0041122875684516,-0.002752309366859041,0.001437640865002461,20.826418349985033
1626,B,598857226831291.0,3.8114001734932987,6.2798004,3.9120026,130,1970-01-07 22:20:57.226831291,1.5494385,3.0655975,-1.3946686,8.623524149152011,3.707256155314124,4.47437047958374,-30.00789451599121,-126.19052124023438,20846559.0,20141.0,0.11076410469537852,-0.08819518220095002,0.0824817212868,0.002871918016607335,-0.0020878888862653636,0.0016643604409997464,20.846559950965457
1626,B,598857246972893.0,-2.4878398265067023,10.454575,-1.2080231,130,1970-01-07 22:20:57.246972893,2.646515,2.6308746,-0.8989563,15.029155992877298,3.83844567962865,3.4509246349334717,-30.829118728637695,-125.63604736328125,20866701.0,20142.0,0.013329576254502012,-0.028859705346600012,0.0272317775445,0.0012497474608462469,-0.0011788597724913764,0.0011049246467300222,20.866701552993618
1626,B,598857267114495.0,-8.7873088265067,14.629501,-6.328247,130,1970-01-07 22:20:57.267114495,0.88764954,1.3192291,-0.5356293,23.32484275992646,1.6778515641043792,2.3093554973602295,-31.759117126464844,-125.03984069824219,20886843.0,20142.0,-0.11355202208449798,0.05523012939599998,-0.0758977761771,-0.0010093402519538895,0.0002655765406015071,-0.0004901152722289146,20.88684315502178
1626,B,598857287256096.0,-7.245102826506702,14.992706,-2.6841125,130,1970-01-07 22:20:57.287256096,-1.5833282,-0.6977539,0.4055481,21.721408918996858,1.7771488275589244,1.013179063796997,-32.74382019042969,-124.37374877929688,20906984.0,20141.0,-0.16145440155167148,0.10092863559349997,-0.09075896634475,-0.002769452189228044,0.0015725968428267592,-0.0016783167255662904,20.906984756002203
1626,B,598857307397698.0,-1.0130928265067016,13.076263,6.201584,130,1970-01-07 22:20:57.307397698,-1.7204895,-2.4833221,2.2911835,17.17833565762612,3.791634819260804,-0.08314074575901031,-33.50963592529297,-123.72663116455078,20927126.0,20142.0,-0.083168288421498,0.08529098679899998,0.03542445547650001,-0.00246359511071979,0.001875417817114867,-0.0005572738589541457,20.927126358030364
1626,B,598857327539299.0,3.819731473493298,10.948334,14.168213,130,1970-01-07 22:20:57.327539299,-2.4400177,-0.4827118,1.4628143,18.44331969241238,2.885571474501545,-0.6643732786178589,-33.633544921875,-123.41155242919922,20947267.0,20141.0,0.028264254494478516,0.04455790408849998,0.20513404068849997,-0.0005529110736620497,0.0013076432556825683,0.002422544335629632,20.947267959010787
1626,B,598857347680901.0,-2.601944826506701,7.119705,14.741638,130,1970-01-07 22:20:57.347680901,-3.6195984,1.9381714,0.63397217,19.636336658996886,4.154506187911511,-1.7973332405090332,-33.36349868774414,-122.86102294921875,20967409.0,20142.0,0.012264329321802018,-0.015428379231000025,0.291151109421,0.0004081633676137613,0.00029336344483988204,0.004998087746752773,20.96740956103895
1626,B,598857367822502.0,-9.023620826506702,3.2910767,15.315048,130,1970-01-07 22:20:57.367822502,-3.7949524,1.5419769,0.8574066,23.312340375768517,4.185033160695735,-3.2407281398773193,-32.910831451416016,-122.14254760742188,20987551.0,20142.0,-0.11708107169149798,-0.09254461749930003,0.302700884706,-0.001055609412405208,-0.001087396050070852,0.005980683432853017,20.987551162019372
1626,B,598857387964104.0,-6.1951148265067015,2.4262848,12.737183,130,1970-01-07 22:20:57.387964104,-3.004242,0.8205261,1.3006287,19.40457797261399,3.374961939134855,-4.62868070602417,-32.46642303466797,-121.4219741821289,21007692.0,20141.0,-0.15326027739367148,-0.13980511101425003,0.2824999922855,-0.002722472555962199,-0.002339877940995706,0.005893265431742901,21.007692764047533
1626,B,598857408105706.0,1.196089573493298,3.0234528,8.60498,130,1970-01-07 22:20:57.408105706,-2.4595184,0.61016846,1.0951538,11.524943442044478,2.7605974272196536,-5.713070869445801,-32.134010314941406,-120.86454772949219,21027834.0,20142.0,-0.05034518332309799,-0.14250729263040002,0.21493692357299998,-0.0020505105948785854,-0.0028431682171052705,0.005009687179610953,21.02783436595928
1626,B,598857428247307.0,7.936095023493298,3.4101105,5.17865,130,1970-01-07 22:20:57.428247307,-1.8499451,-0.11680603,0.5562897,6.208101385786034,1.9353032713206633,-5.765655517578125,-32.167205810546875,-120.86184692382812,21047975.0,20141.0,0.0919656649839535,-0.13259260078735002,0.13880804591499998,0.00041913906056564545,-0.0027703934766634517,0.003562388715228903,21.047975967056118
1626,B,598857448388909.0,11.831877473493298,2.8775787,4.835022,130,1970-01-07 22:20:57.448388909,-0.7029419,-1.0895996,0.46865845,6.674498383840286,1.3787658778241403,-4.789454936981201,-32.229679107666016,-121.37635803222656,21068117.0,20142.0,0.199083251017152,-0.13406828206680002,0.100847690712,0.0029311536330471335,-0.002685541751224145,0.002413572923570517,21.068117568967864
1626,B,598857468530510.0,15.727797173493299,2.3450165,4.4913635,130,1970-01-07 22:20:57.468530510,0.68692017,-1.507782,0.8608856,9.03972098009604,1.8671876969828687,-3.317643165588379,-32.282257080078125,-122.10198974609375,21088259.0,20142.0,0.277553483369802,-0.1447948437408,0.09392602837050001,0.0048002085520110135,-0.00280843054000834,0.001961566124879858,21.088259170064703
1626,B,598857488672112.0,16.6924581734933,0.9701843,3.3245392,130,1970-01-07 22:20:57.488672112,1.3116455,-1.0895844,1.1875305,9.133073608945903,2.0779405118587633,-1.6918476819992065,-32.2154426574707,-122.8817367553711,21108400.0,20141.0,0.32648818147182856,-0.1639960703436,0.07871004814035,0.006083001585787641,-0.0031096789002869503,0.0017385316085025148,21.10840077197645
1626,B,598857508813713.0,16.269988173493296,-0.8033905,1.7680511,130,1970-01-07 22:20:57.508813713,1.0466309,-0.7442169,1.0927887,8.260058009545844,1.6862627843631344,-0.023187896236777306,-31.98165512084961,-123.69342041015625,21128542.0,20142.0,0.33196479716050203,-0.1957118196402,0.05128747691129999,0.006631279947806201,-0.0036226181600268496,0.0013092050747951672,21.128542373073287
1626,B,598857528955315.0,15.258116473493299,-2.3044891,0.5408783,130,1970-01-07 22:20:57.528955315,1.0365753,-0.76516724,0.54733276,7.405171077026309,1.3998365647133686,3.1988799571990967,-31.109439849853516,-125.32882690429688,21148683.0,20141.0,0.31750377784747846,-0.2286797015118,0.023252073522700003,0.006540473284617867,-0.004273834813761216,0.0007506505426455969,21.148683974985033
1626,B,598857549096916.0,12.309431773493298,-2.9105835,0.39561462,130,1970-01-07 22:20:57.549096916,1.7088776,-1.0879974,-0.30882263,5.017601713271865,2.049237031431122,5.994555473327637,-29.496381759643555,-126.7114486694336,21168825.0,20142.0,0.277632778395402,-0.24991259615460001,0.00943142019732,0.00599362025792205,-0.004819903029798314,0.0003291554652543214,21.168825575965457
1626,B,598857569238518.0,9.360762373493298,-3.5166779,0.2503357,130,1970-01-07 22:20:57.569238518,2.5464935,-1.0965881,-1.338028,3.6989875212832417,3.078547309265826,7.178753852844238,-26.823163986206055,-127.27069091796875,21188967.0,20142.0,0.21824052525430201,-0.2621205495594,0.006505365672719999,0.004993940041056169,-0.0051566858104856944,0.00016049937049717285,21.188967177993618
