Subject-id_accel,Activity_accel,Timestamp_accel,accel_x,accel_y,accel_z,Segment_accel,DateTime,gyro_x,gyro_y,gyro_z,accel_magnitude,gyro_magnitude,Roll,Pitch,Yaw,Time_Difference,Difference_Microseconds,vx,vy,vz,dx,dy,dz,Time_diff
1610,B,18927328042962.0,1.3826294,10.614655,1.4339901859419573,51,1970-01-01 05:15:27.328042962,0.23739624,0.4454956,0.5731354,10.705259917895482,0.7637456979379049,75.93479919433594,-48.63959884643555,-87.1808090209961,15005485.0,50354.0,0.36263393350780004,0.20956211905799996,-0.2061324738298487,0.029585958693358633,0.013721900430071814,-0.01455733452438959,15.0054850680026
1610,B,18927378396966.0,-0.37931824,4.6543884,-1.6395724240580427,51,1970-01-01 05:15:27.378396966,1.4166565,0.45828247,-1.2625275,5.513995480086832,1.952156282052695,77.53341674804688,-47.755699157714844,-88.31484985351562,15055839.0,50354.0,0.02526036507532,-0.10904049431820001,-0.005175944009048684,0.009766014755427214,0.0025308329460739434,-0.00532011203592992,15.055839071999799
1610,B,18927428750970.0,-1.6666107,-0.6320343,2.1409603759419573,51,1970-01-01 05:15:27.428750970,2.3845978,-0.15327454,-3.4113312,1.9740762983033406,4.164970625162978,74.53691101074219,-45.72273635864258,-86.07361602783203,15106193.0,50354.0,-0.05151035292238,-0.3921983908243,0.012623444464581319,-0.0006608959440254297,-0.012619691411232724,0.00018750571896894517,15.106193076000636
1610,B,18927479104974.0,-4.7901306,-5.679245,1.4345700159419572,51,1970-01-01 05:15:27.479104974,0.34303284,3.434433,-2.9137726,7.430973318328669,4.516976015579253,70.48079681396484,-46.364723205566406,-83.05239868164062,15156547.0,50354.0,-0.16256137571010001,-0.6523682789361,0.09002112867646131,-0.00538968391177995,-0.026299055044557595,0.0025842824179720305,15.156547080001474
1610,B,18927529458978.0,-2.4258575,-3.5629883,-0.28115872405804265,51,1970-01-01 05:15:27.529458978,-2.196701,-0.9758301,0.82958984,4.58868277655324,2.5428249979301043,71.49647521972656,-49.18891525268555,-83.90644073486328,15206901.0,50354.0,-0.18167693239370003,-0.7261609077941,0.029039436095761317,-0.008666887883129375,-0.03470722933430625,0.002997587839270249,15.206901084002311
1610,B,18927579812982.0,2.3112335,9.290863,-0.27955652405804265,51,1970-01-01 05:15:27.579812982,0.74394226,-7.6581116,2.9037628,9.7022283503553,8.223865378453876,72.8897933959961,-48.73252868652344,-85.1364517211914,15257255.0,50354.0,-0.0028858884480000018,-0.34925849867810005,-0.014117127801818681,-0.004646738140331482,-0.02707583439675058,0.00037569895591659376,15.25725508799951
1610,B,18927630166985.0,6.0632324,16.700928,-6.120956824058043,51,1970-01-01 05:15:27.630166985,0.5109558,1.6656494,-0.4141693,19.25208641551774,1.7908098621396102,74.17223358154297,-48.208457946777344,-86.02884674072266,15307609.0,50354.0,0.21084392796430002,0.16092612200700004,-0.1611457245655187,0.005235759560901886,-0.004741644247448285,-0.004412592834052454,15.307609090999904
1610,B,18927680520989.0,13.819473,13.376587,-2.491501124058043,51,1970-01-01 05:15:27.680520989,1.9667053,7.9450684,-3.139038,19.601771048684547,8.76616228364332,74.68871307373047,-47.97692108154297,-86.11373901367188,15357963.0,50354.0,0.5005868738558,0.263792395155,-0.2168358537597187,0.01791169329742466,0.010693138106587676,-0.009516442197494502,15.357963095000741
1610,B,18927730874993.0,14.869339,7.4555664,9.045196175941957,51,1970-01-01 05:15:27.730874993,2.1534271,-6.160843,-2.1388092,18.35176607355232,6.867877367838482,74.51477813720703,-48.1963996887207,-86.12210845947266,15408317.0,50354.0,0.722298219724,0.03102192615179999,0.1650023803212813,0.03078857800105863,0.007422540167541305,-0.0013050113607595381,15.408317099001579
1610,B,18927781228997.0,8.969635,-0.5870056,11.955871175941958,51,1970-01-01 05:15:27.781228997,-0.40016174,-10.249481,-1.6098022,13.94657073357237,10.382844182142273,73.45565795898438,-48.69243621826172,-85.68798065185547,15458671.0,50354.0,0.600193848398,-0.3205394447384,0.5287438727183813,0.0332963827991076,-0.007289182565454829,0.017466449412779587,15.458671103002416
1610,B,18927831583001.0,4.347748,-4.0856323,3.323684375941957,51,1970-01-01 05:15:27.831583001,-0.29374695,0.72550964,-0.5047455,6.302467331482562,0.9313535999487423,72.31147766113281,-49.87438201904297,-84.81351470947266,15509025.0,50354.0,0.335291751791,-0.6111122044083,0.38469337012978133,0.023552720955958457,-0.02345619357056647,0.02299760946318819,15.509025106999616
1610,B,18927881937005.0,5.1267242,-5.3554688,3.521377175941957,51,1970-01-01 05:15:27.881937005,-1.4613037,-0.1585846,1.8435669,7.74159731110112,2.357816043241385,71.10486602783203,-51.19606018066406,-83.92460632324219,15559379.0,50354.0,0.23853878657940003,-0.7311678023947001,0.1723381146917813,0.014447331464551565,-0.03379458373127914,0.014024381693352482,15.559379111000453
1610,B,18927932291009.0,11.010773,2.8117523,5.691650175941957,51,1970-01-01 05:15:27.932291009,-1.2199554,2.1273499,3.6860962,12.185884036170059,4.427325826125022,70.22315216064453,-51.76932907104492,-83.1817855834961,15609733.0,50354.0,0.4062937670044,-0.5575123503205002,0.23195638963838133,0.01623494920157933,-0.0324451002049106,0.010178922735520506,15.60973311500129
1610,B,18927982645013.0,16.925583,15.251511,-2.348068524058043,51,1970-01-01 05:15:27.982645013,-1.4453583,3.0029907,4.620117,23.0724411909551,5.696709124868003,70.73551940917969,-51.94542694091797,-83.5057144165039,15660087.0,50354.0,0.703353635012,-0.03869041989590002,0.08418135524948131,0.027937592640566906,-0.015010597145738309,0.007959400003041718,15.660087119002128
1610,B,18928032999017.0,12.181702,19.613052,-1.5946658240580427,51,1970-01-01 05:15:28.032999017,-1.1127625,0.40673828,3.3423004,23.268031382066336,3.546075065993918,71.49927520751953,-51.70493698120117,-84.10411834716797,15710441.0,50354.0,0.732834114445,0.384315902651,-0.0992662226825187,0.03615889896807889,0.008701812779325154,-0.00037979170736158227,15.710441122999327
1610,B,18928083353021.0,2.2898102,12.678879,0.09727447594195726,51,1970-01-01 05:15:28.083353021,0.21446228,0.83465576,0.74772644,12.939309104970695,1.1409378319255827,72.350830078125,-50.86966323852539,-84.72831726074219,15760795.0,50354.0,0.3643492626594,0.319544746787,-0.037699821971518686,0.02762378588535748,0.017721099570900525,-0.0034483941062546995,15.760795127000165
1610,B,18928133707024.0,-1.1603394,4.682495,-1.7757724240580428,51,1970-01-01 05:15:28.133707024,1.2169495,0.8387451,-1.4126587,5.717195200937617,2.0445204892614672,74.07856750488281,-49.90741729736328,-86.00051879882812,15811149.0,50354.0,0.028436686331599997,-0.05636188680200003,-0.04225954283971869,0.009889171837746407,0.006626154865842344,-0.0020131369278525236,15.811149130000558
1610,B,18928184061028.0,-1.9358063,-1.8565369,1.9114987259419571,51,1970-01-01 05:15:28.184061028,3.1917572,0.2750702,-3.400589,2.7526821933207986,4.671935700071319,69.85267639160156,-49.632564544677734,-82.67304229736328,15861503.0,50354.0,-0.07795166028890001,-0.42232005291630004,0.003417181102531311,-0.0012466384993229424,-0.012051775196287641,-0.0009779341414571667,15.861503134001396
1610,B,18928234415032.0,-4.2886047,-7.7976074,-0.8993991240580428,51,1970-01-01 05:15:28.234415032,-0.49961853,4.0307617,-2.5598297,9.165104816812809,4.800977676547594,68.78724670410156,-52.25382614135742,-81.77052307128906,15911857.0,50354.0,-0.156711995747,-0.7365315910411001,0.025481631676631315,-0.005908126868015855,-0.029176407839915465,0.0007275854093409774,15.911857138002233
1610,B,18928284769036.0,-0.1053009,-1.4273376,11.231613175941957,51,1970-01-01 05:15:28.284769036,-1.8654938,-4.3633423,0.76776123,10.041650546379493,4.807107285166293,66.66670227050781,-52.0869255065918,-80.28531646728516,15962211.0,50354.0,-0.11062536129119999,-0.7257256402650001,0.26013415318428135,-0.006730752638150762,-0.03681525031259369,0.007190948615443198,15.962211141999433
1610,B,18928335123040.0,-0.7189636,13.892838,3.7080991759419573,51,1970-01-01 05:15:28.335123040,0.9970703,-8.168518,1.7862701,14.119598843647433,8.420783595938094,67.67249298095703,-51.183074951171875,-81.24333953857422,16012564.999999998,50353.99999999814,-0.020752507316499233,-0.1796252964291934,0.3761371378833674,-0.003307700597935921,-0.022794020533148864,0.0160194022952096,16.01256514600027
1610,B,18928385477044.0,6.222824,19.613052,-7.061355824058042,51,1970-01-01 05:15:28.385477044,-0.57406616,0.4323578,-1.1147919,22.207699637841287,1.3263657880025388,69.18824005126953,-50.612552642822266,-82.4427261352539,16062919.0,50354.00000000186,0.13857069329080512,0.35010859253001286,-0.08442494262962179,0.0029663084682752094,0.004292257945930491,0.007344437939903825,16.062919150001107
1610,B,18928435831048.0,16.49585,16.540894,1.3132779059419573,51,1970-01-01 05:15:28.435831048,0.10676575,8.462021,-3.170807,23.360536682347632,9.037212809326947,69.34635925292969,-50.2228889465332,-82.34524536132812,16113273.0,50354.0,0.571988055298,0.416778698442,-0.14471935774440867,0.01788973761322035,0.019307921324802368,-0.005769166050516965,16.113273154001945
1610,B,18928486185052.0,19.250153,16.91182,-10.744369824058042,51,1970-01-01 05:15:28.486185052,6.4526215,-10.973145,-2.4390564,28.3101360674637,12.961297448005281,71.7116928100586,-50.44983673095703,-84.27425384521484,16163627.000000002,50354.00000000186,0.8999771175310334,0.3487697803780129,-0.23744660122241745,0.03705966715631794,0.019274214051252177,-0.009621792348908137,16.163627158002782
1610,B,18928536539056.0,14.211288,4.3805695,1.7262112559419573,51,1970-01-01 05:15:28.536539056,1.777008,-3.2279663,-1.016983,14.877439914616769,3.8225355836523858,72.15652465820312,-51.00362014770508,-84.6578369140625,16213981.0,50353.99999999814,0.8424587000569689,0.04260929044149835,-0.2270501782694503,0.04386930657941151,0.00985375086602247,-0.01169463541726632,16.213981161999982
1610,B,18928586893060.0,6.887787,-4.6137085,4.540694875941957,51,1970-01-01 05:15:28.586893060,-0.5214081,-0.1453247,-0.56048584,8.90386515046344,0.7791855055224048,70.97010040283203,-52.0953254699707,-83.75865936279297,16264335.0,50354.0,0.531211411275,-0.4993389406030001,0.15778189568244133,0.03458489239300498,-0.01149908240211613,-0.0017439675506931245,16.26433516600082
1610,B,18928637247064.0,3.8816528,-7.8755035,1.4758297859419574,51,1970-01-01 05:15:28.637247064,-0.8009033,0.42651367,1.8499451,8.782049926853482,2.060499182155084,69.28244018554688,-54.88117218017578,-82.40248107910156,16314689.000000002,50354.00000000186,0.27114218584461003,-0.80791009052403,0.15147804141225693,0.02020085651468117,-0.032912608856686454,0.007786237436233506,16.314689170001657
1610,B,18928687601067.0,4.3180695,1.3587646,5.7512966759419575,51,1970-01-01 05:15:28.687601067,-1.3811035,2.2516937,3.6802368,6.353975922657849,4.530089877740417,67.51820373535156,-55.03513717651367,-80.91645812988281,16365043.0,50353.99999999814,0.20644440834709235,-0.6575411352852757,0.18195736293084458,0.012024197681964045,-0.03689566551219953,0.008394903175145955,16.36504317300205
1610,B,18928737955071.0,15.399017,15.866684,-1.4737246240580428,51,1970-01-01 05:15:28.737955071,-1.2630463,1.8666687,5.0682373,22.28302660586501,5.546779905550126,68.1611557006836,-55.08274841308594,-81.39030456542969,16415396.999999998,50353.99999999814,0.49641708681048163,-0.05978408059779782,0.10769643155027735,0.017695943863581587,-0.018060096960287472,0.007292613583650937,16.415397177002887
1610,B,18928788309075.0,11.967987,19.613052,6.092681575941957,51,1970-01-01 05:15:28.788309075,-1.8185272,-1.1339111,3.904129,23.472248615491335,4.453652299908924,68.34231567382812,-54.702545166015625,-81.60163116455078,16465751.0,50354.00000000186,0.6890190597080256,0.3998041132720147,0.11629147917758562,0.02984572586089756,0.008560684362639076,0.005639343628395614,16.465751181000087
1610,B,18928838663079.0,1.8032074,12.443176,-1.0642550240580428,51,1970-01-01 05:15:28.838663079,0.31463623,1.2152557,0.89549255,12.792122056066765,1.5419952272029267,69.54501342773438,-53.85530471801758,-82.52308654785156,16516105.0,50354.0,0.34671736140880005,0.313610452356,0.1266006952967813,0.026076735874458322,0.017961638518816526,0.006115296276741136,16.516105185000924
1610,B,18928889017083.0,-0.9777832,4.892456,-2.9581608240580426,51,1970-01-01 05:15:28.889017083,1.3513184,1.6510315,-1.8023529,6.554398111880239,2.792927211423388,71.6203384399414,-53.051910400390625,-84.10883331298828,16566459.000000002,50354.00000000186,0.02078170508340077,-0.057009993136002156,-0.10127236380802243,0.009252523997074482,0.006460429761782125,0.0006376914018925058,16.566459189001762
1610,B,18928939371087.0,-1.8887787,-2.8540802,3.8394467759419575,51,1970-01-01 05:15:28.939371087,3.0379486,0.23924255,-3.8259735,4.266180683834346,4.891261791876889,67.09497833251953,-53.11100769042969,-80.39822387695312,16616813.0,50353.99999999814,-0.07217142895629733,-0.4421490124833837,0.022188136410580504,-0.0012938390779478688,-0.012567326284478812,-0.0019911035931853213,16.6168131930026
1610,B,18928989725091.0,-6.4410095,-7.874527,-5.477691824058042,51,1970-01-01 05:15:28.989725091,-0.93814087,6.9146576,-2.205841,12.220065783881985,7.31835586279344,69.7470474243164,-55.1018180847168,-82.41925048828125,16667167.0,50354.0,-0.2097190775114,-0.7635833434744,-0.04124609557641867,-0.0070971572813372154,-0.030356723525949123,-0.0004798222379183076,16.6671671969998
1610,B,18929040079095.0,0.12658691,-1.1176605,1.3853909459419573,51,1970-01-01 05:15:29.040079095,-1.6041107,-6.1412354,1.5380707,1.1286370764003772,6.5309727341542425,67.58140563964844,-57.802085876464844,-80.82915496826172,16717521.000000002,50354.00000000186,-0.15897821754843586,-0.7198655046875266,-0.10303185920833247,-0.00928269179772183,-0.037348791650174205,-0.003632486067615814,16.717521201000636
1610,B,18929090433099.0,-0.7236481,3.032547,-2.702301324058043,51,1970-01-01 05:15:29.090433099,2.1901703,-8.699432,1.4686127,5.067374775224827,9.090312773949387,70.83796691894531,-57.577144622802734,-83.68836975097656,16767875.0,50353.99999999814,-0.015032209580629443,-0.4452581025894835,-0.03315585258982746,-0.004381060523828315,-0.029334317060412198,-0.0034287980199421454,16.767875205001474
1610,B,18929140787103.0,16.17839,17.198975,-16.274139824058043,51,1970-01-01 05:15:29.140787103,-1.1448212,3.489029,0.9723053,29.430106732173517,3.7985940213740306,72.51365661621094,-57.54671096801758,-85.05404663085938,16818229.0,50354.0,0.3891040368163,0.01589982939400001,-0.4777698587861188,0.009418006394312478,-0.010809953244242687,-0.012863576635312199,16.81822920900231
1610,B,18929191141107.0,17.930435,16.071747,1.1041256859419573,51,1970-01-01 05:15:29.191141107,0.20683289,9.755768,-2.2196045,24.079805404843643,10.00721905679245,72.4031982421875,-57.0998649597168,-84.7205810546875,16868583.0,50354.0,0.858757887025,0.34418776779399995,-0.38193544595534873,0.03141741965655241,0.009065925434402277,-0.02164480045747593,16.86858321299951
1610,B,18929241489406.0,19.05864,13.470886,-9.751632824058042,51,1970-01-01 05:15:29.241489406,7.94104,-6.356842,-2.0615234,25.81993338936731,10.378797388103864,74.8149642944336,-57.20805358886719,-86.5949935913086,16918931.0,50348.0,0.9311629740499999,0.25029584314199993,-0.21769234469493431,0.04505946775670205,0.01496553042170286,-0.015095030001830224,16.91893151200202
1610,B,18929291843410.0,17.195694,1.2197113,15.232055175941957,51,1970-01-01 05:15:29.291843410,-1.5694733,1.2493896,-0.529953,22.169603942732234,2.0748665003344313,73.07343292236328,-57.49391174316406,-85.1656723022461,16969285.0,50354.0,0.912775367118,-0.12360403177790004,0.13798059355338133,0.04642483561558674,0.0031897197347139435,-0.0020069027584908796,16.969285516002856
1610,B,18929342197414.0,7.0013123,-4.986557,-0.1822818240580426,51,1970-01-01 05:15:29.342197414,0.12966919,-1.0621643,-0.8854828,8.721183841258267,1.3889157239104128,73.17151641845703,-58.805118560791016,-85.27776336669922,17019639.0,50354.0,0.6092080276151,-0.5883070741889,0.37890814368038134,0.03831897592919526,-0.017923785914926126,0.013013707737334445,17.019639520000055
1610,B,18929392551418.0,3.3724976,-9.405106,1.4414364759419573,51,1970-01-01 05:15:29.392551418,-1.2719574,0.534317,1.756897,9.992594603632805,2.233843627587383,71.25788879394531,-61.608482360839844,-83.64451599121094,17069993.0,50354.0,0.26118141185230004,-0.8558080993510001,0.031701736670481324,0.02191379491747073,-0.03635848772421407,0.01033792495759367,17.069993524000893
1610,B,18929442905422.0,1.4726715,1.498291,7.725372175941957,51,1970-01-01 05:15:29.442905422,-2.3977966,1.6580963,3.5793762,6.7672547426011125,4.616345508751667,68.42327117919922,-61.221317291259766,-81.19608306884766,17120347.0,50354.0,0.1219868224307,-0.6925390812550001,0.23079274142848136,0.009647026634543093,-0.038982736966117267,0.006608823475097584,17.12034752800173
1610,B,18929493259426.0,18.24556,18.675354,-1.7463839240580428,51,1970-01-01 05:15:29.493259426,-0.91233826,5.6533203,4.960083,26.285052820133057,7.575936567972366,68.82853698730469,-61.050167083740234,-81.4205322265625,17170701.0,50354.0,0.49644591447550007,0.014442660164999933,0.1505329872176813,0.0155702810170874,-0.017072433593782934,0.009600637870124438,17.170701532002568
1610,B,18929543613430.0,19.250153,19.613052,-1.4967654240580428,51,1970-01-01 05:15:29.543613430,-3.442978,-0.43373108,4.260391,27.62281829023303,5.494829536129667,69.58882904052734,-60.95310974121094,-82.20869445800781,17221055.0,50354.0,0.9440295662010001,0.47051799786199994,-0.08165277113751869,0.03626685117699224,0.012209854487145778,0.0017341972002502541,17.221055535999767
1610,B,18929593967434.0,4.33786,10.901169,5.086822175941958,51,1970-01-01 05:15:29.593967434,1.7294159,0.65257263,0.6673126,12.330837204307134,1.9652064773750078,69.65766906738281,-60.045753479003906,-82.17251586914062,17271409.0,50354.0,0.5938754033010001,0.27478734211699996,0.09038685884218133,0.038719833417151864,0.018764552544651283,0.0002198981261402912,17.271409540000604
1610,B,18929644321438.0,-0.54852295,5.4344788,-3.2323153240580424,51,1970-01-01 05:15:29.644321438,1.2686157,2.7662354,-1.2073975,7.092828178600295,3.2740270013403827,71.95906829833984,-59.250160217285156,-84.04936981201172,17321763.0,50354.0,0.09540413890785002,-0.08218659533940005,0.046690919009881336,0.01735399103419222,0.004849109001619633,0.0034512072129813816,17.321763544001442
1610,B,18929694675442.0,-3.531723,-0.91348267,1.7214962759419574,51,1970-01-01 05:15:29.694675442,2.021637,-0.9520416,-3.3806915,3.6730876318403487,4.052465223301961,69.56678771972656,-56.612144470214844,-81.98453521728516,17372117.0,50354.0,-0.10272835228315001,-0.37964408043499004,-0.03803789117441868,-0.000184401720149928,-0.01162751092397182,0.00021785728181344336,17.37211754800228
1610,B,18929745029445.0,-5.405243,-6.3020325,-6.090286524058043,51,1970-01-01 05:15:29.745029445,4.272339,3.175827,-4.469879,11.110243456681502,6.951156446195913,73.76895904541016,-58.16419982910156,-85.30766296386719,17422471.0,50354.0,-0.22500599298200002,-0.67513422543509,-0.1099930320768187,-0.008251367610740683,-0.02655615340689101,-0.0037269745546964035,17.422471551002673
1610,B,18929795383449.0,-5.4228516,-1.3893127,6.328216175941957,51,1970-01-01 05:15:29.795383449,-5.058136,0.5366211,0.7148285,7.529684343695947,5.136504821751213,68.91022491455078,-56.701324462890625,-81.40787506103516,17472825.0,50354.0,-0.27261893774420004,-0.6871141981004001,0.005990354845481309,-0.01252870288089354,-0.03429732855935304,-0.0026184754046533814,17.472825554999872
1610,B,18929845737453.0,-0.45677185,2.1459045,-1.2197421240580426,51,1970-01-01 05:15:29.845737453,2.283081,-9.594818,1.644165,3.335387163537385,9.998813422247162,72.07392120361328,-56.406410217285156,-84.1819839477539,17523179.0,50354.0,-0.14803127960065002,-0.4744204882514,0.12861605120428135,-0.010590710522091292,-0.029243958798279273,0.0033889854851148742,17.52317955900071
1610,B,18929896091457.0,17.372818,19.454773,-17.69125382405804,51,1970-01-01 05:15:29.896091457,1.8777466,-0.60479736,1.3668976,32.25965211104126,2.4000252476505928,74.11054229736328,-56.42307662963867,-85.80474090576172,17573533.0,50354.0,0.42589529391855,0.05037105741749996,-0.4761221449857187,0.006995782288481768,-0.010676292520105102,-0.00874916092313525,17.573533563001547
1610,B,18929946445461.0,17.326965,14.340729,6.171874675941957,51,1970-01-01 05:15:29.946445461,-0.338562,10.725494,-2.8998566,23.014967196354988,11.115755218267608,73.30213928222656,-55.945106506347656,-84.88388061523438,17623887.0,50354.0,0.873636436591,0.357400153854,-0.29002340881211863,0.03271831037903894,0.010266455786182556,-0.01928924660796815,17.623887567002384
1610,B,18929996799465.0,17.785309,11.192474,-2.2147525240580426,51,1970-01-01 05:15:29.996799465,9.815155,-10.647369,-1.5331116,21.30467957229365,14.562079709788726,75.37954711914062,-56.136932373046875,-86.49832153320312,17674241.0,50354.0,0.884021722498,0.149380251931,0.09962846441798133,0.044252559471383755,0.012759210276448944,-0.004793573515011195,17.674241570999584
1610,B,18930047153469.0,16.138474,0.18760681,16.078384175941956,51,1970-01-01 05:15:30.047153469,-2.473465,1.6372375,-0.38990784,21.88854715281602,2.991755982917844,73.4544448852539,-56.45890808105469,-84.9580078125,17724595.0,50354.0,0.854099084591,-0.20695290544663003,0.3490446540994813,0.043760667560079756,-0.0014495066975630177,0.011296243104914158,17.72459557500042
1610,B,18930097507473.0,5.9427032,-8.051147,1.4190518359419573,51,1970-01-01 05:15:30.097507473,0.727478,-0.8315735,-1.2045746,10.007632573391891,1.6345454087762168,72.93302154541016,-57.79827880859375,-84.5212173461914,17774949.0,50354.0,0.5559377983644,-0.6914495513636301,0.4405329464712013,0.03550049860216811,-0.02261907865511192,0.019879195249568077,17.77494957900126
1610,B,18930147861477.0,0.7128296,-4.8026886,2.6080929759419575,51,1970-01-01 05:15:30.147861477,-1.5499573,1.162323,2.0528412,5.030385757248639,2.8226794682658762,69.47187042236328,-60.20668029785156,-81.57337188720703,17825303.0,50354.0,0.16756634930560002,-0.8170902189012001,0.10139142492880132,0.018215663925887592,-0.03798050579595763,0.013644029898737866,17.825303583002096
1610,B,18930198215481.0,2.6292114,5.489685,8.210952475941959,51,1970-01-01 05:15:30.198215481,-2.1696777,1.8122864,3.6451263,9.214914701232033,4.612898119453099,67.7153549194336,-59.51624298095703,-80.0744857788086,17875657.0,50354.0,0.084142566257,-0.4761726916372001,0.2723911073420814,0.00633727536711958,-0.0325604802986253,0.009410722814984014,17.875657587002934
1610,B,18930248569485.0,19.250153,19.613052,-1.6499636240580426,51,1970-01-01 05:15:30.248569485,-1.2992706,6.0157623,4.5230865,27.638707907466866,7.637788399046409,68.06854248046875,-59.3565673828125,-80.24989318847656,17926011.0,50354.0,0.5508567574988,0.13854240944899995,0.16518601632388139,0.015987377974199777,-0.008500517614652314,0.011016879242537947,17.926011591000133
1610,B,18930298923488.0,17.148697,18.66571,-5.562790224058043,51,1970-01-01 05:15:30.298923488,-4.099167,-2.281189,4.282364,26.25797537623617,6.351821374700803,69.33476257324219,-59.37491989135742,-81.5289077758789,17976365.0,50354.0,0.9164138464499999,0.470275190874,-0.1815955036340187,0.03694147199561894,0.01532820072333217,-0.00041314166200732695,17.976365594000526
1610,B,18930349277492.0,0.6830139,10.265579,0.2884976759419573,51,1970-01-01 05:15:30.349277492,1.2338715,1.7341309,-0.18080139,10.337146659167628,2.135963014537703,70.47087097167969,-58.27647399902344,-82.4082260131836,18026719.0,50354.0,0.44894898532929994,0.23493386315300005,-0.1327908634839187,0.03437574001570744,0.017755048353237782,-0.00791530556492831,18.026719598001364
1610,B,18930399631496.0,-2.518631,1.6369781,-1.0507510240580427,51,1970-01-01 05:15:30.399631496,1.2890778,1.0770874,-1.5803833,3.809715457969801,2.3063933351903554,74.7138442993164,-56.446102142333984,-85.91448974609375,18077073.0,50354.0,-0.046215331726700004,-0.19379851989330002,-0.01919125254551868,0.010139625196752659,0.0010356645372494677,-0.003826453735273145,18.0770736020022
1610,B,18930449985500.0,-4.403305,-3.6874847,2.5002438759419574,51,1970-01-01 05:15:30.449985500,2.4619904,-0.33885193,-3.6167908,5.8690145246707965,4.3883246291861235,69.77549743652344,-56.52937698364258,-81.72907257080078,18127427.0,50354.0,-0.174273582672,-0.5450948046682,0.03649388153188132,-0.00555124939781607,-0.018603117232484888,0.00043562828998965227,18.1274276059994
1610,B,18930500339504.0,-5.9398193,-9.422897,-6.439682324058043,51,1970-01-01 05:15:30.500339504,2.0220184,4.169449,-2.746933,13.559453459327472,5.386882612423308,72.58497619628906,-58.72215270996094,-83.93640899658203,18177781.0,50354.0,-0.2604088405011,-0.8235492800609,-0.09918324180821869,-0.01094399936822914,-0.03445835212122455,-0.001578330023677346,18.17778161000024
1610,B,18930550693508.0,2.9313507,1.4094086,2.1972348159419575,51,1970-01-01 05:15:30.550693508,-3.6094666,-5.7045746,2.169464,3.376067310754627,7.090627232535689,72.43843841552734,-58.97101593017578,-84.08968353271484,18228135.0,50354.0,-0.0757442139422,-0.6952247974468002,-0.1068121009118387,-0.008463325451718965,-0.038238174949411376,-0.005186344743662885,18.228135614001076
1610,B,18930601047512.0,4.1518707,7.0146027,-3.0666964240580423,51,1970-01-01 05:15:30.601047512,1.0634308,-8.287552,1.7244263,9.243651982758402,8.531591251532408,74.97601318359375,-58.769927978515625,-86.40663146972656,18278489.0,50354.0,0.1783342651878,-0.28137786749990007,-0.02189043490753867,0.002582909720210471,-0.024587925295363074,-0.0032403437443244637,18.278489618001913
1610,B,18930651401516.0,18.584991,18.349014,-12.562133824058042,51,1970-01-01 05:15:30.651401516,0.7024689,4.129822,-0.0029907227,29.56414271260496,4.189140872729572,76.37047576904297,-58.59098434448242,-87.46449279785156,18328843.0,50354.0,0.5724459670209,0.14511057765590002,-0.3934870591568187,0.018902393906318444,-0.0034308015564023893,-0.010457959168058325,18.32884362200275
1610,B,18930701755520.0,16.94574,13.691666,5.452102175941957,51,1970-01-01 05:15:30.701755520,2.3718872,8.127686,-3.7730865,22.179320936089095,9.269374862449038,75.8240737915039,-58.09288787841797,-86.71552276611328,18379197.0,50354.0,0.8945572143870001,0.31321900035999994,-0.1790092668046187,0.036934739098306704,0.011539363785706315,-0.01441373999873111,18.37919762599995
1610,B,18930752109524.0,19.077393,10.259094,2.208755175941957,51,1970-01-01 05:15:30.752109524,6.2221375,-3.010254,-0.957901,21.680301964061986,6.9781228521159795,76.59295654296875,-58.17734909057617,-87.18775939941406,18429551.0,50354.0,0.9069544195410001,0.10953908451999994,0.19287740554838131,0.04535665840740526,0.010643780303023757,0.0003491581291517112,18.429551630000788
1610,B,18930802463528.0,15.488571,-1.09375,15.679031175941958,51,1970-01-01 05:15:30.802463528,-2.0090485,1.2086029,-0.47349548,21.167545213371863,2.391901924164344,74.55708312988281,-58.54681396484375,-85.51166534423828,18479905.0,50354.0,0.8702672756280001,-0.2627133341120001,0.4503607969813813,0.04474511061926992,-0.0038564680819777883,0.016194808225091836,18.479905634001625
1610,B,18930852817531.0,4.8584137,-8.8433075,1.0365292459419573,51,1970-01-01 05:15:30.852817531,-0.21200562,-0.4719696,-0.20277405,10.093254286823045,0.5557148563689358,73.34436798095703,-61.33906936645508,-84.48401641845703,18530259.0,50354.0,0.5122760337919,-0.7436544966775,0.4208476647417713,0.034808292901264824,-0.025337322875787244,0.021934415440803812,18.53025963700202
1610,B,18930903171535.0,2.045288,-3.9792786,3.3761746759419573,51,1970-01-01 05:15:30.903171535,-1.5868683,1.2128601,2.6768951,4.935549001751702,3.339902393801488,71.10479736328125,-62.53572082519531,-82.53093719482422,18580613.0,50354.0,0.17381449770090002,-0.8163034502397002,0.11109864664127132,0.01727370131139423,-0.03927506122953435,0.013392812281690864,18.580613641002856
1610,B,18930953525539.0,7.715805,8.696823,4.272628475941957,51,1970-01-01 05:15:30.953525539,-1.7390289,3.081482,4.0256805,12.002069029186046,5.3596507646897535,70.61802673339844,-62.126548767089844,-82.07968139648438,18630967.0,50354.0,0.245755038461,-0.37469558464120006,0.19257391695498133,0.010563502211948158,-0.02998578270119643,0.007645564133662854,18.630967645000055
1610,B,18931003879543.0,17.720932,19.613052,-3.2772372240580427,51,1970-01-01 05:15:31.003879543,-1.6233673,3.0808716,4.1698914,26.82509192564288,5.432778800410506,71.36184692382812,-61.91084671020508,-82.70802307128906,18681321.0,50354.0,0.640420727449,0.21928852287500003,0.025060965548681313,0.022311247258316073,-0.003912683594087619,0.005479393436794715,18.681321649000893
1610,B,18931054233547.0,9.9015045,16.575668,-2.3688205240580427,51,1970-01-01 05:15:31.054233547,-2.6444397,-0.10055542,2.3822937,19.651912981324866,3.560687572995861,72.50536346435547,-61.425132751464844,-83.81554412841797,18731675.0,50354.0,0.6954500837605,0.41765420344,-0.1421507959243187,0.03363321941382158,0.016036307020432756,-0.0029479706593674225,18.73167565300173
1610,B,18931104587551.0,-0.12055969,7.8233795,-0.7382052240580426,51,1970-01-01 05:15:31.104587551,1.2274475,0.81655884,-0.40463257,8.083531693118195,1.5287652603140878,74.0418930053711,-60.30878448486328,-85.08816528320312,18782029.0,50354.0,0.24625484748137,0.12082561890749997,-0.07822558726031868,0.02370930505387656,0.013557306487243006,-0.0055484161994396155,18.782029657002568
1610,B,18931154941555.0,-2.977707,1.2874451,-0.002792624058042703,51,1970-01-01 05:15:31.154941555,1.3513641,0.18774414,-2.0549316,3.493134049787218,2.466612388185811,77.2637710571289,-57.83531951904297,-87.80359649658203,18832383.0,50354.0,-0.07800506045413,-0.26408596904580006,-0.01865610282201868,0.004236024887984822,-0.0036068658354319813,-0.002439190311203008,18.832383660999767
1610,B,18931205295559.0,-4.478195,-4.70343,-1.4001620240580426,51,1970-01-01 05:15:31.205295559,2.3851624,0.66522217,-3.7378693,7.030420061429178,4.483657782850488,80.9471664428711,-59.83980178833008,-90.8599624633789,18882737.0,50354.0,-0.187717244654,-0.5794734518273001,-0.03532218917561868,-0.006690090475707389,-0.021238295539322046,-0.0013590114576245158,18.882737665000604
1610,B,18931255649563.0,-3.1052399,-6.1208344,-7.455902824058043,51,1970-01-01 05:15:31.255649563,0.7811279,1.4073792,-2.1745605,11.119412471145424,2.705474150109607,85.91529083251953,-61.16374588012695,-95.12493133544922,18933091.0,50354.0,-0.19092814047730003,-0.7659917047988001,-0.2229691446810187,-0.009533154861450741,-0.03387477624837533,-0.00650300091250856,18.933091669001442
1610,B,18931306003567.0,0.5100403,0.18211365,1.6006924559419573,51,1970-01-01 05:15:31.306003567,-1.9646912,-6.0425262,2.074173,0.6231382661040893,6.68388569792848,84.94015502929688,-61.441646575927734,-94.49740600585938,18983445.0,50354.0,-0.0653393403292,-0.6429883723227501,-0.1474166314380587,-0.006452046364265251,-0.03547389140168927,-0.009325202685350012,18.98344567300228
1610,B,18931356357570.0,7.0357513,8.0368805,-5.723266824058043,51,1970-01-01 05:15:31.356357570,1.6852875,-5.738693,1.7873535,12.779434670389021,6.242389273336572,87.32035064697266,-61.18425750732422,-96.64437103271484,19033799.0,50354.0,0.18998039511320003,-0.28653958428545007,-0.1037940548660587,0.003138087836296769,-0.023402725363524658,-0.006324731449078763,19.033799676002673
1610,B,18931406711574.0,17.644531,16.51358,-8.317214824058043,51,1970-01-01 05:15:31.406711574,1.2942505,2.2265015,-0.9525604,26.00719201719759,2.745863179748885,88.36085510253906,-60.821998596191406,-97.44522857666016,19084153.0,50354.0,0.6213754674671,0.12463774400850001,-0.3534972064546187,0.020427506552184217,-0.0040762026326527714,-0.011513222086270695,19.084153679999872
1610,B,18931457065578.0,16.668915,11.4518585,5.367782175941957,51,1970-01-01 05:15:31.457065578,2.58844,5.795639,-2.539978,20.630217564835597,6.836734695189291,87.45358276367188,-60.545936584472656,-96.40170288085938,19134507.0,50354.0,0.863909629942,0.2106166451145,-0.0742578657816187,0.03739502289746891,0.008440699754949772,-0.010769589453691749,19.13450768400071
1610,B,18931507419582.0,19.17891,7.131775,9.263549475941957,51,1970-01-01 05:15:31.507419582,2.2062683,0.688797,-0.28552246,21.959752940871795,2.3288589897111294,86.48429107666016,-60.7165412902832,-95.4443130493164,19184861.0,50354.0,0.902540690025,-0.025589059370500006,0.3683730369994814,0.04447391970580916,0.004658439526276688,0.007404937665752129,19.184861688001547
1610,B,18931557773586.0,13.118774,-3.686737,12.504592175941957,51,1970-01-01 05:15:31.557773586,-2.1869202,-0.63853455,-0.6489868,17.64669137461153,2.3688668597635414,84.49919891357422,-61.40532302856445,-93.81895446777344,19235215.0,50354.0,0.813158790068,-0.406733478274,0.5480565023694813,0.04319616581030146,-0.010884584530275578,0.02307294651269238,19.235215692002384
1610,B,18931608127590.0,3.7215729,-8.237854,1.4449459959419573,51,1970-01-01 05:15:31.608127590,0.10319519,0.4002533,-0.20927429,9.040773705916916,0.4633008524220846,83.77811431884766,-64.23974609375,-93.1636962890625,19285569.0,50354.0,0.4239894139013,-0.7936946276070002,0.35120752255352133,0.031147680331335068,-0.030223178421765945,0.022640770355486436,19.285569695999584
1610,B,18931658481594.0,1.1644745,-2.5662537,5.001617175941957,51,1970-01-01 05:15:31.658481594,-1.691742,0.832901,2.1822662,4.658256776808567,2.8840944571957836,80.6851577758789,-65.06326293945312,-90.42137908935547,19335923.0,50354.0,0.1230160153898,-0.7654842195629001,0.16230512097852132,0.013771955693262025,-0.03925544583519658,0.012928707826206238,19.33592370000042
1610,B,18931708835598.0,9.382965,7.4816437,7.001113575941957,51,1970-01-01 05:15:31.708835598,-1.6022491,3.2551422,3.5531158,13.289225708842869,5.078167465619984,79.08184051513672,-64.81806945800781,-88.9617691040039,19386277.0,50354.0,0.26555288429150004,-0.3697144259700001,0.3021927521401813,0.009782999187276091,-0.02858089629858183,0.011694662951509576,19.38627770400126
1610,B,18931759189602.0,19.250153,16.59993,-3.6786654240580425,51,1970-01-01 05:15:31.759189602,-1.855072,3.4838867,4.3450623,25.900547390059316,5.870121383285203,79.57838439941406,-64.68193054199219,-89.40452575683594,19436631.0,50354.0,0.7208960118860002,0.11283258104489997,0.08364927711998132,0.024835823859060923,-0.006467514209679247,0.009714344770683116,19.436631708002096
1610,B,18931809543606.0,11.995956,17.509766,-4.457931824058043,51,1970-01-01 05:15:31.809543606,-1.1779633,-0.23583984,2.793747,21.99004556380991,3.0410919529483347,80.81207275390625,-64.19743347167969,-90.56488800048828,19486985.0,50354.0,0.7866832862930001,0.36531061619199995,-0.2048551089158187,0.03795632399025269,0.01203821127683343,-0.003051599227123798,19.486985712002934
1610,B,18931859897610.0,2.2661896,10.191223,-0.027710224058042687,51,1970-01-01 05:15:31.859897610,1.0023193,1.1363983,0.24539185,10.523285809628536,1.5350121287604872,81.62853240966797,-63.125579833984375,-91.22624206542969,19537339.0,50354.0,0.3590780397712,0.20395860005299998,-0.1129350098454187,0.028846832906318367,0.014332491057400363,-0.008001001820051675,19.537339716000133
1610,B,18931910251613.0,-1.2405548,2.6678772,-1.6591037240580429,51,1970-01-01 05:15:31.910251613,1.4101715,0.8604431,-1.7642517,4.167540339915391,2.416925743315824,86.36839294433594,-61.209228515625,-95.34254455566406,19587693.0,50354.0,0.025822407359600005,-0.16971563426460004,-0.042468914771718685,0.009690638557412153,0.0008621351496545454,-0.003912604610085668,19.587693719000526
1610,B,18931960605617.0,-3.681549,-2.9528503,0.7690731759419573,51,1970-01-01 05:15:31.960605617,2.7044373,0.5031891,-4.0076447,4.748376861756035,4.860904897385691,88.88003540039062,-63.64684295654297,-97.44503784179688,19638047.0,50354.0,-0.12392380737260002,-0.5006439677387001,-0.022408299109918685,-0.0024698989481273014,-0.01687764369963709,-0.0016334136138979839,19.638047723001364
1610,B,18932010959621.0,-4.9275208,-2.3939056,4.620238975941957,51,1970-01-01 05:15:32.010959621,-1.2078857,3.4563293,-2.0399933,6.4097756502955265,4.191273405344475,82.09725952148438,-63.2939338684082,-91.35332489013672,19688401.0,50354.0,-0.21675055035460003,-0.6280844732943001,0.13568671204798133,-0.008577158304497717,-0.028417995959887844,0.0028520106025416037,19.6884017270022
1610,B,18932061313625.0,-1.2855377,1.3090057,4.617477175941957,51,1970-01-01 05:15:32.061313625,-1.9873352,-4.3862305,1.683136,3.7975924150391362,5.1011239928848315,77.40550231933594,-61.70527648925781,-87.37199401855469,19738755.0,50354.0,-0.1564261738545,-0.5207837247823001,0.2325779795559813,-0.009395470385412512,-0.028925054622974566,0.009271800140512968,19.7387557309994
1610,B,18932111667629.0,9.55275,12.15155,-9.487457824058042,51,1970-01-01 05:15:32.111667629,1.3293152,-6.786789,2.2391357,18.84468793185082,7.269203017833973,80.1421127319336,-61.567962646484375,-89.86707305908203,19789109.0,50354.0,0.20814360407710003,-0.15457278914110004,-0.12261150277761869,0.001302089740714401,-0.017003450951049447,0.002768625985848836,19.78910973500024
1610,B,18932162021633.0,12.816711,14.875656,-6.685562424058043,51,1970-01-01 05:15:32.162021633,0.050842285,3.7906342,-1.4631958,21.19439515568377,4.0635494983193325,81.2830810546875,-61.081573486328125,-90.78294372558594,19839463.0,50354.0,0.5631959195970001,0.18699476546199997,-0.4071881307868187,0.01942001518754282,0.0008162880978312977,-0.01333876537425184,19.839463739001076
1610,B,18932212375637.0,15.896362,12.88031,0.17706267594195735,51,1970-01-01 05:15:32.212375637,3.8411102,7.2173004,-2.3710632,20.490018709860912,8.512666640411712,81.30572509765625,-60.67840576171875,-90.4708251953125,19889817.0,50354.0,0.7229090389210001,0.2053427559819999,-0.1638644981583187,0.032380264540607696,0.009877881777395587,-0.014377392038951725,19.889817743001913
1610,B,18932262729641.0,17.40152,6.8914948,12.094268175941957,51,1970-01-01 05:15:32.262729641,-1.3296967,-4.1857605,-0.5901642,21.609817743002164,4.4313630025436614,80.30908966064453,-60.75465393066406,-89.76300048828125,19940171.0,50354.0,0.8383407751140001,0.004325529449599963,0.30895529685788137,0.0393075865679592,0.00527881842231139,0.00365295103885889,19.94017174700275
1610,B,18932313083645.0,9.251511,-2.5335693,9.615524175941957,51,1970-01-01 05:15:32.313083645,-1.8643799,-4.3226013,-1.1768646,12.699704351163435,4.852401951303999,78.5919418334961,-61.3412971496582,-88.45067596435547,19990525.0,50354.0,0.6710433614870001,-0.3837497096865001,0.5465874420433813,0.03800176440720338,-0.009552762585824435,0.02153999953731709,19.99052575099995
1610,B,18932363437649.0,2.9900818,-5.495285,1.9380795459419573,51,1970-01-01 05:15:32.363437649,-0.3127594,0.61483765,-0.49905396,6.289319911441987,0.8514097915443328,77.67399597167969,-62.68532943725586,-87.64164733886719,20040879.0,50354.0,0.3082065819256,-0.6956116647111,0.2908850809058713,0.024654575825299032,-0.027175081323208377,0.02108504571029333,20.040879755000788
1610,B,18932413791653.0,3.411316,-4.1071014,5.0768429759419575,51,1970-01-01 05:15:32.413791653,-1.6789093,-0.76937866,2.147705,6.544215809687345,2.8325459797000447,75.35458374023438,-63.74643325805664,-85.65225219726562,20091233.0,50354.0,0.1611679924106,-0.7352284823928,0.17661470433347135,0.011817443658062508,-0.036024262383634896,0.011770242092970932,20.091233759001625
1610,B,18932464145656.0,12.153381,5.3300323,5.558044175941958,51,1970-01-01 05:15:32.464145656,-0.9935303,2.9608154,4.087799,13.93947453415301,5.144281383662469,74.25875091552734,-63.88022994995117,-84.6272201538086,20141587.0,50354.0,0.391872376369,-0.4626794687307001,0.26775455382298136,0.013923897364763991,-0.03015972848543637,0.01118788481260501,20.14158776200202
1610,B,18932514499660.0,18.32869,16.482758,-5.6139224240580425,51,1970-01-01 05:15:32.514499660,-2.0901184,2.6915894,5.27861,25.599230169595938,6.283070265110117,75.15607452392578,-63.843536376953125,-85.43807220458984,20191941.0,50354.0,0.767447101567,0.05571142138309996,-0.0014068466528186691,0.029188186495994677,-0.010246234528070528,0.006705836223423187,20.191941766002856
1610,B,18932564853664.0,11.509399,19.613052,3.2044369759419573,51,1970-01-01 05:15:32.564853664,-0.77072144,-0.37142944,3.2754517,22.820903858107183,3.3853441783675815,75.51288604736328,-63.22890090942383,-85.78150939941406,20242295.0,50354.0,0.7512335667530001,0.41531500837,-0.060663615127218684,0.03823582318629264,0.0118590324218938,-0.0015627480162360005,20.242295770000055
1610,B,18932615207668.0,0.14950562,9.4387665,1.5186764659419574,51,1970-01-01 05:15:32.615207668,0.51301575,1.128128,0.16363525,9.442660098380308,1.2500537745131708,76.12272644042969,-61.986392974853516,-86.27458190917969,20292649.0,50354.0,0.29353624161774,0.23796843437449997,0.11891382712631134,0.02630416946535013,0.016447717237978277,0.0014665655875011558,20.292649774000893
1610,B,18932665561672.0,-2.4546356,2.0613556,-2.4277346240580426,51,1970-01-01 05:15:32.665561672,1.0085602,1.2054596,-1.7756805,4.910643643818777,2.3713641142465764,81.26729583740234,-60.46727752685547,-90.72305297851562,20343003.0,50354.0,-0.05803625750646001,-0.20393062588830005,-0.02288735724688868,0.005929183099969697,0.0008569699042570554,0.0024176584321542243,20.34300377800173
1610,B,18932715915676.0,-2.0937347,-2.900177,1.7340542759419573,51,1970-01-01 05:15:32.715915676,2.8138123,0.33370972,-3.7981873,3.6041280930488444,4.738684269154789,78.13130187988281,-62.67041015625,-87.84829711914062,20393357.0,50354.0,-0.11451431904310001,-0.5145882063878001,-0.01746479012451868,-0.004344305865788273,-0.018090148640215374,-0.0010159460143699232,20.393357782002568
1610,B,18932766269680.0,-5.1015625,-7.286026,-2.216034224058043,51,1970-01-01 05:15:32.766269680,-1.4684906,4.374298,-2.1624146,9.561474159829624,5.095781052732301,80.27072143554688,-65.1478500366211,-89.74736785888672,20443711.0,50354.0,-0.18115599760440002,-0.749927232931,-0.012134809153718687,-0.007444091562234109,-0.031836705215729434,-0.0007452291110281822,20.443711785999767
1610,B,18932816623684.0,1.0273895,-1.730423,3.1170956759419575,51,1970-01-01 05:15:32.816623684,-0.9593506,-6.75502,1.6868439,2.7164525886677096,7.028235277584805,78.21139526367188,-66.17193603515625,-88.04842376708984,20494065.0,50354.0,-0.10257545362100001,-0.720476336473,0.02268602417408132,-0.007143506747501896,-0.03702035066688451,0.00026564794056767007,20.494065790000604
1610,B,18932866977688.0,-1.2932281,15.085876,-2.6331332240580427,51,1970-01-01 05:15:32.866977688,2.219574,-6.1023865,2.4358215,15.641820040272334,6.935333886462892,80.42053985595703,-65.11937713623047,-90.07020568847656,20544419.0,50354.0,-0.006693018432200004,-0.15721895981900003,0.012184722651081323,-0.002751052320883417,-0.022097734474743686,0.0008779407928171198,20.544419794001442
1610,B,18932917331692.0,6.216507,16.791016,-1.4309390240580426,51,1970-01-01 05:15:32.917331692,-0.72036743,2.2918549,-2.5143127,18.1107755143791,3.4775417280372216,81.18484497070312,-64.0257797241211,-90.75444030761719,20594773.0,50354.0,0.1239533928653,0.309095309884,-0.10232114699081869,0.0029522644471021587,0.0038237908655865053,-0.0022693647556015677,20.59477379800228
1610,B,18932967685695.0,16.891068,15.373123,-1.392166424058043,51,1970-01-01 05:15:32.967685695,4.309265,10.314819,-2.797348,22.996704466523994,11.523472205723847,81.11669158935547,-63.441585540771484,-90.28580474853516,20645127.0,50354.0,0.581779415775,0.316327327603,-0.0710773258672187,0.017768234923136835,0.0157462657440102,-0.0043656533511468075,20.645127801002673
1610,B,18933018039699.0,10.826233,5.8586426,16.012084675941956,51,1970-01-01 05:15:33.018039699,-2.468048,-11.191681,-1.9798279,19.188480156626373,11.630335465913417,79.85993194580078,-63.249507904052734,-89.5270004272461,20695481.0,50354.0,0.697838487277,0.041082962511199944,0.3680856818276813,0.03221693994514021,0.00899851887420521,0.007477779378016567,20.695481804999872
1610,B,18933068393703.0,7.357483,-3.936615,7.971328475941958,51,1970-01-01 05:15:33.068393703,0.1816101,-2.9382324,-1.9754639,10.68814803265406,3.5452291160142217,77.98267364501953,-63.9333610534668,-87.910400390625,20745835.0,50354.0,0.457811417732,-0.44507831111480006,0.6038303929249814,0.0290957976584116,-0.01017139089179284,0.02446993101404779,20.74583580900071
1610,B,18933118747707.0,4.0249786,-7.788925,4.049148175941957,51,1970-01-01 05:15:33.118747707,-0.8399048,-0.06248474,-0.13835144,9.190594314205526,0.8535136418042661,76.34614562988281,-65.1803970336914,-86.47216796875,20796189.0,50354.0,0.2865762357032,-0.78868312058,0.30263954066448134,0.018741447950538035,-0.031062411565779983,0.02282219351798191,20.796189813001547
1610,B,18933169101711.0,4.603119,-5.891678,2.942016275941957,51,1970-01-01 05:15:33.169101711,-1.7777863,-0.70962524,3.010315,7.656470696675343,3.5673643644766293,74.84245300292969,-66.59575653076172,-85.17980194091797,20846543.0,50354.0,0.21722961327520002,-0.8379057417310001,0.1760165474050813,0.01268431985972918,-0.04095262778640405,0.01205112432932738,20.846543817002384
1610,B,18933219455715.0,9.627991,5.392441,6.723159475941958,51,1970-01-01 05:15:33.219455715,-1.5635681,3.5166168,4.185211,12.299142583692998,5.68571279928039,73.13016510009766,-66.47964477539062,-83.59166717529297,20896897.0,50354.0,0.35829665647000003,-0.5060384899490001,0.24334012990518133,0.014490024893374902,-0.03383648392100736,0.010558143064640483,20.896897820999584
1610,B,18933269809719.0,18.037216,17.914658,-10.898559824058042,51,1970-01-01 05:15:33.269809719,-1.7303467,1.811615,5.327179,28.193928221679574,5.886839959474599,74.81082153320312,-66.4310073852539,-85.14630889892578,20947251.0,50354.0,0.6965269166390001,0.09333363152299995,-0.10512405456451866,0.026557293100165295,-0.010390670220591407,0.003479866128851864,20.94725182500042
1610,B,18933320163723.0,8.414047,18.526535,7.071746575941957,51,1970-01-01 05:15:33.320163723,-1.5928345,-1.4142761,2.9282837,21.15250827080805,3.6210694634468354,74.67994689941406,-65.61495208740234,-85.11167907714844,20997605.0,50354.0,0.6659634485510001,0.42401071616099995,-0.09634767714781867,0.03430341992438864,0.013025178641640064,-0.005072453789321517,20.99760582900126
1610,B,18933370517727.0,0.21652222,8.041946,-3.517395324058043,51,1970-01-01 05:15:33.370517727,0.5537567,1.9665833,-0.27638245,9.373082719370931,2.0616701038967853,76.92996215820312,-64.66999816894531,-87.09048461914062,21047959.0,50354.0,0.21729184125194,0.17544544613699994,0.08948790146868131,0.022237718431368625,0.015092507798176745,-0.00017270857227364122,21.047959833002096
1610,B,18933420871731.0,-1.9546814,2.3187866,-3.6087498240580427,51,1970-01-01 05:15:33.420871731,1.2439423,0.80130005,-2.4597778,5.763645216765647,2.8705367165796942,83.01870727539062,-63.456504821777344,-92.50623321533203,21098313.0,50354.0,-0.043761633674859995,-0.23261703532980008,-0.1794149563941187,0.004368970036168144,-0.001439409101107129,-0.0022640934618577374,21.098313837002934
1610,B,18933471225735.0,-3.3701172,-3.5539398,5.532241575941957,51,1970-01-01 05:15:33.471225735,2.8975983,-0.4888916,-4.4156494,6.477943714844228,5.304059815691544,76.96942138671875,-63.82258987426758,-86.9781723022461,21148667.0,50354.0,-0.13406245435220002,-0.5245666521164001,0.048427751837181315,-0.00447707706425729,-0.01906361369883298,-0.0032978648491300126,21.148667841000133
1610,B,18933521579738.0,-6.761032,-9.8414,-5.075302424058043,51,1970-01-01 05:15:33.521579738,-1.6696167,7.107315,-2.149063,13.531938623341697,7.610520232685338,79.69355010986328,-66.09608459472656,-89.37969207763672,21199021.0,50354.0,-0.2550719434084,-0.8307236701445999,0.011504357026981316,-0.009797236732418627,-0.0341221444435652,0.0015089107048730226,21.199021844000526
1610,B,18933571933742.0,4.658905,-0.24049377,8.388580175941957,51,1970-01-01 05:15:33.571933742,-0.8097687,-9.909348,2.7788239,8.492223988004191,10.32340861342875,77.74561309814453,-66.46997833251953,-87.8207015991211,21249375.0,50354.0,-0.05292525147900001,-0.7473010394472901,0.08341839395918133,-0.007754445375680071,-0.03972992811339502,0.0023898701015786167,21.249375848001364
1610,B,18933622287746.0,-3.1506653,15.136734,0.9861752459419573,51,1970-01-01 05:15:33.622287746,2.3906097,-6.943207,2.3069763,15.464191887373953,7.697095415242348,79.32740783691406,-65.28083038330078,-89.28050231933594,21299729.0,50354.0,0.0379729509269,-0.11842655972929005,0.23602821725677134,-0.00037645407100022206,-0.02179642376446876,0.00804270733058404,21.2997298520022
1610,B,18933672641750.0,16.928284,19.418503,-1.8700258240580427,51,1970-01-01 05:15:33.672641750,-2.8187714,7.432434,-2.303543,25.954700964289707,8.276041186621956,79.32459259033203,-64.56221771240234,-89.2621841430664,21350083.0,50354.0,0.3468791060099001,0.37652800194900005,-0.022252706005228686,0.009689420237497815,0.006498220010765639,0.00538222604678009,21.3500838559994
1610,B,18933722995754.0,14.069199,8.335403,1.5101620559419573,51,1970-01-01 05:15:33.722995754,4.8480225,9.994736,-2.0910187,16.354470002873533,11.303558248354893,78.85468292236328,-64.24363708496094,-88.41687774658203,21400437.0,50354.0,0.7804236294910001,0.205290891362,-0.009060290089858683,0.028382100971706167,0.014648454276891048,-0.0007883673026860148,21.40043786000024
1610,B,18933773349758.0,19.237122,19.584549,-18.41096482405804,51,1970-01-01 05:15:33.773349758,9.0012665,-21.334732,-1.0536346,33.791229146692935,23.179813070561277,83.72584533691406,-64.0818862915039,-92.85548400878906,21450791.0,50354.0,0.838553243817,0.20947143150399994,-0.42551151129285864,0.04076098073927552,0.01044247100279728,-0.010941214243412675,21.450791864001076
1610,B,18933823703762.0,11.067749,-0.3662567,12.284484175941957,51,1970-01-01 05:15:33.823703762,-0.6600189,0.97795105,-0.862381,15.602992143602197,1.4614082912431803,81.27178955078125,-64.38829040527344,-90.65582275390625,21501145.0,50354.0,0.762985737167,-0.009610254762900039,-0.15424640327761865,0.040321946924234166,0.005031904846810673,-0.014596565015140908,21.501145868001913
1610,B,18933874057766.0,4.574997,-5.0914,-0.16763332405804277,51,1970-01-01 05:15:33.874057766,-1.18573,-0.496521,-0.5328064,6.998920126911812,1.3915356252076192,81.6080093383789,-65.73959350585938,-91.02655029296875,21551499.0,50354.0,0.393837416042,-0.6308766227359001,0.3050659538978813,0.029125336528342996,-0.01612553811478729,0.0037971838259663535,21.55149987200275
1610,B,18933924411770.0,4.225937,-8.270294,2.722594875941957,51,1970-01-01 05:15:33.924411770,-0.95062256,-0.36743164,2.5494537,9.39688961463106,2.745615309925579,80.52519226074219,-67.23751068115234,-90.07669067382812,21601853.0,50354.0,0.221581115318,-0.8298765698380001,0.06432626699178132,0.015494392364050721,-0.036777383129433086,0.009300187945339036,21.60185387599995
1610,B,18933974765774.0,8.112564,6.8212585,9.194076175941957,51,1970-01-01 05:15:33.974765774,-1.5957794,3.4426575,4.3515015,13.220381292728824,5.773557643279649,78.11625671386719,-66.9433822631836,-87.85173034667969,21652207.0,50354.0,0.31064643967700006,-0.5299515667835001,0.3000260270732813,0.013399893152109118,-0.03423639299571951,0.009173297707676083,21.652207880000788
1610,B,18934025119778.0,18.929642,19.613052,-3.294525424058043,51,1970-01-01 05:15:34.025119778,-1.8174133,1.965805,5.3470764,27.641341779611555,5.979850033945572,78.79146575927734,-66.69735717773438,-88.496826171875,21702561.0,50354.0,0.680841620462,0.17206743545849995,0.1485329892801813,0.024962694890119607,-0.00901044877436953,0.011293370354731129,21.702561884001625
1610,B,18934075473781.0,10.789154,18.936157,3.5623165759419573,51,1970-01-01 05:15:34.075473781,-3.020935,-1.0533142,3.6188354,21.91200682838361,4.830267977083652,78.91352844238281,-66.02228546142578,-88.75389099121094,21752915.0,50354.0,0.7482301268920001,0.477084234993,0.006742177830981309,0.03597973938313166,0.016343691606957415,0.003909362882357741,21.75291588700202
1610,B,18934125827785.0,-0.47273254,7.6869354,-2.255432424058043,51,1970-01-01 05:15:34.125827785,1.5007477,2.7933655,-0.4243164,8.479394772941449,3.199246611775107,80.6752700805664,-64.8735122680664,-90.23384857177734,21803269.0,50354.0,0.25973654309842004,0.17682039735479999,0.032903422291981316,0.02537757685034881,0.01646335692862056,0.00099815727429583,21.803269891002856
1610,B,18934176181789.0,-1.2143707,2.253662,-3.3247531240580424,51,1970-01-01 05:15:34.176181789,1.5226746,1.9575806,-2.13031,5.279444284571187,3.2693853304683316,86.63060760498047,-63.62226104736328,-95.49632263183594,21853623.0,50354.0,-0.04247619827348,-0.24319477926020006,-0.1404923315449187,0.0054699637016575155,-0.0016711078132322576,-0.0027087659682612044,21.853623895000055
1610,B,18934226535793.0,-4.4810486,-4.3405,3.1301418759419573,51,1970-01-01 05:15:34.226535793,2.813568,-1.1049347,-3.8814087,6.503594185464592,4.919591352777564,81.73017883300781,-65.21696472167969,-90.97884368896484,21903977.0,50354.0,-0.1433935717161,-0.546009520326,-0.004899727393818675,-0.004679643199027656,-0.01986979665068176,-0.0036605358679005907,21.903977899000893
1610,B,18934276889797.0,-8.088791,-11.2234955,-6.927093824058042,51,1970-01-01 05:15:34.276889797,1.1378326,3.306778,-3.0546265,16.092134346371747,4.6432948238733465,86.20560455322266,-67.17566680908203,-94.96347045898438,21954331.0,50354.0,-0.3164708516092001,-0.8853239147035,-0.09559585919771868,-0.011578006586061082,-0.036036681893737724,-0.0025301773836151364,21.95433190300173
1610,B,18934327243801.0,2.3581696,0.4596405,1.2497250489419574,51,1970-01-01 05:15:34.327243801,-1.6776581,-7.161972,2.5151367,2.4029276419586996,7.773949591357439,87.0814208984375,-67.6167221069336,-95.9847183227539,22004685.0,50354.0,-0.14427985498780002,-0.7644707773350001,-0.14293911365109768,-0.011600320539992673,-0.041536880961453325,-0.00600559501141465,22.004685907002568
1610,B,18934377597805.0,2.1231232,4.3237457,0.05322237594195722,51,1970-01-01 05:15:34.377597805,1.6425934,-6.3312683,1.8108826,4.973749983212623,6.7869261934465746,88.95809936523438,-66.81160736083984,-97.7576904296875,22055039.0,50354.0,0.11282550882560001,-0.37303788564260004,0.03280430731630232,-0.0007919260733257097,-0.02863905560778704,-0.002772864019091143,22.055039910999767
1610,B,18934427951809.0,18.72287,18.732101,-15.357909824058044,51,1970-01-01 05:15:34.427951809,0.77508545,0.22937012,-0.4444275,31.28374907301235,0.9224336884062544,90.90966796875,-66.3392562866211,-99.50849151611328,22105393.0,50354.0,0.5248395707964001,0.08700785236589997,-0.3853261158812188,0.016054493709643097,-0.007201378147807478,-0.008875441574238902,22.105393915000604
1610,B,18934478305813.0,15.66098,12.47757,4.232772575941958,51,1970-01-01 05:15:34.478305813,0.08444214,6.667465,-3.1899261,20.238610798738083,7.391741914102115,89.6220932006836,-65.81807708740234,-98.19282531738281,22155747.0,50354.0,0.8656821914500001,0.292296686767,-0.28009758049581873,0.03500916640807762,0.009549750381749022,-0.016753372403684675,22.155747919001442
1610,B,18934528659817.0,19.250153,9.990845,-2.8993378240580423,51,1970-01-01 05:15:34.528659817,6.1785126,-1.6498566,-1.0173035,22.089742245724782,6.475411273427703,90.78424835205078,-65.68638610839844,-99.00457000732422,22206101.0,50354.0,0.8789575955410001,0.07221808445499997,0.033571886748181345,0.043924795917072414,0.009177388395056293,-0.006206777391484267,22.20610192300228
1610,B,18934579013820.0,16.592133,-0.09617615,16.417968175941958,51,1970-01-01 05:15:34.579013820,-2.8452148,0.5640259,-0.23249817,22.451915610469896,2.9098845119803634,88.19416046142578,-66.10803985595703,-96.75818634033203,22256455.0,50354.0,0.9024012346220001,-0.24435112236355003,0.3403585563693814,0.04484927126701386,-0.004333793495423565,0.009414446766370878,22.256455926002673
1610,B,18934629367824.0,4.163559,-9.54361,-1.3476260240580427,51,1970-01-01 05:15:34.629367824,0.81655884,-0.36782837,-0.3882141,10.741781794742408,0.9761025747316788,90.01563262939453,-68.87528991699219,-98.41178131103516,22306809.0,50354.0,0.522566057484,-0.7361700958985501,0.37942600435798135,0.035876401513352765,-0.024686582712184896,0.018122015885432812,22.306809929999872
1610,B,18934679721828.0,2.8670654,-5.910248,4.404113475941957,51,1970-01-01 05:15:34.679721828,-1.6688232,0.7064667,2.128479,7.268655805790369,2.7954407388653637,88.0167465209961,-70.26123809814453,-96.60359954833984,22357163.0,50354.0,0.17701003051880002,-0.882550982866,0.0769531845760813,0.017613227167646496,-0.04075454060005508,0.011490258839792896,22.35716393400071
1610,B,18934730075832.0,5.452881,5.785965,6.370773175941958,51,1970-01-01 05:15:34.730075832,-2.0677032,2.1678925,3.9418945,9.434000316686182,4.95112983711564,85.44902801513672,-69.86437225341797,-94.24813842773438,22407517.0,50354.0,0.2094712905128,-0.496598273091,0.27127932123448134,0.009730440219612595,-0.03472284081722939,0.008767449798792536,22.407517938001547
1610,B,18934780429836.0,19.250153,19.613052,-2.3847964240580426,51,1970-01-01 05:15:34.780429836,-0.64323425,5.351166,4.2348633,27.726567809071152,6.854399684116469,85.42838287353516,-69.46241760253906,-94.16136932373047,22457871.0,50354.0,0.6219482870180001,0.14600185100899998,0.10035493668218133,0.020932650703492955,-0.008826966118758516,0.009356635711567817,22.457871942002384
1610,B,18934830783840.0,14.831055,18.493774,-5.495529424058042,51,1970-01-01 05:15:34.830783840,-2.5843658,0.29057312,3.5961456,24.658810666895373,4.437977298575955,86.55924224853516,-68.96526336669922,-95.32953643798828,22508225.0,50354.0,0.8580625738160002,0.4659463582019999,-0.19840296387801867,0.03726223344321762,0.015407020063305346,-0.002468555180709597,22.508225945999584
1610,B,18934881137844.0,-1.0924988,11.922821,6.263091775941957,51,1970-01-01 05:15:34.881137844,0.5925293,-0.49853516,0.079055786,12.963571803484449,0.7783817151082068,85.41378784179688,-67.66511535644531,-94.24626159667969,22558579.0,50354.0,0.3458956294474,0.2723294123149999,0.019324917333381323,0.030312055683562628,0.018587569074306504,-0.004508647977854335,22.55857995000042
1610,B,18934931491848.0,-3.290268,2.0996552,-0.9650118240580428,51,1970-01-01 05:15:34.931491848,0.67082214,1.4145203,-1.55336,4.508956154230715,2.205401848241329,89.58956909179688,-65.288818359375,-98.02067565917969,22608933.0,50354.0,-0.11034491972360003,-0.14042531671260003,0.13338975894858132,0.005930460218716112,0.003320949414981622,0.0038448974047509735,22.60893395400126
1610,B,18934981845852.0,-2.7246552,-2.7391357,0.2539517759419574,51,1970-01-01 05:15:34.981845852,1.9160614,-0.07395935,-3.2969666,4.000643895613316,3.8140201933836093,94.17213439941406,-67.3507308959961,-102.1334457397461,22659287.0,50354.0,-0.15143772140640002,-0.5095694005485,-0.01790235883141868,-0.006590901555730011,-0.016364916996482716,0.002907626272749804,22.659287958002096
1610,B,18935032199856.0,-1.5696564,-5.664505,0.6596829359419573,51,1970-01-01 05:15:35.032199856,1.76091,2.2657623,-3.1648865,5.911926120651168,4.272117669971596,95.79025268554688,-69.98688507080078,-103.51192474365234,22709641.0,50354.0,-0.10811788315320002,-0.7050476619039001,0.02300258114110132,-0.0065348314559970505,-0.030580413781364082,0.0001284082970908798,22.709641962002934
1610,B,18935082553860.0,-1.0408936,-0.58039856,5.495300175941957,51,1970-01-01 05:15:35.082553860,-2.7280579,-2.7268372,1.1610413,4.368525829999296,4.028145717493588,87.62989044189453,-70.25294494628906,-96.012939453125,22759995.0,50354.0,-0.06572581735000001,-0.6506971369301201,0.15496400980790132,-0.0043768628475690675,-0.03413358680024413,0.00448066486032304,22.759995966000133
1610,B,18935132907863.0,5.7490234,7.3674164,-3.876281824058043,51,1970-01-01 05:15:35.132907863,1.9629669,-6.407364,3.3164215,10.679241315626335,7.477045141274316,90.6998291015625,-69.7633056640625,-98.91145324707031,22810349.0,50354.0,0.11853658397460001,-0.3225924518423201,0.04076202504538132,0.0013296166713075545,-0.02450451197652373,0.004927794379501097,22.810349969000526
1610,B,18935183261867.0,14.833786,16.367035,-10.476058824058043,51,1970-01-01 05:15:35.183261867,1.2873535,2.461319,1.8173981,25.028374936850014,3.319383392681065,92.31014251708984,-69.25576782226562,-100.31733703613281,22860703.0,50354.0,0.5182133922638,0.1040930828978,-0.36134888049761876,0.016031454151754197,-0.005501158611916183,-0.008071415259720983,22.860703973001364
1610,B,18935233615871.0,10.284988,11.49231,3.9200283759419574,51,1970-01-01 05:15:35.233615871,1.0445862,4.9841003,-3.5929565,15.644749177905258,6.232315183026511,90.94153594970703,-68.43954467773438,-98.90129852294922,22911057.0,50354.0,0.6324153729980001,0.207945529065,-0.16506117859221872,0.028969380422996342,0.007856196133387417,-0.01325342605770484,22.9110579770022
1610,B,18935283969875.0,19.250153,11.454041,6.873168675941957,51,1970-01-01 05:15:35.283969875,2.7321625,2.5091553,-0.7598572,23.084790011761473,3.786549248367989,89.79910278320312,-68.18238067626953,-97.6663589477539,22961411.0,50354.0,0.7436062449570001,0.08425107912699997,0.2717403221752813,0.03464409627525304,0.007356634004449985,0.002685860797990767,22.9614119809994
1610,B,18935334323879.0,14.140015,-0.7905731,13.562271175941957,51,1970-01-01 05:15:35.334323879,-3.6257782,-2.9004822,-0.26438904,18.738004194960297,4.650695228950635,87.41327667236328,-68.60929107666016,-95.67029571533203,23011765.0,50354.0,0.8406642597360001,-0.22499506868170002,0.5145030691508813,0.03988717849665567,-0.0035435114250186835,0.019795249863418796,23.01176598500024
1610,B,18935384677883.0,4.0194855,-9.373016,2.0558773759419573,51,1970-01-01 05:15:35.384677883,0.64408875,0.18952942,-0.50897217,10.22704590318896,0.8425107647719451,86.93820190429688,-70.0046157836914,-95.19281005859375,23062119.0,50354.0,0.4572017440885,-0.7493578827707,0.39321812609078133,0.032676372378289444,-0.02453128425871708,0.02285369653259934,23.062119989001076
1610,B,18935435031887.0,2.5710754,-3.648117,6.316299175941957,51,1970-01-01 05:15:35.435031887,-1.9248047,0.68070984,2.125351,6.71996604923977,2.947092786563721,83.32221221923828,-70.93791961669922,-91.8614730834961,23112473.0,50354.0,0.1659305517793,-0.821302265541,0.21078628904678132,0.015688601813063602,-0.03954451055404367,0.015207019159918416,23.112473993001913
1610,B,18935485385891.0,8.451294,7.539337,6.403320175941957,51,1970-01-01 05:15:35.485385891,-1.6768646,3.0970001,3.3158264,12.425242781515578,4.837146805821602,81.29814910888672,-70.51097869873047,-89.97356414794922,23162827.0,50354.0,0.27751019438380004,-0.39549995406000005,0.32024185642238134,0.01116450766614837,-0.03063542948289438,0.013369695618477109,23.16282799700275
1610,B,18935535739895.0,19.250153,16.556656,-2.6011050240580427,51,1970-01-01 05:15:35.535739895,-1.8052521,4.127136,4.00412,25.687570031737216,6.027036061071016,81.60325622558594,-70.2061767578125,-90.26786041259766,23213182.0,50355.0,0.6974531818425,0.11319786375749996,0.09573027198655724,0.02454714040493767,-0.0071076608785911955,0.010473138263016052,23.21318200099995
1610,B,18935586093899.0,13.886826,19.613052,-5.959991824058043,51,1970-01-01 05:15:35.586093899,-2.110321,0.70796204,3.5587463,25.102073524307983,4.197539779547736,82.98199462890625,-69.65473175048828,-91.64151763916016,23263536.0,50354.0,0.834289720283,0.41717553831599996,-0.2155427353450187,0.03856469104681372,0.013353211144004508,-0.003016518389975984,23.263536005000788
1610,B,18935636447903.0,3.216034,13.105911,-1.0938571240580428,51,1970-01-01 05:15:35.636447903,-0.09454346,0.7453766,0.8496704,13.704100975198932,1.1342241975431893,84.00466918945312,-68.5599594116211,-92.58676147460938,23313890.0,50354.0,0.43059870622,0.33029613145099995,-0.1775947549667187,0.031846095914066036,0.018819094229723755,-0.009898022593578613,23.313890009001625
1610,B,18935686801906.0,-2.068344,2.268402,-1.1418002240580427,51,1970-01-01 05:15:35.686801906,0.9349823,0.32780457,-1.0891113,3.9178330237216796,1.4723488585297524,89.12709045410156,-66.40968322753906,-97.27264404296875,23364244.0,50354.0,0.02889539113,-0.10639012159900002,-0.056287145053518686,0.011568682888980952,0.005637281610043803,-0.005888444596809517,23.36424401200202
1610,B,18935737155910.0,-2.04924,-3.5353546,1.0262905959419573,51,1970-01-01 05:15:35.737155910,2.4435272,0.1729126,-3.0844269,4.094993726227396,3.9388339957177947,89.94111633300781,-69.10707092285156,-97.91182708740234,23414598.0,50354.0,-0.10366841236800002,-0.5253672656102001,-0.0029081859070786836,-0.0018825603557091266,-0.015905755737766033,-0.00149036084759496,23.414598016002856
1610,B,18935787509914.0,-2.8910675,-8.248062,1.9967648459419571,51,1970-01-01 05:15:35.787509914,-0.11695862,2.1923218,-2.3195496,8.768398653220396,3.193785299673055,88.62855529785156,-71.83450317382812,-96.64083099365234,23464952.0,50354.0,-0.12438212192750002,-0.7901402797382,0.07611146686031132,-0.005741628301957805,-0.03312053346923667,0.0018430390045595384,23.464952020000055
1610,B,18935837863918.0,-2.003296,-3.8040771,5.949203175941958,51,1970-01-01 05:15:35.837863918,-2.5120544,-2.107895,0.70170593,6.337922888856365,3.3535100792723918,80.34970092773438,-73.19772338867188,-88.89457702636719,23515306.0,50354.0,-0.12322538983950003,-0.7969059061207001,0.20005563688697134,-0.006234014323757761,-0.03995706182136953,0.006953059171045336,23.515306024000893
1610,B,18935888217922.0,-0.25367737,11.129181,3.1339260759419574,51,1970-01-01 05:15:35.888217922,1.3655701,-6.446335,1.6756897,11.283348126395726,6.799114104126001,81.37154388427734,-71.95144653320312,-89.89202117919922,23565660.0,50354.0,-0.05682381853649001,-0.30904505910970004,0.22868594517468133,-0.0045330989192823015,-0.027844527451605785,0.01079442681156623,23.56566002800173
1610,B,18935938571926.0,4.436722,17.296005,-3.0028384240580426,51,1970-01-01 05:15:35.938571926,0.441391,0.013366699,-0.9736786,18.365349246361067,1.0691373623726357,83.03324890136719,-70.78270721435547,-91.44778442382812,23616014.0,50354.0,0.10531651464950999,0.222191707922,0.003300393811481323,0.001220900610037504,-0.002186706822852724,0.005840720056654617,23.616014032002568
1610,B,18935988925930.0,15.407883,12.290634,-1.0664523240580426,51,1970-01-01 05:15:35.988925930,2.4240265,8.01622,-2.62352,19.850115999741696,8.776021009062266,82.90682220458984,-70.1579360961914,-91.08848571777344,23666368.0,50354.0,0.49962762008500006,0.251433610103,-0.10245253316531869,0.01523067848021076,0.011924464631915425,-0.0024963534125115633,23.666368035999767
1610,B,18936039279934.0,14.717911,5.4081116,10.296157175941957,51,1970-01-01 05:15:36.039279934,-0.15670776,-1.8136444,-1.5862885,18.08122713762273,2.4145754361642604,81.25860595703125,-69.9959945678711,-89.58013153076172,23716722.0,50354.0,0.758477115538,-0.047867882028800025,0.23237627905588132,0.03167530292878028,0.005125174335724134,0.0032710901502866953,23.716722040000604
1610,B,18936089633938.0,7.4037476,-2.3313904,11.077758175941957,51,1970-01-01 05:15:36.089633938,-1.2741394,-4.8630524,-1.496109,12.490097087653158,5.2450979014370285,78.48274230957031,-70.31742095947266,-87.11498260498047,23767076.0,50354.0,0.5569569985722,-0.4160065903476,0.5381310668143814,0.03311868469095251,-0.011678967591020625,0.019399063446975607,23.767076044001442
1610,B,18936139987942.0,4.214218,-5.737747,3.6761318759419574,51,1970-01-01 05:15:36.139987942,0.006729126,0.8349762,-0.19041443,7.507540836681868,0.8564392511178995,76.27544403076172,-71.48219299316406,-85.0156021118164,23817430.0,50354.0,0.2925055199112,-0.6966258723198,0.37145868983628133,0.021386917827856563,-0.02801274751257713,0.022900741303193736,23.81743004800228
1610,B,18936190341945.0,3.344986,-2.90094,5.974059775941957,51,1970-01-01 05:15:36.190341945,-1.8464966,-0.39271545,2.3227081,6.443723440289174,2.993116776252786,72.35392761230469,-72.15755462646484,-81.37449645996094,23867784.0,50354.0,0.190318079108,-0.710965422599,0.24296287521948134,0.0121560497525064,-0.03543892603217063,0.01546929174340894,23.867784051002673
1610,B,18936240695949.0,10.152924,5.8058014,5.608291175941957,51,1970-01-01 05:15:36.240695949,-1.3547211,2.4393616,3.7758942,12.46657211240279,4.6950113188291045,70.88496398925781,-71.9041976928711,-79.9885025024414,23918138.0,50354.0,0.33983688007000007,-0.42033350453220003,0.29160884991558134,0.013347711407224508,-0.02848271308838222,0.013458912323725473,23.918138054999872
1610,B,18936291049953.0,17.612625,15.916962,-5.503723424058043,51,1970-01-01 05:15:36.291049953,-1.5134277,2.8960571,4.3986053,24.692967056891362,5.47953818444363,72.324951171875,-71.6699447631836,-81.36341857910156,23968492.0,50354.0,0.699053227173,0.053444814121799966,0.0026327022891813167,0.026156136230057015,-0.009237156558462642,0.00740811955985931,23.96849205900071
1610,B,18936341403957.0,12.400177,19.545776,-4.1016391240580425,51,1970-01-01 05:15:36.341403957,-1.643692,0.7920532,3.2034302,23.767588689140037,3.6866023258233698,74.04878997802734,-71.0656509399414,-83.04779815673828,24018846.0,50354.0,0.755632315954,0.39937615462599996,-0.2418342128739187,0.03662461791930848,0.01140067353016336,-0.006022376431991934,24.018846063001547
1610,B,18936391757961.0,2.1720276,11.974579,-2.0715030240580425,51,1970-01-01 05:15:36.391757961,-0.23266602,0.93504333,0.74957275,12.62634662490639,1.2207779541680344,76.05171966552734,-70.02132415771484,-84.92953491210938,24069200.0,50354.0,0.3668843952142,0.30011877783499996,-0.15542119986311867,0.02826160323708177,0.017611183914570595,-0.01000169952648039,24.069200067002384
1610,B,18936442111965.0,-1.9948578,3.6217804,-3.605911524058043,51,1970-01-01 05:15:36.442111965,0.899292,1.0918579,-1.3471832,6.4102255931186924,1.9534027617003744,82.9732666015625,-68.49725341796875,-91.34925079345703,24119554.0,50354.0,0.004460604054599999,-0.10079965938620002,-0.14294026607791868,0.00934935304659058,0.005018257445185437,-0.007511846627997498,24.119554070999584
1610,B,18936492465969.0,-3.2747803,-2.6532745,2.9857021759419573,51,1970-01-01 05:15:36.492465969,2.53273,0.30410767,-3.1142883,4.542141821531153,4.0256669439199415,75.85240936279297,-69.52981567382812,-84.58301544189453,24169908.0,50354.0,-0.1326736784437,-0.46908512695570004,-0.015615010757518692,-0.003228020573894371,-0.01434798926573002,-0.003991946204885807,24.16990807500042
1610,B,18936542819973.0,-6.116913,-10.075272,0.5540615759419573,51,1970-01-01 05:15:36.542819973,-0.7232208,4.445984,-2.0952606,11.809868439249396,4.9678908035222555,73.02247619628906,-72.13663482666016,-81.87665557861328,24220262.0,50354.0,-0.23645466221410003,-0.8139358152305001,0.08912063198118132,-0.009293544232741433,-0.032302618261421966,0.0018506510255481543,24.22026207900126
1610,B,18936593173977.0,-0.4746399,-2.8029175,7.268401775941958,51,1970-01-01 05:15:36.593173977,-1.6953278,-5.3324127,1.2146759,6.61764826171842,5.725748780257036,64.23896026611328,-72.40713500976562,-73.66216278076172,24270616.0,50354.0,-0.16595552736330002,-0.8177033770415,0.19694615981038133,-0.010131481342990202,-0.04107977994383215,0.0072023036169361725,24.270616083002096
1610,B,18936643527981.0,-0.6454468,13.937347,0.45234650594195724,51,1970-01-01 05:15:36.643527981,0.6901245,-8.103851,1.8440094,13.977555850487843,8.339606916575242,67.43598175048828,-71.42828369140625,-76.76677703857422,24320970.0,50354.0,-0.0282004228459,-0.21313766847850002,0.19438527949299134,-0.004888264358417029,-0.02595348500305704,0.009852551647341013,24.320970087002934
1610,B,18936693881985.0,8.56842,19.613052,-7.203414824058044,51,1970-01-01 05:15:36.693881985,-0.13026428,1.5833588,-1.0445557,23.027589146546127,1.9013391287678927,70.16095733642578,-70.62345123291016,-79.33307647705078,24371324.0,50354.0,0.1994766962564,0.35122919562300003,-0.16997164704520873,0.0043122227356561585,0.003476730378917077,0.0006146620241378227,24.371324091000133
1610,B,18936744235988.0,17.466034,14.928787,-1.5390628240580426,51,1970-01-01 05:15:36.744235988,2.6442108,10.097366,-3.1686401,23.15056501991634,10.908204754959481,70.52911376953125,-69.89798736572266,-79.4151611328125,24421678.0,50354.0,0.655469448358,0.376190680503,-0.22010935974661872,0.02152497908295675,0.018314250221224303,-0.00982106950799784,24.421678094000526
1610,B,18936794589992.0,19.250153,10.698212,4.0082394759419575,51,1970-01-01 05:15:36.794589992,3.6287231,-18.10608,-3.1370392,22.18998600936669,18.73069083737197,73.36029815673828,-69.78878021240234,-82.21395111083984,24472032.0,50354.0,0.9244034400990002,0.15174175382299995,0.06216646056448133,0.0397764597126819,0.0132917548990257,-0.003976528372708673,24.472032098001364
1610,B,18936844943996.0,10.114288,0.68821716,5.8046108759419575,51,1970-01-01 05:15:36.844943996,1.9779358,-6.517395,-1.6981812,11.096476380371607,7.019436373597247,72.82601165771484,-70.01461791992188,-81.73566436767578,24522386.0,50354.0,0.739308531057,-0.20679307303868003,0.24705813330938134,0.04188727629779462,-0.0013860270638931772,0.007785347599962242,24.5223861020022
1610,B,18936895298000.0,4.8206635,-5.825424,3.2889858759419575,51,1970-01-01 05:15:36.895298000,-1.1608124,-0.096328735,-0.4827423,7.820511260150498,1.2608746097014367,70.74496459960938,-71.14009857177734,-79.83148193359375,24572740.0,50354.0,0.37601727391550005,-0.62280865661068,0.22894948542218133,0.028080557791792637,-0.020886882747381937,0.011984443816804554,24.5727401059994
1610,B,18936945652004.0,6.354965,-6.875534,3.5275875759419573,51,1970-01-01 05:15:36.945652004,-1.6136627,-1.4229126,2.6988068,9.62570792336417,3.4513976473794337,68.57868957519531,-72.3955307006836,-77.85748291015625,24623094.0,50354.0,0.28136879874450005,-0.813241219566,0.17162086979808133,0.01655100915136082,-0.03615542773250027,0.010085159833380554,24.62309411000024
1610,B,18936996006008.0,4.469742,2.3521576,5.565627775941957,51,1970-01-01 05:15:36.996006008,-1.4347687,2.9727783,3.7536316,6.615967754847927,4.998572019284022,65.68192291259766,-72.01323699951172,-75.10504913330078,24673448.0,50354.0,0.272533648139,-0.6073542476228,0.22893988291438133,0.013945601905185883,-0.03576633207741242,0.010084918071041673,24.673448114001076
1610,B,18937046360012.0,15.925217,16.496063,-2.3237155240580427,51,1970-01-01 05:15:37.046360012,-0.6823273,3.5478516,4.2418976,23.2122705123337,5.571940126099132,66.87342071533203,-71.63843536376953,-76.19267272949219,24723802.0,50354.0,0.513483882743,-0.01892754995380005,0.08162162476568131,0.01978956337501612,-0.01576789681758606,0.007819007078860938,24.723802118001913
1610,B,18937096714016.0,12.570541,19.613052,3.1181637759419574,51,1970-01-01 05:15:37.096714016,-2.662613,-0.7011261,3.684784,23.36714424987987,4.5998607503408415,67.75859832763672,-70.9709243774414,-77.14488220214844,24774156.0,50354.0,0.7174376991660001,0.41564998835499994,0.02000182363768132,0.030990912667722897,0.00998828083162701,0.002558573560451461,24.77415612200275
1610,B,18937147068020.0,0.5179138,12.896561,-2.4396212240580426,51,1970-01-01 05:15:37.147068020,-0.30265808,1.0419617,0.54608154,13.435702482223748,1.214697964921712,70.17168426513672,-69.91743469238281,-79.41412353515625,24824510.0,50354.0,0.32952802649960006,0.3250253265009999,0.017083665828781323,0.02635945607508282,0.01864798240212951,0.0009337013682971301,24.82451012599995
1610,B,18937197422024.0,-2.9776,4.205963,-3.9262545240580424,51,1970-01-01 05:15:37.197422024,0.6294861,1.3175201,-1.321701,7.334263315858866,1.9695191030802979,77.12651824951172,-68.4378890991211,-85.87311553955078,24874864.0,50354.0,-0.06192751945739999,-0.06287895325200005,-0.16027365371031868,0.006737377965801471,0.00660005923929007,-0.0036050943248934664,24.874864130000788
1610,B,18937247776028.0,-3.3088074,-1.0389404,2.7405392759419573,51,1970-01-01 05:15:37.247776028,1.1717834,-0.780777,-3.0385895,3.758254744178437,3.348987191637915,70.362060546875,-67.20978546142578,-79.57958221435547,24925218.0,50354.0,-0.1582728791098,-0.4137330719998001,-0.029852752801818677,-0.005543985434726395,-0.011999660959764572,-0.004786812536756083,24.925218134001625
1610,B,18937298130031.0,-4.6889343,-8.373642,-8.927200824058042,51,1970-01-01 05:15:37.298130031,3.0736542,3.7070618,-4.782089,14.019481622215618,6.786606849826936,75.2593765258789,-69.10343933105469,-83.94811248779297,24975572.0,50354.0,-0.2013591427809,-0.7304497870848001,-0.15576157779691868,-0.009054455415142154,-0.02880709184317298,-0.004673212001484411,24.97557213700202
1610,B,18937348484035.0,1.3435822,-1.8254547,3.650558175941957,51,1970-01-01 05:15:37.348484035,-1.9212341,-6.0321503,0.6839447,3.270784285762809,6.367555108630861,72.43683624267578,-69.87910461425781,-81.4950180053711,25025926.0,50354.0,-0.08422592982169999,-0.7502518576159001,-0.13285003195161868,-0.007190175372915661,-0.03727962530862953,-0.007266374498638926,25.025926141002856
1610,B,18937398838039.0,-3.1744232,1.2975769,4.255981175941957,51,1970-01-01 05:15:37.398838039,1.8422089,-6.2862854,1.7463684,4.532439369822044,6.779448380953345,68.5169906616211,-67.75874328613281,-77.84671020507812,25076280.0,50354.0,-0.04609508385700001,-0.5067595793706,0.19906294126238133,-0.00328109216138863,-0.03164777694900912,0.0016670424177170713,25.076280145000055
1610,B,18937449192043.0,16.632996,17.595245,-15.956893824058042,51,1970-01-01 05:15:37.449192043,-0.51893616,2.6776276,2.5116577,29.72860753445941,3.7077498168574694,70.92832946777344,-67.66397857666016,-80.03739166259766,25126634.0,50354.0,0.33884648738559997,-0.017804623023700093,-0.29459387774161866,0.007370602086639561,-0.013206952923681296,-0.002405182387737758,25.126634149000893
1610,B,18937499546047.0,12.075134,11.477676,12.044387175941957,51,1970-01-01 05:15:37.499546047,-0.33177185,5.6967773,-2.625183,19.827995653004894,6.281315940926448,69.2057876586914,-66.80894470214844,-78.37828826904297,25176988.0,50354.0,0.72278458901,0.23849973201699992,-0.0985051798796187,0.026728685610412018,0.0055564407591243105,-0.009897054973729894,25.17698815300173
1610,B,18937549900051.0,14.700653,12.312851,-9.013305824058042,51,1970-01-01 05:15:37.549900051,9.24675,-4.704117,-1.3515472,21.769812205262728,10.462207326659936,72.56505584716797,-66.70331573486328,-81.13609313964844,25227342.0,50354.0,0.674133989299,0.10550489827899999,0.07631353519638132,0.0351702190460857,0.008661004576962391,-0.0005587190381898676,25.227342157002568
1610,B,18937600254055.0,16.510376,1.5582123,18.021179175941956,51,1970-01-01 05:15:37.600254055,-2.6273499,-1.1929779,-0.32354736,23.5556768415991,2.903592027313994,70.19261932373047,-66.72320556640625,-79.1019515991211,25277696.0,50354.0,0.7858000771330002,-0.14423743929590005,0.22679122738038132,0.03675675999055847,-0.0009751691851824928,0.007631268607395154,25.277696160999767
1610,B,18937650608059.0,5.6278534,-9.302246,1.2384945799419573,51,1970-01-01 05:15:37.650608059,0.38934326,0.41723633,-1.1242676,10.872323991722425,1.260814009118338,69.11988067626953,-68.01405334472656,-78.0936279296875,25328050.0,50354.0,0.5573742016038,-0.6884407364649,0.4849008061518893,0.03381709881575642,-0.020964338431129666,0.01791827032824198,25.328050165000604
1610,B,18937700962063.0,1.5721283,-7.2761383,0.13304107594195735,51,1970-01-01 05:15:37.700962063,-0.7413635,1.6004486,1.4830322,7.533795522775794,2.304439208703725,67.01774597167969,-70.84735107421875,-76.12136840820312,25378404.0,50354.0,0.18127393926090002,-0.9108631815211001,0.03453115320818932,0.018596944242550557,-0.04026567474313353,0.013077738440808699,25.378404169001442
1610,B,18937751316067.0,1.1553192,2.4023438,8.415557575941957,51,1970-01-01 05:15:37.751316067,-2.7651672,0.65434265,3.7749329,7.605540732497449,4.7248737916548915,63.473758697509766,-70.15742492675781,-72.8769760131836,25428758.0,50354.0,0.06866894570750001,-0.6161767241265,0.21522806825848131,0.006292812014849408,-0.03844628370448963,0.0062881879188663664,25.42875817300228
1610,B,18937801670070.0,18.927246,19.311722,-1.6628268240580426,51,1970-01-01 05:15:37.801670070,-0.5367584,4.785385,4.597336,27.201417007465786,6.657590966339969,64.30394744873047,-69.80235290527344,-73.57473754882812,25479112.0,50354.0,0.5056187440404001,0.053225834646599975,0.17001350214018132,0.014458841164782882,-0.014173414544435443,0.00969922701792713,25.479112176002673
1610,B,18937852024074.0,18.584244,19.613052,-1.1469882240580427,51,1970-01-01 05:15:37.852024074,-3.485733,0.014129639,4.5312347,27.129263533698047,5.716871705790795,65.48075866699219,-69.51715850830078,-74.8076171875,25529466.0,50354.0,0.9444267837300001,0.48653983499799996,-0.07074271346641868,0.03650779625267536,0.013589680264642093,0.0024993406464393223,25.529466179999872
1610,B,18937902378078.0,3.3226776,13.460007,0.21412627594195732,51,1970-01-01 05:15:37.902378078,1.2554321,1.8339539,0.32450867,13.90592758528664,2.2460637884843764,67.1557846069336,-68.46727752685547,-76.28102111816406,25579820.0,50354.0,0.5515505651232,0.3392112064429999,-0.02348666526771868,0.03766422171207702,0.020789933970360056,-0.0023724130683893765,25.57982018400071
1610,B,18937952732082.0,-1.7368164,4.411194,-3.892700524058043,51,1970-01-01 05:15:37.952732082,0.5947571,2.425232,-1.2490082,7.025757084086914,2.792043650355712,73.86229705810547,-67.17688751220703,-82.4329833984375,25630174.0,50354.0,0.03992722743240001,-0.043525972423000055,-0.09261546384481868,0.01489163638317234,0.007444467136921536,-0.0029231033046663536,25.630174188001547
1610,B,18938003086086.0,-5.2950287,-1.4967041,2.3924709759419573,51,1970-01-01 05:15:38.003086086,1.6408691,-1.1401978,-3.229828,5.611366309274875,3.7979325080948514,68.49811553955078,-65.32022094726562,-77.48494720458984,25680528.0,50354.0,-0.1770407640827,-0.42009108778770005,-0.037771279332918684,-0.003452107512244603,-0.011672486724924797,-0.0032827470329858935,25.680528192002384
1610,B,18938053440090.0,-6.5105133,-7.3147736,-9.512802824058042,51,1970-01-01 05:15:38.053440090,3.0604095,3.142212,-3.5914001,14.582415333504352,5.669017308045043,73.76490783691406,-66.9940414428711,-82.13072967529297,25730882.0,50354.0,-0.29722813093399997,-0.7153157740529001,-0.17926859494001865,-0.011940667969835457,-0.028586138560560793,-0.005464412914569744,25.730882195999584
1610,B,18938103794094.0,-0.044418335,-1.2756348,6.034835475941957,51,1970-01-01 05:15:38.103794094,-4.388214,-1.4715729,1.0156403,4.911125219630762,4.738509694914056,66.3834228515625,-66.83271026611328,-75.56298828125,25781236.0,50354.0,-0.165033513774395,-0.7097499122868001,-0.08756478392351867,-0.011638361428823261,-0.03587887878497464,-0.006718063979647279,25.78123620000042
1610,B,18938154148098.0,-0.90341187,1.167038,-0.1584628240580428,51,1970-01-01 05:15:38.154148098,1.5169525,-8.523056,1.5160828,2.0696295053825207,8.788750509762357,73.63529968261719,-65.72830963134766,-82.27593994140625,25831590.0,50354.0,-0.023863521071285,-0.4962033416336001,0.1479494342564813,-0.004755860646309686,-0.030362285073953915,0.0015203043414330002,25.83159020400126
1610,B,18938204502102.0,10.652893,19.264526,-17.204772824058043,51,1970-01-01 05:15:38.204502102,2.299881,-2.505188,0.7341919,28.75333823784873,3.4791460555042253,76.76228332519531,-65.38255310058594,-85.06307983398438,25881944.0,50354.0,0.24546268641001004,0.020936286827999962,-0.4371541839126187,0.005579202185733081,-0.011965798638840595,-0.007281307982092572,25.881944208002096
1610,B,18938254856106.0,17.78862,14.607071,-0.27709992405804273,51,1970-01-01 05:15:38.254856106,0.84799194,10.639236,-2.9824219,23.07087138349475,11.081844313272073,76.48454284667969,-64.79285430908203,-84.57115173339844,25932298.0,50354.0,0.7160719728010001,0.3593159976689999,-0.44014111017931873,0.024208558114955602,0.009573611766780966,-0.02208766361935271,25.932298212002934
1610,B,18938305210110.0,18.623276,15.580383,-5.275818124058043,51,1970-01-01 05:15:38.305210110,9.455627,-14.80513,-1.0641632,25.15387218613961,17.599238608424603,79.83480834960938,-64.62789154052734,-87.48456573486328,25982652.0,50354.0,0.916742305592,0.26656032935799995,-0.13980581769741868,0.041109365087100565,0.015757688285558773,-0.014601323803152618,25.982652216000133
1610,B,18938355564113.0,11.726761,0.0005340576,12.569610175941957,51,1970-01-01 05:15:38.355564113,-1.0533142,0.5858154,-1.4014893,16.2693142102929,1.8484649698637219,77.4495849609375,-64.81900024414062,-85.36817932128906,26033006.0,50354.0,0.7641228815490001,-0.10118845124080485,0.1836358024902813,0.04231914281664896,0.004163567775356622,0.0011035075271299023,26.033006219000526
1610,B,18938405918117.0,5.4932404,-11.415985,-0.5285342240580426,51,1970-01-01 05:15:38.405918117,0.7757263,-0.96640015,-1.2927551,12.799081883378374,1.790780916529915,77.43247985839844,-66.19657135009766,-85.34355163574219,26083360.0,50354.0,0.43354797524780003,-0.7808760083768048,0.30315816924058137,0.03015375916157304,-0.022207736899792562,0.012256011826267931,26.083360223001364
1610,B,18938456272121.0,1.7554932,-6.631439,3.1808926759419576,51,1970-01-01 05:15:38.456272121,-1.4289093,1.3600922,1.605835,7.115043313720831,2.5436860315990906,73.46637725830078,-68.75019836425781,-81.71046447753906,26133714.0,50354.0,0.18250136584720003,-0.947849194048,0.06677842874308132,0.015510274260748818,-0.04352411442144931,0.009313893727434675,26.1337142270022
1610,B,18938506626125.0,3.4186401,3.598587,7.745086175941958,51,1970-01-01 05:15:38.506626125,-2.347931,1.0607605,3.7206116,8.14082629228342,4.525587641088813,70.63899993896484,-68.2412109375,-79.15160369873047,26184068.0,50354.0,0.1302691540941,-0.5698273148040001,0.27508336955388135,0.00787462338056211,-0.03821054146336681,0.008607054495722629,26.1840682309994
1610,B,18938556980129.0,19.250153,16.467453,1.5038754359419573,51,1970-01-01 05:15:38.556980129,-1.159195,5.0971375,4.8913116,25.333576273131445,7.158873717996833,70.57887268066406,-67.97138977050781,-79.03045654296875,26234422.0,50354.0,0.5707322038787,0.011733489079999946,0.23286110650240135,0.01764911118968119,-0.014051128250253153,0.01278851807366903,26.23442223500024
1610,B,18938607334133.0,16.548935,18.504623,-6.8025518240580425,51,1970-01-01 05:15:38.607334133,-2.8431854,-1.1398773,3.8617249,26.11164232842082,4.929091466092758,72.4096450805664,-67.7513427734375,-80.85414123535156,26284776.0,50354.0,0.901313638576,0.38702275745199993,-0.1334047754235987,0.03706169817548199,0.010039486018936162,0.0025040120475710147,26.284776239001076
1610,B,18938657688137.0,2.2937622,11.380646,2.8509823759419572,51,1970-01-01 05:15:38.657688137,0.7957611,1.9484406,0.25880432,11.713640660139344,2.1205273344270363,72.82478332519531,-66.55886840820312,-81.16326904296875,26335130.0,50354.0,0.4744025874044,0.2589522176129999,-0.09948866399521869,0.03463640742150853,0.016263711947211504,-0.005863558124247566,26.335130243001913
1610,B,18938708042141.0,-0.6403961,3.5681,-3.7334292240580425,51,1970-01-01 05:15:38.708042141,1.2943573,1.8927612,-1.4345856,6.196870990419566,2.7047997382460847,76.05705261230469,-65.96232604980469,-84.03528594970703,26385484.0,50354.0,0.04162679829970001,-0.11710462195800005,-0.02221736429501868,0.012992071843872128,0.0035712969158059322,-0.0030641926742633065,26.38548424700275
1610,B,18938758396145.0,-4.4840393,-2.0407257,-0.06765772405804271,51,1970-01-01 05:15:38.758396145,2.0588074,-0.7524414,-3.686905,5.110884946230094,4.289303492381219,83.1780014038086,-66.55506134033203,-90.49400329589844,26435838.0,50354.0,-0.12901791006580002,-0.4550144972489001,-0.09569996609271868,-0.0022002460209351,-0.014404243064272126,-0.0029688046271720636,26.43583825099995
1610,B,18938808750149.0,-6.6685333,-6.0407257,-5.626358324058042,51,1970-01-01 05:15:38.808750149,2.4213867,2.6130676,-3.7639313,11.350331693167897,5.182510459635015,89.55943298339844,-67.67949676513672,-96.22064208984375,26486192.0,50354.0,-0.2807883203502,-0.6969359018978001,-0.14335824204341868,-0.010317691463183634,-0.029002655199316472,-0.006018768506243531,26.486192255000788
1610,B,18938859104153.0,-4.6489716,1.8859711,13.918075175941958,51,1970-01-01 05:15:38.859104153,-4.6023254,-0.8618164,1.8933105,13.585855623834178,5.050618897145613,82.41751861572266,-66.83232116699219,-89.86158752441406,26536546.0,50354.0,-0.2849408208673,-0.5980734565642001,0.20876055517988135,-0.014243362588433,-0.03260445061799778,0.0016466340378367206,26.536546259001625
1610,B,18938909458156.0,3.3243866,6.0126038,-3.970535524058043,51,1970-01-01 05:15:38.909458156,1.7767334,-9.159241,2.3731842,8.654610619807254,9.627070193879662,85.99459838867188,-66.38345336914062,-93.23562622070312,26586900.0,50354.0,-0.03334907654500001,-0.29460677974270005,0.25044920581548136,-0.008013584747149478,-0.022475010309498826,0.011561524152580247,26.58690026200202
1610,B,18938959812160.0,15.360184,18.428879,-15.193496824058041,51,1970-01-01 05:15:38.959812160,-1.3310852,4.37677,0.19789124,29.109212826097274,4.578980714681792,87.57503509521484,-65.89590454101562,-94.65426635742188,26637254.0,50354.0,0.47042143399620007,0.12189401245559996,-0.4824928424285187,0.011004170743548864,-0.00434838934198732,-0.005842162639006441,26.637254266002856
1610,B,18939010166164.0,19.250153,13.875305,-3.5337678240580424,51,1970-01-01 05:15:39.010166164,2.1721802,9.387207,-3.0218964,24.21539074894184,10.098013662817753,87.43834686279297,-65.45243072509766,-94.2416763305664,26687608.0,50354.0,0.871384454649,0.31985324056799996,-0.47149634204561863,0.0337826468584202,0.011121870589375176,-0.024018585697505354,26.687608270000055
1610,B,18939060520168.0,19.250153,8.390427,6.598754575941958,51,1970-01-01 05:15:39.060520168,4.925766,-1.7731476,-0.6871948,21.659275236577827,5.280100358069797,87.09810638427734,-65.43183898925781,-93.74562072753906,26737962.0,50354.0,0.9693222041620001,0.067115134564,0.07716717145218134,0.04634347154888455,0.009742702780698364,-0.009928025528030971,26.737962274000893
1610,B,18939110874172.0,15.64949,-2.4938812,12.833938175941958,51,1970-01-01 05:15:39.110874172,-2.395523,1.6989594,-0.5050354,19.604367713996222,2.979941986286062,84.69727325439453,-65.98639678955078,-91.63143920898438,26788316.0,50354.0,0.878668311811,-0.34501186639340004,0.4892569054141814,0.046526857220652224,-0.006996606017268804,0.014260858983264416,26.78831627800173
1610,B,18939161228176.0,5.693741,-10.472443,-2.6395114240580426,51,1970-01-01 05:15:39.161228176,0.39056396,-0.9470978,0.11317444,12.551944347622028,1.0307002005845518,85.70316314697266,-67.38247680664062,-92.55640411376953,26838670.0,50354.0,0.537358526887,-0.8199223443834,0.2566650823321813,0.035651307717899546,-0.029329548624727492,0.018780077885490177,26.838670282002568
1610,B,18939211566518.0,2.5498657,-5.1251984,6.022704775941957,51,1970-01-01 05:15:39.211566518,-1.2870026,0.86224365,2.8266754,7.425934183242147,3.2233419957145784,82.81240844726562,-68.53182983398438,-89.91552734375,26889008.0,50338.0,0.2074833370323,-0.8858894363966002,0.08515159347356624,0.018746924872984863,-0.04293357671045182,0.00860318391335486,26.8890086240026
1610,B,18939261920522.0,6.678238,8.514145,5.024184875941957,51,1970-01-01 05:15:39.261920522,-1.3026428,2.8433838,4.3903656,11.446184859317583,5.3904563628840965,81.4494857788086,-67.99391174316406,-88.64842987060547,26939362.0,50354.0,0.23233596685490002,-0.40814569145180013,0.2781275407654813,0.011073330613968035,-0.032579922413839175,0.009146278762736501,26.9393626279998
1610,B,18939312274526.0,19.250153,19.613052,-0.7981112240580428,51,1970-01-01 05:15:39.312274526,-0.86946106,3.231903,4.779068,27.56103720254133,5.834436603896671,81.61184692382812,-67.66143798828125,-88.76590728759766,26989716.0,50354.0,0.652799100207,0.21468923886899996,0.10639985633348131,0.02228504558341746,-0.00487065310667716,0.009681246276760582,26.989716632000636
1610,B,18939362628530.0,13.86879,17.574387,-3.215896824058043,51,1970-01-01 05:15:39.362628530,-1.4505005,-1.2120056,2.6968079,22.836984863681064,3.293278324775181,82.77091979980469,-67.15926361083984,-89.91845703125,27040070.0,50354.0,0.8338356279110001,0.44279895170300004,-0.1010606806274187,0.03742900254982689,0.016553580174031246,0.00013442442675153842,27.040070636001474
1610,B,18939412982533.0,1.9862823,10.32869,3.3357388759419573,51,1970-01-01 05:15:39.412982533,0.48631287,1.6253052,-0.054611206,10.714572348279654,1.6973802121196804,82.37529754638672,-65.95475006103516,-89.50189971923828,27090424.0,50354.0,0.3991831552971,0.20904656962899998,0.00301726334028131,0.03104371390483034,0.016411514690575765,-0.002468439117038258,27.090424639001867
1610,B,18939463336537.0,-1.7815247,1.8473358,-2.406677524058043,51,1970-01-01 05:15:39.463336537,1.2176666,1.045044,-2.5441437,4.502249160601957,3.0079055964144303,88.30685424804688,-64.425048828125,-94.8175048828125,27140778.0,50354.0,0.0051551820952,-0.18691339843340005,0.023390977656381314,0.010180026320525937,0.0005572468511916195,0.000664880283572975,27.140778643002704
1610,B,18939513690541.0,-2.4142609,-3.8966827,0.6414639359419573,51,1970-01-01 05:15:39.513690541,1.9141998,-0.41481018,-4.6184235,4.629969103837718,5.0165789124765015,90.0130615234375,-66.98645782470703,-96.298583984375,27191132.0,50354.0,-0.1056372940512,-0.5450656069013,-0.04444278250799869,-0.002529838132716212,-0.018429035417311744,-0.0005300212907491707,27.191132646999904
1610,B,18939564044545.0,-3.2779083,-5.6855164,0.7103573759419572,51,1970-01-01 05:15:39.564044545,0.3756256,2.0826263,-3.7694702,6.588523849251643,4.322884741178637,90.95646667480469,-69.62925720214844,-97.1174087524414,27241486.0,50354.0,-0.14331174394840002,-0.7347202267407001,0.03403480516930132,-0.006267789929715929,-0.03222116793360464,-0.00026204164545638384,27.24148665100074
1610,B,18939614398549.0,-3.9961853,-1.8110657,2.3085629759419573,51,1970-01-01 05:15:39.614398549,-1.6575012,-1.796402,0.7185974,4.50354084894413,2.5476955463501127,82.994873046875,-70.3824691772461,-89.74327087402344,27291840.0,50354.0,-0.18313985456720003,-0.6822106475317001,0.07600735769938131,-0.008219071895827263,-0.035674068621556226,0.0027705315345448226,27.29184065500158
1610,B,18939664752553.0,7.073456,8.989197,-4.148681824058043,51,1970-01-01 05:15:39.664752553,1.9661865,-5.2658386,3.6322174,12.666715691093293,6.6923799021644745,85.89376831054688,-69.96018981933594,-92.45807647705078,27342194.0,50354.0,0.0774764444139,-0.31274538825990006,-0.046328672239018695,-0.002660287677429635,-0.02505000811312512,0.0007472202638355497,27.342194659002416
1610,B,18939715106557.0,15.720917,16.75325,-8.206832824058043,51,1970-01-01 05:15:39.715106557,1.0378723,1.2457123,1.4169922,24.860723327275856,2.1533334484792226,87.5186538696289,-69.4619140625,-93.910400390625,27392548.0,50354.0,0.573893929021,0.15464838811900003,-0.31107479229561874,0.01639955189197048,-0.00398040817254744,-0.008998347026588568,27.392548662999616
1610,B,18939765460561.0,14.190369,11.782303,5.053695375941958,51,1970-01-01 05:15:39.765460561,0.92626953,4.809738,-3.0036926,18.823814069435585,5.745757052481873,86.27533721923828,-68.82482147216797,-92.6231460571289,27442902.0,50354.0,0.7530764476220001,0.22497041788100008,-0.0793865415312187,0.033409133172740815,0.009557662678662003,-0.009830645001758287,27.442902667000453
1610,B,18939815814565.0,18.175858,7.3794556,11.046569175941958,51,1970-01-01 05:15:39.815814565,0.065475464,-0.29792786,-1.2757416,21.907999251607993,1.3117029679469185,84.6618423461914,-68.69615936279297,-91.123046875,27493256.0,50354.0,0.8148844971790001,-0.011033603727800021,0.4053563606227814,0.03947655270725479,0.005386287169935118,0.008206942135268274,27.49325667100129
1610,B,18939866168569.0,12.995712,-0.49554443,11.034729175941957,51,1970-01-01 05:15:39.866168569,-2.5999603,-3.4601898,-0.51753235,16.24947722996186,4.358961659259766,82.58271789550781,-69.0573959350586,-89.36815643310547,27543610.0,50354.0,0.7848066178900001,-0.32015296847291,0.5559408486053814,0.04027542320409222,-0.008338284328297278,0.02420257983673746,27.543610675002128
1610,B,18939916522573.0,5.118988,-5.76416,1.5224148659419572,51,1970-01-01 05:15:39.916522573,-0.1715393,0.8203888,0.042755127,7.712486538815442,0.8392207787553381,81.92185974121094,-70.37905883789062,-88.7416000366211,27593964.0,50354.0,0.4560738019,-0.6510697784341102,0.3161512155425113,0.031241646329052835,-0.02445247509887805,0.021956661899051495,27.593964678999328
1610,B,18939966876576.0,2.2046661,-2.6738586,4.370574675941958,51,1970-01-01 05:15:39.966876576,-2.1533508,0.7836304,2.385147,4.6351632308057304,3.3075553635991946,78.34088897705078,-71.33204650878906,-85.44120025634766,27644318.0,50354.0,0.1843876392757,-0.7059131942922001,0.14836779769601136,0.0161248977044806,-0.03416476030433031,0.011695195196306286,27.64431868199972
1610,B,18940017230580.0,10.227936,10.296539,4.645171875941957,51,1970-01-01 05:15:40.017230580,-1.467926,3.0508118,3.674179,14.895298984373087,4.996183613973393,77.3796615600586,-70.81306457519531,-84.5417709350586,27694672.0,50354.0,0.31301562307170006,-0.3015529755692001,0.22698945093678133,0.012523121936120492,-0.025364975758600476,0.009450369448827822,27.69467268600056
1610,B,18940067584584.0,19.250153,19.341599,-7.793136824058042,51,1970-01-01 05:15:40.067584584,-2.259018,3.8265991,4.374542,28.761333047529266,6.2355946553804165,78.55817413330078,-70.50146484375,-85.68338012695312,27745026.0,50354.0,0.742169846753,0.2527302004259999,-0.07925631349871869,0.026566404573776476,-0.0012292110097803504,0.0037194772012781037,27.745026690001396
1610,B,18940117938588.0,12.283142,15.428177,-5.387954824058043,51,1970-01-01 05:15:40.117938588,-1.1724243,0.8761444,2.9039612,20.821441706200797,3.2519530131887344,80.23678588867188,-70.0143814086914,-87.29466247558594,27795380.0,50354.0,0.7939137682150001,0.3819294503519999,-0.33186034442461865,0.03867397717404934,0.015978826027637703,-0.010350684096535865,27.795380694002233
1610,B,18940168292592.0,3.0319214,8.297775,1.3496853759419574,51,1970-01-01 05:15:40.168292592,0.9254303,1.1165619,0.12515259,8.834528270446024,1.4556080816873092,80.7449722290039,-68.93095397949219,-87.70796203613281,27845734.0,50354.0,0.3855873512218,0.10387909350399996,-0.10167150989521868,0.029696299684060318,0.012231201708662508,-0.010915031496210545,27.845734697999433
1610,B,18940218646596.0,-0.9744568,2.1926117,-1.0324099240580429,51,1970-01-01 05:15:40.218646596,1.4329529,1.2846222,-2.1686249,3.340991783755408,2.8994037606465333,86.5317611694336,-66.97122955322266,-92.98956298828125,27896088.0,50354.0,0.0518007862342,-0.22935273405410003,0.007988044052081315,0.011012121136729712,-0.00315904984812987,-0.00235866861953267,27.89608870200027
1610,B,18940269000600.0,-5.7176514,-4.959152,-6.848876824058042,51,1970-01-01 05:15:40.269000600,3.2697449,1.6369324,-4.180374,11.116043356000144,5.55394509993768,93.61922454833984,-67.56411743164062,-99.35033416748047,27946442.0,50354.0,-0.1684872081514,-0.5631223851331001,-0.19842715645731868,-0.0029378140446093444,-0.01995214607577614,-0.004794685533026662,27.946442706001108
1610,B,18940319354604.0,-6.499359,-6.290573,5.8631588759419575,51,1970-01-01 05:15:40.319354604,-1.6376648,4.8804016,-1.2941895,10.13430213965637,5.308030918933295,86.7477035522461,-69.24894714355469,-92.94052124023438,27996796.0,50354.0,-0.3075876708408,-0.7767035263250002,-0.02481742077971866,-0.011986137228386621,-0.033732796972780595,-0.00562062872109689,27.996796710001945
1610,B,18940369708608.0,-4.0538025,-1.7475586,7.184676875941958,51,1970-01-01 05:15:40.369708608,-0.46295166,-3.3641357,1.6271362,7.362422001008302,3.7655418548811386,79.10013580322266,-69.11550903320312,-85.87039184570312,28047150.0,50354.0,-0.2656969470855,-0.6958452392932001,0.3285053607251814,-0.014433586825530456,-0.03707436027196943,0.007645951264006915,28.047150714002782
1610,B,18940420062612.0,-9.7812195,11.897293,-11.169219824058043,51,1970-01-01 05:15:40.420062612,2.1929932,-9.793243,1.003479,19.811910622780157,10.085821619270106,86.01835632324219,-67.26073455810547,-92.36082458496094,28097504.0,50354.0,-0.34832434889400005,-0.23792933701120006,-0.10031883780471869,-0.015459214168875874,-0.02350964250761588,0.00574505208756849,28.097504717999982
1610,B,18940470416616.0,6.3480377,19.613052,-11.841445824058043,51,1970-01-01 05:15:40.470416616,-0.7957611,5.9413147,-1.2395782,24.443187262891907,6.121193527950619,87.42076873779297,-66.30797576904297,-93.57354736328125,28147858.0,50354.0,-0.08643721817860002,0.2998667560649999,-0.5793395290226188,-0.010945991974186851,0.001559398399517519,-0.017111758701611877,28.14785872200082
1610,B,18940520770619.0,19.250153,16.904816,1.1901242159419574,51,1970-01-01 05:15:40.520770619,3.3784943,7.127533,-1.2771301,25.61936125784194,7.990432509792414,86.91852569580078,-65.79488372802734,-92.81794738769531,28198212.0,50354.0,0.6444856472539,0.425941162636,-0.2681683241275387,0.014049985298828827,0.018273665969135076,-0.021337705218761514,28.198212725001213
1610,B,18940571124623.0,19.250153,8.376877,15.578552175941958,51,1970-01-01 05:15:40.571124623,-2.4737701,-3.2004242,0.2728424,25.39354862924286,4.054219597263746,85.24848937988281,-65.7844009399414,-91.4728012084961,28248566.0,50354.0,0.9693222041620001,0.143047984661,0.42218496551846135,0.04063084027509812,0.01432543976149657,0.0038776769802992593,28.24856672900205
1610,B,18940621478627.0,10.024048,-3.0031738,7.134185475941957,51,1970-01-01 05:15:40.621478627,-1.2739716,-1.4689789,-0.5732727,11.984411207537839,2.027201083962087,83.5363540649414,-66.51805114746094,-89.99590301513672,28298920.0,50354.0,0.7370365585770001,-0.35817547453360005,0.5718385958614814,0.04296099456947981,-0.005416264812522452,0.025026531204862822,28.298920733002888
1610,B,18940671832631.0,3.4080353,-6.033066,1.9820248759419572,51,1970-01-01 05:15:40.671832631,-0.6873627,0.61239624,0.2975464,6.963336977319149,0.9674866904874648,82.67562103271484,-67.92283630371094,-89.2209701538086,28349274.0,50354.0,0.33817956124410004,-0.7209746094446001,0.22951882802938134,0.02707071624873584,-0.02716976166431915,0.020175775861300253,28.349274737000087
1610,B,18940722186635.0,0.90615845,-2.824417,6.949508175941958,51,1970-01-01 05:15:40.722186635,-1.9574738,-0.48516846,2.5508118,6.387520670743807,3.2517276871356326,78.93757629394531,-68.520751953125,-85.84314727783203,28399628.0,50354.0,0.10861845604374999,-0.716474049491,0.22486920764728133,0.011249033681256201,-0.036190644886021604,0.011440127574231336,28.399628741000924
1610,B,18940772540639.0,13.1818695,7.4582367,4.647018175941957,51,1970-01-01 05:15:40.772540639,-1.0174103,3.424347,4.5648193,15.512572429539244,5.796451615998151,77.88142395019531,-68.46990966796875,-84.83027648925781,28449982.0,50354.0,0.35469427969715,-0.37680352141310003,0.29196574396138136,0.01166482474774864,-0.02752544940265253,0.0130123535766513,28.449982745001762
1610,B,18940822894643.0,19.250153,17.190094,-5.5913698240580425,51,1970-01-01 05:15:40.822894643,-1.5719604,3.9788513,5.563385,26.71058054544575,7.018088758693841,78.66712188720703,-68.3108139038086,-85.54105377197266,28500336.0,50354.0,0.8165410304825002,0.12710182203389994,-0.023775941444618684,0.029488191404393054,-0.0062867396852701206,0.006752214657964534,28.5003367490026
1610,B,18940873248647.0,9.218185,19.45987,3.731383975941957,51,1970-01-01 05:15:40.873248647,-1.7281647,0.0064849854,3.0059967,21.67048054051362,3.4673637602323497,78.75727844238281,-67.48194122314453,-85.69384002685547,28550690.0,50354.0,0.7167473458260001,0.42926694362799994,-0.04682886369801868,0.03860360145031911,0.014007696413069653,-0.0017776171790761812,28.5506907529998
1610,B,18940923602651.0,-0.35195923,8.8016205,-0.9689486240580427,51,1970-01-01 05:15:40.923602651,0.83166504,1.793808,-0.2680359,9.094309151500838,1.995308778938992,80.14042663574219,-66.2323989868164,-86.8946762084961,28601044.0,50354.0,0.22322496621129,0.21807034631849992,0.06954983485438132,0.02366568290016285,0.01629801094898303,0.0005720458908037422,28.601044757000636
1610,B,18940973956655.0,-4.138397,1.2699127,-2.0730136240580426,51,1970-01-01 05:15:40.973956655,1.1731415,0.26013184,-2.4968414,5.483206772780754,2.770946865235419,85.79621124267578,-64.44297790527344,-91.98567199707031,28651398.0,50354.0,-0.11305369880271002,-0.23989820862360003,-0.07658748352081868,0.002773781999545819,-0.0005495600892555056,-0.00017718688047489335,28.651398761001474
1610,B,18941024310658.0,-2.7020874,-4.0435944,-3.008926824058043,51,1970-01-01 05:15:41.024310658,3.3750305,2.1457672,-4.3672943,6.4926138163762,5.921858429187461,91.51253509521484,-65.74253845214844,-96.97993469238281,28701752.0,50354.0,-0.17222287573880002,-0.5633021841609,-0.1279480146622187,-0.007182408317231598,-0.02022217628913536,-0.005149590237754333,28.701752764001867
1610,B,18941074664662.0,-5.7123566,-5.731949,4.020690575941957,51,1970-01-01 05:15:41.074664662,-3.852066,0.7006531,-1.289505,8.53987056405615,4.122153609452298,86.2350082397461,-67.7526626586914,-92.29029846191406,28752106.0,50354.0,-0.211850456588,-0.7395880561818001,0.025473175981181314,-0.009669814287991844,-0.03280286758110816,-0.002580009013472478,28.752106768002704
1610,B,18941125018666.0,-2.5450897,1.1812439,3.7117306759419573,51,1970-01-01 05:15:41.125018666,1.0676117,-7.075348,1.6651611,3.7048065690510144,7.34663906504424,81.97162628173828,-65.83609771728516,-88.45318603515625,28802460.0,50354.0,-0.2078977254951,-0.6080423023027001,0.19467916985868133,-0.01056799998030621,-0.03392928953556426,0.005542775611210222,28.802460771999904
1610,B,18941175372670.0,14.863373,16.16365,-13.975463824058043,51,1970-01-01 05:15:41.175372670,2.2123718,-1.082367,2.278717,26.74497246674158,3.3553924465274165,84.416748046875,-65.58553314208984,-90.59642028808594,28852814.0,50354.0,0.3101374186441,-0.056776806279700026,-0.25841000947011866,0.0025740887544123733,-0.01673815069677909,-0.0016045513488971578,28.85281477600074
1610,B,18941225726674.0,17.82196,13.937042,-3.776916824058043,51,1970-01-01 05:15:41.225726674,-0.0036468506,8.787048,-2.3681183,23.18538729232214,9.100560979226401,84.436767578125,-65.12747955322266,-90.43881225585938,28903168.0,50354.0,0.8229186289410001,0.26437592248399994,-0.4469516875776188,0.028526952110050068,0.005226722948675659,-0.017758891446570887,28.90316878000158
1610,B,18941276080678.0,18.546448,11.066864,3.683059375941957,51,1970-01-01 05:15:41.276080678,6.2577667,-0.99612427,-0.467865,21.72926784598765,6.353802427770078,84.65619659423828,-64.95068359375,-90.37567901611328,28953522.0,50354.0,0.9156474082160001,0.13605414136199998,-0.002363048971218694,0.043771877117501794,0.01008162771745074,-0.011312397122090081,28.953522784002416
1610,B,18941326434682.0,19.15944,3.456894,17.32388317594196,51,1970-01-01 05:15:41.326434682,-2.7721863,-0.8299103,0.51119995,25.219836228438222,2.938552939260034,82.48529052734375,-65.17231750488281,-88.5491943359375,29003876.0,50354.0,0.949321142176,-0.12780454483400003,0.5288917926287814,0.04695431319321939,0.00020770009178545468,0.013256414179066459,29.003876787999616
1610,B,18941376788686.0,9.093277,-7.5162506,2.167373375941957,51,1970-01-01 05:15:41.376788686,0.49919128,-0.8292084,-1.2165833,11.82992594195482,1.5546232439075032,82.06326293945312,-66.38542175292969,-88.16224670410156,29054230.0,50354.0,0.711318655909,-0.5956716211182,0.4907313662067813,0.04180992819638605,-0.01821495943017854,0.02567105227000296,29.054230792000453
1610,B,18941427142690.0,3.7359772,-5.813278,2.9940792759419574,51,1970-01-01 05:15:41.427142690,-0.8571472,1.0729218,1.5320129,7.116682249568591,2.0574076011207625,80.54067993164062,-67.76651000976562,-86.7735366821289,29104584.0,50354.0,0.3230021329934,-0.8290667415622,0.12994989341648133,0.026041094502195727,-0.035870637757204435,0.015626892073534886,29.10458479600129
1610,B,18941477496694.0,0.51457214,0.80023193,7.184585175941957,51,1970-01-01 05:15:41.477496694,-1.9898376,1.6092377,3.507019,5.968421647310175,4.341460804364822,76.60969543457031,-67.53553771972656,-83.18878173828125,29154938.0,50354.0,0.10701608073318,-0.6196826609043901,0.2562682349050813,0.010826568566994106,-0.03647516370590134,0.009723813816751983,29.154938800002128
1610,B,18941527850698.0,15.812149,16.495667,0.2837368759419574,51,1970-01-01 05:15:41.527850698,-0.6786499,6.147537,5.0100403,22.872443000658784,7.959477411285436,76.50179290771484,-67.17118835449219,-82.98413848876953,29205292.0,50354.0,0.41105785814178003,-0.05801035263939,0.18802994430028133,0.01304354755905487,-0.01706227700199175,0.011186095257853416,29.205292803999328
1610,B,18941578204701.0,17.360596,19.613052,-12.993743824058043,51,1970-01-01 05:15:41.578204701,-2.8950348,-0.036956787,3.8179321,29.835520749738826,4.791575713429436,78.5239486694336,-66.9706039428711,-84.96337127685547,29255646.0,50354.0,0.8351902008650001,0.415640018263,-0.3199998449327187,0.03137678738161371,0.00900404209140563,-0.003322606188222876,29.25564680699972
1610,B,18941628558705.0,3.7330017,12.5733185,7.549514475941957,51,1970-01-01 05:15:41.628558705,0.18676758,0.5095978,0.5847931,14.531831200025055,0.797843980055942,77.58750915527344,-65.90453338623047,-84.08432006835938,29306000.0,50354.0,0.5310735092929,0.31688705007849993,-0.1370693622975187,0.03439842143064545,0.018442833999633944,-0.011507631430435688,29.30600081100056
1610,B,18941678912709.0,-3.1387634,2.6361542,-2.591415724058043,51,1970-01-01 05:15:41.678912709,1.3637238,2.308609,-2.0901337,5.64675057084993,3.3997171943329536,82.94979095458984,-64.10546875,-88.84652709960938,29356354.0,50354.0,0.014961137679099994,-0.11054030583210006,0.12483005227618132,0.013747514306814045,0.00519519197989161,-0.00030814910840721123,29.356354815001396
1610,B,18941729266713.0,-5.92334,-2.2845917,4.857635175941957,51,1970-01-01 05:15:41.729266713,2.045929,-0.10449219,-3.6437988,7.281184393032077,4.180193032109096,76.94705963134766,-63.11078643798828,-83.38826751708984,29406708.0,50354.0,-0.2281565773018,-0.48461791093750006,0.05705660714008131,-0.005367621583380718,-0.014984298423608223,0.0045793604241232445,29.406708819002233
1610,B,18941779620717.0,-10.422546,-11.8120575,-15.848342824058044,51,1970-01-01 05:15:41.779620717,3.7817078,2.236969,-3.7685242,23.280076903282584,5.788533392624377,82.57747650146484,-64.34576416015625,-88.239501953125,29457062.0,50354.0,-0.41154037182200004,-0.8483805369084,-0.2767130464566187,-0.016105650088089913,-0.033560901921416225,-0.0055302901726724625,29.457062822999433
1610,B,18941829974721.0,3.9292908,0.31570435,5.033111175941958,51,1970-01-01 05:15:41.829974721,-3.5921936,-8.745987,3.260849,5.434272325319607,10.001463876095887,80.99951934814453,-64.81678771972656,-87.15480041503906,29507416.0,50354.0,-0.1634806861704,-0.78291288325755,-0.2722950872046187,-0.014477305177074656,-0.04107107443951812,-0.013822377781188973,29.50741682700027
1610,B,18941880328725.0,-5.5673676,1.7919312,1.3198239259419573,51,1970-01-01 05:15:41.880328725,2.7957,-8.791351,0.3633423,5.848704736924857,9.232324112712371,82.34378051757812,-62.03809356689453,-88.4144515991211,29557770.0,50354.0,-0.0412418595936,-0.44040525975765005,0.15994784706013135,-0.005154299534700229,-0.03079948088669369,-0.0028285664651177584,29.557770831001108
1610,B,18941930682729.0,18.986359,19.426208,-18.254409824058044,51,1970-01-01 05:15:41.930682729,-1.7806091,8.627365,-0.42533875,33.46550902060575,8.819461925904514,83.44820404052734,-61.707271575927734,-89.26795959472656,29608124.0,50354.0,0.3378499464778,0.04073989063839995,-0.42636206915686875,0.007467701803483503,-0.01006237499831536,-0.006707510869729557,29.608124835001945
1610,B,18941981036733.0,19.250153,10.193436,4.399261175941957,51,1970-01-01 05:15:41.981036733,3.3151703,9.645264,-3.632721,22.002877452539384,10.82673236076052,82.5073471069336,-61.46029281616211,-88.0772476196289,29658478.0,50354.0,0.9626806626240002,0.2522645769879999,-0.34883107751361875,0.03274345914535603,0.00737697348142987,-0.019517037853722868,29.658478839002782
1610,B,18942031390737.0,19.250153,16.80214,-10.977432824058043,51,1970-01-01 05:15:42.031390737,2.967331,-29.024475,-2.2307434,28.344859571544504,29.26091964388388,86.81965637207031,-61.25651550292969,-92.42632293701172,29708832.0,50354.0,0.9693222041620001,0.18619841695200007,-0.1656186275846187,0.048642036177071135,0.01103918279842738,-0.012952300225258326,29.708832842999982
1610,B,18942081744741.0,8.440964,-1.5043182,6.041549175941958,51,1970-01-01 05:15:42.081744741,1.3685455,2.7612762,-1.3414154,9.80135209360975,3.3610948087808907,85.13978576660156,-61.92274475097656,-90.82422637939453,29759186.0,50354.0,0.697179252709,-0.10831594054140001,-0.1242707426086187,0.041957507179641175,0.001960847108589678,-0.007298544673355139,29.75918684700082
1610,B,18942132098744.0,6.3186646,-10.020355,3.0275723759419573,51,1970-01-01 05:15:42.132098744,-1.7200775,-2.1429749,-0.49076843,11.972617992561986,2.791390635493521,84.58049774169922,-63.30071258544922,-90.45469665527344,29809540.0,50354.0,0.3716031692622,-0.7836258971564001,0.22833327331178135,0.026908735037968905,-0.022456419647717513,0.002619982335513526,29.809540850001213
1610,B,18942182452748.0,4.4920197,-5.88855,2.3614651759419574,51,1970-01-01 05:15:42.182452748,-0.68226624,0.6059723,3.2370758,7.483046907370893,3.363234958422719,83.72021484375,-64.8280258178711,-89.69104766845703,29859894.0,50354.0,0.2721805986211,-0.8940077011850001,0.13567979844378134,0.016208543923997846,-0.042237781105441435,0.009164757107589802,29.85989485400205
1610,B,18942232806752.0,4.8329926,6.414612,5.085540475941958,51,1970-01-01 05:15:42.232806752,-1.4683685,3.7050323,4.187729,8.88213775065636,5.781041824210973,82.07221984863281,-64.34683227539062,-88.18086242675781,29910248.0,50354.0,0.23477583467710003,-0.4802245370260001,0.18749326129748134,0.012763642121148784,-0.034599045061438356,0.00813652812510577,29.910248858002888
1610,B,18942283160756.0,18.936401,19.613052,-4.037903124058043,51,1970-01-01 05:15:42.283160756,-0.9054718,2.0423126,4.75029,27.77898626142473,5.249397586467803,82.69412994384766,-64.12068176269531,-88.7237777709961,29960602.0,50354.0,0.5984420226672,0.16182929652799993,0.026376365608381327,0.020977925994357445,-0.00801623697001815,0.0053845955966089045,29.960602862000087
1610,B,18942333514760.0,12.872192,19.027481,-5.321365824058042,51,1970-01-01 05:15:42.333514760,-3.169693,1.3593445,3.3679657,23.905675455881624,4.820577158422603,83.56922149658203,-63.6406135559082,-89.61333465576172,30010956.0,50354.0,0.8008449459610001,0.47938349934100005,-0.2356383143067187,0.035229848009152194,0.016143814561593813,-0.00526858808237804,30.010956866000924
1610,B,18942383868764.0,0.10586548,10.515335,-2.9334568240580428,51,1970-01-01 05:15:42.383868764,1.7598877,0.8967285,-0.1748352,11.333226424546968,1.982900417691867,85.04293060302734,-62.495906829833984,-90.82911682128906,30061310.0,50354.0,0.32674855317396,0.250330278432,-0.2078316698116187,0.028389421527720893,0.018372003782990823,-0.011165243790147382,30.061310870001762
1610,B,18942434222768.0,-3.547882,1.8547668,-2.7954104240580424,51,1970-01-01 05:15:42.434222768,1.2401123,1.1627045,-2.0978546,5.721754636986333,2.7001396618828255,89.80681610107422,-60.659488677978516,-94.94229125976562,30111664.0,50354.0,-0.08665964992404,-0.18202714698140005,-0.14423569070581868,0.006044718317123236,0.0017196679405317554,-0.00886399993574752,30.1116648740026
1610,B,18942484576772.0,-6.4993896,-4.8799286,5.314986875941957,51,1970-01-01 05:15:42.484576772,2.2053223,0.04298401,-4.2717896,9.068424806173947,4.807648121343858,84.1833267211914,-61.05251693725586,-89.9329605102539,30162018.0,50354.0,-0.2529601570732,-0.5696336986386,0.06343537632908133,-0.008550607880769513,-0.01892456511017474,-0.0020343095150631165,30.1620188779998
1610,B,18942534930776.0,-9.0177765,-12.815201,-8.648162824058042,51,1970-01-01 05:15:42.534930776,1.2611084,3.1488647,-3.0298767,18.55710249278702,4.5481750310052425,88.640625,-62.72624588012695,-93.74178314208984,30212372.0,50354.0,-0.39067569089970006,-0.9389794779391999,-0.08391937084571868,-0.016204819744413707,-0.03798235394669927,-0.0005157255299453786,30.212372882000636
1610,B,18942585284780.0,0.7876587,4.783539,4.949660975941957,51,1970-01-01 05:15:42.585284780,-0.6619873,-9.178513,2.7284393,6.072694870985643,9.598318034443055,87.6894302368164,-61.93553161621094,-93.13750457763672,30262726.0,50354.0,-0.20720967585060002,-0.695682354174,-0.09311718103001868,-0.015052959878672308,-0.04115588094711404,-0.00445724926657544,30.262726886001474
1610,B,18942635638783.0,-4.601715,19.613052,-4.553604424058043,51,1970-01-01 05:15:42.635638783,2.2425537,-4.368927,1.8447723,20.976756061085474,5.245927474485326,89.10999298095703,-60.71449661254883,-94.38592529296875,30313080.0,50354.0,-0.09602649546510002,0.120763771607,0.00997151580678131,-0.00763457708521538,-0.01447472515328936,-0.0020933584133254472,30.313080889001867
1610,B,18942685992787.0,12.441513,18.149979,-2.075668624058043,51,1970-01-01 05:15:42.685992787,-1.6105957,2.2120514,-2.8631287,22.261118789686904,3.960390871853956,89.31129455566406,-59.94554138183594,-94.57807159423828,30363434.0,50354.0,0.19738259424600002,0.45729063148699994,-0.1669052075324187,0.0025518424990067195,0.014553675706697636,-0.003951119556576372,30.363434893002704
1610,B,18942736346791.0,19.250153,11.6184845,0.5551144759419573,51,1970-01-01 05:15:42.736346791,3.206482,5.549423,-3.3675995,22.49669488559788,7.240051715399086,89.10926818847656,-59.747528076171875,-94.12667083740234,30413788.0,50354.0,0.7979010748820001,0.25601140553949997,-0.03828299178711869,0.02505825693763566,0.017958805386216192,-0.005166023294267993,30.413788896999904
1610,B,18942786700795.0,17.701096,13.837219,-4.081970524058042,51,1970-01-01 05:15:42.786700795,3.6564636,-21.89383,-2.0871735,23.101561626476844,22.294972781910438,91.83338165283203,-59.44343948364258,-96.87061309814453,30464142.0,50354.0,0.9303215960730001,0.14742904701949994,-0.08879565472341867,0.04351146218663404,0.010157420274077941,-0.003199459083195799,30.46414290100074
1610,B,18942837054799.0,9.893585,-3.0133362,10.031631175941957,51,1970-01-01 05:15:42.837054799,-0.52204895,1.966568,-1.0073395,13.540161720129358,2.2703871196517023,89.7934799194336,-60.21230697631836,-95.07868957519531,30514496.0,50354.0,0.6947512835370001,-0.22095630274440006,0.14979460623248134,0.040914459889940975,-0.0018511957173858106,0.0015357706021436707,30.51449690500158
1610,B,18942887408803.0,5.667465,-7.93161,4.395980575941957,51,1970-01-01 05:15:42.887408803,-1.1000824,-1.4452362,0.19888306,10.230459982382277,1.8271407806009814,88.94863891601562,-61.57680130004883,-94.42408752441406,30564850.0,50354.0,0.39178055585000005,-0.7690301104774001,0.3632439810771813,0.02735561212024651,-0.024924887925685264,0.012916772512695377,30.564850909002416
1610,B,18942937762807.0,5.00148,-4.9078064,4.493346875941958,51,1970-01-01 05:15:42.937762807,-1.1676483,0.84002686,3.663437,7.703694794152339,3.935710651328849,87.45355987548828,-62.98686599731445,-93.13021850585938,30615204.0,50354.0,0.268612028265,-0.8167271867028,0.22380659725608135,0.016626704090263355,-0.0399246114711059,0.014780172410696556,30.615204912999616
1610,B,18942988116811.0,11.9618225,9.9973755,5.5939175759419575,51,1970-01-01 05:15:42.988116811,-1.5398254,3.4651794,5.4069214,16.1720461944562,6.604038882566295,86.26471710205078,-62.92220687866211,-92.05589294433594,30665558.0,50354.0,0.42708506704250004,-0.3653291187693001,0.25396705710508133,0.01751556576855693,-0.029760631602871065,0.012028907295850995,30.665558917000453
1610,B,18943038470815.0,16.307465,19.613052,-1.7639315240580427,51,1970-01-01 05:15:43.038470815,-1.0726624,2.5195618,5.245987,25.689431211313845,5.917700219896409,86.46002197265625,-62.62776184082031,-92.21231079101562,30715912.0,50354.0,0.7117358513875001,0.25203253316749996,0.09642755882828133,0.02867209426331211,-0.0028524681356965217,0.008821885245354271,30.71591292100129
1610,B,18943088824819.0,5.0751343,16.84729,1.2743832519419573,51,1970-01-01 05:15:43.088824819,-1.4471893,-0.8994751,1.9590912,17.595127052846046,2.5964303679228413,86.6429214477539,-61.702537536621094,-92.45616912841797,30766266.0,50354.0,0.5383497025761,0.424492830534,-0.012325356847066682,0.03147340399214157,0.017032879081912665,0.0021174411392810414,30.766266925002128
1610,B,18943139178823.0,-1.0618591,7.113312,-5.928207824058043,51,1970-01-01 05:15:43.139178823,1.1441345,2.9233093,-0.9051361,10.191422253588593,3.267116829420085,88.63484954833984,-60.73776626586914,-94.08385467529297,30816620.0,50354.0,0.10104222971040003,0.109786876554,-0.11716934125216669,0.016097970679177214,0.013451560185354577,-0.0032602880140443985,30.816620928999328
