Subject-id_accel,Activity_accel,Timestamp_accel,accel_x,accel_y,accel_z,Segment_accel,DateTime,gyro_x,gyro_y,gyro_z,accel_magnitude,gyro_magnitude,Roll,Pitch,Yaw,Time_Difference,Difference_Microseconds,vx,vy,vz,dx,dy,dz,Time_diff
1606,C,127439890067575.0,2.318297498919915,14.977033286902213,-0.27885691282785097,33,1970-01-02 11:23:59.890067575,0.68177795,-0.107543945,0.038208008,4.259639526211881,0.6912645839963838,-113.17784118652344,65.53982543945312,171.73486328125,15005509.0,50354.0,0.1826446153697134,0.23566522664877396,-0.01773420863603361,0.01034406550669346,0.006731866841541105,-0.0008210557166411946,15.005509590992006
1606,C,127439940421579.0,1.3802480989199148,13.464078586902211,-0.2423273128278508,33,1970-01-02 11:23:59.940421579,0.5592499,0.35491943,0.53897095,5.994393679836155,0.853942584361172,-113.06388854980469,65.37588500976562,171.80191040039062,15055863.0,50354.0,0.0931182825168134,0.22259267364677396,-0.013121855249333604,0.006942882480089086,0.01153755915574101,-0.0007768631204418903,15.055863595000119
1606,C,127439990775583.0,1.9770651989199148,13.867154886902213,-2.269640612827851,33,1970-01-02 11:23:59.990775583,0.27230835,0.09953308,0.3656006,6.080087168237024,0.46660740480019053,-113.0759048461914,65.39075469970703,171.7737274169922,15106217.0,50354.0,0.0845270768997134,0.19464926516997397,-0.0632438164642336,0.0044725772140298955,0.010504900293589263,-0.0019226585167324815,15.10621759899368
1606,C,127440041129587.0,1.2614889989199147,10.019833886902212,-2.323153112827851,33,1970-01-02 11:24:00.041129587,-0.09616089,-0.0900116,0.342865,9.598341913700885,0.3672947224303013,-113.66707611083984,65.38447570800781,171.23956298828125,15156571.0,50354.0,0.08153707903901339,0.107933516358074,-0.11563276763083362,0.004180997254069324,0.007618126690531664,-0.004503575757761508,15.156571603001794
1606,C,127440091483591.0,1.434767798919915,10.389615886902213,-1.259295012827851,33,1970-01-02 11:24:00.091483591,-0.18255615,0.20077515,0.28079224,8.914059365751656,0.39048904056908257,-113.96903228759766,65.42719268798828,170.96713256835938,15206925.0,50354.0,0.0678836573992134,0.020379516955073982,-0.09019529645963362,0.003761965881305236,0.003230537239725127,-0.005182133169605693,15.206925606995355
1606,C,127440141837595.0,3.312499098919915,10.533490886902213,-1.084505712827851,33,1970-01-02 11:24:00.141837595,-0.19337463,-0.0027618408,-0.45283508,8.302377969704507,0.49240327473611284,-113.95833587646484,65.40655517578125,170.98953247070312,15257279.0,50354.0,0.1195219386869134,0.03331185924407399,-0.059009870869833614,0.004718310692660414,0.0013517877785659486,-0.0037565384978539965,15.257279610988917
1606,C,127440192191599.0,4.920714438919915,-1.1879291130977876,-3.212740512827851,33,1970-01-02 11:24:00.192191599,-0.47027588,-0.78938293,-0.40748596,20.14883383813043,1.0051515413519898,-113.8849868774414,65.4039306640625,171.0960693359375,15307633.0,50354.0,0.20728761724219344,-0.25817599122092605,-0.10819176822333361,0.008228084189627123,-0.005661404250781205,-0.004209635667448671,15.30763361499703
1606,C,127440242545603.0,-1.033051401080085,-0.119204113097787,-4.145388212827851,33,1970-01-02 11:24:00.242545603,-0.27571106,0.11784363,-0.26461792,20.05444814819703,0.399907931057921,-114.29495239257812,65.49369812011719,170.73568725585938,15357987.0,50354.0,0.0978796923036934,-0.526378893235926,-0.18525560692583362,0.007683197352436793,-0.019752738325970166,-0.0073881245641305845,15.357987618990592
1606,C,127440292899607.0,0.0028829989199152806,6.8142828869022125,-3.200808212827851,33,1970-01-02 11:24:00.292899607,-0.012893677,-0.02897644,-0.21669006,13.14358889323171,0.21899877416199734,-114.75934600830078,65.45732116699219,170.31614685058594,15408341.0,50354.0,-0.025936549861186597,-0.32490720171192605,-0.18495518740873362,0.0018113124972749938,-0.021432830012502072,-0.009320797168961401,15.408341622998705
1606,C,127440343253611.0,2.7282705989199147,13.471189186902212,-2.242892012827851,33,1970-01-02 11:24:00.343253611,-0.58454895,-0.29296875,0.39672852,6.134715255116661,0.7648017272496548,-114.77764892578125,65.4814682006836,170.3281707763672,15458695.0,50354.0,0.06876225413281341,0.017258130402173957,-0.1370560405813336,0.0010782227564467483,-0.007745680668365629,-0.008107276687105923,15.458695626992267
1606,C,127440393607614.0,5.228163798919915,14.333692186902212,-0.628451012827851,33,1970-01-02 11:24:00.393607614,-0.28419495,-0.57237244,0.12669373,4.527960970411862,0.6514816044205461,-114.74068450927734,65.49921417236328,170.38442993164062,15509049.0,50354.0,0.2003191488344134,0.20657429834827395,-0.07229180335693361,0.00677466248250587,0.005635429058650027,-0.005270750666833754,15.509049629996298
1606,C,127440443961618.0,4.805357998919915,13.142621686902213,-0.9051691128278508,33,1970-01-02 11:24:00.443961618,-0.33189392,-0.20144653,-0.123046875,5.6822787751258215,0.4072773158785951,-114.73155975341797,65.49783325195312,170.4126739501953,15559403.0,50354.0,0.2526139783042134,0.198301954400774,-0.03861195390363361,0.011403497341969207,0.01019356941546278,-0.0027922238965493013,15.55940363398986
1606,C,127440494315622.0,5.127959298919915,11.605924286902212,0.4443639371721491,33,1970-01-02 11:24:00.494315622,0.091308594,-0.2966156,-0.3255005,6.9985752667236465,0.4497428698732942,-114.6825180053711,65.4892578125,170.4615478515625,15609757.0,50354.0,0.2500911296077134,0.12962494198247398,-0.011601691907483603,0.012656606501898583,0.008256215470241036,-0.0012642289605864982,15.609757637997973
1606,C,127440544669626.0,4.759520598919915,8.501309886902213,0.5010655871721491,33,1970-01-02 11:24:00.544669626,0.7866974,-0.16670227,-0.22009277,10.066115244610572,0.8337405312183076,-114.61650848388672,65.48271179199219,170.4908905029297,15660111.0,50354.0,0.2489370813879134,0.012770634793873976,0.0238030791344164,0.012564033268236897,0.0035850934364981125,0.00030719432621248704,15.660111641991534
1606,C,127440595023630.0,3.165572198919915,9.157437886902212,-0.47242991282785096,33,1970-01-02 11:24:00.595023630,0.9696808,0.5821686,-0.18026733,9.557579988053124,1.1452936055789051,-114.61780548095703,65.46240234375,170.4361572265625,15710465.0,50354.0,0.1995300613712134,-0.04887490729892603,0.0007209603729663944,0.011291057253246537,-0.0009089972688596956,0.0006174417426773767,15.710465645999648
1606,C,127440645377634.0,0.11030489891991468,10.595731386902212,-1.713076212827851,33,1970-01-02 11:24:00.645377634,0.48492432,0.7259369,-0.12605286,9.366356772836074,0.8820574258081227,-114.83370971679688,65.26364135742188,170.20523071289062,15760819.0,50354.0,0.0824767576923134,0.003856342806573953,-0.05502448772563361,0.007100085683562415,-0.0011334323982239484,-0.0013671999081581027,15.76081964999321
1606,C,127440695731638.0,-0.5830240010800853,7.138684886902212,-0.856386812827851,33,1970-01-02 11:24:00.695731638,0.33024597,0.012374878,0.4293213,12.55412444298942,0.5417862280830381,-114.6712875366211,65.29082489013672,170.33375549316406,15811173.0,50354.0,-0.011901648835086617,-0.04696980147442605,-0.06469137059693361,0.0017768695156983988,-0.0010854675488805123,-0.003014086164987275,15.811173654001323
1606,C,127440746085642.0,-2.692292101080085,0.33173888690221176,-3.256289012827851,33,1970-01-02 11:24:00.746085642,0.1103363,-0.37937927,0.34269714,19.95756561544517,0.5230143969028028,-114.76494598388672,65.33273315429688,170.24786376953125,15861527.0,50354.0,-0.08246263350408661,-0.3053863406469261,-0.10354483926253362,-0.0023758095364533644,-0.008871270590189283,-0.004235683055631807,15.861527657994884
1606,C,127440796439646.0,2.165267098919915,8.110669886902212,-1.5441004128278508,33,1970-01-02 11:24:00.796439646,-0.31019592,0.17060852,0.12408447,10.924659624030875,0.37513428472537363,-114.80298614501953,65.33479309082031,170.22308349609375,15911881.0,50354.0,-0.013268908479386598,-0.28091467430192607,-0.12085940456973361,-0.002410233032517905,-0.01476130065336725,-0.005649825646964993,15.911881661988446
1606,C,127440846793650.0,3.4657278989199147,13.622540886902211,-0.996493012827851,33,1970-01-02 11:24:00.846793650,0.24023438,-0.23339844,-0.0024108887,5.31816896702458,0.33495253620885124,-114.76778411865234,65.3395767211914,170.24859619140625,15962235.0,50354.0,0.1417715610606134,0.053707847652073926,-0.0639645206777336,0.003235311284037547,-0.005720386274563328,-0.0046533119659554825,15.962235665996559
1606,C,127440897147654.0,3.011733098919915,14.006711586902213,-0.8617426128278508,33,1970-01-02 11:24:00.897147654,0.23225403,-0.3917694,-0.032546997,5.021576840370692,0.45660103399063706,-114.71592712402344,65.34629821777344,170.29287719726562,16012588.999999998,50353.99999999814,0.16308303554260734,0.20215248953296647,-0.046784798347131874,0.007675324178679005,0.006441795709307524,-0.002788335605088935,16.01258966999012
1606,C,127440947501657.0,2.516493898919915,12.610959886902211,-0.7956873128278509,33,1970-01-02 11:24:00.947501657,0.15757751,0.06517029,0.35328674,6.422816291510382,0.3922873424115438,-115.07441711425781,65.43871307373047,169.9554443359375,16062943.0,50354.00000000186,0.13918417112461856,0.1766839146959805,-0.041729113238235145,0.007610181462261028,0.00953796414927255,-0.002228514751984868,16.06294367299415
1606,C,127440997855661.0,1.7477102989199147,9.834195886902211,-0.9660212128278508,33,1970-01-02 11:24:00.997855661,0.14030457,-0.05003357,0.38467407,9.273382022284187,0.41250802491611566,-115.25016021728516,65.57939910888672,169.7866973876953,16113297.0,50354.0,0.10735986908901339,0.07163248691707393,-0.0443545355504336,0.006207239300458613,0.006251862043411871,-0.0021673280255523134,16.113297677002265
1606,C,127441048209665.0,1.774458898919915,9.373914386902213,-0.6739832128278508,33,1970-01-02 11:24:01.048209665,-0.23483276,0.49031067,-0.09152222,9.652498283389766,0.5512960139877622,-115.37616729736328,65.72708129882812,169.6742706298828,16163651.000000002,50354.00000000186,0.08867765389401668,-0.009866607636426416,-0.041290391424735125,0.004935636716143931,0.0015550795426489197,-0.002156282326453903,16.163651680995827
1606,C,127441098563669.0,4.206069058919915,9.699979886902213,-0.2372309128278508,33,1970-01-02 11:24:01.098563669,-0.31610107,0.421463,-0.3439026,8.914976814271956,0.6291422296356404,-115.41780090332031,65.7024917602539,169.64588928222656,16214005.0,50353.99999999814,0.1505717523945278,-0.013245763868425525,-0.02294163804163275,0.006023582302126461,-0.0005819001773776358,-0.001617169805874684,16.214005684989388
1606,C,127441148917673.0,3.480773038919915,3.0261208869022127,-1.0748316128278508,33,1970-01-02 11:24:01.148917673,-0.011932373,-0.33370972,-0.24795532,15.66493901048667,0.4159163370970079,-115.37323760986328,65.69845581054688,169.6954345703125,16264358.999999998,50353.99999999814,0.1935316234973062,-0.17306416081791962,-0.03303379820843238,0.008663490694828385,-0.004690724973827938,-0.0014092935584678376,16.2643596889975
1606,C,127441199271677.0,-1.3864908010800852,1.6596348869022108,-2.638140312827851,33,1970-01-02 11:24:01.199271677,0.18890381,0.012161255,0.012420654,18.17465086073177,0.18970191934052447,-115.48197937011719,65.7679214477539,169.58738708496094,16314713.000000002,50354.000000003725,0.05272774390209729,-0.3754959268829538,-0.09348149417224051,0.0062000720930152405,-0.01381109732804591,-0.003185275516268437,16.314713692991063
1606,C,127441249625681.0,-0.715561801080085,8.380276886902212,-2.597460412827851,33,1970-01-02 11:24:01.249625681,0.06599426,0.051483154,-0.10432434,11.866253698755262,0.13375098285684078,-115.72586822509766,65.60075378417969,169.36209106445312,16365067.0,50353.99999999814,-0.05292337836458465,-0.24069434127091716,-0.13181671946982873,-4.925488862043931e-06,-0.015513822381309434,-0.005672333124866168,16.365067696999176
1606,C,127441299979685.0,3.8346701289199148,11.696698886902212,-1.4654566128278512,33,1970-01-02 11:24:01.299979685,-0.29107666,-0.26911926,0.0023498535,7.234166303901092,0.39642946397962736,-115.71379089355469,65.60667419433594,169.3913116455078,16415420.999999998,50353.99999999814,0.07852979037002049,0.012008819057073506,-0.10229206195492983,0.0006446926350608343,-0.0057576153927777285,-0.005894156789930928,16.415421700992738
1606,C,127441350333689.0,4.2089377089199145,12.688733886902213,-0.7032954128278509,33,1970-01-02 11:24:01.350333689,-0.05456543,-0.39956665,-0.02607727,6.051444185124351,0.4041174556412533,-115.67557525634766,65.61416625976562,169.43626403808594,16465775.0,50354.00000000186,0.20251391453330087,0.12048284094607842,-0.05460266974993563,0.0070758373583511835,0.00333574252389948,-0.003950138660133544,16.46577570500085
1606,C,127441400687693.0,2.823058198919915,12.397916486902211,-1.499026012827851,33,1970-01-02 11:24:01.400687693,-0.00970459,-0.17681885,0.052749634,6.7435948536759325,0.18477448056894805,-115.6610107421875,65.62037658691406,169.4528045654297,16516129.0,50354.0,0.1770445609716834,0.13813739646127396,-0.05544784653373361,0.00955614373778899,0.006511281717204912,-0.0027707418484739406,16.516129708994413
1606,C,127441451041697.0,3.0102682989199145,10.328717886902213,-1.228045112827851,33,1970-01-02 11:24:01.451041697,-0.1864624,-0.23977661,-0.31666565,8.5757810123263,0.4387917310145835,-115.63137817382812,65.61129760742188,169.49557495117188,16566483.000000002,50354.00000000186,0.14686566123611883,0.07871927362927687,-0.06865946973063615,0.008155087664526137,0.0054598003828699995,-0.003124649901588153,16.566483713002526
1606,C,127441501395700.0,3.522826258919915,9.099316886902212,-0.33378851282785094,33,1970-01-02 11:24:01.501395700,-0.0793457,-0.09172058,-0.49098206,9.559343839996691,0.5057388537040337,-115.60282897949219,65.59114837646484,169.53126525878906,16616837.0,50353.99999999814,0.1644837216827273,-0.004329568499925862,-0.039322285193132155,0.007838843413747498,0.0018729096060416013,-0.0027186566437156136,16.616837715992006
1606,C,127441551749704.0,2.965102298919915,10.991773286902212,-0.7140986128278509,33,1970-01-02 11:24:01.551749704,0.31184387,-0.03465271,-0.26875305,7.8366070542803925,0.4131290493916199,-115.57101440429688,65.57978057861328,169.54910278320312,16667190.999999998,50353.99999999814,0.16334657730072735,0.012364177305873502,-0.026382654162632628,0.008253783437506131,0.00020228734590733627,-0.0016542532581600288,16.66719172000012
1606,C,127441602103708.0,1.284056698919915,10.129788886902212,-1.5256830128278511,33,1970-01-02 11:24:01.602103708,0.19390869,-0.0942688,-0.23947144,9.264536971922624,0.32223245846225623,-115.81436157226562,65.57740020751953,169.32257080078125,16717545.000000002,50354.000000003725,0.1069810760886213,0.03830837084987678,-0.05639098198913778,0.006806039329384134,0.0012757827449174192,-0.002083991837393278,16.71754572399368
1606,C,127441652457712.0,1.9575033989199149,8.233212886902212,-0.9447047128278508,33,1970-01-02 11:24:01.652457712,-0.19670105,0.09893799,-0.14503479,10.740352383550642,0.26365720025572353,-115.98526763916016,65.78292083740234,169.17526245117188,16767899.0,50353.99999999814,0.08161275858331038,-0.031143904340924906,-0.062196951768831304,0.004748226975535048,0.00018037977329587467,-0.002985688408224277,16.767899728001794
1606,C,127441702811716.0,4.262221398919915,8.998212886902213,0.021527637172149117,33,1970-01-02 11:24:01.702811716,-0.101867676,0.5890045,0.09283447,9.588098126870294,0.6049145090457593,-116.05371856689453,65.77418518066406,169.10580444335938,16818253.0,50354.0,0.1565940112352134,-0.059633593292926036,-0.023242829233783603,0.005997331843720974,-0.0022855050579274655,-0.0021511173663028354,16.818253731995355
1606,C,127441753165720.0,2.383269398919915,9.267148886902213,1.6477940871721493,33,1970-01-02 11:24:01.753165720,0.49725342,0.46150208,0.3639679,9.541917536632784,0.7698816569943935,-116.09270477294922,65.7803726196289,169.03578186035156,16868607.0,50354.0,0.16731352181721343,-0.03360218662092602,0.0420285130538164,0.00815501995966095,-0.0023473972308910534,0.00047296716153696574,16.868607735988917
1606,C,127441803519724.0,-5.846924401080084,3.1335428869022124,-2.7632930128278512,33,1970-01-02 11:24:01.803519724,0.27998352,0.2597046,-0.14736938,18.83775180613825,0.40933480782158604,-116.09740447998047,65.76803588867188,169.0152587890625,16918961.0,50354.0,-0.08720444198938658,-0.18125698321092604,-0.02808491645123361,0.0020169063028251965,-0.005409509318856539,0.00035105793166322687,16.91896173999703
1606,C,127441853873728.0,-0.970627701080085,5.232877386902212,-3.314715012827851,33,1970-01-02 11:24:01.853873728,-0.5157623,0.074539185,0.11065674,14.925646320673124,0.5327398561297829,-116.44224548339844,65.71844482421875,168.72201538085938,16969315.0,50354.0,-0.1716455092760866,-0.2828278367664261,-0.15302600806193362,-0.006517065223010818,-0.011684263512569796,-0.004559829746468012,16.96931574399059
1606,C,127441904227732.0,5.333815638919915,7.794400886902212,0.4370091871721491,33,1970-01-02 11:24:01.904227732,0.1439209,-0.3369751,0.28831482,10.809713142451832,0.4662519478870329,-116.41581726074219,65.73885345458984,168.7431182861328,17019669.0,50354.0,0.1098519827109934,-0.1654814149004261,-0.0724519995725336,-0.0015557756183293514,-0.011287082029216338,-0.005676859798212982,17.019669747998705
1606,C,127441954581736.0,1.6372365989199147,9.192853886902212,-0.429934112827851,33,1970-01-02 11:24:01.954581736,0.75302124,0.0438385,-0.0055389404,9.82947475345564,0.7543165660610553,-116.32938385009766,65.90158081054688,168.786865234375,17070023.0,50354.0,0.1755101821920934,-0.06578108655992608,0.00017812914676639338,0.007184563225765017,-0.0058224959992672866,-0.0018196392357095414,17.070023751992267
1606,C,127442004935739.0,0.703093598919915,13.263608586902212,-2.001269012827851,33,1970-01-02 11:24:02.004935739,0.45500183,0.09346008,0.23814392,7.012369046637597,0.5219904007641536,-116.32784271240234,65.91021728515625,168.763671875,17120377.0,50354.0,0.058922493391013395,0.07191715570297394,-0.06121040109463361,0.005902311473155881,0.00015448781281451597,-0.0015366095108314529,17.120377754996298
1606,C,127442055289743.0,3.002532098919915,13.481351486902213,-0.9613673128278509,33,1970-01-02 11:24:02.055289743,0.23626709,-0.13244629,0.34291077,5.534658533493128,0.43698049582770293,-116.31974029541016,65.9284896850586,168.75958251953125,17170731.0,50354.0,0.0932965381945134,0.17988865977817398,-0.07459029477103361,0.0038324185582288084,0.00633971501636886,-0.003419054119809904,17.17073175898986
1606,C,127442105643747.0,1.9673147989199147,9.513516886902213,-0.7443262128278508,33,1970-01-02 11:24:02.105643747,0.37265015,-0.25354004,0.37834167,9.479830602658629,0.5884667411473762,-116.40081787109375,66.11798858642578,168.66970825195312,17221085.0,50354.0,0.1251258353469134,0.085472601047274,-0.04294424589543361,0.005499220098652503,0.006681000463802304,-0.0029591671303596453,17.221085762997973
1606,C,127442155997751.0,0.4797811989199148,9.017804886902212,-2.438967312827851,33,1970-01-02 11:24:02.155997751,0.12017822,0.07070923,0.5467987,10.791276416374277,0.5642972781178829,-116.8014907836914,66.05634307861328,168.291748046875,17271439.0,50354.0,0.06161053593761339,-0.026906111700926025,-0.08014578109543362,0.004701461619830531,0.001474528502273003,-0.0030990376095490642,17.271439766991534
1606,C,127442206351755.0,2.600813898919915,11.159101186902213,-1.9090143128278512,33,1970-01-02 11:24:02.206351755,-0.3303833,0.23760986,0.13294983,8.06445467524858,0.428120576222562,-116.8486328125,66.056884765625,168.2582244873047,17321793.0,50354.0,0.0775601427783134,0.014524764220173963,-0.10946913338913362,0.003503900178030889,-0.0003117251855228947,-0.004773934701977949,17.321793770999648
1606,C,127442256705759.0,3.429671348919915,10.968579886902212,0.4191716871721491,33,1970-01-02 11:24:02.256705759,-0.2768097,0.20956421,-0.19108582,7.654877305527924,0.3963010960520883,-116.873779296875,66.04363250732422,168.24583435058594,17372147.0,50354.0,0.1518295270848634,0.06363942639517398,-0.03750976778613361,0.0057753437181452035,0.001967939827122615,-0.0037004877948897037,17.37214777499321
1606,C,127442307059763.0,3.609084198919915,10.086667886902212,0.07438408717214906,33,1970-01-02 11:24:02.307059763,0.16868591,0.41603088,-0.17497253,8.532834546751435,0.48182155991684655,-116.89818572998047,66.02642822265625,168.20989990234375,17422501.0,50354.0,0.17721474842796342,0.03663877320107396,0.012426253730666395,0.008284347724586442,0.0025247042312347345,-0.0006315276333744981,17.422501779001323
1606,C,127442357413767.0,3.755370198919915,2.849530886902212,-1.475466412827851,33,1970-01-02 11:24:02.357413767,-0.26057434,0.07899475,-0.38575745,15.878452633492161,0.4721736623579301,-116.89954376220703,66.0074462890625,168.2227020263672,17472855.0,50354.0,0.1854148683744134,-0.16777452347192606,-0.03527504971303361,0.009129925862233441,-0.003301604784569244,-0.0005752641364480594,17.472855782994884
1606,C,127442407767771.0,0.4301138989199149,3.398129886902213,-3.3610407128278514,33,1970-01-02 11:24:02.407767771,-0.031021118,0.53549194,-0.36079407,16.198561812230132,0.6464412490815376,-117.34988403320312,66.0884017944336,167.80613708496094,17523209.0,50354.0,0.10537793313131338,-0.33617184469792605,-0.12176873990263362,0.0073212903635096836,-0.012687857711412369,-0.003953891491153654,17.523209786988446
1606,C,127442458121775.0,-0.9017801010800852,4.1954018869022125,-4.433733612827851,33,1970-01-02 11:24:02.458121775,0.4864502,-0.66703796,-0.2066803,16.160167222564667,0.8510523976636759,-117.72691345214844,66.03652954101562,167.4532470703125,17573563.0,50354.0,-0.011875139971786608,-0.302286850530926,-0.19624903319703363,0.0023541198233774058,-0.016074474569776807,-0.008006733473330323,17.57356379099656
1606,C,127442508475779.0,0.7883901989199149,7.439450886902213,-2.374468412827851,33,1970-01-02 11:24:02.508475779,-0.50213623,-0.0262146,0.15698242,12.096887504835601,0.5267556159366782,-118.08181762695312,66.07652282714844,167.15078735351562,17623917.0,50354.0,-0.002854817566686608,-0.20053851171392603,-0.1714101023999336,-0.00037085614094614015,-0.012659634145238642,-0.009256554056924843,17.62391779499012
1606,C,127442558829782.0,4.882964198919915,12.731915886902211,-1.2916132128278508,33,1970-01-02 11:24:02.558829782,0.035568237,-0.2677765,0.24191284,6.198196066897949,0.36261711982806843,-118.0662612915039,66.093505859375,167.1658935546875,17674271.0,50354.0,0.1427876896744134,0.014385301264073948,-0.0923009370891336,0.0035230899210562383,-0.004686779379495926,-0.006639452841216246,17.67427179799415
1606,C,127442609183786.0,4.609953938919915,14.073682386902213,-1.363451612827851,33,1970-01-02 11:24:02.609183786,0.154068,-0.3935547,-0.0050811768,4.9685215410595704,0.4226677996651304,-118.01908874511719,66.10253143310547,167.20904541015625,17724625.0,50354.0,0.2390031999563934,0.18141534773957396,-0.0668465671155336,0.009612349228234824,0.004929672939964843,-0.004006856713360907,17.724625802002265
1606,C,127442659537790.0,3.0341634989199147,12.809400186902213,-0.956225012827851,33,1970-01-02 11:24:02.659537790,-0.11148071,-0.34262085,-0.3232727,6.148251353422865,0.48406841884398594,-118.48697662353516,66.21316528320312,166.7953643798828,17774979.0,50354.0,0.19245594473249342,0.183366169960674,-0.05840249840413362,0.010862846885832103,0.009184104271139144,-0.003153395722588662,17.774979805995827
1606,C,127442709891794.0,3.820494698919915,10.394345886902212,-0.09540046282785086,33,1970-01-02 11:24:02.709891794,0.2938385,-0.45742798,-0.4605255,8.226512339313516,0.7125062505826741,-118.40181732177734,66.2038345336914,166.87240600585938,17825333.0,50354.0,0.17257972944701339,0.09073151490017396,-0.02647677460058361,0.009190503168817442,0.00690095741174157,-0.0021370054564397657,17.825333809989388
1606,C,127442760245798.0,3.2807150989199148,8.581082886902212,0.4141667871721491,33,1970-01-02 11:24:02.760245798,0.5444031,-0.533844,-0.49137878,10.041828478530167,0.9070927499764831,-118.29488372802734,66.19487762451172,166.9595184326172,17875687.0,50354.0,0.1787871590802134,-0.015724829761926053,0.008025579748016397,0.008846364152449989,0.0018884433117256675,-0.0004645457328030847,17.8756878139975
1606,C,127442810599802.0,0.29385289891991473,9.043408886902212,-1.1487604128278508,33,1970-01-02 11:24:02.810599802,0.59916687,-0.19871521,-0.20683289,10.528152366246912,0.6642804506958587,-118.15009307861328,66.15229034423828,167.070068359375,17926041.0,50354.0,0.0899968984816134,-0.049737370610926056,-0.018494863713133605,0.006767176217234113,-0.0016481418187872976,-0.00026358516238975593,17.926041817991063
1606,C,127442860953806.0,1.947142598919915,10.125912886902212,-1.6935145128278508,33,1970-01-02 11:24:02.860953806,0.1269989,0.052581787,-0.101623535,9.112196054103547,0.1709412407560551,-118.54188537597656,66.20703887939453,166.70590209960938,17976395.0,50354.0,0.05642154364911339,-0.010843185700926072,-0.0715599558032336,0.0036863771175253087,-0.001525236666263501,-0.0022673101909635772,17.976395821999176
1606,C,127442911307810.0,2.6731557989199146,10.224942886902213,-0.752825412827851,33,1970-01-02 11:24:02.911307810,-0.31445313,0.44509888,-0.03590393,8.638766374009382,0.5461527955924936,-118.81599426269531,66.41471099853516,166.46173095703125,18026749.0,50354.0,0.1163252527624134,0.018904295817073955,-0.06159150030823361,0.0043492460932530105,0.00020295456939425525,-0.0033523542105184105,18.026749825992738
1606,C,127442961661814.0,0.9533835989199151,10.447217886902212,4.625745187172149,33,1970-01-02 11:24:02.961661814,-0.37677002,-0.14299011,0.41532898,9.611581932125535,0.5787054355684357,-118.84342956542969,66.43635559082031,166.45236206054688,18077103.0,50354.0,0.0913053824194134,0.02699379180207397,0.0975085011586664,0.005227516501972854,0.0011555761519872873,0.0009042823304113462,18.07710383000085
1606,C,127443012015818.0,-2.5466014010800855,-0.5192891130977877,-3.3607813128278514,33,1970-01-02 11:24:03.012015818,0.23994446,-0.009735107,0.41081238,20.708968486119527,0.47585179179473247,-118.90080261230469,66.4713134765625,166.3849639892578,18127457.0,50354.0,-0.04011244460498661,-0.24351373726192604,0.03184799546436638,0.0012888845953538232,-0.005451322666842695,0.0032568085154780963,18.127457833994413
1606,C,127443062369822.0,1.384230598919915,2.223431886902212,-1.164477012827851,33,1970-01-02 11:24:03.062369822,0.43725586,0.092559814,0.2160492,16.71703303335652,0.49642447874041645,-118.90023040771484,66.478515625,166.3617401123047,18177811.0,50354.0,-0.029265009685986613,-0.45056399738392605,-0.11393242886503363,-0.001746716166683833,-0.01747479512517862,-0.0020666397797285993,18.177811838002526
1606,C,127443112723825.0,2.663603798919915,10.508328886902213,-0.6348444128278509,33,1970-01-02 11:24:03.112723825,0.34068298,0.59521484,-0.039611816,8.347129239349215,0.6869604752711206,-119.11389923095703,66.6708755493164,166.1400604248047,18228165.0,50354.0,0.10191232663441341,-0.17292165899792605,-0.045301515533733606,0.0018290414988105417,-0.01569749837072589,-0.004009033018127763,18.228165840992006
1606,C,127443163077829.0,1.7892751989199147,12.581006886902212,-0.7418238128278508,33,1970-01-02 11:24:03.163077829,0.5771179,0.097961426,-0.1940918,6.684262416851586,0.6167115519524532,-119.11548614501953,66.577880859375,166.11227416992188,18278519.0,50354.0,0.11211013452861339,0.08785100677707398,-0.034660375917333605,0.005388443504701526,-0.0021418238109643926,-0.0020132005410635197,18.27851984500012
1606,C,127443213431833.0,1.777541198919915,11.818891186902214,-1.034411112827851,33,1970-01-02 11:24:03.213431833,0.5990906,0.13804626,0.28749084,7.442938368269407,0.6786879253325885,-119.26453399658203,66.54663848876953,165.94287109375,18328873.0,50354.0,0.0898017364484134,0.120847033804174,-0.04472026672323361,0.005083535175588604,0.00525439056771408,-0.0019985664397615607,18.32887384899368
1606,C,127443263785837.0,2.671645198919915,11.615476286902211,-0.23962651282785086,33,1970-01-02 11:24:03.263785837,0.60310364,0.18247986,0.56362915,7.2180550547149585,0.8454056532911237,-119.3067626953125,66.75463104248047,165.86778259277344,18379227.0,50354.0,0.11201716593841339,0.09653786988797397,-0.032076445301133606,0.005081194505393139,0.00547309972025721,-0.0019335108186374936,18.379227853001794
1606,C,127443314139841.0,1.7981100989199148,10.221799886902213,-1.2903010128278511,33,1970-01-02 11:24:03.314139841,0.7580414,-0.08239746,0.6097107,8.963823529820143,0.9763007954636224,-119.51081848144531,66.83072662353516,165.6409149169922,18429581.0,50354.0,0.11253502913371341,0.05632790222787396,-0.03851898531343361,0.0056535506153309375,0.0038487015445607033,-0.001777381156582959,18.429581856995355
1606,C,127443364493845.0,2.247664598919915,9.714474886902213,-1.002123512827851,33,1970-01-02 11:24:03.364493845,0.39364624,0.09384155,0.4275055,9.265289845944606,0.5886633599119194,-119.7192611694336,66.99752807617188,165.42532348632812,18479935.0,50354.0,0.1018604695675134,0.008466389980073995,-0.05771637228243361,0.005397835470800788,0.0016313258949195058,-0.002422917598191149,18.479935860988917
1606,C,127443414847849.0,1.728453598919915,9.787366886902213,-0.966982512827851,33,1970-01-02 11:24:03.414847849,0.31340027,0.26254272,0.24769592,9.323073903078814,0.47801849111275785,-119.82080078125,67.0813980102539,165.31056213378906,18530289.0,50354.0,0.1001067278670134,-0.002471329660926012,-0.049576182407933614,0.005084928129809082,0.0001509376336551888,-0.002701304649439376,18.53028986499703
1606,C,127443465201853.0,2.025984798919915,10.630719886902213,-0.5100733128278508,33,1970-01-02 11:24:03.465201853,0.4121399,0.4025116,-0.021133423,8.36523622681497,0.5764733357877595,-119.81300354003906,67.17718505859375,165.29217529296875,18580643.0,50354.0,0.0945254955424134,0.02059697070407399,-0.03718783452253361,0.00490025548877914,0.0004563492645433366,-0.0021844576542583735,18.58064386899059
1606,C,127443515555857.0,2.350569798919915,8.734280886902212,0.22527824717214906,33,1970-01-02 11:24:03.515555857,0.28334045,0.119659424,-0.2809906,10.043843191708664,0.41660041484205734,-119.79457092285156,67.16203308105469,165.2967987060547,18630997.0,50354.0,0.1101885151098134,-0.005916575517926023,-0.007170285368013604,0.005154084646191114,0.0003696083096016474,-0.0011168043844843073,18.630997872998705
1606,C,127443565909861.0,3.4931326589199148,2.5377788869022133,-0.7165858128278509,33,1970-01-02 11:24:03.565909861,-0.20176697,-0.19578552,-0.46380615,16.11162865588338,0.5423633697093433,-119.75717163085938,67.14678192138672,165.34835815429688,18681351.0,50354.0,0.14712689678103338,-0.20967255107492602,-0.012369650580513607,0.00647843012517585,-0.005427887440228236,-0.0004919569673760695,18.681351876992267
1606,C,127443616263864.0,1.105925598919915,1.202908886902211,-1.890444412827851,33,1970-01-02 11:24:03.616263864,-0.2919922,0.09063721,-0.33998108,17.85807776135252,0.4572326360348641,-119.90326690673828,67.36289978027344,165.22877502441406,18731705.0,50354.0,0.1157904897576334,-0.39928990391892605,-0.06563719999133362,0.006619471040884015,-0.015331847729380213,-0.001963978476847398,18.731705879996298
1606,C,127443666617868.0,-0.40089510108008497,7.579861886902211,-1.8904597128278509,33,1970-01-02 11:24:03.666617868,-0.0007324219,-0.0043640137,-0.19871521,12.262835565571594,0.19876447303971978,-119.86711883544922,67.25860595703125,165.26414489746094,18782059.0,50354.0,0.017750552844113403,-0.2723453802279261,-0.09519182317163362,0.0033621628295841793,-0.016909761548965296,-0.004049192316174026,18.78205988398986
1606,C,127443716971872.0,4.342467370919915,9.896069886902213,-1.2202479128278507,33,1970-01-02 11:24:03.716971872,0.26272583,0.012588501,0.23342896,8.885528509988132,0.3516708851658003,-119.86917114257812,67.26841735839844,165.24769592285156,18832413.0,50354.0,0.09923696503775742,-0.05347766573092605,-0.0783182858911336,0.002945394737711862,-0.00820324682810602,-0.00436846401587329,18.832413887997973
1606,C,127443767325876.0,4.200545378919915,11.322843186902212,-1.027544612827851,33,1970-01-02 11:24:03.767325876,0.32473755,0.050857544,0.105651855,7.454962042755408,0.34525828103994183,-119.86447143554688,67.271728515625,165.23516845703125,18882767.0,50354.0,0.21508743200271743,0.040759374459173964,-0.056592672418433604,0.007913745344288037,-0.0003202084193489023,-0.0033966531973599738,18.882767891991534
1606,C,127443817679880.0,2.619887398919915,11.285855886902212,-0.571413612827851,33,1970-01-02 11:24:03.817679880,0.4343109,0.1156311,-0.033859253,7.598785734609261,0.4507138317821387,-119.99250793457031,67.41609191894531,165.09536743164062,18933121.0,50354.0,0.1717180360476734,0.07575001658117395,-0.04025697124733361,0.009738601269104691,0.0029333569382228395,-0.002438383478573021,18.933121895999648
1606,C,127443868033884.0,3.5563955989199147,9.490399886902212,-1.035326612827851,33,1970-01-02 11:24:03.868033884,0.7597351,0.14961243,-0.2734375,9.279864441193986,0.8211877786406498,-119.95370483398438,67.40052032470703,165.09628295898438,18983475.0,50354.0,0.1555002770366134,0.02961459161707395,-0.040452898661333614,0.008238375468523091,0.0026527647406072875,-0.0020320323946905147,18.98347589999321
1606,C,127443918387888.0,4.148497648919915,8.921780886902212,-0.5818812128278509,33,1970-01-02 11:24:03.918387888,1.0295715,0.24189758,-0.44473267,9.731408320596879,1.1473094877091514,-119.90076446533203,67.3752212524414,165.0978546142578,19033829.0,50354.0,0.1939860973008634,-0.029905724657926045,-0.04071644142653361,0.008799018446694654,-7.329856569533196e-06,-0.002043600475392233,19.033829904001323
1606,C,127443968741892.0,3.607192098919915,7.881711886902213,-0.498614012827851,33,1970-01-02 11:24:03.968741892,1.5895233,0.33172607,-0.28044128,10.777149716720661,1.6478087930001384,-119.8390121459961,67.35478210449219,165.07861328125,19084183.0,50354.0,0.19526500078136338,-0.07040766243392603,-0.027203628296333607,0.009800174896416224,-0.0025255901468115597,-0.0017100235954126282,19.084183907994884
1606,C,127444019095896.0,1.9005880989199149,5.714734886902212,0.04943598717214914,33,1970-01-02 11:24:04.019095896,2.072464,0.5113983,0.08049011,13.098174979759708,2.1361446370381154,-119.79338073730469,67.3455810546875,165.0158233642578,19134537.0,50354.0,0.13866938204101342,-0.15115145957592602,-0.011308955151933607,0.008407465956318982,-0.005578194014842046,-0.0009696313134770238,19.134537911988446
1606,C,127444069449900.0,1.509215398919915,5.8309913869022125,2.054532387172149,33,1970-01-02 11:24:04.069449900,2.083603,0.58303833,0.16877747,13.108320578406222,2.1702121993569636,-119.75985717773438,67.33842468261719,164.9392547607422,19184891.0,50354.0,0.08584862266511341,-0.20278244960442604,0.0529716117608664,0.0056526898044861554,-0.008910994031433724,0.001048940705443101,19.18489191599656
1606,C,127444119803904.0,2.664458298919915,8.861142886902213,2.006100987172149,33,1970-01-02 11:24:04.119803904,1.8910217,1.0983887,0.09829712,9.923418191956403,2.189082714279859,-119.7852554321289,67.3154067993164,164.80926513671875,19235245.0,50354.0,0.10508058269051339,-0.12356533538842603,0.1022345664658664,0.004807024603238616,-0.008216458182765037,0.003907625949214452,19.23524591999012
1606,C,127444170157907.0,2.529570598919915,10.220258386902213,1.3282140371721491,33,1970-01-02 11:24:04.170157907,2.4243164,1.054779,0.078445435,8.557178473967115,2.6449995146355505,-119.77813720703125,67.29261016845703,164.68557739257812,19285599.0,50354.0,0.13077006556091342,-0.013056760129426007,0.0839480493679164,0.0059380117710261734,-0.003439734498852961,0.0046875197188471504,19.28559992299415
1606,C,127444220511911.0,2.132826898919915,7.888989886902213,1.776364687172149,33,1970-01-02 11:24:04.220511911,3.144638,0.78034973,0.15579224,10.947925356031744,3.243757863065505,-119.71105194091797,67.2800064086914,164.58782958984375,19335953.0,50354.0,0.11738518180311341,-0.03753265621042602,0.0781639785428164,0.0062478046628841035,-0.0012736897351884545,0.00408149452670852,19.335953927002265
1606,C,127444270865915.0,1.591155098919915,9.264539386902213,1.9918797871721492,33,1970-01-02 11:24:04.270865915,3.392105,1.1890717,0.22673035,9.777937589015872,3.601621092005239,-119.67814636230469,67.26040649414062,164.43963623046875,19386307.0,50354.0,0.0937586947596134,-0.06159479347342603,0.0948730911305664,0.0053159693802197735,-0.002495731800690343,0.0043565543031667585,19.386307930995827
1606,C,127444321219919.0,0.9571218989199148,10.041013386902213,1.054105147172149,33,1970-01-02 11:24:04.321219919,3.6907196,0.969635,0.425766,9.181282701086856,3.83964580212878,-119.61927032470703,67.25495910644531,164.3034210205078,19436661.0,50354.0,0.0641579699746134,-0.007413297813926016,0.0766887626919864,0.003975867868013628,-0.0017374167143416627,0.004319412793690412,19.436661934989388
1606,C,127444371573923.0,0.7060079989199148,9.164227886902212,0.9636205271721491,33,1970-01-02 11:24:04.371573923,3.7698822,0.9113159,0.43014526,10.08634047211378,3.902247226428653,-119.55058288574219,67.25113677978516,164.1734619140625,19487015.0,50354.0,0.04187262143791339,-0.00993884044942602,0.0508002793029664,0.0026695321999931874,-0.00043687478505641426,0.003209791610306927,19.4870159389975
1606,C,127444421927927.0,-0.3463754010800848,9.355725886902212,0.3307775071721491,33,1970-01-02 11:24:04.421927927,3.6885376,0.967453,0.33647156,10.351740199221084,3.828118081317711,-119.48629760742188,67.24197387695312,164.04319763183594,19537369.0,50354.0,0.009054469915813402,-0.02719232383692605,0.0325890593106864,0.0012821913790127795,-0.000934851323237486,0.0020994933782759366,19.537369942991063
1606,C,127444472281931.0,-0.14949140108008496,9.931058886902212,-0.755556712827851,33,1970-01-02 11:24:04.472281931,3.343628,1.0299835,0.35777283,9.859359424738248,3.516918482214573,-119.1093978881836,67.0884780883789,164.21563720703125,19587723.0,50354.0,-0.012484438477986595,-0.007885819749926052,-0.010694666060793607,-8.63563184898345e-05,-0.0008831624210861754,0.0005512351388525508,19.587723946999176
1606,C,127444522635935.0,0.7821035989199148,9.311612886902212,-0.6801020128278509,33,1970-01-02 11:24:04.522635935,3.0948944,0.98779297,0.39692688,10.024311565750239,3.2728668238715906,-118.90144348144531,67.09007263183594,164.24411010742188,19638077.0,50354.0,0.015927277305013397,-0.008996452750926037,-0.036145579735833606,8.668035314805379e-05,-0.0004250449747539531,-0.0011792968684216833,19.638077950992738
1606,C,127444572989939.0,-0.0016031010800849899,8.654919886902212,-0.5661188128278508,33,1970-01-02 11:24:04.572989939,2.953949,1.1051788,0.28598022,10.908383514583962,3.1668627316007383,-118.56463623046875,67.04032897949219,164.396728515625,19688431.0,50354.0,0.019650661034113396,-0.04112580435392606,-0.031376101727533606,0.0008957457535641953,-0.0012619280671288613,-0.0016999933742031963,19.68843195500085
1606,C,127444623343943.0,-0.7277231010800849,10.308026886902212,-1.029101012827851,33,1970-01-02 11:24:04.623343943,2.392456,1.1940613,0.14172363,9.865214204702891,2.6776321045644167,-118.57669830322266,67.01800537109375,164.2537078857422,19738785.0,50354.0,-0.018362245791786597,-0.01603908907592606,-0.040162849550533605,3.243843055606181e-05,-0.0014392405218833868,-0.0018011361763278983,19.738785958994413
1606,C,127444673697947.0,1.688185798919915,10.769864886902212,-0.8270289128278508,33,1970-01-02 11:24:04.673697947,2.0144043,0.71832275,0.23460388,8.39063742538505,2.1514765249793233,-118.61297607421875,67.03923797607422,164.11305236816406,19789139.0,50354.0,0.0241815693435134,0.03720888118907396,-0.04673178313823361,0.00014651310906182576,0.0005329918560327247,-0.002187746167205092,19.789139963002526
1606,C,127444724051950.0,4.156310148919915,8.415127886902212,1.3468602871721491,33,1970-01-02 11:24:04.724051950,2.2454987,0.37997437,0.10340881,10.160558426559994,2.2797671625725737,-118.5459213256836,67.03468322753906,164.06394958496094,19839493.0,50354.0,0.1471468744787634,-0.010448636933926045,0.013087794511866398,0.004313536230113464,0.000673742669611859,-0.0008470547016460474,19.839493965992006
1606,C,127444774405954.0,2.109953898919915,7.760342886902212,0.6881841271721492,33,1970-01-02 11:24:04.774405954,2.3536224,0.7198181,0.0786438,11.032085088645811,2.462490882449681,-118.50724792480469,67.02095031738281,163.97811889648438,19889847.0,50354.0,0.1577657299324634,-0.08621937232792606,0.05123631321994641,0.007676784641261458,-0.0024338104691856506,0.0016194880603638512,19.88984797000012
1606,C,127444824759958.0,0.029631598919914737,8.708432886902212,-1.7841060128278512,33,1970-01-02 11:24:04.824759958,2.108673,0.8651123,0.21202087,11.063093866378338,2.2890770982769117,-118.55793762207031,66.90691375732422,163.81759643554688,19940201.0,50354.0,0.053868344079113395,-0.07883483234292606,-0.02759202531515361,0.0053283110813894695,-0.004155569710998045,0.0005952922365789683,19.94020197399368
1606,C,127444875113962.0,0.30284029891991526,8.633694886902212,-1.7342402128278511,33,1970-01-02 11:24:04.875113962,1.6576843,0.629364,0.22769165,11.014397101907536,1.787696778103662,-118.63461303710938,66.83687591552734,163.6578369140625,19990555.0,50354.0,0.0083706449719134,-0.05684644903892604,-0.08858140292333362,0.0015669910273377018,-0.00341604762135089,-0.002924898402760393,19.990555978001794
1606,C,127444925467966.0,3.575423298919915,9.382535886902213,-1.190600012827851,33,1970-01-02 11:24:04.925467966,1.5885925,0.69784546,0.5059662,9.414670514015839,1.8073782704905197,-118.65512084960938,66.84236907958984,163.54916381835938,20040909.0,50354.0,0.09764304260281341,-0.03987455780792602,-0.07363870236133362,0.0026691066120688974,-0.0024351447893831944,-0.0040842155907520675,20.040909981995355
1606,C,127444975821970.0,2.877074298919915,9.795621886902213,-1.515230812827851,33,1970-01-02 11:24:04.975821970,1.6499786,0.5324402,0.33842468,9.176627047511973,1.7664804587277785,-118.64622497558594,66.8444595336914,163.46913146972656,20091263.0,50354.0,0.16245453202081342,-0.010620721728926015,-0.06812470269753362,0.006548476636299053,-0.001271319652899324,-0.003569177249167101,20.091263985988917
1606,C,127445026175974.0,1.034560298919915,9.185925886902213,-2.3069636128278512,33,1970-01-02 11:24:05.026175974,1.1537323,0.5137024,0.26956177,10.412840105471755,1.2913759807564111,-119.03832244873047,66.7929458618164,163.04425048828125,20141617.0,50354.0,0.0984832242698134,-0.015570771698926008,-0.09623138905473362,0.0065696298901291115,-0.0006594232300330304,-0.004137993322046832,20.14161798999703
1606,C,127445076529978.0,1.969420598919915,9.293286886902212,-2.981051012827851,33,1970-01-02 11:24:05.076529978,0.6026764,0.37242126,0.24583435,10.278535311428376,0.749900637189268,-119.06006622314453,66.79463958740234,162.98777770996094,20191971.0,50354.0,0.0756312270649134,-0.028218059993926018,-0.13313634423013362,0.004383679541254417,-0.0011024714155309354,-0.0057747914209131035,20.19197199399059
1606,C,127445126883982.0,2.638747298919915,10.583142886902213,-3.3700587128278507,33,1970-01-02 11:24:05.126883982,0.22680664,0.29281616,0.111816406,9.149135596756045,0.3868920574992359,-119.08489990234375,66.79241180419922,162.94842529296875,20242325.0,50354.0,0.11601984316391341,0.00695967241507397,-0.1599018895628336,0.004825198995151173,-0.000535222424072758,-0.007377823612205537,20.242325997998705
1606,C,127445177237986.0,2.0332785989199147,9.296368886902211,-3.8534724128278506,33,1970-01-02 11:24:05.177237986,-0.15151978,0.049545288,0.12097168,10.61070298483483,0.20011778195920957,-119.1043930053711,66.79649353027344,162.9354705810547,20292680.0,50355.0,0.1176299320428623,0.00703740768496085,-0.1818704549161964,0.0058827172152685955,0.00035241148421862663,-0.008604973203120779,20.292680001992267
1606,C,127445227591989.0,3.136366898919915,6.9809398869022115,0.6578191371721491,33,1970-01-02 11:24:05.227591989,-0.16004944,-0.30563354,0.3894043,11.642541098732224,0.5202532007356948,-119.10334014892578,66.82093811035156,162.94532775878906,20343034.0,50354.0,0.1301561646991134,-0.08365539700192609,-0.0804569625211836,0.006238510557672723,-0.001929011117033234,-0.006604617388820917,20.343034004996298
1606,C,127445277945993.0,-0.3745279010800848,6.842526886902212,-0.2887140128278508,33,1970-01-02 11:24:05.277945993,-0.76789856,-0.28170776,-0.09451294,12.685114508839376,0.8233833592693836,-118.70831298828125,66.85951232910156,163.34954833984375,20393388.0,50354.0,0.06953482044861341,-0.14543577703592608,0.0092929597156164,0.005027619933064318,-0.005767828488751004,-0.0017916960986357655,20.39338800898986
1606,C,127445328299997.0,-0.035309701080085354,10.391278886902212,-0.6055475128278508,33,1970-01-02 11:24:05.328299997,-1.0964508,-0.14100647,-0.19529724,9.382149039603473,1.1225988568291518,-118.38383483886719,66.70805358886719,163.70245361328125,20443742.0,50354.0,-0.010318481309586605,-0.05957367203292607,-0.0225148224314336,0.001490889770503278,-0.005161522899206491,-0.0003328868375961297,20.443742012997973
1606,C,127445378654001.0,2.3982534989199147,8.872464886902213,-1.302736912827851,33,1970-01-02 11:24:05.378654001,-0.8818512,-0.69721985,-0.39916992,10.098503955905946,1.1929432858305833,-118.65190887451172,66.89510345458984,163.51243591308594,20494096.0,50354.0,0.05949183599821339,-0.008465923006926033,-0.04804487698473361,0.0012380375509955567,-0.0017130328843183566,-0.001776481552200842,20.494096016991534
1606,C,127445429008005.0,1.6024923989199147,8.996152886902212,-0.591250112827851,33,1970-01-02 11:24:05.429008005,-0.7125244,-0.49795532,-0.46502686,10.047113943504932,0.9858501416711984,-118.55897521972656,67.01683044433594,163.64366149902344,20544450.0,50354.0,0.10072677946991339,-0.04359101030892602,-0.04768491134493361,0.004033824081641028,-0.0013106374100932071,-0.0024101888807760317,20.544450020999648
1606,C,127445479362009.0,1.492613898919915,11.309430886902213,-0.7601191128278509,33,1970-01-02 11:24:05.479362009,-0.5437317,-0.41174316,-0.4781952,7.9480971628046735,0.8329749340134526,-118.49895477294922,66.9742202758789,163.7354736328125,20594804.0,50354.0,0.0779254912607134,0.017764482673073984,-0.03402342299433361,0.004497928220184991,-0.0006502344862878469,-0.0020571707336597307,20.59480402499321
1606,C,127445529716013.0,1.862486898919915,9.218503886902212,-0.622729012827851,33,1970-01-02 11:24:05.529716013,-0.56388855,-0.35824585,-0.50320435,9.77003622643021,0.8363761137922625,-118.4693374633789,67.10857391357422,163.79954528808594,20645158.0,50354.0,0.08447137278721341,0.023362613800073977,-0.03481596725963361,0.004088665846134654,0.0010354569079044462,-0.0017331693284241328,20.645158029001323
1606,C,127445580070017.0,0.5457601989199148,7.547391886902211,-0.41787971282785097,33,1970-01-02 11:24:05.580070017,-0.40872192,-0.275589,-0.24949646,11.716887705896957,0.5524956003101001,-118.19920349121094,67.1845474243164,164.07431030273438,20695512.0,50354.0,0.0606324371823134,-0.07135424210292607,-0.02619940588583361,0.003653278623602777,-0.0012082852257809071,-0.0015361840496834283,20.695512032994884
1606,C,127445630424021.0,0.8524007989199149,10.443860886902213,-0.6008631128278509,33,1970-01-02 11:24:05.630424021,-0.64338684,-0.00340271,-0.19264221,8.950419388388102,0.671616873964773,-118.0304183959961,67.12594604492188,164.26132202148438,20745866.0,50354.0,0.035201499442613395,-0.04050342891392605,-0.025648888121533608,0.0024128110224057816,-0.002816240583191286,-0.0013053844982234845,20.745866036988446
1606,C,127445680778025.0,1.040740098919915,10.158704386902212,-1.300966912827851,33,1970-01-02 11:24:05.680778025,-0.5413208,-0.4729309,-0.26460266,9.269847012944071,0.7659676314091383,-118.09520721435547,67.07221984863281,164.23712158203125,20796220.0,50354.0,0.047663608384913396,0.025241585898573966,-0.04788237455593361,0.002086294819773642,-0.00038424742159751937,-0.0018512966004305923,20.79622004099656
1606,C,127445731132029.0,0.345229198919915,7.980252886902212,-0.8337885128278509,33,1970-01-02 11:24:05.731132029,-0.32061768,-0.79878235,-0.41281128,11.431382103765763,0.954600488317151,-117.84796905517578,67.09143829345703,164.4971160888672,20846574.0,50354.0,0.0348945490117134,-0.036784672717426053,-0.05374673735173361,0.002078566728774873,-0.00029062029683823905,-0.0025587161504993378,20.84657404499012
1606,C,127445781486032.0,-0.433747401080085,4.179196886902213,0.3404668471721491,33,1970-01-02 11:24:05.781486032,-0.08529663,-1.0638428,-0.6060333,15.166989630574664,1.227319591186455,-117.25,67.22956085205078,165.07595825195312,20896928.0,50354.0,-0.002228622775786601,-0.18733073304492603,-0.012420359576213607,0.000822430024841929,-0.005642553570878739,-0.001665888999354927,20.89692804799415
1606,C,127445831840036.0,-3.6271984010800846,2.604062886902213,2.795361887172149,33,1970-01-02 11:24:05.831840036,-0.22686768,-0.9503937,-0.019882202,17.963109057548657,0.9772985373900042,-117.1595230102539,67.25039672851562,165.18637084960938,20947282.0,50354.0,-0.10224243246098659,-0.322687068674926,0.0789507600445864,-0.0026302677576962386,-0.012840718193900714,0.0016750358925922218,20.947282052002265
1606,C,127445882194040.0,3.359572498919915,8.872052886902212,2.299481687172149,33,1970-01-02 11:24:05.882194040,0.32885742,0.479599,0.65164185,9.857921638605903,0.8733839385754004,-117.22950744628906,67.2684326171875,165.09268188476562,20997636.0,50354.0,-0.006738017338686587,-0.20453503316292604,0.12827287667126638,-0.002743800784606372,-0.0132738708579716,0.005217269501595026,20.997636055995827
1606,C,127445932548044.0,3.549208698919915,12.369687886902213,2.2855809871721493,33,1970-01-02 11:24:05.932548044,0.54818726,0.027328491,0.55908203,6.424418305060203,0.7834722935213252,-117.23554992675781,67.29264831542969,165.056396484375,21047990.0,50354.0,0.17394238421801342,0.04133410746207398,0.11543812295196641,0.004209704344920811,-0.004108909706370353,0.006135911837514132,21.047990059989388
1606,C,127445982902048.0,-0.8036814010800848,8.430752886902212,0.12157948717214906,33,1970-01-02 11:24:05.982902048,0.40963745,0.23745728,0.29312134,11.392565848437755,0.5568742409475379,-116.67230224609375,67.2222671508789,165.55027770996094,21098344.0,50354.0,0.06912414077771341,0.030223497362073973,0.0606050792625664,0.006119685899817415,0.0018016058166575731,0.004432239702155293,21.0983440639975
1606,C,127446033256052.0,1.308196098919915,8.732312886902212,-0.825152012827851,33,1970-01-02 11:24:06.033256052,-0.1290741,0.5331726,0.77775574,10.414817524992708,0.9517547666203294,-116.79337310791016,67.32980346679688,165.4285888671875,21148698.0,50354.0,0.012702166547513407,-0.061354693012926044,-0.017713845478433608,0.0020601409395272358,-0.0007837901129015026,0.0010798725929831113,21.148698067991063
1606,C,127446083610056.0,5.109206258919915,11.916867886902212,0.7062505341721491,33,1970-01-02 11:24:06.083610056,0.035232544,0.2472229,0.84217834,6.6803024316064255,0.8784217954981978,-116.86356353759766,67.36178588867188,165.35061645507812,21199052.0,50354.0,0.1615709391633334,0.02641522434207396,-0.0029935825281146066,0.004387673982481991,-0.000879671002726043,-0.0005213509149208644,21.199052071999176
1606,C,127446133964060.0,3.8513021989199148,12.021787286902212,-0.13545481282785088,33,1970-01-02 11:24:06.133964060,0.30464172,0.01449585,0.61195374,6.617698392613036,0.6837427053590909,-116.8830795288086,67.3887710571289,165.31300354003906,21249406.0,50354.0,0.2255987214430334,0.10923432131087395,0.014370923876285397,0.009747770545086498,0.0034152486109042695,0.000286447323122896,21.249406075992738
1606,C,127446184318064.0,0.7626791989199151,11.807019886902212,-0.916048612827851,33,1970-01-02 11:24:06.184318064,0.04145813,-0.32939148,0.5898285,7.839111638950163,0.6768420665501941,-116.81452178955078,67.2245864868164,165.37484741210938,21299760.0,50354.0,0.11616620965341339,0.10646867821487396,-0.026473701747733606,0.008604615670215242,0.005430754419059755,-0.00030471163846945156,21.29976008000085
1606,C,127446234672068.0,3.058287698919915,9.294186886902212,-0.5446802128278508,33,1970-01-02 11:24:06.234672068,-0.275589,-0.30825806,0.7804718,9.447276069251043,0.8832375439660632,-116.83748626708984,67.26634979248047,165.3648681640625,21350114.0,50354.0,0.0962004835869134,0.03779588294407396,-0.03677676964353361,0.005346756235711707,0.003632148856298832,-0.0015924571182179348,21.350114083994413
1606,C,127446285026072.0,6.931319298919915,6.517056886902212,0.004178387172149134,33,1970-01-02 11:24:06.285026072,-0.021224976,-0.11149597,0.6960907,12.331119415927462,0.7052830024599568,-116.86421966552734,67.29991912841797,165.33705139160156,21400468.0,50354.0,0.25150833538461337,-0.09538951550692605,-0.013608214464533603,0.00875426493524613,-0.001450034887034927,-0.0012685427448888083,21.400468088002526
1606,C,127446335380075.0,4.802413048919915,6.080365886902213,0.5920842771721491,33,1970-01-02 11:24:06.335380075,0.88414,0.16619873,0.43367004,12.484760870222589,0.9986967813341617,-116.86116790771484,67.31549835205078,165.2924346923828,21450822.0,50354.0,0.2954201793215634,-0.17630388682392603,0.015012105100196396,0.013770019214757413,-0.006840424790483864,3.534575453408214e-05,21.450822090992006
1606,C,127446385734079.0,3.232314198919915,7.2839028869022115,0.9054692871721491,33,1970-01-02 11:24:06.385734079,1.2297974,0.120773315,0.6591034,11.331607883807992,1.4005017424317647,-116.84823608398438,67.3421859741211,165.23985290527344,21501176.0,50354.0,0.2022903279188634,-0.15699700508192607,0.0377039060894964,0.012530857440792225,-0.008391516555513638,0.0013272310137228955,21.50117609500012
1606,C,127446436088083.0,5.542860998919915,5.794690886902213,1.8452733871721492,33,1970-01-02 11:24:06.436088083,1.2347565,-0.4680481,0.8049774,12.860468653193893,1.5465061437694387,-116.7799301147461,67.38866424560547,165.24693298339844,21551530.0,50354.0,0.2209325859560134,-0.16418944455692605,0.06925544831196641,0.010655483302627772,-0.00808651124255738,0.0026929156657656294,21.55153009899368
1606,C,127446486442087.0,3.027312298919915,6.921262386902212,1.665356987172149,33,1970-01-02 11:24:06.486442087,0.5187683,-0.51667786,-0.29544067,11.747913600195275,0.7895326146456006,-116.68265533447266,67.3871078491211,165.32423400878906,21601884.0,50354.0,0.2157712531197134,-0.17331964442542602,0.0883871409348664,0.010994892556409574,-0.00849746633330868,0.0039689674694675095,21.601884103001794
1606,C,127446536796091.0,0.6972341989199147,8.903744886902212,1.535306317172149,33,1970-01-02 11:24:06.536796091,-0.30541992,-0.1010437,-1.0295258,10.359172683402143,1.0786169522625428,-116.63170623779297,67.34335327148438,165.39596557617188,21652238.0,50354.0,0.09377290717611339,-0.09504299186742607,0.08058310001347639,0.007793393323768031,-0.006756566093945137,0.004254163756356426,21.652238106995355
1606,C,127446587150095.0,4.596938198919915,8.585721886902212,1.5452550471721491,33,1970-01-02 11:24:06.587150095,-0.5035553,0.17366028,-0.49443054,10.003760683639207,0.7267650183466868,-116.64894104003906,67.31737518310547,165.40460205078125,21702592.0,50354.0,0.13329137846041342,-0.05313689503592607,0.0775592934700964,0.005716797519470836,-0.0037307250125656975,0.003981551040735912,21.702592110988917
1606,C,127446637504099.0,1.015898798919915,7.378918886902213,0.5455602271721491,33,1970-01-02 11:24:06.637504099,-0.92718506,0.2135315,-0.88371277,11.674276469001661,1.2985438370885007,-116.25138092041016,67.45011901855469,165.8183135986328,21752946.0,50354.0,0.1413143970946134,-0.09152743923792606,0.05264045616216641,0.006913749611148911,-0.0036422139440127747,0.0032780390964914806,21.75294611499703
1606,C,127446687858103.0,-0.606263101080085,10.225507386902212,0.3535588871721491,33,1970-01-02 11:24:06.687858103,-1.4849243,0.20770264,-0.8836975,9.716626231720923,1.7404200168062047,-116.30098724365234,67.40592193603516,165.8450164794922,21803300.0,50354.0,0.010313397964513403,-0.05024255970442604,0.0226371219418464,0.0038175329962036363,-0.003569343263371599,0.0018952635839247307,21.80330011899059
1606,C,127446738212107.0,4.195128498919915,12.026090286902212,2.971875487172149,33,1970-01-02 11:24:06.738212107,-1.4758911,-0.10708618,-0.36483765,6.895446965757667,1.5240828389112333,-116.34381103515625,67.39193725585938,165.87855529785156,21853654.0,50354.0,0.0903568641214134,0.06675927463337396,0.08372446124286641,0.002534575188537379,0.0004158413317661218,0.0026778655798415144,21.853654122998705
1606,C,127446788536458.0,5.908934598919915,12.605496886902213,1.545941687172149,33,1970-01-02 11:24:06.788536458,-0.60157776,0.16557312,-0.08444214,6.194434442581734,0.6296353979891312,-116.3871841430664,67.38446044921875,165.86412048339844,21903978.0,50324.0,0.2542384356678458,0.1266047964672669,0.11367731574085123,0.00867070693329734,0.004865426757034325,0.004967023512464303,21.903978474001633
1606,C,127446838890461.0,2.888640498919915,13.015622886902213,-0.6016260128278509,33,1970-01-02 11:24:06.838890461,-0.0803833,0.11997986,-0.35153198,5.8982566715427875,0.3800412802410154,-116.74225616455078,67.44794464111328,165.54095458984375,21954332.0,50354.0,0.22149654823831338,0.151593732545074,0.023775035732966396,0.011977579689805371,0.007004204364943706,0.0034606378530563065,21.954332476991112
1606,C,127446889244465.0,0.042464298919914434,10.717084486902213,-1.4841180128278508,33,1970-01-02 11:24:06.889244465,-0.32577515,-0.15220642,-0.7492981,9.236444793188559,0.8311100320116157,-116.72578430175781,67.18476104736328,165.5802764892578,22004686.0,50354.0,0.07379642549521338,0.10404917355027399,-0.0525127773339336,0.007434591199689003,0.0064363214467625775,-0.0007235301202875513,22.004686480999226
1606,C,127446939598469.0,0.5969685989199149,4.103253886902213,-0.632692912827851,33,1970-01-02 11:24:06.939598469,-0.342865,-0.5414429,-0.6464081,15.004916020363506,0.9102528516467389,-116.53852844238281,67.35050201416016,165.78379821777344,22055040.0,50354.0,0.016099002068913387,-0.12033754076272603,-0.053294948675233614,0.00226329717978202,-0.00041009222130790503,-0.002663921117732803,22.055040484992787
1606,C,127446989952473.0,3.146971798919915,2.1659068869022136,2.897855187172149,33,1970-01-02 11:24:06.989952473,0.49215698,-0.5031433,-0.17456055,16.57452709061195,0.7251503698640117,-116.45062255859375,67.35389709472656,165.85238647460938,22105394.0,50354.0,0.0942611873964134,-0.335630539197926,0.057029990581166395,0.0027785384901685326,-0.011479908349169336,9.403715006566964e-05,22.1053944890009
1606,C,127447040306477.0,2.448119198919915,5.358624886902213,2.031293287172149,33,1970-01-02 11:24:07.040306477,1.1145325,-0.0071105957,-0.011123657,13.39814652178587,1.114610689825157,-116.3935317993164,67.35354614257812,165.8538360595703,22155748.0,50354.0,0.1408676060526134,-0.30402406353092604,0.12410117113856642,0.005919837632666148,-0.01610458393290431,0.004560339258617713,22.155748492994462
1606,C,127447090660481.0,1.494856898919915,7.920712886902212,0.4501164871721491,33,1970-01-02 11:24:07.090660481,1.1410065,0.32304382,0.29370117,11.024109962334736,1.2216847056183568,-116.04717254638672,67.56490325927734,166.11302185058594,22206102.0,50354.0,0.0992723092153134,-0.15913531286892604,0.0624744538886664,0.006046002646700592,-0.011660963619619076,0.004697414511310641,22.206102496988024
1606,C,127447141014485.0,2.036345598919915,10.486157886902213,0.7010320271721491,33,1970-01-02 11:24:07.141014485,0.94844055,0.3440857,0.70072937,8.403377007788736,1.228395740716073,-116.07450866699219,67.58881378173828,166.0321502685547,22256456.0,50354.0,0.0889050852881134,-0.03003941452792604,0.028982466145646396,0.0047377422614127765,-0.004762852111670546,0.0023026108757038936,22.256456500996137
1606,C,127447191368489.0,2.0591725989199148,11.201413886902213,-0.3228632128278509,33,1970-01-02 11:24:07.191368489,0.45129395,0.54159546,0.42149353,7.788360722787834,0.8213699942358955,-116.11394500732422,67.67618560791016,165.96202087402344,22306810.0,50354.0,0.1031128616670134,0.05255879454907398,0.009521156238746395,0.004834435850489228,0.0005669704307924417,0.0009694057007718573,22.3068105049897
1606,C,127447241722493.0,3.640746198919915,11.464688886902213,0.5794499971721491,33,1970-01-02 11:24:07.241722493,0.2787323,0.34347534,0.55400085,7.132551921663947,0.7089315524450355,-116.16730499267578,67.69351196289062,165.88926696777344,22357164.0,50354.0,0.1435068555732134,0.07719526953607399,0.006460085469436395,0.006209144620957191,0.0032668180714717707,0.00040235972248691814,22.357164508997812
1606,C,127447292076497.0,5.452361198919915,12.190244286902212,1.6637547871721492,33,1970-01-02 11:24:07.292076497,0.5501709,0.011276245,0.9498596,6.518687521185654,1.0977469802373725,-116.19216918945312,67.73587799072266,165.8326873779297,22407518.0,50354.0,0.2289371649554134,0.10209105251687398,0.056477166855436405,0.009377023104849237,0.004513891730327071,0.0015845712017833224,22.407518512991373
1606,C,127447342430501.0,4.017882398919915,11.302625286902213,0.4316381071721491,33,1970-01-02 11:24:07.342430501,0.5340271,0.0622406,0.5488281,7.2706302015917945,0.7682910380659012,-116.2018814086914,67.75910186767578,165.79330444335938,22457872.0,50354.0,0.2384323230628134,0.09801077725967398,0.052755706900906404,0.011766961599834896,0.005037963768284148,0.002750156062563443,22.457872516999487
1606,C,127447392784504.0,2.329878898919915,9.179455886902213,-0.6961237128278509,33,1970-01-02 11:24:07.392784504,0.3857727,-0.10661316,0.47094727,9.70883313562436,0.6180439086917113,-116.3568115234375,67.96714782714844,165.6298065185547,22508226.0,50354.0,0.1598175861957134,0.022208157712874,-0.006658954093593604,0.01002673796540193,0.0030267521258038406,0.0011605779454297144,22.508226519988966
1606,C,127447443138508.0,3.692549768919915,7.442776886902212,0.10134638717214906,33,1970-01-02 11:24:07.443138508,0.24189758,-0.35820007,0.87446594,11.15478034303171,0.9754549756795261,-116.35304260253906,68.01429748535156,165.62086486816406,22558580.0,50354.0,0.1516266865702034,-0.07497124545392603,-0.014974708728033607,0.007841232455427487,-0.0013284162600564668,-0.0005446707288601084,22.55858052399708
1606,C,127447493492512.0,3.827376428919915,5.708493886902213,0.4579137371721491,33,1970-01-02 11:24:07.493492512,0.19180298,-0.10635376,0.627121,12.863623504343584,0.6643645490572311,-116.36614227294922,68.04470825195312,165.59637451171875,22608934.0,50354.0,0.1893291818830134,-0.16235965572792604,0.014080492150616396,0.00858424590004664,-0.00597528009905549,-2.2513690769633123e-05,22.60893452799064
1606,C,127447543846516.0,2.581267398919915,7.117841386902212,0.6626103971721491,33,1970-01-02 11:24:07.543846516,-0.122039795,-0.15107727,0.03643799,11.579407320540657,0.19760005108687353,-116.35746002197266,68.0497055053711,165.6123046875,22659288.0,50354.0,0.16135042565352342,-0.17054055681142605,0.0282114361303864,0.008829060478947388,-0.008381428651103268,0.0010647838783308075,22.659288531998754
1606,C,127447594200520.0,5.622130498919915,6.7108288869022115,2.368604087172149,33,1970-01-02 11:24:07.594200520,0.041793823,-1.193924,-0.17897034,12.018403880051329,1.2079865992703194,-116.2126693725586,68.06812286376953,165.76617431640625,22709642.0,50354.0,0.2065369488739134,-0.14530476851642607,0.0763168870723364,0.009262300428477277,-0.007952037755779334,0.002631709593274952,22.709642535992316
1606,C,127447644554524.0,5.982634598919915,4.432538886902213,4.13917298717215,33,1970-01-02 11:24:07.644554524,-0.23397827,-0.5535126,-0.7818146,14.609807825937342,0.9860811822381121,-116.11991882324219,68.04524230957031,165.87876892089844,22759996.0,50354.0,0.2921731708683134,-0.21291262955892606,0.16384630340076642,0.012556024684750044,-0.00901883943134314,0.0060465886465413095,22.75999654000043
1606,C,127447694908528.0,3.2475118989199148,9.140195886902212,2.672910087172149,33,1970-01-02 11:24:07.694908528,-0.4434967,0.69525146,-1.1129761,9.673784450134326,1.3852002435439548,-116.15868377685547,67.97998046875,165.86090087890625,22810350.0,50354.0,0.23238739837611339,-0.15174845659992603,0.17150781556276642,0.013206861451866935,-0.009181072166221419,0.008443210653144868,22.81035054399399
1606,C,127447745262532.0,2.838027098919915,11.592481286902213,1.2275975871721492,33,1970-01-02 11:24:07.745262532,-0.26271057,0.42285156,-0.8903656,7.147154847707497,1.0200839117678107,-116.1701889038086,67.9306869506836,165.86265563964844,22860704.0,50354.0,0.15321561534861342,0.028517413204873995,0.0982030817169664,0.009708327076547448,-0.0031025879795572252,0.006790511260811835,22.860704548002104
1606,C,127447795616536.0,2.4613485989199146,9.516736886902212,2.038846387172149,33,1970-01-02 11:24:07.795616536,-0.27355957,0.29516602,-0.6419983,9.327949418817298,0.7577068264864157,-116.1816177368164,67.89537811279297,165.86509704589844,22911058.0,50354.0,0.1334223819445134,0.037997585961873984,0.0822392599420664,0.007216684857849053,0.001674648134021214,0.004542996835949469,22.911058551995666
1606,C,127447845970540.0,1.884215398919915,9.744992886902212,1.901761387172149,33,1970-01-02 11:24:07.845970540,-0.27217102,0.39152527,-0.7692566,9.227684766687037,0.9050551462866632,-116.19664764404297,67.85220336914062,165.86351013183594,22961412.0,50354.0,0.1094082647736134,-0.008516629484926054,0.0992126819346664,0.006113747192422279,0.0007422420412201181,0.004568415540630502,22.961412555989227
1606,C,127447896324544.0,2.028441598919915,11.005628286902212,-0.023409512827850865,33,1970-01-02 11:24:07.896324544,-0.69441223,0.4798584,-0.7183838,7.947195612018092,1.1083987158629214,-116.08795166015625,67.91242980957031,165.99424743652344,23011766.0,50354.0,0.0985089652346134,0.028969189292873947,0.0472912651403664,0.005234732099917127,0.000514934098284704,0.0036885298755081003,23.01176655999734
1606,C,127447946678547.0,3.727705998919915,15.136441886902212,2.318585787172149,33,1970-01-02 11:24:07.946678547,-0.48893738,0.51138306,-0.21508789,3.811830512290755,0.7394830600094097,-116.15729522705078,67.89153289794922,165.94580078125,23062120.0,50354.0,0.1449225280708134,0.16470970076587396,0.05778565305916639,0.006128874706950731,0.004876253415009096,0.0026455215695096374,23.062120563001372
1606,C,127447997032551.0,2.8299093989199147,12.160504886902213,-0.859575912827851,33,1970-01-02 11:24:07.997032551,0.35517883,-0.43632507,-0.01322937,6.778464249490901,0.5627669004314937,-116.52861785888672,67.9966049194336,165.59266662597656,23112474.0,50354.0,0.1651010828714134,0.19378602892407398,0.03673349160636639,0.007805464452692445,0.009025846986403819,0.002379708505244119,23.112474566994933
1606,C,127448047386555.0,1.385603998919915,8.738202886902211,-0.060763012827850904,33,1970-01-02 11:24:08.047386555,0.5214844,-0.70106506,-0.46820068,10.297342870600726,0.9912870797849762,-116.1759262084961,68.10982513427734,165.9113006591797,23162828.0,50354.0,0.1061339808174134,0.032697565621073975,-0.023171373131233606,0.006828885198493592,0.005702177459863191,0.00034145345684841806,23.162828570988495
1606,C,127448097740559.0,-0.6699380010800855,7.213284886902212,0.15041862717214916,33,1970-01-02 11:24:08.097740559,0.2102356,-0.30174255,-0.21485901,12.430787760568,0.4259248386347556,-115.6032943725586,68.079833984375,166.43963623046875,23213182.0,50354.0,0.018018322827613387,-0.09185859231892607,0.0022572594023463973,0.0031257825488708395,-0.0014894971691718222,-0.0005265546413521933,23.21318257499661
1606,C,127448148094563.0,0.8192129989199151,6.1557138869022126,0.3345464371721491,33,1970-01-02 11:24:08.148094563,0.093811035,-0.7239685,0.10960388,12.908478343186422,0.7382031629511456,-115.17861938476562,68.26410675048828,166.84083557128906,23263536.0,50354.0,0.003758296620613389,-0.15687791787192604,0.012209965424996397,0.0005482699478480056,-0.006262439117075084,0.00036424131947800954,23.26353657899017
1606,C,127448198448567.0,1.0533895989199147,3.1659368869022124,2.097577487172149,33,1970-01-02 11:24:08.198448567,0.30555725,-0.8620148,-0.079696655,15.801738645433966,0.9180339347021936,-115.06117248535156,68.27877807617188,166.9508056640625,23313890.0,50354.0,0.0471465156058134,-0.25877799846792604,0.0612335840432164,0.0012816304574247474,-0.010464969005688458,0.0018490882449611937,23.313890582998283
1606,C,127448248802571.0,-0.3030864010800851,4.492444886902213,2.581876187172149,33,1970-01-02 11:24:08.248802571,0.28651428,-0.7819061,0.113967896,14.933324660382578,0.8405095259304295,-114.96393585205078,68.30049133300781,167.0400848388672,23364244.0,50354.0,0.01889038361201339,-0.300654122080926,0.1178146051589664,0.0016626110116072252,-0.01408482249905845,0.004507896259543356,23.364244586991845
1606,C,127448299156575.0,1.063918198919915,7.830365886902213,0.7290471651721491,33,1970-01-02 11:24:08.299156575,0.0023498535,0.08595276,0.28720093,11.226417741352954,0.2997962190487965,-114.51476287841797,68.45918273925781,167.453857421875,23414598.0,50354.0,0.019155462174213395,-0.18321779314792602,0.08335911724197241,0.0009578802593598318,-0.012182443209716808,0.005064950808888437,23.414598590999958
1606,C,127448349510579.0,4.703398768919915,10.781247886902213,3.628903687172149,33,1970-01-02 11:24:08.349510579,0.21810913,0.16720581,0.7578125,8.292132115317932,0.8061074125967104,-114.56301879882812,68.49014282226562,167.39024353027344,23464952.0,50354.0,0.1452037392993034,-0.024884600016926026,0.1097201286094724,0.004138071615498733,-0.00523939395271148,0.004861156172801826,23.46495259499352
1606,C,127448399864583.0,2.508589798919915,8.864972886902212,1.876935387172149,33,1970-01-02 11:24:08.399864583,0.40596008,0.62409973,0.3698578,9.932498369761195,0.831323554195669,-114.63426971435547,68.4939956665039,167.29185485839844,23515306.0,50354.0,0.1815762361725034,0.0011637004220739612,0.1386205103747664,0.008227339442453682,-0.0005972210890995904,0.00625247226770618,23.515306599001633
1606,C,127448450218586.0,1.2450552989199148,9.015057886902213,1.467740387172149,33,1970-01-02 11:24:08.450218586,0.0031280518,0.8943634,0.42982483,10.06701096704321,0.9922928299913047,-114.760009765625,68.49481964111328,167.1565399169922,23565660.0,50354.0,0.0945055226283134,-0.04330366520792604,0.0842089019706664,0.006950910441328165,-0.001060957893413398,0.005610176114620962,23.565660601991112
1606,C,127448500572590.0,5.044661598919915,12.650022186902213,2.0230382871721493,33,1970-01-02 11:24:08.500572590,0.059387207,0.7450714,0.89686584,6.075691569743709,1.1674872874734554,-114.89073181152344,68.51988983154297,167.0128631591797,23616014.0,50354.0,0.1583562023369134,0.05199252101817398,0.08788733468396641,0.006366299649449516,0.0002187593227346124,0.00433286695025369,23.616014605999226
1606,C,127448550926594.0,5.039549898919915,13.146329486902212,0.585751877172149,33,1970-01-02 11:24:08.550926594,0.3540802,0.35087585,0.589447,5.453719654829236,0.7719678853127652,-114.94503021240234,68.53919982910156,166.9354705810547,23666368.0,50354.0,0.2538901928811134,0.156005546091374,0.0656815099676964,0.010379127492404262,0.0052367673356170895,0.003866402801794915,23.666368609992787
1606,C,127448601280598.0,1.7700948989199148,10.058285886902212,-0.0670343828278509,33,1970-01-02 11:24:08.601280598,0.22195435,0.115997314,0.36071777,8.928230933274849,0.43913143810584776,-114.815185546875,68.64649963378906,167.0413360595703,23716722.0,50354.0,0.1714464270752134,0.09075340126627396,0.013059750355106396,0.01070870008064044,0.006212650017623503,0.001982468711147206,23.7167226140009
1606,C,127448651634602.0,2.532729198919915,8.001508386902213,-0.061037672827850886,33,1970-01-02 11:24:08.651634602,-0.0071411133,0.07833862,0.6689453,10.746971773095773,0.6735545629529636,-114.86058044433594,68.67518615722656,166.99295043945312,23767076.0,50354.0,0.1083322023113134,-0.03877775956842604,-0.003224470145243604,0.007043986552064586,0.0013085907310267171,0.00024762284984371555,23.767076617994462
1606,C,127448701988606.0,4.941954698919915,7.355740886902213,0.35607658717214913,33,1970-01-02 11:24:08.701988606,0.08610535,0.12509155,0.6867218,11.222650409804956,0.7033127737893469,-114.9078598022461,68.70370483398438,166.93759155273438,23817430.0,50354.0,0.1881901164959134,-0.10681973503342601,0.007428194746446398,0.007465542420609549,-0.0036657081215908296,0.00010583717428448273,23.817430621988024
1606,C,127448752342610.0,4.713667928919915,4.986523886902212,-0.7835718128278509,33,1970-01-02 11:24:08.752342610,0.57543945,-0.23405457,0.15812683,13.66248342894986,0.6410274539518852,-114.86038970947266,68.71582794189453,166.95767211914062,23867784.0,50354.0,0.2430996109011234,-0.18272799978992604,-0.010763047296333605,0.010858581466675196,-0.007289943319647535,-8.396158264851021e-05,23.867784625996137
1606,C,127448802696614.0,1.7478170989199149,6.054257886902212,0.8294499971721491,33,1970-01-02 11:24:08.802696614,0.4178009,-0.61117554,-0.39245605,12.776059373947664,0.8379229582227139,-114.74718475341797,68.7108383178711,167.0567626953125,23918138.0,50354.0,0.1626808085459234,-0.21549543728092607,0.0011550750472363942,0.010216333620418298,-0.010026071475132844,-0.00024189991731552048,23.9181386299897
1606,C,127448853050618.0,3.2219228989199147,7.654431886902213,3.106335987172149,33,1970-01-02 11:24:08.853050618,0.09777832,-0.75086975,-0.39038086,11.21027167362403,0.8519173652305866,-114.63383483886719,68.70877075195312,167.17315673828125,23968492.0,50354.0,0.12512314392561338,-0.14832551756492604,0.0990912837278364,0.007246040111375882,-0.009159920180154019,0.0025239025748800084,23.968492633997812
1606,C,127448903404622.0,5.4991903989199145,7.378842886902213,3.378995287172149,33,1970-01-02 11:24:08.903404622,-0.32884216,-0.010772705,-0.40460205,11.533870649167092,0.5214940423731464,-114.62741088867188,68.69061279296875,167.19772338867188,24018846.0,50354.0,0.21957146949971337,-0.11497644101992602,0.1632811854941664,0.008678376282209452,-0.0066291534112908205,0.006605751657602365,24.018846637991373
1606,C,127448953758626.0,4.070998258919915,9.166562886902213,2.1844914871721492,33,1970-01-02 11:24:08.953758626,-0.56277466,0.5520935,-0.63967896,9.50156585423822,1.0152397364893906,-114.68561553955078,68.65003204345703,167.16543579101562,24069200.0,50354.0,0.24094863983843337,-0.07690551883292601,0.1400719065176664,0.011594514792806522,-0.004831012103215256,0.007637520797581915,24.069200641999487
1606,C,127449004112629.0,1.0937338989199148,11.591077486902211,1.649274187172149,33,1970-01-02 11:24:09.004112629,-0.500473,0.20327759,-0.63191223,7.751151351157936,0.8313290977397465,-114.70049285888672,68.61705017089844,167.1763153076172,24119554.0,50354.0,0.1300324615379334,0.029145911691273955,0.0965227183829664,0.009340191189352786,-0.001202443629005374,0.005956742871123233,24.119554644988966
1606,C,127449054466633.0,2.3403463989199147,12.659009586902211,1.412305217172149,33,1970-01-02 11:24:09.054466633,-0.7002411,-0.2039032,-0.5875702,6.272844889114077,0.9365643880841775,-114.68054962158203,68.59463500976562,167.2353515625,24169908.0,50354.0,0.08645983965871339,0.11707524225717392,0.07708138466317639,0.005450626667227977,0.0036814099929600723,0.004370830502392738,24.16990864899708
1606,C,127449104820637.0,3.701537198919915,13.134793886902212,2.342892987172149,33,1970-01-02 11:24:09.104820637,-0.95710754,-0.41567993,-0.42967224,5.68678894662608,1.1284781261310624,-114.6573257446289,68.58377075195312,167.3116455078125,24220262.0,50354.0,0.1521165033428134,0.15594139005997396,0.0945446251907764,0.00600663658774944,0.006873739751848833,0.00432102805009297,24.22026265299064
1606,C,127449155174641.0,3.504591998919915,13.100018886902213,1.552197787172149,33,1970-01-02 11:24:09.155174641,-0.67082214,-0.37451172,-0.33755493,5.581611999429,0.8391690548982623,-114.62958526611328,68.57625579833984,167.37753295898438,24270616.0,50354.0,0.1814287148140134,0.16704468120607396,0.09806670042566638,0.00839766795753443,0.00813182031626529,0.00484937534504518,24.270616656998754
1606,C,127449205528645.0,2.056212598919915,11.216413186902212,0.3584416871721491,33,1970-01-02 11:24:09.205528645,-0.2346344,-0.6451416,-0.48510742,7.709232367488308,0.8405891949418434,-114.23554992675781,68.67100524902344,167.76976013183594,24320970.0,50354.0,0.14000437735981341,0.11874561032217397,0.0481041700455664,0.008092720961660438,0.007195342169806699,0.003680144005854228,24.320970660992316
1606,C,127449255882649.0,0.29690459891991505,5.665906886902212,0.16613518717214915,33,1970-01-02 11:24:09.255882649,-0.20707703,-1.0311737,-0.6043091,13.534403131504842,1.2130084848294018,-113.7634048461914,68.76904296875,168.240966796875,24371324.0,50354.0,0.0592444316900134,-0.06842302750182606,0.013207271965366398,0.0050164872654474895,0.0012669716676678992,0.001543638175509255,24.37132466500043
1606,C,127449306236653.0,1.177413098919915,0.6249058869022122,1.493542987172149,33,1970-01-02 11:24:09.306236653,-0.40763855,-0.8709259,-0.40426636,18.22952738272606,1.0431262630020213,-113.66024780273438,68.76805877685547,168.37350463867188,24421678.0,50354.0,0.037118896678513404,-0.33508540679392607,0.041785717395466396,0.0024261395183343996,-0.01015913185026415,0.0013845584931376873,24.42167866899399
1606,C,127449356590657.0,2.579344798919915,6.195080886902213,3.928143887172149,33,1970-01-02 11:24:09.356590657,0.13595581,-0.14385986,0.4000244,12.885639547421883,0.44631733350536107,-113.65715789794922,68.78926086425781,168.36953735351562,24472032.0,50354.0,0.0945838935939134,-0.321762392995926,0.13650181043536638,0.0033158811506888903,-0.016537457055309106,0.0044887450881968775,24.472032673002104
1606,C,127449406944661.0,1.384154398919915,8.881375886902212,4.629361487172149,33,1970-01-02 11:24:09.406944661,0.7839203,-0.24511719,0.645401,10.839482493918965,1.0445840915821885,-113.62238311767578,68.82373809814453,168.3647918701172,24522386.0,50354.0,0.0997890193040134,-0.11388924780592603,0.21545231280986643,0.004893726828031103,-0.010968401360468229,0.008861148960945227,24.522386676995666
1606,C,127449457298665.0,2.749281898919915,7.675381886902212,4.093121987172149,33,1970-01-02 11:24:09.457298665,0.5825043,0.35943604,0.522995,11.494419148528458,0.8614112237452978,-113.6628646850586,68.84049224853516,168.29017639160156,24572740.0,50354.0,0.1040675256707134,-0.07661970952892605,0.2196059664335664,0.005132496232828697,-0.0047964440188195704,0.01095346229651191,24.572740680989227
1606,C,127449507652669.0,3.944640218919915,9.051327886902213,3.734769187172149,33,1970-01-02 11:24:09.507652669,0.6022186,0.92607117,0.47392273,9.967536174109748,1.2020307018133032,-113.76691436767578,68.84357452392578,168.14633178710938,24623094.0,50354.0,0.16853287716085338,-0.07234082802492604,0.1970828160964664,0.006863260342090357,-0.003750379453993334,0.010490973477758637,24.62309468499734
1606,C,127449558006672.0,1.665923198919915,9.769009886902213,1.9419987871721491,33,1970-01-02 11:24:09.558006672,0.73812866,1.0754395,0.47265625,9.271274185179413,1.3873744871294513,-113.88175201416016,68.84343719482422,167.98358154296875,24673448.0,50354.0,0.14125715517095339,-0.01962955586892602,0.1429239872900664,0.0077995836440179,-0.0023155383552955137,0.008560351288862737,24.673448688001372
1606,C,127449608360676.0,2.3808126989199145,10.236310886902212,1.5004094871721492,33,1970-01-02 11:24:09.608360676,0.18400574,0.9835663,0.3536682,8.587955758142952,1.0612925961015076,-114.00724792480469,68.83967590332031,167.83917236328125,24723802.0,50354.0,0.10188466969991339,0.010204761122073955,0.0866695131231664,0.006121581724773813,-0.0002372880573414945,0.005780475559903962,24.723802691994933
1606,C,127449658714680.0,4.557097498919915,12.645978586902213,2.498990387172149,33,1970-01-02 11:24:09.658714680,0.10609436,0.80570984,0.4162445,6.162115801516461,0.9130628911947333,-114.11890411376953,68.84225463867188,167.71376037597656,24774156.0,50354.0,0.1746757650510134,0.08263820208197398,0.1006928906363664,0.006962962065724084,0.002337507284588315,0.004717223239453757,24.774156695988495
1606,C,127449709068684.0,4.470503868919915,13.611035886902211,1.515973437172149,33,1970-01-02 11:24:09.709068684,0.42918396,0.33676147,0.44932556,5.003035407339238,0.7067535766214106,-114.16091918945312,68.85588836669922,167.6457061767578,24824510.0,50354.0,0.22728791963810338,0.16760365340697397,0.10108474420551639,0.010120239689417894,0.006300339195645243,0.005080155512414083,24.82451069999661
1606,C,127449759422688.0,3.770079698919915,11.149304886902211,0.2955449671721491,33,1970-01-02 11:24:09.759422688,0.45033264,-0.14251709,0.3618164,7.447077654714204,0.5949972394056948,-114.14070892333984,68.87528228759766,167.64321899414062,24874864.0,50354.0,0.20747317248750338,0.12992189966207393,0.045608598866176395,0.010945980016446403,0.0074908008496194205,0.00369329829851601,24.87486470399017
1606,C,127449809776692.0,4.219237388919915,7.404935886902212,0.5155767071721491,33,1970-01-02 11:24:09.809776692,0.35586548,-0.31822205,0.48908997,11.155663577914085,0.6834577614720853,-114.1112060546875,68.90410614013672,167.65577697753906,24925218.0,50354.0,0.2011470363205434,-0.026329080037926073,0.020421610394966396,0.010287830997160194,0.002608156419677171,0.0016624425785677923,24.925218707998283
1606,C,127449860130696.0,4.270690028919915,5.387891886902212,0.7907231901721491,33,1970-01-02 11:24:09.860130696,0.5441437,-0.06062317,0.5394745,13.169230408633183,0.7686353304010874,-114.10538482666016,68.92994689941406,167.63282775878906,24975572.0,50354.0,0.2137509025989534,-0.17138417513892606,0.032888712515437395,0.01044588540817617,-0.004977826625587607,0.0013421939999152363,24.975572711991845
1606,C,127449910484700.0,4.296675748919915,5.601804386902213,-0.9030939128278509,33,1970-01-02 11:24:09.910484700,0.5752411,0.36361694,0.18377686,13.062200497936477,0.7049067572776084,-114.12947082519531,68.93092346191406,167.57623291015625,25025926.0,50354.0,0.2157005681886734,-0.21678161691442605,-0.0028291576843026047,0.010812299680020081,-0.009772850146527247,0.0007568094119834806,25.025926715999958
1606,C,127449960838704.0,2.991011698919915,7.077450886902213,-0.9855372128278509,33,1970-01-02 11:24:09.960838704,0.30369568,-0.31318665,-0.254364,11.694525950574569,0.504993057660088,-114.06368255615234,68.92567443847656,167.63043212890625,25076280.0,50354.0,0.18348210687426342,-0.17424358997142603,-0.04755006585063361,0.010050222210059561,-0.009844841633765098,-0.0012683977109390892,25.07628071999352
1606,C,127450011192708.0,2.7553854989199147,6.384335886902212,2.001019787172149,33,1970-01-02 11:24:10.011192708,-0.2982483,-0.852005,-0.5708618,12.341836413618115,1.0680579399906778,-113.94750213623047,68.91692352294922,167.7709197998047,25126634.0,50354.0,0.1446770422500134,-0.15454179439592602,0.0255668047742664,0.008262062897501917,-0.008277829622216824,-0.0005534725641196972,25.126634724001633
1606,C,127450061546711.0,3.972380698919915,7.202771886902212,3.085507687172149,33,1970-01-02 11:24:10.061546711,-0.93040466,0.0463562,-0.7143707,11.595457308667834,1.1739366361293295,-113.96192932128906,68.88335418701172,167.80532836914062,25176988.0,50354.0,0.1693849695630134,-0.15138658757892604,0.1280635022215664,0.007907139271416577,-0.007702358872980851,0.0038679502392340824,25.176988726991112
1606,C,127450111900715.0,3.518096028919915,9.808667886902212,1.8480809871721493,33,1970-01-02 11:24:10.111900715,-0.83810425,0.6199341,-0.79766846,8.856424497193824,1.3126355146382578,-114.03514099121094,68.8343276977539,167.77178955078125,25227342.0,50354.0,0.18858773257682343,-0.06517218081492605,0.1242129620539664,0.009012678721774673,-0.005452300111852014,0.00635156454106509,25.227342730999226
1606,C,127450162254719.0,1.6390371989199148,9.884763386902213,1.1669286371721492,33,1970-01-02 11:24:10.162254719,-0.62672424,0.37602234,-0.6505432,9.102741436407008,0.978459262437069,-114.07654571533203,68.79694366455078,167.760986328125,25277696.0,50354.0,0.1298411432773234,0.002352319180573968,0.0759088973121164,0.008017083807379855,-0.0015816156563680827,0.005038468053259867,25.277696734992787
1606,C,127450212608723.0,2.335768798919915,10.949674286902212,1.4577916871721492,33,1970-01-02 11:24:10.212608723,-0.8031311,0.3112793,-0.5927887,7.906458899235061,1.0456159951164623,-114.12212371826172,68.76354217529297,167.75515747070312,25328050.0,50354.0,0.1000736906076134,0.031079437313373974,0.0660825836060164,0.0057885657727210545,0.0008417113332481274,0.0035749195150758294,25.3280507390009
1606,C,127450262962727.0,3.998656338919915,12.778592886902212,1.591016187172149,33,1970-01-02 11:24:10.262962727,-0.75253296,-0.06367493,-0.5662689,5.848928504351066,0.9439389915159118,-114.12251281738281,68.73897552490234,167.79510498046875,25378404.0,50354.0,0.1594818216953934,0.10393738263487395,0.0767598358523664,0.006534829133252802,0.0033993184758370383,0.003596343594703704,25.378404742994462
1606,C,127450313316731.0,3.689009728919915,11.975217486902213,1.418530787172149,33,1970-01-02 11:24:10.313316731,-0.3000946,-0.3040161,-0.33210754,6.6494174186687935,0.5410896193175596,-114.0844497680664,68.73003387451172,167.85205078125,25428758.0,50354.0,0.1935523685900034,0.129757483781274,0.07577136417306639,0.008888341808815437,0.005883735651759358,0.0038402780230403217,25.428758746988024
1606,C,127450363670735.0,3.0756368989199148,11.388104886902212,0.4890264171721491,33,1970-01-02 11:24:10.363670735,0.058929443,-0.16944885,-0.19970703,7.291021746137597,0.2684557502644219,-114.05117797851562,68.72437286376953,167.88461303710938,25479112.0,50354.0,0.1703135081491234,0.094749167405274,0.04802656773377639,0.009161051178660997,0.005652403956923719,0.0031168605316185807,25.479112750996137
1606,C,127450414024739.0,1.1920615989199148,10.276868886902212,-0.4268366128278508,33,1970-01-02 11:24:10.414024739,0.17666626,-0.42823792,-0.55184937,8.95113926856261,0.7205112148452034,-113.87151336669922,68.68235778808594,168.054931640625,25529466.0,50354.0,0.10744784508011339,0.05198984470307397,0.001565752703976399,0.006993197590252495,0.003694448107851877,0.0012485858516613022,25.5294667549897
1606,C,127450464378743.0,-2.1827094010800847,4.826535886902212,-0.5318934128278509,33,1970-01-02 11:24:10.464378743,-0.16004944,-0.8826752,-0.4801178,15.271968158211292,1.0174696230434566,-113.37496948242188,68.57563018798828,168.5430145263672,25579820.0,50354.0,-0.0249415397149866,-0.11321077800992604,-0.024137945855933603,0.0020772612501777973,-0.0015413594378666149,-0.0005683001069868266,25.579820758997812
1606,C,127450514732747.0,1.6158590989199149,2.517728886902212,0.2747472371721491,33,1970-01-02 11:24:10.514732747,-0.35263062,-0.5788574,-0.07098389,16.28231310972238,0.6815151915664657,-113.32128143310547,68.58382415771484,168.61961364746094,25630174.0,50354.0,-0.014271590057486598,-0.3085626457899261,-0.0064741692644836035,-0.0009872689682815577,-0.010618989491008878,-0.000770721222386744,25.630174762991373
1606,C,127450565086751.0,1.484114598919915,6.440655886902212,2.869565387172149,33,1970-01-02 11:24:10.565086751,0.60476685,-0.82141113,0.11375427,12.632978360080617,1.0263523865076907,-113.20050811767578,68.60525512695312,168.71685791015625,25680528.0,50354.0,0.0780480377905134,-0.2679239465499261,0.07916435894311641,0.001605699624574416,-0.014514202935340458,0.0018301209055389383,25.680528766999487
1606,C,127450615440754.0,0.24209509891991488,7.386731886902213,2.880933187172149,33,1970-01-02 11:24:10.615440754,0.53811646,-0.20266724,0.5409241,12.097059315198074,0.7894569124739863,-113.17703247070312,68.6341323852539,168.7132110595703,25730882.0,50354.0,0.0434607815625134,-0.14533705801892605,0.14478030260626643,0.0030592275448511562,-0.01040467231202999,0.005638254743828812,25.730882769988966
1606,C,127450665794758.0,3.367171398919915,8.982617886902212,3.189481087172149,33,1970-01-02 11:24:10.665794758,-0.06097412,0.35165405,0.83036804,9.927510066918737,0.90381939348778,-113.2632827758789,68.66534423828125,168.6238555908203,25781236.0,50354.0,0.0908705026161134,-0.08133808074492604,0.1528348201851664,0.003382058741765287,-0.005706999968657505,0.007493055946519904,25.78123677399708
1606,C,127450716148762.0,3.408644738919915,9.402661886902212,2.5804417871721492,33,1970-01-02 11:24:10.716148762,0.27157593,0.724823,0.337265,9.382207145937548,0.8443160233640985,-113.35198974609375,68.66647338867188,168.51402282714844,25831590.0,50354.0,0.1705947229023934,-0.03058301113492606,0.1452693482073664,0.006582909982879447,-0.002817837330259037,0.007505368647618798,25.83159077799064
1606,C,127450766502766.0,3.493666698919915,10.388058886902213,1.582806927172149,33,1970-01-02 11:24:10.766502766,0.41744995,0.96095276,0.49313354,8.256742731259958,1.1579617247472178,-113.46915435791016,68.67003631591797,168.3658905029297,25881944.0,50354.0,0.1737794950704934,0.00480177692207398,0.10481811288104641,0.008670309685903372,-0.0006490941337769768,0.006296452007822969,25.881944781998754
1606,C,127450816856770.0,4.513930388919915,11.958783886902213,1.349805217172149,33,1970-01-02 11:24:10.816856770,0.3660431,0.6451721,0.8260803,6.625069647958268,1.1102446810159057,-113.56888580322266,68.69503784179688,168.2391815185547,25932298.0,50354.0,0.20160727188054342,0.06915726051607399,0.0738343759581564,0.009451112631526254,0.0018620666855802515,0.0044979337115046095,25.932298785992316
1606,C,127450867210774.0,4.579573698919915,13.048886886902213,0.7239507291721491,33,1970-01-02 11:24:10.867210774,0.3990326,0.2642975,0.6454773,5.5116613903309135,0.8035677502141932,-113.6131362915039,68.71930694580078,168.17025756835938,25982652.0,50354.0,0.2289471524195434,0.13614892707207402,0.0522109534611104,0.010840068740603287,0.0051689938849068025,0.0031734432587888803,25.98265279000043
1606,C,127450917564778.0,2.2914725989199147,10.865476286902211,0.6087926471721491,33,1970-01-02 11:24:10.917564778,0.41362,-0.3936615,0.4954834,7.97052262520519,0.7560123548314605,-113.22590637207031,68.92056274414062,168.5150146484375,26033006.0,50354.0,0.1729923326407134,0.10862272162687397,0.033554479986220395,0.010119630415362086,0.006162615799293414,0.002159316317903447,26.03300679399399
1606,C,127450967918782.0,2.392088998919915,8.847943886902213,0.3554509871721491,33,1970-01-02 11:24:10.967918782,-0.31651306,-0.36645508,0.5908966,9.918085225405937,0.763955911489616,-113.06332397460938,69.19149017333984,168.6834716796875,26083360.0,50354.0,0.11791803034881342,0.0028555797158739565,0.024276761981886396,0.007324250208987317,0.0028066891929063647,0.0014560171790310248,26.083360798002104
1606,C,127451018272786.0,6.138152198919915,6.9063238869022125,2.521008787172149,33,1970-01-02 11:24:11.018272786,-0.14814758,-0.411911,0.74339294,11.91266103754262,0.86270008729726,-113.05918884277344,69.23377227783203,168.69583129882812,26133714.0,50354.0,0.2147658826380134,-0.09682400025892603,0.0724206277386664,0.00837598287726934,-0.002365842924012422,0.0024345501809943577,26.133714801995666
1606,C,127451068626790.0,6.439543798919915,4.304471886902212,1.8808568871721492,33,1970-01-02 11:24:11.068626790,0.78097534,-0.09843445,0.4482727,14.443730335980414,0.9058477996883406,-113.03131866455078,69.2563247680664,168.68386840820312,26184068.0,50354.0,0.3166686521376134,-0.21121499480292605,0.11082577208296641,0.013379927282045958,-0.00775549777867225,0.00461359460830925,26.184068805989227
1606,C,127451118980794.0,0.947035898919915,7.171307886902213,-0.408709212827851,33,1970-01-02 11:24:11.118980794,0.058792114,0.15531921,-0.30497742,11.948733254050937,0.3472632954596116,-112.94300079345703,69.31725311279297,168.76332092285156,26234422.0,50354.0,0.1859719170525134,-0.20454349263492605,0.0370642619969664,0.012654981610499823,-0.010467551438222802,0.0037234273880304685,26.23442280999734
1606,C,127451169334797.0,3.896254598919915,8.794095886902213,3.430814087172149,33,1970-01-02 11:24:11.169334797,-0.15116882,-1.0040436,-0.5793915,10.131139141730104,1.169038097374676,-112.7981948852539,69.3100357055664,168.9261474609375,26284776.0,50354.0,0.1219395248641134,-0.09150822918692603,0.0760875344213664,0.007752286373134913,-0.00745369420030877,0.002848822778424365,26.284776813001372
1606,C,127451219688801.0,6.404677498919915,5.923840886902212,3.772855187172149,33,1970-01-02 11:24:11.219688801,-0.31504822,-0.10632324,-0.75094604,13.143058849241438,0.8212672934440697,-112.76254272460938,69.2774887084961,168.9811248779297,26335130.0,50354.0,0.25934656742731343,-0.12291570584592604,0.1813667813201664,0.009599639945621255,-0.005398551412322117,0.006481927307424571,26.335130816994933
1606,C,127451270042805.0,2.680739498919915,8.037259886902213,2.1122105871721493,33,1970-01-02 11:24:11.270042805,-0.31430054,1.2029114,-0.9604492,10.740013235833723,1.5710643944392897,-112.87538146972656,69.20989990234375,168.87725830078125,26385484.0,50354.0,0.2287435437546134,-0.14197056581792603,0.14816830100066639,0.012288644729227373,-0.006669041661680803,0.008296704767591607,26.385484820988495
1606,C,127451320396809.0,0.666792898919915,11.446088486902212,0.21368158717214913,33,1970-01-02 11:24:11.320396809,-0.105163574,0.4557495,-0.5831909,8.039417597525894,0.7475818415996428,-112.44139862060547,69.01811981201172,169.2842254638672,26435838.0,50354.0,0.08428082318041341,-0.0029369379927260257,0.05855898727346641,0.00788101448632317,-0.0036483362234407866,0.005204772936877842,26.43583882499661
1606,C,127451370750813.0,1.768126598919915,10.594495386902214,2.208874987172149,33,1970-01-02 11:24:11.370750813,-0.6356354,0.13945007,-0.6036835,8.502053503288382,0.8876443273791675,-112.45993041992188,68.987548828125,169.29840087890625,26486192.0,50354.0,0.0613039681971134,0.061446580190774,0.060992706872266406,0.003665388292511993,0.001473097261620254,0.0030099530035071153,26.48619282899017
1606,C,127451421104817.0,3.113616098919915,10.551892886902213,1.9268925871721492,33,1970-01-02 11:24:11.421104817,-0.89694214,0.07356262,-0.75878906,8.186603627865955,1.177148036206461,-112.47589111328125,68.95108032226562,169.329345703125,26536546.0,50354.0,0.12290763590351339,0.038933417569574004,0.10412622021926639,0.004637895556441481,0.0025272672036122817,0.004157199227383522,26.536546832998283
1606,C,127451471458821.0,2.782546098919915,12.870328586902211,1.505643237172149,33,1970-01-02 11:24:11.471458821,-0.8748474,-0.21897888,-0.4460144,5.9518237126697064,1.006100674972527,-112.4712142944336,68.93464660644531,169.3812255859375,26586900.0,50354.0,0.1484476756550134,0.09623207004597395,0.0864209544495164,0.0068319126791090284,0.0034030614816966506,0.004797406216635945,26.586900836991845
1606,C,127451521812825.0,2.896376698919915,12.842572886902213,1.0008214571721492,33,1970-01-02 11:24:11.521812825,-0.5975952,-0.43855286,-0.3161621,5.907511746949308,0.8058579946576379,-112.43283081054688,68.92843627929688,169.45440673828125,26637254.0,50354.0,0.1429782392812134,0.15390452040597394,0.0631052616095064,0.007337230260349383,0.006297688937808693,0.0037646215417180173,26.637254840999958
1606,C,127451572166829.0,2.917647398919915,10.618222886902213,0.945416787172149,33,1970-01-02 11:24:11.572166829,-0.18211365,-0.65371704,-0.33337402,8.073490047921622,0.7560751200202559,-112.34700775146484,68.92546081542969,169.55612182617188,26687608.0,50354.0,0.1463796847113134,0.097203255197074,0.0490004402778564,0.007285164452359848,0.006322140466357938,0.0028224852564181333,26.68760884499352
1606,C,127451622520833.0,0.7963095989199149,7.083661886902211,1.1087468671721492,33,1970-01-02 11:24:11.622520833,0.0980072,-0.9664612,-0.3859253,12.023715846617897,1.045270778094064,-111.64661407470703,69.06232452392578,170.22409057617188,26737962.0,50354.0,0.09350629533461341,-0.04778884704992604,0.0517176783254264,0.0060396093196163,0.0012441065539207444,0.002535780072074851,26.737962849001633
1606,C,127451672874836.0,0.05815039891991525,2.8966198869022115,1.836163887172149,33,1970-01-02 11:24:11.672874836,-0.087631226,-0.94692993,-0.14785767,16.279926568193797,0.9624018987293702,-111.52877807617188,69.0728530883789,170.35494995117188,26788316.0,50354.0,0.021512739365613407,-0.2421956457809261,0.07414401806212641,0.0028958342366476107,-0.007300939576002365,0.0031688199299494168,26.788316851991112
1606,C,127451723228840.0,1.1415548989199147,5.851956886902212,1.4568608871721491,33,1970-01-02 11:24:11.723228840,0.18771362,-0.637619,0.3302002,13.128441853939076,0.7421769090820224,-111.45762634277344,69.09991455078125,170.42111206054688,26838670.0,50354.0,0.0302049802837134,-0.2732062825659261,0.0829084847436664,0.0013020970276111012,-0.012976274349988697,0.003954110863141446,26.838670855999226
1606,C,127451773582844.0,0.882445398919915,8.398251886902212,4.135541287172149,33,1970-01-02 11:24:11.773582844,0.87879944,-1.3107605,0.6485443,11.25876418249613,1.7061627276338718,-111.28459930419922,69.15397644042969,170.55921936035156,26889024.0,50354.0,0.0509582554987134,-0.13469169370192607,0.1407999095434664,0.0020434467872941595,-0.010269647348495715,0.005632306242967143,26.889024859992787
1606,C,127451823936848.0,2.342818298919915,5.710431886902212,4.343152387172149,33,1970-01-02 11:24:11.823936848,0.38035583,-0.16069031,0.6437378,13.489250061965308,0.7647812028885942,-111.27662658691406,69.18690490722656,170.5474395751953,26939378.0,50354.0,0.0812024641205134,-0.13825486862692607,0.21346807063896645,0.003327410437853274,-0.006871975599753511,0.008919404937053113,26.9393788640009
1606,C,127451874290852.0,4.474684778919915,8.894650886902213,4.178464287172149,33,1970-01-02 11:24:11.874290852,0.12661743,0.7028351,0.3521576,10.247369112666565,0.7962563196669619,-111.37325286865234,69.19052124023438,170.43728637695312,26989732.0,50354.0,0.17164427499077342,-0.12575703100392605,0.2145487430099664,0.006365922350604869,-0.006647027597005964,0.010776179317239183,26.989732867994462
1606,C,127451924644856.0,1.9748373989199148,10.152615886902213,3.397992487172149,33,1970-01-02 11:24:11.924644856,0.5415344,0.99238586,0.458313,9.128321746244458,1.2198934410350355,-111.4897689819336,69.1937255859375,170.28367614746094,27040086.0,50354.0,0.1623796198714734,-0.013916164435926017,0.1907524522076664,0.008409719600946788,-0.0035165520415891558,0.010204268191994341,27.040086871988024
1606,C,127451974998860.0,3.1485128989199147,11.944806886902212,3.272916187172149,33,1970-01-02 11:24:11.974998860,0.4736786,0.82847595,0.6916504,7.177086640402687,1.1786110858321852,-111.60096740722656,69.21067810058594,170.139404296875,27090440.0,50354.0,0.1289905904487134,0.06287761317607397,0.1679534676939664,0.007335827785231343,0.0012327023949307051,0.00903113894536341,27.090440875996137
1606,C,127452025352864.0,4.827086498919915,12.490720386902211,2.552777587172149,33,1970-01-02 11:24:12.025352864,0.4128723,0.16436768,0.63597107,6.339598996289893,0.7758475831068995,-111.6313247680664,69.23719024658203,170.08482360839844,27140794.0,50354.0,0.2008016660394134,0.12174407017257394,0.14667349215666642,0.00830317964160157,0.004648220121668909,0.007921362968159384,27.1407948799897
1606,C,127452075706868.0,3.608824798919915,11.775632486902213,1.533353187172149,33,1970-01-02 11:24:12.075706868,0.40467834,-0.108078,0.6452942,6.867423852867233,0.7693178910585634,-111.62924194335938,69.26919555664062,170.06544494628906,27191148.0,50354.0,0.2123909387457134,0.11748476630377395,0.10287651450566639,0.010402950210675138,0.006023064415965011,0.006282920517737553,27.191148883997812
1606,C,127452126060872.0,3.1237783989199146,11.076520586902213,1.1540044371721492,33,1970-01-02 11:24:12.126060872,0.06832886,-0.28704834,0.84506226,7.594343781959837,0.8950954171941462,-111.63172149658203,69.31375122070312,170.0591278076172,27241502.0,50354.0,0.16950675071201338,0.08187945793917398,0.0676596029081164,0.009615038127477188,0.0050193930737647,0.004293587828126809,27.241502887991373
1606,C,127452176414876.0,5.302947098919915,8.668835886902212,1.665997847172149,33,1970-01-02 11:24:12.176414876,-0.08584595,-0.5142517,0.7573395,9.971771143974827,0.9194495398577034,-111.60962677001953,69.35840606689453,170.08731079101562,27291856.0,50354.0,0.2121596678591134,0.0036596399409739543,0.0709991975129364,0.009609215420365259,0.0021536178673284847,0.003491012618200847,27.291856891999487
1606,C,127452226768879.0,6.496703198919915,5.575284886902212,2.081494687172149,33,1970-01-02 11:24:12.226768879,0.265625,-0.2561493,0.3671875,13.218895153350179,0.5205725354566259,-111.58267211914062,69.38020324707031,170.10194396972656,27342210.0,50354.0,0.2970797955487134,-0.13484497127792608,0.09435061953718639,0.012821121970218856,-0.003302853087070444,0.004163012343870942,27.342210894988966
1606,C,127452277122883.0,4.452513758919915,5.9837928869022114,2.497937587172149,33,1970-01-02 11:24:12.277122883,0.46575928,0.057998657,-0.19444275,12.691819145413787,0.5080389100723335,-111.55706024169922,69.37010955810547,170.10443115234375,27392564.0,50354.0,0.27566843534753344,-0.20244629888892607,0.1152963663711664,0.014420082209274807,-0.008491982308990837,0.005278282164214598,27.39256489899708
1606,C,127452327476887.0,4.048155848919915,6.187604886902212,3.708035787172149,33,1970-01-02 11:24:12.327476887,0.25656128,-0.29614258,-0.42518616,12.718379376700328,0.5781932105618678,-111.48693084716797,69.35572814941406,170.1656494140625,27442918.0,50354.0,0.21402135871658343,-0.18702991824892606,0.15624779164586639,0.01232891994515227,-0.009805842718879704,0.006836667266394835,27.44291890299064
1606,C,127452377830891.0,4.659636558919915,6.4775218869022115,4.239850387172149,33,1970-01-02 11:24:12.377830891,-0.17262268,-0.008850098,-0.7180786,12.57190421417771,0.7385890533056607,-111.45964050292969,69.32251739501953,170.20407104492188,27493272.0,50354.0,0.2192360894521834,-0.17459930321592607,0.20010393021146639,0.010908122772545043,-0.009104738908820582,0.008971867301202068,27.493272906998754
1606,C,127452428184895.0,4.2479239189199145,9.546887886902212,3.917355987172149,33,1970-01-02 11:24:12.428184895,-0.45896912,0.80067444,-1.0225525,9.545862358606781,1.3774417690919416,-111.53153228759766,69.26024627685547,170.15170288085938,27543626.0,50354.0,0.22426565015057343,-0.09002263512492607,0.2053739848868664,0.01116604329797861,-0.006662386541607634,0.010208717468430724,27.543626910992316
1606,C,127452478538899.0,3.858092398919915,10.593808886902213,2.857754987172149,33,1970-01-02 11:24:12.478538899,-0.2247467,0.68992615,-0.7676697,8.249347116632155,1.0563266255816912,-111.5901870727539,69.21186065673828,170.1009979248047,27593980.0,50354.0,0.2040851728342534,0.013613122674073977,0.1705769690010664,0.010784588670288987,-0.0019237622949751032,0.009465317166036484,27.59398091500043
1606,C,127452528892903.0,2.715376898919915,9.499234886902212,2.439191187172149,33,1970-01-02 11:24:12.528892903,-0.07688904,0.49520874,-0.6664429,9.35937785194583,0.8338403681790173,-111.62232971191406,69.17179107666016,170.07073974609375,27644334.0,50354.0,0.16550023651171342,0.012413363093073967,0.13336121383146637,0.009305051851103408,0.0006552688321594839,0.007652251629174678,27.64433491899399
1606,C,127452579246907.0,1.739928298919915,10.361233886902212,1.669904087172149,33,1970-01-02 11:24:12.579246907,-0.28149414,0.4034729,-0.8076172,8.656617204054427,0.945661077566688,-111.64654541015625,69.1268081665039,170.0598907470703,27694688.0,50354.0,0.11217121896601341,0.0065578223180739505,0.10345469172216641,0.0069909342345627285,0.0004776375350964711,0.005962314054123814,27.694688923002104
1606,C,127452629600911.0,2.138381098919915,12.558698286902212,1.4202855871721491,33,1970-01-02 11:24:12.629600911,-0.5696564,0.10838318,-0.6885071,6.435506567944669,0.9001651817962536,-111.65493774414062,69.0927963256836,170.08139038085938,27745042.0,50354.0,0.0976441957094134,0.08358593233987396,0.0778017054309664,0.005282522695283221,0.0022695493110231548,0.0045634923111244246,27.745042926995666
1606,C,127452679954915.0,3.592909898919915,12.974347886902212,2.593289687172149,33,1970-01-02 11:24:12.679954915,-0.3648224,-0.18534851,-0.40446472,5.925883168513161,0.5753617674347666,-111.6311264038086,69.07743072509766,170.12640380859375,27795396.0,50354.0,0.1442967134526134,0.14937630351787395,0.1010497846821664,0.006091346269972349,0.00586529021219052,0.004502943966578344,27.795396930989227
1606,C,127452730308919.0,3.532591898919915,11.777173686902213,2.188290987172149,33,1970-01-02 11:24:12.730308919,0.18203735,-0.20845032,-0.45854187,6.9783638024715176,0.5355835875437389,-111.57463073730469,69.0599594116211,170.1771697998047,27845750.0,50354.0,0.1793987587642134,0.12969985866367398,0.12038585663796639,0.008149680904003049,0.007026300535244834,0.0055750851415169835,27.84575093499734
1606,C,127452780662922.0,0.7540121989199147,8.776685386902212,0.3002446871721491,33,1970-01-02 11:24:12.780662922,0.21766663,-0.12251282,-0.78082275,10.439932838755185,0.8198001706498187,-111.16635131835938,69.05130004882812,170.55548095703125,27896104.0,50354.0,0.10792383137131338,0.02401530990117397,0.06265386267296641,0.007233920851842159,0.0038700867989571773,0.004608391013091355,27.896104938001372
1606,C,127452831016926.0,-0.8189401010800852,3.604718886902212,-0.17863716282785091,33,1970-01-02 11:24:12.831016926,-0.027496338,-0.25689697,-0.5592499,15.857257944466348,0.6160459012513606,-110.8582763671875,69.07490539550781,170.85238647460938,27946458.0,50354.0,-0.0016346897926866133,-0.18174258459842604,0.003061712640416395,0.0026760417175250863,-0.003971099595052715,0.001654521039665039,27.946458941994933
1606,C,127452881370930.0,1.4652090989199147,3.9195078869022115,1.9782689871721493,33,1970-01-02 11:24:12.881370930,0.27508545,-0.29412842,0.0024871826,14.97315344130819,0.40272784648033055,-110.80867767333984,69.08025360107422,170.8907470703125,27996812.0,50354.0,0.016271114558613388,-0.3040317425159261,0.0453093304415164,0.00036850126633173843,-0.012230340233758043,0.0012178377516738222,27.996812945988495
1606,C,127452931724934.0,1.925398898919915,7.278683886902213,4.584729587172149,33,1970-01-02 11:24:12.931724934,0.641449,-0.16061401,0.31950378,12.15673604986022,0.7343952241426741,-110.77182006835938,69.09806060791016,170.89590454101562,28047166.0,50354.0,0.0853653375616134,-0.21153232571092606,0.16523661510626642,0.00255890095503095,-0.012980356545747456,0.005300915271056529,28.04716694999661
1606,C,127452982078938.0,2.038222398919915,7.052258886902212,2.777066587172149,33,1970-01-02 11:24:12.982078938,0.30311584,0.43406677,0.4885254,11.910758246562551,0.7203820095770704,-110.83251190185547,69.11315155029297,170.81468200683594,28097520.0,50354.0,0.0997920934157134,-0.13265905378392603,0.18534794228146642,0.0046617086397161564,-0.008665706361541892,0.00882666740135095,28.09752095399017
1606,C,127453032432942.0,4.640303678919915,9.389218886902212,4.336957287172149,33,1970-01-02 11:24:13.032432942,0.33068848,1.1971741,0.49282837,9.841882993828609,1.3362112478168926,-110.98556518554688,69.11481475830078,170.6331787109375,28147874.0,50354.0,0.16814525106177342,-0.07952211408892605,0.1791097790843664,0.006745858521909687,-0.005342085263534797,0.009175952050827574,28.147874957998283
1606,C,127453082786946.0,3.4503012289199146,10.871289886902211,1.7781956871721492,33,1970-01-02 11:24:13.082786946,1.2425995,1.1485443,0.2979126,7.8069525861371085,1.7181267251578098,-111.0779037475586,69.10812377929688,170.4678497314453,28198228.0,50354.0,0.2036971597646834,0.01662962939807392,0.1539612064350664,0.009361876377377704,-0.0015834440870615841,0.008385728202422761,28.198228961991845
1606,C,127453133140950.0,1.2222128989199148,9.638333886902211,1.3049291271721493,33,1970-01-02 11:24:13.133140950,1.3735657,0.7395172,0.41175842,9.475268103039843,1.6134166906764125,-111.11903381347656,69.114013671875,170.35031127929688,28248582.0,50354.0,0.11763988819662338,0.022901597753073915,0.0776238334507464,0.008090302856521821,0.000995277705984449,0.00583061654920511,28.248582965999958
1606,C,127453183494954.0,2.7718801989199147,10.122510886902212,1.4600652271721493,33,1970-01-02 11:24:13.183494954,1.3016052,0.6511841,0.5804138,8.613567818227255,1.5668749177870869,-111.16099548339844,69.12934112548828,170.23573303222656,28298936.0,50354.0,0.10055928192431339,0.004049588870073941,0.06961426285932641,0.005493600506134825,0.0006785500256109936,0.0037070135507987034,28.29893696999352
1606,C,127453233848958.0,3.9361410789199147,12.111112286902213,1.816464787172149,33,1970-01-02 11:24:13.233848958,1.2736969,0.22869873,0.52500916,6.545458656226791,1.3965104798235952,-111.1501693725586,69.14971923828125,170.17919921875,28349290.0,50354.0,0.1688878517121734,0.06630673064687397,0.08249319617114641,0.006783870483565829,0.0017713610564781975,0.0038296094960102145,28.349290974001633
1606,C,127453284202961.0,2.391585398919915,12.133679886902211,0.24207818717214913,33,1970-01-02 11:24:13.284202961,1.1500244,-0.36134338,0.5502777,6.743279545158,1.3251153557266153,-110.93760681152344,69.26225280761719,170.3266143798828,28399644.0,50354.0,0.1593131695325734,0.11694193255987395,0.0518279364650664,0.00826311711187899,0.0046136515935562925,0.00338180315638193,28.399644976991112
1606,C,127453334556965.0,1.9701223989199148,10.175259886902213,-0.5618006128278509,33,1970-01-02 11:24:13.334556965,0.32254028,-0.4557495,0.3740692,8.820715879821751,0.6720622034911414,-111.0577392578125,69.35626220703125,170.20431518554688,28449998.0,50354.0,0.1098147172262134,0.06820297668507394,-0.008049651510733603,0.0067758328049259756,0.0046613933800600535,0.0011022058802952369,28.449998980999226
1606,C,127453384910969.0,5.182677328919915,7.9236578869022125,1.046628337172149,33,1970-01-02 11:24:13.384910969,0.3205719,-0.54797363,0.37591553,10.667169822976884,0.7378034480403082,-110.99169921875,69.3836441040039,170.25775146484375,28500352.0,50354.0,0.18008603874782342,-0.037792747208926024,0.012206507615816395,0.007298831333158325,0.0007656383475209761,0.00010465716615766946,28.500352984992787
1606,C,127453435264973.0,6.592925098919915,6.522595886902213,0.1881230871721491,33,1970-01-02 11:24:13.435264973,0.8894043,-0.27209473,0.19921875,12.250003528324179,0.9511906545502986,-110.92292022705078,69.39781188964844,170.28372192382812,28550706.0,50354.0,0.29647434232572345,-0.12975586873692602,0.031087336610716394,0.01199836071428869,-0.004218371503668717,0.001090009116091416,28.5507069890009
1606,C,127453485618977.0,3.4468527489199148,6.109799886902213,1.8647740871721492,33,1970-01-02 11:24:13.485618977,1.2399292,-0.76174927,-0.22467041,12.529850904112884,1.4724683916769625,-110.75558471679688,69.4008560180664,170.396240234375,28601060.0,50354.0,0.2527714868750634,-0.175423371602926,0.0516857921584664,0.013828362241788213,-0.007683497734036454,0.0020839790630217156,28.601060992994462
1606,C,127453535972981.0,4.546614708919915,4.174420886902212,3.344144187172149,33,1970-01-02 11:24:13.535972981,1.4455109,-1.0221558,-0.021759033,14.612469605770091,1.770530343430901,-110.55500030517578,69.4178695678711,170.5333251953125,28651414.0,50354.0,0.2012515301860334,-0.23454337357792607,0.1311449353931664,0.011430937500547236,-0.010321732743418313,0.00460312922756746,28.651414996988024
1606,C,127453586326985.0,4.713057578919915,7.4737373869022115,3.027508987172149,33,1970-01-02 11:24:13.586326985,0.91664124,0.010879517,-0.8899536,11.316286188411858,1.2776411612467136,-110.46906280517578,69.37600708007812,170.57618713378906,28701769.0,50355.0,0.23313539902708733,-0.20020749506128915,0.16042229779705353,0.010936776910263346,-0.01094593999516384,0.007340934013646762,28.701769000996137
1606,C,127453636680989.0,3.634902058919915,12.194211586902213,2.988171987172149,33,1970-01-02 11:24:13.636680989,0.3504181,0.7548523,-0.9931183,6.780085199236394,1.2957155542084806,-110.49925231933594,69.3163070678711,170.52520751953125,28752123.0,50354.0,0.21017657980189342,0.0017107513134739635,0.1514567998910664,0.01116126569097725,-0.004997552517338744,0.007852180042493797,28.7521230049897
1606,C,127453687034993.0,4.346907678919915,10.352261886902212,2.869565387172149,33,1970-01-02 11:24:13.687034993,0.7242279,0.09793091,-0.82588196,8.46982424780227,1.1028043915968415,-110.43692779541016,69.27587127685547,170.55308532714844,28802477.0,50354.0,0.20095802376959343,0.074183362649974,0.1474802538738664,0.010351135914119325,0.0019107861072577294,0.007526338202639714,28.802477008997812
1606,C,127453737388997.0,5.157057798919915,6.661130886902212,4.0503361871721495,33,1970-01-02 11:24:13.737388997,1.1357574,0.542099,-0.84375,12.365213983801707,1.5151667432846327,-110.40837097167969,69.2269058227539,170.52293395996094,28852831.0,50354.0,0.23928133883557343,-0.06512301013392605,0.17422236193726642,0.011083906432310286,0.0002281124952965392,0.00809950675827689,28.852831012991373
1606,C,127453787743001.0,0.19581519891991483,9.755139886902212,1.0211461671721491,33,1970-01-02 11:24:13.787743001,0.9809418,0.9009857,-1.3175507,9.747591747376598,1.8734892296627221,-110.40995788574219,69.14944458007812,170.46876525878906,28903185.0,50354.0,0.1347692834666134,-0.08015675072792605,0.1276847112353264,0.009417472517702159,-0.0036577085392188505,0.007601114381266369,28.903185016999487
1606,C,127453838097004.0,-0.46804900108008507,10.414777386902212,1.444363937172149,33,1970-01-02 11:24:13.838097004,0.52423096,0.1650238,-0.8612366,9.498760225797023,1.0216552428136028,-110.36466979980469,69.10619354248047,170.48916625976562,28953539.0,50354.0,-0.006854030436986606,0.014348807202573957,0.062074147897076395,0.0032205223255269144,-0.0016568465941377895,0.004777558796376506,28.953539019988966
1606,C,127453888451008.0,3.205718098919915,8.514508886902211,2.787030587172149,33,1970-01-02 11:24:13.888451008,0.7806549,0.24479675,-0.30950928,10.310263504103066,0.874724823079059,-110.3415756225586,69.08741760253906,170.4720916748047,29003893.0,50354.0,0.0689262948763134,-0.016886559484426057,0.1065338199394164,0.0015627934017889307,-6.389298920019032e-05,0.0042450428062193795,29.00389302399708
1606,C,127453938805012.0,5.744902698919915,10.056790886902212,2.294278487172149,33,1970-01-02 11:24:13.938805012,1.2513428,0.83955383,-0.50839233,8.743803996174702,1.5903371333721468,-110.3587875366211,69.04898071289062,170.3866729736328,29054247.0,50354.0,0.22534977982721338,-0.02589958559492608,0.12793211856476638,0.007408988732810694,-0.0010772267746628488,0.00590314893371981,29.05424702799064
1606,C,127453989159016.0,3.3843374989199146,14.351727886902212,1.769681287172149,33,1970-01-02 11:24:13.989159016,1.4290924,1.1949158,-0.79507446,4.435589289219449,2.025406688487942,-110.39729309082031,68.99092102050781,170.2689208984375,29104601.0,50354.0,0.2298468804610134,0.12106407716807395,0.10231831523866639,0.011460486316076686,0.002395956404337144,0.005797015171869027,29.104601031998754
1606,C,127454039513020.0,-0.8951424010800855,13.983426886902212,-0.10292305282785086,33,1970-01-02 11:24:14.039513020,1.4061432,0.41531372,-0.8676758,7.033260700562439,1.7036975901937874,-110.33834075927734,68.94303131103516,170.25674438476562,29154955.0,50354.0,0.06267046497831338,0.21992499174007393,0.041963972066086395,0.007364709206125931,0.00858508178790044,0.003632595147471761,29.154955035992316
1606,C,127454089867024.0,-0.7850504010800847,8.024457886902212,0.1632054871721491,33,1970-01-02 11:24:14.089867024,1.0189514,0.026367188,-0.6655121,11.744753181300247,1.2173181750928543,-109.84650421142578,68.7975082397461,170.6717071533203,29205309.0,50354.0,-0.04230221417998661,0.06062331495007395,0.0015177308494863971,0.0005128114503494733,0.007063364717537853,0.0010947388343053764,29.20530904000043
1606,C,127454140221028.0,0.11370759891991522,-0.057070113097786646,0.3045629071721491,33,1970-01-02 11:24:14.140221028,1.2057648,0.14700317,-0.2553711,19.101340527413626,1.2412465845368112,-109.58063507080078,68.99633026123047,170.8625946044922,29255663.0,50354.0,-0.016902397729986588,-0.292874278018926,0.011777004864406398,-0.0014905945140573952,-0.005847382497184489,0.0003347215610686789,29.25566304399399
1606,C,127454190575032.0,0.2744435989199152,7.902707886902212,2.574368787172149,33,1970-01-02 11:24:14.190575032,1.7922516,0.36470032,0.39730835,11.558938201688962,1.8716372634916159,-109.55310821533203,69.0089340209961,170.7960662841797,29306017.0,50354.0,0.00977248270801341,-0.29593957776892604,0.0724828632685064,-0.00017950987050821868,-0.014824566447170753,0.0021214106999823457,29.306017048002104
1606,C,127454240929036.0,0.22549359891991472,8.088742886902212,4.419949987172149,33,1970-01-02 11:24:14.240929036,2.3408356,-0.5497284,0.661026,11.839113403475363,2.493725725229204,-109.39720916748047,69.04926300048828,170.8376922607422,29356371.0,50354.0,0.012586918830013399,-0.09085244386792607,0.17609596378166642,0.000562942652522901,-0.009738262728751026,0.006258469128642201,29.356371051995666
1606,C,127454291283040.0,5.757475898919915,8.468961386902212,3.3291905871721488,33,1970-01-02 11:24:14.291283040,2.092453,0.64216614,0.6413727,10.499369189658573,2.280810349169082,-109.39958190917969,69.06886291503906,170.72315979003906,29406725.0,50354.0,0.1506332230471134,-0.07659587949842606,0.1951001122402664,0.004109393512040422,-0.004215846437394648,0.009345603606004203,29.406725055989227
1606,C,127454341637044.0,4.368880334919915,10.737607586902211,3.411832187172149,33,1970-01-02 11:24:14.341637044,2.294281,0.86987305,-0.05757141,8.254566741326899,2.4543265669683585,-109.38959503173828,69.05171203613281,170.61105346679688,29457079.0,50354.0,0.2549512708993854,-0.009905412946526086,0.1697187303896664,0.010211400804091001,-0.0021778430398865603,0.00918504400089382,29.45707905999734
1606,C,127454391991047.0,0.09359659891991523,11.604917186902213,2.194241887172149,33,1970-01-02 11:24:14.391991047,2.3301392,1.0271759,-0.39700317,8.289473796753477,2.5772563973938447,-109.38229370117188,69.01592254638672,170.4940643310547,29507433.0,50354.0,0.1123517817632854,0.06904854623007395,0.1411441269697664,0.009247588956888065,0.0014890466666798846,0.007826594159738439,29.507433063001372
1606,C,127454442345051.0,1.235579598919915,10.571988886902211,0.7104619601721491,33,1970-01-02 11:24:14.442345051,1.9083252,0.6873779,-0.015136719,8.580657011386283,2.028403945624622,-108.9091567993164,69.01582336425781,170.83517456054688,29557787.0,50354.0,0.03346466913301341,0.06487876422017397,0.0731317287645874,0.003671220784216115,0.003371887895205892,0.005394823219823826,29.557787066994933
1606,C,127454492699055.0,2.968291298919915,10.160168886902213,0.3313726071721491,33,1970-01-02 11:24:14.492699055,1.3488007,0.8191376,-0.07499695,8.52496652441677,1.5798336236969868,-108.93950653076172,68.9990005493164,170.73043823242188,29608141.0,50354.0,0.10584085759491339,0.02850433627107395,0.0262302689020274,0.0035072952464290127,0.002351106321068149,0.002501637015252361,29.608141070988495
1606,C,127454543053059.0,3.814650598919915,10.392575886902213,1.1276067371721492,33,1970-01-02 11:24:14.543053059,1.3635864,0.70111084,-0.05934143,8.191430473344814,1.5344203092845552,-108.95515441894531,68.98480224609375,170.64064025878906,29658495.0,50354.0,0.17077412816191342,0.02398725517007399,0.0367327229525564,0.006964335496399629,0.001321580797713782,0.0015852192459228564,29.65849507499661
1606,C,127454593407063.0,6.074629798919915,9.380414886902212,2.227353487172149,33,1970-01-02 11:24:14.593407063,1.802063,0.53474426,0.088027954,9.445657054285896,1.881789414429089,-108.93460845947266,68.98030853271484,170.566162109375,29708849.0,50354.0,0.2489824125764134,0.0043553887120739735,0.0844678335683164,0.010568210426168855,0.0007135827450208393,0.0030514664115260147,29.70884907899017
1606,C,127454643761067.0,6.548872998919915,8.276791886902211,2.522412687172149,33,1970-01-02 11:24:14.643761067,2.398117,0.8286896,-0.2068634,10.652558686113213,2.54567948986056,-108.90792846679688,68.95709228515625,170.46629333496094,29759203.0,50354.0,0.31782192994121344,-0.048913705055926064,0.11958486297146641,0.01427043293156629,-0.0011218447305891641,0.005137434740782112,29.759203082998283
1606,C,127454694115071.0,2.997008398919915,8.433331886902213,1.7530034871721492,33,1970-01-02 11:24:14.694115071,2.8486023,0.91122437,-0.06741333,10.264540521161777,2.9915563630172297,-108.87464904785156,68.93914794921875,170.34933471679688,29809557.0,50354.0,0.24033665595341341,-0.07275841374692604,0.1076421530214664,0.01405275871706902,-0.0030633389350994077,0.00572089458165407,29.809557086991845
1606,C,127454744469075.0,3.392790858919915,9.359524886902213,1.4458287871721491,33,1970-01-02 11:24:14.744469075,2.9484558,0.957428,0.20133972,9.274615931576859,3.106541109109506,-108.85330200195312,68.9332046508789,170.2142333984375,29859911.0,50354.0,0.1608759759146334,-0.04549844500592602,0.0805370001711664,0.010101330432541815,-0.0029773529328205564,0.004737786539930916,29.859911090999958
