Subject-id_accel,Activity_accel,Timestamp_accel,accel_x,accel_y,accel_z,Segment_accel,DateTime,gyro_x,gyro_y,gyro_z,accel_magnitude,gyro_magnitude,Roll,Pitch,Yaw,Time_Difference,Difference_Microseconds,vx,vy,vz,dx,dy,dz,Time_diff
1629,C,606156018740235.0,3.0323485639488936,9.108017,2.731049338740459,146,1970-01-08 00:22:36.018740235,-0.4608307,-0.76394653,0.1396637,10.225897647095318,0.9030421827684579,101.22478485107422,13.95142650604248,89.56785583496094,15005508.0,50354.0,0.22273746541798262,-0.05832846227200002,0.1525372533011371,0.005607861166828549,-0.0014685356946221445,0.003840430426362729,15.0055089519592
1629,C,606156018740235.0,3.0323485639488936,9.108017,2.731049338740459,146,1970-01-08 00:22:36.018740235,-0.4608307,-0.76394653,0.1396637,10.225897647095318,0.9030421827684579,101.267578125,14.180943489074707,89.54613494873047,15005508.0,0.0,0.0,-0.0,0.0,0.0,-0.0,0.0,15.0055089519592
1629,C,606156018740235.0,3.0323485639488936,9.108017,2.731049338740459,151,1970-01-08 00:22:36.018740235,-0.4608307,-0.76394653,0.1396637,10.225897647095318,0.9030421827684579,101.30928039550781,14.404818534851074,89.52442932128906,15005508.0,0.0,0.0,-0.0,0.0,0.0,-0.0,0.0,15.0055089519592
1629,C,606156018740235.0,3.0323485639488936,9.108017,2.731049338740459,151,1970-01-08 00:22:36.018740235,-0.4608307,-0.76394653,0.1396637,10.225897647095318,0.9030421827684579,101.34989929199219,14.623189926147461,89.50273895263672,15005508.0,0.0,0.0,-0.0,0.0,0.0,-0.0,0.0,15.0055089519592
1629,C,606156069094239.0,0.10432456394889389,9.911316,3.1609962387404593,146,1970-01-08 00:22:36.069094239,-0.68829346,-0.19265747,0.015792847,12.252099910899645,0.7149225145719904,101.31298065185547,14.624308586120605,89.4928207397461,15055862.0,50354.0,0.0789720193410826,-0.014619453059000047,0.14834403150423708,0.001988278530950437,-0.0003680739696664442,0.0037348576811821774,15.055862955981866
1629,C,606156069094239.0,0.10432456394889389,9.911316,3.1609962387404593,146,1970-01-08 00:22:36.069094239,-0.68829346,-0.19265747,0.015792847,12.252099910899645,0.7149225145719904,101.27606201171875,14.625421524047852,89.48289489746094,15055862.0,0.0,0.0,0.0,0.0,0.0,-0.0,0.0,15.055862955981866
1629,C,606156069094239.0,0.10432456394889389,9.911316,3.1609962387404593,151,1970-01-08 00:22:36.069094239,-0.68829346,-0.19265747,0.015792847,12.252099910899645,0.7149225145719904,101.23915100097656,14.6265287399292,89.47298431396484,15055862.0,0.0,0.0,0.0,0.0,0.0,0.0,0.0,15.055862955981866
1629,C,606156069094239.0,0.10432456394889389,9.911316,3.1609962387404593,151,1970-01-08 00:22:36.069094239,-0.68829346,-0.19265747,0.015792847,12.252099910899645,0.7149225145719904,101.20222473144531,14.627620697021484,89.46305847167969,15055862.0,0.0,0.0,0.0,0.0,0.0,0.0,0.0,15.055862955981866
1629,C,606156119448243.0,2.5982361639488936,12.937302,3.932083838740459,146,1970-01-08 00:22:36.119448243,-0.6878967,0.8053131,0.055343628,13.728876896463337,1.0605630467174982,101.02750396728516,14.726181983947754,89.46516418457031,15106216.0,50354.0,0.0680423714462826,0.08179045538599997,0.17858247711073708,0.001713102785903057,0.002059238295253321,0.004496171026217028,15.10621696000453
1629,C,606156119448243.0,2.5982361639488936,12.937302,3.932083838740459,146,1970-01-08 00:22:36.119448243,-0.6878967,0.8053131,0.055343628,13.728876896463337,1.0605630467174982,100.85707092285156,14.822317123413086,89.4681625366211,15106216.0,0.0,0.0,0.0,0.0,0.0,0.0,0.0,15.10621696000453
1629,C,606156119448243.0,2.5982361639488936,12.937302,3.932083838740459,151,1970-01-08 00:22:36.119448243,-0.6878967,0.8053131,0.055343628,13.728876896463337,1.0605630467174982,100.69078063964844,14.9160737991333,89.47201538085938,15106216.0,0.0,0.0,0.0,0.0,0.0,0.0,0.0,15.10621696000453
1629,C,606156119448243.0,2.5982361639488936,12.937302,3.932083838740459,151,1970-01-08 00:22:36.119448243,-0.6878967,0.8053131,0.055343628,13.728876896463337,1.0605630467174982,100.52857208251953,15.00751781463623,89.47673797607422,15106216.0,0.0,0.0,0.0,0.0,0.0,0.0,0.0,15.10621696000453
1629,C,606156169802247.0,5.2592926639488935,14.955765,5.7602851687404595,146,1970-01-08 00:22:36.169802247,-0.22727966,0.71232605,0.2472229,15.078184463647352,0.7875173697403303,100.52597045898438,14.988856315612793,89.5106430053711,15156570.0,50354.0,0.1978290032999826,0.20879454785899995,0.2440247745013471,0.0049807408160836624,0.005256820331446042,0.006143811747620416,15.156570964027196
1629,C,606156169802247.0,5.2592926639488935,14.955765,5.7602851687404595,146,1970-01-08 00:22:36.169802247,-0.22727966,0.71232605,0.2472229,15.078184463647352,0.7875173697403303,100.52338409423828,14.970199584960938,89.54456329345703,15156570.0,0.0,0.0,0.0,0.0,0.0,0.0,0.0,15.156570964027196
1629,C,606156169802247.0,5.2592926639488935,14.955765,5.7602851687404595,151,1970-01-08 00:22:36.169802247,-0.22727966,0.71232605,0.2472229,15.078184463647352,0.7875173697403303,100.52076721191406,14.951536178588867,89.57846069335938,15156570.0,0.0,0.0,0.0,0.0,0.0,0.0,0.0,15.156570964027196
1629,C,606156169802247.0,5.2592926639488935,14.955765,5.7602851687404595,151,1970-01-08 00:22:36.169802247,-0.22727966,0.71232605,0.2472229,15.078184463647352,0.7875173697403303,100.51815032958984,14.932877540588379,89.61238098144531,15156570.0,0.0,0.0,0.0,0.0,0.0,0.0,0.0,15.156570964027196
1629,C,606156220156250.0,6.076355063948894,12.670395,4.805283338740459,146,1970-01-08 00:22:36.220156250,0.43258667,0.6875458,-0.06378174,12.710467716924267,0.8148119810832168,100.54895782470703,14.929730415344238,89.64796447753906,15206924.0,50354.0,0.2853976028452826,0.20207463031999995,0.2660093183128471,0.00718545544683568,0.005087632967566639,0.006697316607162551,15.206924967002124
1629,C,606156220156250.0,6.076355063948894,12.670395,4.805283338740459,146,1970-01-08 00:22:36.220156250,0.43258667,0.6875458,-0.06378174,12.710467716924267,0.8148119810832168,100.57975006103516,14.926563262939453,89.68353271484375,15206924.0,0.0,0.0,0.0,0.0,0.0,0.0,0.0,15.206924967002124
1629,C,606156220156250.0,6.076355063948894,12.670395,4.805283338740459,151,1970-01-08 00:22:36.220156250,0.43258667,0.6875458,-0.06378174,12.710467716924267,0.8148119810832168,100.61054229736328,14.923381805419922,89.7191162109375,15206924.0,0.0,0.0,0.0,0.0,0.0,0.0,0.0,15.206924967002124
1629,C,606156220156250.0,6.076355063948894,12.670395,4.805283338740459,151,1970-01-08 00:22:36.220156250,0.43258667,0.6875458,-0.06378174,12.710467716924267,0.8148119810832168,100.64132690429688,14.920178413391113,89.75469207763672,15206924.0,0.0,0.0,0.0,0.0,0.0,0.0,0.0,15.206924967002124
1629,C,606156270510254.0,7.668716563948894,10.235138,4.156281238740459,146,1970-01-08 00:22:36.270510254,1.3757782,0.13409424,-0.6525879,10.294687126079697,1.528599976456505,100.71349334716797,14.951000213623047,89.76776885986328,15257278.0,50354.0,0.3460596683755826,0.08322340434099992,0.22562531136723707,0.008712744270692043,0.0020953156510933554,0.005680568464292928,15.257278971024789
1629,C,606156270510254.0,7.668716563948894,10.235138,4.156281238740459,146,1970-01-08 00:22:36.270510254,1.3757782,0.13409424,-0.6525879,10.294687126079697,1.528599976456505,100.78567504882812,14.981810569763184,89.78089141845703,15257278.0,0.0,0.0,0.0,0.0,0.0,0.0,0.0,15.257278971024789
1629,C,606156270510254.0,7.668716563948894,10.235138,4.156281238740459,151,1970-01-08 00:22:36.270510254,1.3757782,0.13409424,-0.6525879,10.294687126079697,1.528599976456505,100.85785675048828,15.012602806091309,89.7940444946289,15257278.0,0.0,0.0,0.0,0.0,0.0,0.0,0.0,15.257278971024789
1629,C,606156270510254.0,7.668716563948894,10.235138,4.156281238740459,151,1970-01-08 00:22:36.270510254,1.3757782,0.13409424,-0.6525879,10.294687126079697,1.528599976456505,100.9300765991211,15.043379783630371,89.80725860595703,15257278.0,0.0,0.0,0.0,0.0,0.0,0.0,0.0,15.257278971024789
1629,C,606156320864258.0,4.172165063948894,8.426071,3.337097938740459,146,1970-01-08 00:22:36.320864258,1.6291962,-0.007858276,-1.3511047,9.071072218704096,2.1165599261438883,101.03221130371094,15.195911407470703,89.82474517822266,15307632.0,50354.0,0.2981178767455826,-0.02363594100700005,0.18866080755143708,0.007505713782823533,-0.0005950820867332403,0.004749913151722532,15.307632974931039
1629,C,606156320864258.0,4.172165063948894,8.426071,3.337097938740459,146,1970-01-08 00:22:36.320864258,1.6291962,-0.007858276,-1.3511047,9.071072218704096,2.1165599261438883,101.13191986083984,15.344608306884766,89.84175872802734,15307632.0,0.0,0.0,-0.0,0.0,0.0,-0.0,0.0,15.307632974931039
1629,C,606156320864258.0,4.172165063948894,8.426071,3.337097938740459,151,1970-01-08 00:22:36.320864258,1.6291962,-0.007858276,-1.3511047,9.071072218704096,2.1165599261438883,101.22925567626953,15.489566802978516,89.85829162597656,15307632.0,0.0,0.0,-0.0,0.0,0.0,-0.0,0.0,15.307632974931039
1629,C,606156320864258.0,4.172165063948894,8.426071,3.337097938740459,151,1970-01-08 00:22:36.320864258,1.6291962,-0.007858276,-1.3511047,9.071072218704096,2.1165599261438883,101.32427215576172,15.630880355834961,89.87432861328125,15307632.0,0.0,0.0,-0.0,0.0,0.0,-0.0,0.0,15.307632974931039
1629,C,606156371218262.0,1.5474855639488938,8.80983,2.835114238740459,146,1970-01-08 00:22:36.371218262,1.0838013,1.6569977,-1.3066711,10.624631893549296,2.3722681128536443,101.40482330322266,15.678601264953613,89.97203826904297,15357986.0,50354.0,0.1440036438585826,-0.05952092052300004,0.1553977859924371,0.0036255797414275347,-0.001498558216007572,0.003912450057931589,15.357986978953704
1629,C,606156371218262.0,1.5474855639488938,8.80983,2.835114238740459,146,1970-01-08 00:22:36.371218262,1.0838013,1.6569977,-1.3066711,10.624631893549296,2.3722681128536443,101.48548889160156,15.72619915008545,90.06986236572266,15357986.0,0.0,0.0,-0.0,0.0,0.0,-0.0,0.0,15.357986978953704
1629,C,606156371218262.0,1.5474855639488938,8.80983,2.835114238740459,151,1970-01-08 00:22:36.371218262,1.0838013,1.6569977,-1.3066711,10.624631893549296,2.3722681128536443,101.56623840332031,15.773658752441406,90.16776275634766,15357986.0,0.0,0.0,-0.0,0.0,0.0,-0.0,0.0,15.357986978953704
1629,C,606156371218262.0,1.5474855639488938,8.80983,2.835114238740459,151,1970-01-08 00:22:36.371218262,1.0838013,1.6569977,-1.3066711,10.624631893549296,2.3722681128536443,101.64710998535156,15.820988655090332,90.26576232910156,15357986.0,0.0,0.0,-0.0,0.0,0.0,-0.0,0.0,15.357986978953704
1629,C,606156421572266.0,5.690384063948894,8.14856,3.7508857387404593,146,1970-01-08 00:22:36.421572266,0.6251831,2.0829926,-0.57577515,8.366001064891535,2.2497175608368916,101.64629364013672,15.666977882385254,90.36075592041016,15408340.0,50354.0,0.18222784362158262,-0.06650781497000005,0.1658157214330371,0.0045879504188605855,-0.0016744672574996913,0.004174742418519575,15.40834098297637
1629,C,606156421572266.0,5.690384063948894,8.14856,3.7508857387404593,146,1970-01-08 00:22:36.421572266,0.6251831,2.0829926,-0.57577515,8.366001064891535,2.2497175608368916,101.6452407836914,15.516792297363281,90.45584106445312,15408340.0,0.0,0.0,-0.0,0.0,0.0,-0.0,0.0,15.40834098297637
1629,C,606156421572266.0,5.690384063948894,8.14856,3.7508857387404593,151,1970-01-08 00:22:36.421572266,0.6251831,2.0829926,-0.57577515,8.366001064891535,2.2497175608368916,101.64393615722656,15.370332717895508,90.55101776123047,15408340.0,0.0,0.0,-0.0,0.0,0.0,-0.0,0.0,15.40834098297637
1629,C,606156421572266.0,5.690384063948894,8.14856,3.7508857387404593,151,1970-01-08 00:22:36.421572266,0.6251831,2.0829926,-0.57577515,8.366001064891535,2.2497175608368916,101.6424331665039,15.227507591247559,90.64629364013672,15408340.0,0.0,0.0,-0.0,0.0,0.0,-0.0,0.0,15.40834098297637
1629,C,606156471926270.0,5.934158463948894,7.203842,2.227875538740459,146,1970-01-08 00:22:36.471926270,0.7172241,1.2916107,-1.0101166,7.824760115896881,1.789693872026962,101.69831085205078,15.263907432556152,90.72242736816406,15458694.0,50354.0,0.2926711072248826,-0.10694177484600005,0.1505272726831371,0.0073685804666008695,-0.0026924730652977433,0.003789825144343343,15.458694986999035
1629,C,606156471926270.0,5.934158463948894,7.203842,2.227875538740459,146,1970-01-08 00:22:36.471926270,0.7172241,1.2916107,-1.0101166,7.824760115896881,1.789693872026962,101.75425720214844,15.300237655639648,90.79862213134766,15458694.0,0.0,0.0,-0.0,0.0,0.0,-0.0,0.0,15.458694986999035
1629,C,606156471926270.0,5.934158463948894,7.203842,2.227875538740459,151,1970-01-08 00:22:36.471926270,0.7172241,1.2916107,-1.0101166,7.824760115896881,1.789693872026962,101.81025695800781,15.336488723754883,90.87486267089844,15458694.0,0.0,0.0,-0.0,0.0,0.0,-0.0,0.0,15.458694986999035
1629,C,606156471926270.0,5.934158463948894,7.203842,2.227875538740459,151,1970-01-08 00:22:36.471926270,0.7172241,1.2916107,-1.0101166,7.824760115896881,1.789693872026962,101.86632537841797,15.372673034667969,90.95116424560547,15458694.0,0.0,0.0,-0.0,0.0,0.0,-0.0,0.0,15.458694986999035
1629,C,606156522280274.0,3.7092438639488936,5.701538,0.6661842387404588,146,1970-01-08 00:22:36.522280274,0.52708435,1.0988464,-0.7806244,7.941789014830461,1.4472925677565136,101.90969848632812,15.399548530578613,91.01527404785156,15509048.0,50354.0,0.2427919404094826,-0.16855044774000005,0.07286374301763707,0.006112772683689544,-0.004243594622749982,0.0018344904579550485,15.5090489910217
1629,C,606156522280274.0,3.7092438639488936,5.701538,0.6661842387404588,146,1970-01-08 00:22:36.522280274,0.52708435,1.0988464,-0.7806244,7.941789014830461,1.4472925677565136,101.95309448242188,15.426377296447754,91.07939910888672,15509048.0,0.0,0.0,-0.0,0.0,0.0,-0.0,0.0,15.5090489910217
1629,C,606156522280274.0,3.7092438639488936,5.701538,0.6661842387404588,151,1970-01-08 00:22:36.522280274,0.52708435,1.0988464,-0.7806244,7.941789014830461,1.4472925677565136,101.99652099609375,15.453164100646973,91.1435546875,15509048.0,0.0,0.0,-0.0,0.0,0.0,-0.0,0.0,15.5090489910217
1629,C,606156522280274.0,3.7092438639488936,5.701538,0.6661842387404588,151,1970-01-08 00:22:36.522280274,0.52708435,1.0988464,-0.7806244,7.941789014830461,1.4472925677565136,102.03999328613281,15.479898452758789,91.2077407836914,15509048.0,0.0,0.0,-0.0,0.0,0.0,-0.0,0.0,15.5090489910217
1629,C,606156572634278.0,2.7608338639488936,4.827545,-0.41046066125954095,146,1970-01-08 00:22:36.572634278,-0.06341553,1.0359344,-0.2895813,8.470539907898047,1.0775151692009866,102.05169677734375,15.48325252532959,91.26344299316406,15559402.0,50354.0,0.1628971469552826,-0.22837847730900004,0.00643835251023707,0.00410126146889315,-0.005749884923208695,0.0001620984011502387,15.55940299492795
1629,C,606156572634278.0,2.7608338639488936,4.827545,-0.41046066125954095,146,1970-01-08 00:22:36.572634278,-0.06341553,1.0359344,-0.2895813,8.470539907898047,1.0775151692009866,102.06338500976562,15.486592292785645,91.31914520263672,15559402.0,0.0,0.0,-0.0,-0.0,0.0,-0.0,0.0,15.55940299492795
1629,C,606156572634278.0,2.7608338639488936,4.827545,-0.41046066125954095,151,1970-01-08 00:22:36.572634278,-0.06341553,1.0359344,-0.2895813,8.470539907898047,1.0775151692009866,102.07508850097656,15.489920616149902,91.37484741210938,15559402.0,0.0,0.0,-0.0,-0.0,0.0,-0.0,-0.0,15.55940299492795
1629,C,606156572634278.0,2.7608338639488936,4.827545,-0.41046066125954095,151,1970-01-08 00:22:36.572634278,-0.06341553,1.0359344,-0.2895813,8.470539907898047,1.0775151692009866,102.08679962158203,15.493241310119629,91.43054962158203,15559402.0,0.0,0.0,-0.0,-0.0,0.0,-0.0,-0.0,15.55940299492795
1629,C,606156622988282.0,3.661483863948894,5.446045,-0.6653587612595411,146,1970-01-08 00:22:36.622988282,-0.37243652,0.64151,-0.071777344,8.605295092587005,0.7452489709093228,102.07707214355469,15.490033149719238,91.46388244628906,15609756.0,50354.0,0.16169469343528262,-0.23481102457000008,-0.02708590560076293,0.00407098729662011,-0.005911837165598893,-0.0006819418453104083,15.609756998950616
1629,C,606156622988282.0,3.661483863948894,5.446045,-0.6653587612595411,146,1970-01-08 00:22:36.622988282,-0.37243652,0.64151,-0.071777344,8.605295092587005,0.7452489709093228,102.0673599243164,15.486834526062012,91.49720764160156,15609756.0,0.0,0.0,-0.0,-0.0,0.0,-0.0,-0.0,15.609756998950616
1629,C,606156622988282.0,3.661483863948894,5.446045,-0.6653587612595411,151,1970-01-08 00:22:36.622988282,-0.37243652,0.64151,-0.071777344,8.605295092587005,0.7452489709093228,102.05762481689453,15.483636856079102,91.53052520751953,15609756.0,0.0,0.0,-0.0,-0.0,0.0,-0.0,-0.0,15.609756998950616
1629,C,606156622988282.0,3.661483863948894,5.446045,-0.6653587612595411,151,1970-01-08 00:22:36.622988282,-0.37243652,0.64151,-0.071777344,8.605295092587005,0.7452489709093228,102.04790496826172,15.480446815490723,91.56385803222656,15609756.0,0.0,0.0,-0.0,-0.0,0.0,-0.0,-0.0,15.609756998950616
1629,C,606156673342286.0,3.4351349639488937,6.259781,0.3603219387404595,146,1970-01-08 00:22:36.673342286,-0.5937805,-0.42086792,-0.30049133,8.628095415028357,0.7874008684720543,102.01337432861328,15.49952507019043,91.5457534790039,15660111.0,50355.0,0.17867512053939652,-0.198755565885,-0.007680064598974176,0.004498592847380655,-0.005004168260069587,-0.0001933648264406723,15.66011100297328
1629,C,606156673342286.0,3.4351349639488937,6.259781,0.3603219387404595,146,1970-01-08 00:22:36.673342286,-0.5937805,-0.42086792,-0.30049133,8.628095415028357,0.7874008684720543,101.97884368896484,15.518595695495605,91.52764129638672,15660111.0,0.0,0.0,-0.0,0.0,0.0,-0.0,-0.0,15.66011100297328
1629,C,606156673342286.0,3.4351349639488937,6.259781,0.3603219387404595,151,1970-01-08 00:22:36.673342286,-0.5937805,-0.42086792,-0.30049133,8.628095415028357,0.7874008684720543,101.94429779052734,15.537652969360352,91.5094985961914,15660111.0,0.0,0.0,-0.0,0.0,0.0,-0.0,0.0,15.66011100297328
1629,C,606156673342286.0,3.4351349639488937,6.259781,0.3603219387404595,151,1970-01-08 00:22:36.673342286,-0.5937805,-0.42086792,-0.30049133,8.628095415028357,0.7874008684720543,101.90975189208984,15.556702613830566,91.4913558959961,15660111.0,0.0,0.0,-0.0,0.0,0.0,-0.0,0.0,15.66011100297328
1629,C,606156723696290.0,3.946380763948894,9.852203,3.778809338740459,146,1970-01-08 00:22:36.723696290,-1.1290131,-1.0270996,0.13598633,10.409809732202582,1.5323499764213915,101.72917938232422,15.606201171875,91.40824127197266,15710465.0,50354.0,0.1858444214812826,-0.08781777883200005,0.1042109081731371,0.004679004999634253,-0.0022109882176532653,0.002623718035075073,15.710465006995946
1629,C,606156723696290.0,3.946380763948894,9.852203,3.778809338740459,146,1970-01-08 00:22:36.723696290,-1.1290131,-1.0270996,0.13598633,10.409809732202582,1.5323499764213915,101.5530014038086,15.65422248840332,91.32620239257812,15710465.0,0.0,0.0,0.0,0.0,0.0,-0.0,0.0,15.710465006995946
1629,C,606156723696290.0,3.946380763948894,9.852203,3.778809338740459,151,1970-01-08 00:22:36.723696290,-1.1290131,-1.0270996,0.13598633,10.409809732202582,1.5323499764213915,101.38108825683594,15.700807571411133,91.24520874023438,15710465.0,0.0,0.0,0.0,0.0,0.0,0.0,0.0,15.710465006995946
1629,C,606156723696290.0,3.946380763948894,9.852203,3.778809338740459,151,1970-01-08 00:22:36.723696290,-1.1290131,-1.0270996,0.13598633,10.409809732202582,1.5323499764213915,101.21337127685547,15.74599838256836,91.16527557373047,15710465.0,0.0,0.0,0.0,0.0,0.0,0.0,0.0,15.710465006995946
1629,C,606156774050293.0,3.6468659639488936,10.352707,3.023255138740459,146,1970-01-08 00:22:36.774050293,-0.8378296,-1.1900024,0.53364563,11.08828020525157,1.5501102570656118,101.15304565429688,15.78439712524414,91.09909057617188,15760819.0,50354.0,0.1911751728682826,0.015229819069999963,0.17125557734953709,0.004813217327304751,0.00038344115472538907,0.004311701670929296,15.760819009970874
1629,C,606156774050293.0,3.6468659639488936,10.352707,3.023255138740459,146,1970-01-08 00:22:36.774050293,-0.8378296,-1.1900024,0.53364563,11.08828020525157,1.5501102570656118,101.09414672851562,15.821758270263672,91.03329467773438,15760819.0,0.0,0.0,0.0,0.0,0.0,0.0,0.0,15.760819009970874
1629,C,606156774050293.0,3.6468659639488936,10.352707,3.023255138740459,151,1970-01-08 00:22:36.774050293,-0.8378296,-1.1900024,0.53364563,11.08828020525157,1.5501102570656118,101.03669738769531,15.858134269714355,90.96792602539062,15760819.0,0.0,0.0,0.0,0.0,0.0,0.0,0.0,15.760819009970874
1629,C,606156774050293.0,3.6468659639488936,10.352707,3.023255138740459,151,1970-01-08 00:22:36.774050293,-0.8378296,-1.1900024,0.53364563,11.08828020525157,1.5501102570656118,100.98062896728516,15.893535614013672,90.9029541015625,15760819.0,0.0,0.0,0.0,0.0,0.0,0.0,0.0,15.760819009970874
1629,C,606156824404297.0,2.777984563948894,7.03862,2.5607612387404592,146,1970-01-08 00:22:36.824404297,-0.5667877,-0.6850281,0.2655182,8.60752570744201,0.9279071662575626,100.94198608398438,15.887012481689453,90.8653564453125,15811173.0,50354.0,0.1617584617408826,-0.05560776012100003,0.14058878033583708,0.0040725927912502015,-0.0014000365765664178,0.00353960372251537,15.811173013993539
1629,C,606156824404297.0,2.777984563948894,7.03862,2.5607612387404592,146,1970-01-08 00:22:36.824404297,-0.5667877,-0.6850281,0.2655182,8.60752570744201,0.9279071662575626,100.90336608886719,15.880465507507324,90.82777404785156,15811173.0,0.0,0.0,-0.0,0.0,0.0,-0.0,0.0,15.811173013993539
1629,C,606156824404297.0,2.777984563948894,7.03862,2.5607612387404592,151,1970-01-08 00:22:36.824404297,-0.5667877,-0.6850281,0.2655182,8.60752570744201,0.9279071662575626,100.86475372314453,15.873900413513184,90.79020690917969,15811173.0,0.0,0.0,-0.0,0.0,0.0,-0.0,0.0,15.811173013993539
1629,C,606156824404297.0,2.777984563948894,7.03862,2.5607612387404592,151,1970-01-08 00:22:36.824404297,-0.5667877,-0.6850281,0.2655182,8.60752570744201,0.9279071662575626,100.82613372802734,15.867307662963867,90.75263977050781,15811173.0,0.0,0.0,-0.0,0.0,0.0,-0.0,0.0,15.811173013993539
1629,C,606156874758301.0,4.142852863948894,9.494568,3.522232838740459,146,1970-01-08 00:22:36.874758301,-0.7249603,-0.4300232,0.59729004,10.049573285669242,1.033074431489586,100.74358367919922,15.865660667419434,90.71427154541016,15861527.0,50354.0,0.1742459239221826,-0.07721312572400006,0.1531515418887371,0.004386989626588792,-0.0019439948663531497,0.0038558963701327345,15.861527018016204
1629,C,606156874758301.0,4.142852863948894,9.494568,3.522232838740459,146,1970-01-08 00:22:36.874758301,-0.7249603,-0.4300232,0.59729004,10.049573285669242,1.033074431489586,100.66309356689453,15.86400318145752,90.67649841308594,15861527.0,0.0,0.0,-0.0,0.0,0.0,-0.0,0.0,15.861527018016204
1629,C,606156874758301.0,4.142852863948894,9.494568,3.522232838740459,151,1970-01-08 00:22:36.874758301,-0.7249603,-0.4300232,0.59729004,10.049573285669242,1.033074431489586,100.58462524414062,15.862336158752441,90.63932037353516,15861527.0,0.0,0.0,-0.0,0.0,0.0,-0.0,0.0,15.861527018016204
1629,C,606156874758301.0,4.142852863948894,9.494568,3.522232838740459,151,1970-01-08 00:22:36.874758301,-0.7249603,-0.4300232,0.59729004,10.049573285669242,1.033074431489586,100.50811004638672,15.860665321350098,90.60271453857422,15861527.0,0.0,0.0,-0.0,0.0,0.0,-0.0,0.0,15.861527018016204
1629,C,606156925112305.0,5.374450763948894,8.729034,3.207215138740459,146,1970-01-08 00:22:36.925112305,-0.39312744,-0.9889221,0.5252533,9.081698923937289,1.1867633012148016,100.51294708251953,15.713301658630371,90.55802917480469,15911881.0,50354.0,0.23961715343958265,-0.03465357244600005,0.16942731172903708,0.006032841072148373,-0.0008724729934729433,0.004265671427401967,15.91188102203887
1629,C,606156925112305.0,5.374450763948894,8.729034,3.207215138740459,146,1970-01-08 00:22:36.925112305,-0.39312744,-0.9889221,0.5252533,9.081698923937289,1.1867633012148016,100.51776885986328,15.569608688354492,90.51324462890625,15911881.0,0.0,0.0,-0.0,0.0,0.0,-0.0,0.0,15.91188102203887
1629,C,606156925112305.0,5.374450763948894,8.729034,3.207215138740459,151,1970-01-08 00:22:36.925112305,-0.39312744,-0.9889221,0.5252533,9.081698923937289,1.1867633012148016,100.52256774902344,15.429491996765137,90.46834564208984,15911881.0,0.0,0.0,-0.0,0.0,0.0,-0.0,0.0,15.91188102203887
1629,C,606156925112305.0,5.374450763948894,8.729034,3.207215138740459,151,1970-01-08 00:22:36.925112305,-0.39312744,-0.9889221,0.5252533,9.081698923937289,1.1867633012148016,100.52738189697266,15.292871475219727,90.42337036132812,15911881.0,0.0,0.0,-0.0,0.0,0.0,-0.0,0.0,15.91188102203887
1629,C,606156975466309.0,4.790069663948893,7.3650665,3.3448493387404588,146,1970-01-08 00:22:36.975466309,-0.16513062,-1.1134186,0.4140625,7.894914686188232,1.199340174593428,100.56939697265625,15.31641960144043,90.38019561767578,15962235.0,50354.0,0.25591213081318265,-0.08826803171150002,0.16496132734953708,0.0064430997174835,-0.002222324234400436,0.004153231338679296,15.96223502594512
1629,C,606156975466309.0,4.790069663948893,7.3650665,3.3448493387404588,146,1970-01-08 00:22:36.975466309,-0.16513062,-1.1134186,0.4140625,7.894914686188232,1.199340174593428,100.61034393310547,15.339408874511719,90.33675384521484,15962235.0,0.0,0.0,-0.0,0.0,0.0,-0.0,0.0,15.96223502594512
1629,C,606156975466309.0,4.790069663948893,7.3650665,3.3448493387404588,151,1970-01-08 00:22:36.975466309,-0.16513062,-1.1134186,0.4140625,7.894914686188232,1.199340174593428,100.65026092529297,15.361856460571289,90.29305267333984,15962235.0,0.0,0.0,-0.0,0.0,0.0,-0.0,0.0,15.96223502594512
1629,C,606156975466309.0,4.790069663948893,7.3650665,3.3448493387404588,151,1970-01-08 00:22:36.975466309,-0.16513062,-1.1134186,0.4140625,7.894914686188232,1.199340174593428,100.68917846679688,15.383770942687988,90.2491226196289,15962235.0,0.0,0.0,-0.0,0.0,0.0,-0.0,0.0,15.96223502594512
1629,C,606157025820313.0,4.227478163948893,8.244476,3.533341238740459,146,1970-01-08 00:22:37.025820313,-0.2121582,-0.9101715,0.3471985,8.84869934429896,0.9969804710433099,100.66243743896484,15.455350875854492,90.19859313964844,16012588.999999998,50353.99999999814,0.22703480166297416,-0.1004677484774963,0.17317220416923068,0.005716055201468489,-0.002529476503417831,0.0043599565843685595,16.012589029967785
1629,C,606157025820313.0,4.227478163948893,8.244476,3.533341238740459,146,1970-01-08 00:22:37.025820313,-0.2121582,-0.9101715,0.3471985,8.84869934429896,0.9969804710433099,100.63629913330078,15.525130271911621,90.14824676513672,16012588.999999998,0.0,0.0,-0.0,0.0,0.0,-0.0,0.0,16.012589029967785
1629,C,606157025820313.0,4.227478163948893,8.244476,3.533341238740459,151,1970-01-08 00:22:37.025820313,-0.2121582,-0.9101715,0.3471985,8.84869934429896,0.9969804710433099,100.61073303222656,15.593138694763184,90.09805297851562,16012588.999999998,0.0,0.0,-0.0,0.0,0.0,-0.0,0.0,16.012589029967785
1629,C,606157025820313.0,4.227478163948893,8.244476,3.533341238740459,151,1970-01-08 00:22:37.025820313,-0.2121582,-0.9101715,0.3471985,8.84869934429896,0.9969804710433099,100.58574676513672,15.659433364868164,90.04800415039062,16012588.999999998,0.0,0.0,-0.0,0.0,0.0,-0.0,0.0,16.012589029967785
1629,C,606157076174317.0,3.4789277639488936,8.3606415,3.533554838740459,146,1970-01-08 00:22:37.076174317,-0.3126068,-0.4337921,0.14768982,9.220203000016339,0.5547169371492837,100.55987548828125,15.833720207214355,90.02336120605469,16062943.0,50354.00000000186,0.19402418204668975,-0.07540215670250282,0.17792324254274364,0.004884946831389688,-0.0018984000992989837,0.004479573477498822,16.06294303399045
1629,C,606157076174317.0,3.4789277639488936,8.3606415,3.533554838740459,146,1970-01-08 00:22:37.076174317,-0.3126068,-0.4337921,0.14768982,9.220203000016339,0.5547169371492837,100.53456115722656,16.003665924072266,89.99887084960938,16062943.0,0.0,0.0,-0.0,0.0,0.0,-0.0,0.0,16.06294303399045
1629,C,606157076174317.0,3.4789277639488936,8.3606415,3.533554838740459,151,1970-01-08 00:22:37.076174317,-0.3126068,-0.4337921,0.14768982,9.220203000016339,0.5547169371492837,100.50975799560547,16.169384002685547,89.9745101928711,16062943.0,0.0,0.0,-0.0,0.0,0.0,-0.0,0.0,16.06294303399045
1629,C,606157076174317.0,3.4789277639488936,8.3606415,3.533554838740459,151,1970-01-08 00:22:37.076174317,-0.3126068,-0.4337921,0.14768982,9.220203000016339,0.5547169371492837,100.48551177978516,16.330982208251953,89.95030212402344,16062943.0,0.0,0.0,-0.0,0.0,0.0,-0.0,0.0,16.06294303399045
1629,C,606157126528321.0,4.191253763948893,9.243057,3.483719638740459,146,1970-01-08 00:22:37.126528321,-0.21981812,-0.08433533,0.15174866,9.804237972281168,0.280107317966416,100.45457458496094,16.33970832824707,89.93939208984375,16113297.0,50354.0,0.1931121603278826,-0.05026088286550003,0.17667391951953706,0.0048619848605751005,-0.0012654182479046943,0.004448119271743385,16.113297038013116
1629,C,606157126528321.0,4.191253763948893,9.243057,3.483719638740459,146,1970-01-08 00:22:37.126528321,-0.21981812,-0.08433533,0.15174866,9.804237972281168,0.280107317966416,100.42439270019531,16.34820556640625,89.9286880493164,16113297.0,0.0,0.0,-0.0,0.0,0.0,-0.0,0.0,16.113297038013116
1629,C,606157126528321.0,4.191253763948893,9.243057,3.483719638740459,151,1970-01-08 00:22:37.126528321,-0.21981812,-0.08433533,0.15174866,9.804237972281168,0.280107317966416,100.39497375488281,16.356481552124023,89.91819763183594,16113297.0,0.0,0.0,-0.0,0.0,0.0,-0.0,0.0,16.113297038013116
1629,C,606157126528321.0,4.191253763948893,9.243057,3.483719638740459,151,1970-01-08 00:22:37.126528321,-0.21981812,-0.08433533,0.15174866,9.804237972281168,0.280107317966416,100.36629486083984,16.36454963684082,89.90792846679688,16113297.0,0.0,0.0,-0.0,0.0,0.0,-0.0,0.0,16.113297038013116
1629,C,606157176882325.0,4.589553963948894,8.702774,3.4079139387404593,146,1970-01-08 00:22:37.176882325,-0.09941101,-0.25117493,0.26026917,9.195432736435766,0.3751152292592423,100.3685073852539,16.33273696899414,89.8958511352539,16163651.000000002,50354.00000000186,0.2210743961652908,-0.041647012913001574,0.1735106585802435,0.005565990072253732,-0.0010485468441106794,0.004368477851074953,16.16365104203578
1629,C,606157176882325.0,4.589553963948894,8.702774,3.4079139387404593,146,1970-01-08 00:22:37.176882325,-0.09941101,-0.25117493,0.26026917,9.195432736435766,0.3751152292592423,100.37068939208984,16.30172348022461,89.88375854492188,16163651.000000002,0.0,0.0,-0.0,0.0,0.0,-0.0,0.0,16.16365104203578
1629,C,606157176882325.0,4.589553963948894,8.702774,3.4079139387404593,151,1970-01-08 00:22:37.176882325,-0.09941101,-0.25117493,0.26026917,9.195432736435766,0.3751152292592423,100.3728256225586,16.271484375,89.87165069580078,16163651.000000002,0.0,0.0,-0.0,0.0,0.0,-0.0,0.0,16.16365104203578
1629,C,606157176882325.0,4.589553963948894,8.702774,3.4079139387404593,151,1970-01-08 00:22:37.176882325,-0.09941101,-0.25117493,0.26026917,9.195432736435766,0.3751152292592423,100.3749008178711,16.24199676513672,89.8595199584961,16163651.000000002,0.0,0.0,-0.0,0.0,0.0,-0.0,0.0,16.16365104203578
1629,C,606157227236329.0,3.7335358639488936,8.51123,3.3135536387404594,146,1970-01-08 00:22:37.227236329,-0.22441101,-0.22763062,0.3237915,9.301884416033204,0.4549911384225571,100.39114379882812,16.34406089782715,89.85366821289062,16214005.0,50353.99999999814,0.20955043259697484,-0.06007222129199783,0.16922638919823083,0.00527585124149384,-0.0015124383154685734,0.0042606128008437,16.21400504594203
1629,C,606157227236329.0,3.7335358639488936,8.51123,3.3135536387404594,146,1970-01-08 00:22:37.227236329,-0.22441101,-0.22763062,0.3237915,9.301884416033204,0.4549911384225571,100.406982421875,16.443586349487305,89.84774780273438,16214005.0,0.0,0.0,-0.0,0.0,0.0,-0.0,0.0,16.21400504594203
1629,C,606157227236329.0,3.7335358639488936,8.51123,3.3135536387404594,151,1970-01-08 00:22:37.227236329,-0.22441101,-0.22763062,0.3237915,9.301884416033204,0.4549911384225571,100.42241668701172,16.54062843322754,89.84176635742188,16214005.0,0.0,0.0,-0.0,0.0,0.0,-0.0,0.0,16.21400504594203
1629,C,606157227236329.0,3.7335358639488936,8.51123,3.3135536387404594,151,1970-01-08 00:22:37.227236329,-0.22441101,-0.22763062,0.3237915,9.301884416033204,0.4549911384225571,100.43746185302734,16.63526153564453,89.8357162475586,16214005.0,0.0,0.0,-0.0,0.0,0.0,-0.0,0.0,16.21400504594203
1629,C,606157277590332.0,2.597442563948894,9.116318,3.1339424387404593,146,1970-01-08 00:22:37.277590332,-0.3476715,0.037231445,0.25958252,10.328560812749531,0.43548218918641024,100.45677947998047,16.843782424926758,89.84574890136719,16264358.999999998,50353.99999999814,0.1593950438791767,-0.04966042400399822,0.16232860874273108,0.004013089019745883,-0.001250300495148617,0.004086947382315589,16.264359049033374
1629,C,606157277590332.0,2.597442563948894,9.116318,3.1339424387404593,146,1970-01-08 00:22:37.277590332,-0.3476715,0.037231445,0.25958252,10.328560812749531,0.43548218918641024,100.47566986083984,17.047147750854492,89.85578918457031,16264358.999999998,0.0,0.0,-0.0,0.0,0.0,-0.0,0.0,16.264359049033374
1629,C,606157277590332.0,2.597442563948894,9.116318,3.1339424387404593,151,1970-01-08 00:22:37.277590332,-0.3476715,0.037231445,0.25958252,10.328560812749531,0.43548218918641024,100.49415588378906,17.2454891204834,89.86582946777344,16264358.999999998,0.0,0.0,-0.0,0.0,0.0,-0.0,0.0,16.264359049033374
1629,C,606157277590332.0,2.597442563948894,9.116318,3.1339424387404593,151,1970-01-08 00:22:37.277590332,-0.3476715,0.037231445,0.25958252,10.328560812749531,0.43548218918641024,100.5122299194336,17.438920974731445,89.87586212158203,16264358.999999998,0.0,0.0,-0.0,0.0,0.0,-0.0,0.0,16.264359049033374
1629,C,606157327944336.0,3.0515900639488938,9.425858,2.812622838740459,146,1970-01-08 00:22:37.327944336,-0.4472046,0.36720276,0.25523376,10.484767560339993,0.632435050781118,100.56670379638672,17.54769515991211,89.9139404296875,16314713.000000002,50354.000000003725,0.1422256944725931,-0.026632834848002017,0.14971667399114813,0.0035808163097367407,-0.0006705348829681964,0.003769416701075415,16.314713052939624
1629,C,606157327944336.0,3.0515900639488938,9.425858,2.812622838740459,146,1970-01-08 00:22:37.327944336,-0.4472046,0.36720276,0.25523376,10.484767560339993,0.632435050781118,100.61993408203125,17.653728485107422,89.9517593383789,16314713.000000002,0.0,0.0,-0.0,0.0,0.0,-0.0,0.0,16.314713052939624
1629,C,606157327944336.0,3.0515900639488938,9.425858,2.812622838740459,151,1970-01-08 00:22:37.327944336,-0.4472046,0.36720276,0.25523376,10.484767560339993,0.632435050781118,100.67194366455078,17.75709342956543,89.98931121826172,16314713.000000002,0.0,0.0,-0.0,0.0,0.0,-0.0,0.0,16.314713052939624
1629,C,606157327944336.0,3.0515900639488938,9.425858,2.812622838740459,151,1970-01-08 00:22:37.327944336,-0.4472046,0.36720276,0.25523376,10.484767560339993,0.632435050781118,100.7227554321289,17.85785675048828,90.02660369873047,16314713.000000002,0.0,0.0,-0.0,0.0,0.0,-0.0,0.0,16.314713052939624
1629,C,606157378298340.0,4.108795263948894,11.43454,3.4836128387404592,146,1970-01-08 00:22:37.378298340,-0.4756775,0.5373535,0.30758667,11.912854756151345,0.7807864160768865,100.63494873046875,17.749088287353516,90.0294418334961,16365067.0,50353.99999999814,0.1802770214004759,0.03173304044599879,0.15852032565193122,0.004538834567799614,0.000798942759308882,0.003991066238938525,16.36506705696229
1629,C,606157378298340.0,4.108795263948894,11.43454,3.4836128387404592,146,1970-01-08 00:22:37.378298340,-0.4756775,0.5373535,0.30758667,11.912854756151345,0.7807864160768865,100.54940032958984,17.643035888671875,90.03313446044922,16365067.0,0.0,0.0,0.0,0.0,0.0,0.0,0.0,16.36506705696229
1629,C,606157378298340.0,4.108795263948894,11.43454,3.4836128387404592,151,1970-01-08 00:22:37.378298340,-0.4756775,0.5373535,0.30758667,11.912854756151345,0.7807864160768865,100.46602630615234,17.539640426635742,90.03762817382812,16365067.0,0.0,0.0,0.0,0.0,0.0,0.0,0.0,16.36506705696229
1629,C,606157378298340.0,4.108795263948894,11.43454,3.4836128387404592,151,1970-01-08 00:22:37.378298340,-0.4756775,0.5373535,0.30758667,11.912854756151345,0.7807864160768865,100.38475036621094,17.43882179260254,90.04290771484375,16365067.0,0.0,0.0,0.0,0.0,0.0,0.0,0.0,16.36506705696229
1629,C,606157428652344.0,4.451019363948894,13.8433075,4.005905938740459,146,1970-01-08 00:22:37.428652344,-0.4466858,0.49990845,0.2903595,14.125258520793546,0.7305787442454732,100.2156753540039,17.2517032623291,90.02015686035156,16415420.999999998,50353.99999999814,0.21551045288657458,0.14295116650749468,0.1885636142606301,0.005425906672325087,0.0035990815191590604,0.0047474661162397085,16.415421060984954
1629,C,606157428652344.0,4.451019363948894,13.8433075,4.005905938740459,146,1970-01-08 00:22:37.428652344,-0.4466858,0.49990845,0.2903595,14.125258520793546,0.7305787442454732,100.05098724365234,17.069135665893555,89.99922180175781,16415420.999999998,0.0,0.0,0.0,0.0,0.0,0.0,0.0,16.415421060984954
1629,C,606157428652344.0,4.451019363948894,13.8433075,4.005905938740459,151,1970-01-08 00:22:37.428652344,-0.4466858,0.49990845,0.2903595,14.125258520793546,0.7305787442454732,99.89059448242188,16.891029357910156,89.98003387451172,16415420.999999998,0.0,0.0,0.0,0.0,0.0,0.0,0.0,16.415421060984954
1629,C,606157428652344.0,4.451019363948894,13.8433075,4.005905938740459,151,1970-01-08 00:22:37.428652344,-0.4466858,0.49990845,0.2903595,14.125258520793546,0.7305787442454732,99.73439025878906,16.717287063598633,89.9625473022461,16415420.999999998,0.0,0.0,0.0,0.0,0.0,0.0,0.0,16.415421060984954
1629,C,606157479006348.0,4.932998763948894,12.35524,5.318604268740459,146,1970-01-08 00:22:37.479006348,-0.2530365,0.2631836,0.24368286,12.53754805725827,0.43894693745256913,99.72502136230469,16.70305633544922,89.97393798828125,16465775.0,50354.00000000186,0.23626142440609135,0.16613163040750611,0.23476319349375574,0.005948353882272382,0.0041826960587699365,0.005910632922592507,16.46577506500762
1629,C,606157479006348.0,4.932998763948894,12.35524,5.318604268740459,146,1970-01-08 00:22:37.479006348,-0.2530365,0.2631836,0.24368286,12.53754805725827,0.43894693745256913,99.71563720703125,16.688823699951172,89.98533630371094,16465775.0,0.0,0.0,0.0,0.0,0.0,0.0,0.0,16.46577506500762
1629,C,606157479006348.0,4.932998763948894,12.35524,5.318604268740459,151,1970-01-08 00:22:37.479006348,-0.2530365,0.2631836,0.24368286,12.53754805725827,0.43894693745256913,99.70626068115234,16.67459487915039,89.99673461914062,16465775.0,0.0,0.0,0.0,0.0,0.0,0.0,0.0,16.46577506500762
1629,C,606157479006348.0,4.932998763948894,12.35524,5.318604268740459,151,1970-01-08 00:22:37.479006348,-0.2530365,0.2631836,0.24368286,12.53754805725827,0.43894693745256913,99.69686126708984,16.660369873046875,90.00812530517578,16465775.0,0.0,0.0,0.0,0.0,0.0,0.0,0.0,16.46577506500762
1629,C,606157529360352.0,5.168533463948894,10.952255,5.551148208740459,146,1970-01-08 00:22:37.529360352,0.2657776,0.0032196045,0.15078735,11.122839083764026,0.3055894687892875,99.70983123779297,16.652910232543945,90.00696563720703,16516129.0,50354.0,0.2543262769017826,0.09334360161499995,0.2736677581255371,0.006403172673556181,0.0023501118578608537,0.006890133146326648,16.516129069030285
1629,C,606157529360352.0,5.168533463948894,10.952255,5.551148208740459,146,1970-01-08 00:22:37.529360352,0.2657776,0.0032196045,0.15078735,11.122839083764026,0.3055894687892875,99.72278594970703,16.645448684692383,90.00580596923828,16516129.0,0.0,0.0,0.0,0.0,0.0,0.0,0.0,16.516129069030285
1629,C,606157529360352.0,5.168533463948894,10.952255,5.551148208740459,151,1970-01-08 00:22:37.529360352,0.2657776,0.0032196045,0.15078735,11.122839083764026,0.3055894687892875,99.73573303222656,16.637989044189453,90.004638671875,16516129.0,0.0,0.0,0.0,0.0,0.0,0.0,0.0,16.516129069030285
1629,C,606157529360352.0,5.168533463948894,10.952255,5.551148208740459,151,1970-01-08 00:22:37.529360352,0.2657776,0.0032196045,0.15078735,11.122839083764026,0.3055894687892875,99.74869537353516,16.630531311035156,90.00347137451172,16516129.0,0.0,0.0,0.0,0.0,0.0,0.0,0.0,16.516129069030285
1629,C,606157579714356.0,5.136917263948893,9.625732,4.421295938740459,146,1970-01-08 00:22:37.579714356,0.65953064,0.30317688,-0.3405304,9.835343952290478,0.8017841598519541,99.63677978515625,16.51152992248535,89.97919464111328,16566483.000000002,50354.00000000186,0.2594603329762922,0.024622778699000838,0.25107622630113635,0.00653243280334435,0.000619927699304767,0.006321346149583944,16.566483072936535
1629,C,606157579714356.0,5.136917263948893,9.625732,4.421295938740459,146,1970-01-08 00:22:37.579714356,0.65953064,0.30317688,-0.3405304,9.835343952290478,0.8017841598519541,99.52775573730469,16.395435333251953,89.95600128173828,16566483.000000002,0.0,0.0,-0.0,0.0,0.0,0.0,0.0,16.566483072936535
1629,C,606157579714356.0,5.136917263948893,9.625732,4.421295938740459,151,1970-01-08 00:22:37.579714356,0.65953064,0.30317688,-0.3405304,9.835343952290478,0.8017841598519541,99.42155456542969,16.282180786132812,89.93386840820312,16566483.000000002,0.0,0.0,-0.0,0.0,0.0,-0.0,0.0,16.566483072936535
1629,C,606157579714356.0,5.136917263948893,9.625732,4.421295938740459,151,1970-01-08 00:22:37.579714356,0.65953064,0.30317688,-0.3405304,9.835343952290478,0.8017841598519541,99.31806182861328,16.171689987182617,89.9127197265625,16566483.000000002,0.0,0.0,-0.0,0.0,0.0,-0.0,0.0,16.566483072936535
1629,C,606157630068360.0,3.8452455639488936,8.109161,3.4788063387404593,146,1970-01-08 00:22:37.630068360,0.93214417,0.9768677,-1.0035248,8.863430924163012,1.6823273406752086,99.42475891113281,16.338693618774414,89.98368835449219,16616837.0,50353.99999999814,0.2261439135179742,-0.04695779893899831,0.19890087504012974,0.0056936253106418255,-0.0011822565038871167,0.005007727330885161,16.6168370769592
1629,C,606157630068360.0,3.8452455639488936,8.109161,3.4788063387404593,146,1970-01-08 00:22:37.630068360,0.93214417,0.9768677,-1.0035248,8.863430924163012,1.6823273406752086,99.52910614013672,16.501428604125977,90.05421447753906,16616837.0,0.0,0.0,-0.0,0.0,0.0,-0.0,0.0,16.6168370769592
1629,C,606157630068360.0,3.8452455639488936,8.109161,3.4788063387404593,151,1970-01-08 00:22:37.630068360,0.93214417,0.9768677,-1.0035248,8.863430924163012,1.6823273406752086,99.63113403320312,16.65998077392578,90.1242446899414,16616837.0,0.0,0.0,-0.0,0.0,0.0,-0.0,0.0,16.6168370769592
1629,C,606157630068360.0,3.8452455639488936,8.109161,3.4788063387404593,151,1970-01-08 00:22:37.630068360,0.93214417,0.9768677,-1.0035248,8.863430924163012,1.6823273406752086,99.73090362548828,16.814462661743164,90.19379425048828,16616837.0,0.0,0.0,-0.0,0.0,0.0,-0.0,0.0,16.6168370769592
1629,C,606157680422364.0,3.2654419639488936,8.220062,3.197418938740459,146,1970-01-08 00:22:37.680422364,0.55319214,2.0746002,-0.8342438,9.241121230095944,2.3034648361623105,99.86611938476562,17.02179718017578,90.32975006103516,16667190.999999998,50353.99999999814,0.17902577988987597,-0.08234835252899697,0.16808732381113087,0.004507332060287241,-0.00207328447162248,0.004231934551592685,16.667191080981866
1629,C,606157680422364.0,3.2654419639488936,8.220062,3.197418938740459,146,1970-01-08 00:22:37.680422364,0.55319214,2.0746002,-0.8342438,9.241121230095944,2.3034648361623105,99.99862670898438,17.223695755004883,90.46522521972656,16667190.999999998,0.0,0.0,-0.0,0.0,0.0,-0.0,0.0,16.667191080981866
1629,C,606157680422364.0,3.2654419639488936,8.220062,3.197418938740459,151,1970-01-08 00:22:37.680422364,0.55319214,2.0746002,-0.8342438,9.241121230095944,2.3034648361623105,100.12847900390625,17.420289993286133,90.60018157958984,16667190.999999998,0.0,0.0,-0.0,0.0,0.0,-0.0,0.0,16.667191080981866
1629,C,606157680422364.0,3.2654419639488936,8.220062,3.197418938740459,151,1970-01-08 00:22:37.680422364,0.55319214,2.0746002,-0.8342438,9.241121230095944,2.3034648361623105,100.25572204589844,17.611726760864258,90.73463439941406,16667190.999999998,0.0,0.0,-0.0,0.0,0.0,-0.0,0.0,16.667191080981866
1629,C,606157730776368.0,4.677627563948894,8.999741,2.957184538740459,146,1970-01-08 00:22:37.730776368,0.23542786,2.0287628,-0.644104,9.544149923186191,2.141535602959712,100.37626647949219,17.545196533203125,90.8680648803711,16717545.000000002,50354.000000003725,0.19998266150389737,-0.05992621986900445,0.15495445175254854,0.005034963468683996,-0.0015087624376420364,0.0039012882317742033,16.71754508500453
1629,C,606157730776368.0,4.677627563948894,8.999741,2.957184538740459,146,1970-01-08 00:22:37.730776368,0.23542786,2.0287628,-0.644104,9.544149923186191,2.141535602959712,100.49359893798828,17.48006248474121,91.00049591064453,16717545.000000002,0.0,0.0,-0.0,0.0,0.0,-0.0,0.0,16.71754508500453
1629,C,606157730776368.0,4.677627563948894,8.999741,2.957184538740459,151,1970-01-08 00:22:37.730776368,0.23542786,2.0287628,-0.644104,9.544149923186191,2.141535602959712,100.60780334472656,17.416297912597656,91.1319351196289,16717545.000000002,0.0,0.0,-0.0,0.0,0.0,-0.0,0.0,16.71754508500453
1629,C,606157730776368.0,4.677627563948894,8.999741,2.957184538740459,151,1970-01-08 00:22:37.730776368,0.23542786,2.0287628,-0.644104,9.544149923186191,2.141535602959712,100.71897888183594,17.353879928588867,91.26242065429688,16717545.000000002,0.0,0.0,-0.0,0.0,0.0,-0.0,0.0,16.71754508500453
1629,C,606157781130372.0,5.069091863948894,8.5520935,2.629166438740459,146,1970-01-08 00:22:37.781130372,0.35136414,1.519516,-0.92466736,9.111826095043417,1.8131175802421944,100.895751953125,17.266754150390625,91.38924407958984,16767899.0,50353.99999999814,0.2453931550361735,-0.05156666279349813,0.1406475585600319,0.0061782634643455115,-0.0012982938691518543,0.0035410835818657917,16.767899089027196
1629,C,606157781130372.0,5.069091863948894,8.5520935,2.629166438740459,146,1970-01-08 00:22:37.781130372,0.35136414,1.519516,-0.92466736,9.111826095043417,1.8131175802421944,101.06786346435547,17.181427001953125,91.51457977294922,16767899.0,0.0,0.0,-0.0,0.0,0.0,-0.0,0.0,16.767899089027196
1629,C,606157781130372.0,5.069091863948894,8.5520935,2.629166438740459,151,1970-01-08 00:22:37.781130372,0.35136414,1.519516,-0.92466736,9.111826095043417,1.8131175802421944,101.23542022705078,17.097869873046875,91.63848114013672,16767899.0,0.0,0.0,-0.0,0.0,0.0,-0.0,0.0,16.767899089027196
1629,C,606157781130372.0,5.069091863948894,8.5520935,2.629166438740459,151,1970-01-08 00:22:37.781130372,0.35136414,1.519516,-0.92466736,9.111826095043417,1.8131175802421944,101.3985595703125,17.016048431396484,91.76100158691406,16767899.0,0.0,0.0,-0.0,0.0,0.0,-0.0,0.0,16.767899089027196
1629,C,606157831484375.0,3.154968363948894,6.9648285,2.487702138740459,146,1970-01-08 00:22:37.831484375,0.068725586,1.6504059,-0.9238434,8.387512518372688,1.8926303042721824,101.42955780029297,17.044994354248047,91.85514831542969,16818253.0,50354.0,0.2070571643577826,-0.10279965480600003,0.12882740017523708,0.005213078227035893,-0.002588186909050663,0.0032434874542119443,16.818253092002124
1629,C,606157831484375.0,3.154968363948894,6.9648285,2.487702138740459,146,1970-01-08 00:22:37.831484375,0.068725586,1.6504059,-0.9238434,8.387512518372688,1.8926303042721824,101.46063232421875,17.07389259338379,91.9493408203125,16818253.0,0.0,0.0,-0.0,0.0,0.0,-0.0,0.0,16.818253092002124
1629,C,606157831484375.0,3.154968363948894,6.9648285,2.487702138740459,151,1970-01-08 00:22:37.831484375,0.068725586,1.6504059,-0.9238434,8.387512518372688,1.8926303042721824,101.49176025390625,17.10274887084961,92.0435791015625,16818253.0,0.0,0.0,-0.0,0.0,0.0,-0.0,0.0,16.818253092002124
1629,C,606157831484375.0,3.154968363948894,6.9648285,2.487702138740459,151,1970-01-08 00:22:37.831484375,0.068725586,1.6504059,-0.9238434,8.387512518372688,1.8926303042721824,101.52293395996094,17.13154411315918,92.13782501220703,16818253.0,0.0,0.0,-0.0,0.0,0.0,-0.0,0.0,16.818253092002124
1629,C,606157881838379.0,2.6871035639488934,6.082672,2.2865913387404593,146,1970-01-08 00:22:37.881838379,-0.3825531,1.7902222,-0.680954,7.986422166049648,1.9531873309563652,101.53295135498047,17.147022247314453,92.23672485351562,16868607.0,50354.0,0.1470858449286826,-0.16497227991150004,0.12020238688253711,0.0037031803177694418,-0.004153507091331837,0.003026335494541637,16.86860709602479
1629,C,606157881838379.0,2.6871035639488934,6.082672,2.2865913387404593,146,1970-01-08 00:22:37.881838379,-0.3825531,1.7902222,-0.680954,7.986422166049648,1.9531873309563652,101.54299926757812,17.162477493286133,92.33563995361328,16868607.0,0.0,0.0,-0.0,0.0,0.0,-0.0,0.0,16.86860709602479
1629,C,606157881838379.0,2.6871035639488934,6.082672,2.2865913387404593,151,1970-01-08 00:22:37.881838379,-0.3825531,1.7902222,-0.680954,7.986422166049648,1.9531873309563652,101.55306243896484,17.177913665771484,92.43456268310547,16868607.0,0.0,0.0,-0.0,0.0,0.0,-0.0,0.0,16.86860709602479
1629,C,606157881838379.0,2.6871035639488934,6.082672,2.2865913387404593,151,1970-01-08 00:22:37.881838379,-0.3825531,1.7902222,-0.680954,7.986422166049648,1.9531873309563652,101.56317138671875,17.193344116210938,92.53350067138672,16868607.0,0.0,0.0,-0.0,0.0,0.0,-0.0,0.0,16.86860709602479
1629,C,606157932192383.0,3.1896210639488936,5.6675873,1.875458538740459,146,1970-01-08 00:22:37.932192383,-0.71469116,1.4557648,-0.5783386,7.565290309773995,1.7217752882856536,101.5512924194336,17.207088470458984,92.61420440673828,16918961.0,50354.0,0.14795829595658258,-0.19763292160390006,0.10478792976533707,0.0037251460172988797,-0.004975804067221392,0.0026382457077018914,16.91896109993104
1629,C,606157932192383.0,3.1896210639488936,5.6675873,1.875458538740459,146,1970-01-08 00:22:37.932192383,-0.71469116,1.4557648,-0.5783386,7.565290309773995,1.7217752882856536,101.5394515991211,17.220855712890625,92.69493865966797,16918961.0,0.0,0.0,-0.0,0.0,0.0,-0.0,0.0,16.91896109993104
1629,C,606157932192383.0,3.1896210639488936,5.6675873,1.875458538740459,151,1970-01-08 00:22:37.932192383,-0.71469116,1.4557648,-0.5783386,7.565290309773995,1.7217752882856536,101.5276107788086,17.234628677368164,92.77565002441406,16918961.0,0.0,0.0,-0.0,0.0,0.0,-0.0,0.0,16.91896109993104
1629,C,606157932192383.0,3.1896210639488936,5.6675873,1.875458538740459,151,1970-01-08 00:22:37.932192383,-0.71469116,1.4557648,-0.5783386,7.565290309773995,1.7217752882856536,101.51581573486328,17.24842643737793,92.85638427734375,16918961.0,0.0,0.0,-0.0,0.0,0.0,-0.0,0.0,16.91896109993104
1629,C,606157982546387.0,2.4327851639488935,6.290039,1.8936927387404592,146,1970-01-08 00:22:37.982546387,-1.1462402,1.290802,-0.689682,8.424666492519178,1.8589506880022504,101.48027801513672,17.26935577392578,92.92980194091797,16969315.0,50354.0,0.1415553215997826,-0.19241204264490003,0.09489592171313709,0.003563938331917727,-0.004844357997670648,0.0023891946209716524,16.969315103953704
1629,C,606157982546387.0,2.4327851639488935,6.290039,1.8936927387404592,146,1970-01-08 00:22:37.982546387,-1.1462402,1.290802,-0.689682,8.424666492519178,1.8589506880022504,101.44479370117188,17.290334701538086,93.00323486328125,16969315.0,0.0,0.0,-0.0,0.0,0.0,-0.0,0.0,16.969315103953704
1629,C,606157982546387.0,2.4327851639488935,6.290039,1.8936927387404592,151,1970-01-08 00:22:37.982546387,-1.1462402,1.290802,-0.689682,8.424666492519178,1.8589506880022504,101.40930938720703,17.311344146728516,93.07665252685547,16969315.0,0.0,0.0,-0.0,0.0,0.0,-0.0,0.0,16.969315103953704
1629,C,606157982546387.0,2.4327851639488935,6.290039,1.8936927387404592,151,1970-01-08 00:22:37.982546387,-1.1462402,1.290802,-0.689682,8.424666492519178,1.8589506880022504,101.37384796142578,17.332399368286133,93.15005493164062,16969315.0,0.0,0.0,-0.0,0.0,0.0,-0.0,0.0,16.969315103953704
1629,C,606158032900391.0,2.7496491639488934,10.224884,3.679215238740459,146,1970-01-08 00:22:38.032900391,-1.5357056,2.5190582,-0.38565063,11.179090889848219,2.9753608711008477,101.24947357177734,17.45931053161621,93.25724792480469,17019669.0,50354.0,0.1304781490734826,-0.07767298362900005,0.14030910414903708,0.0032850483592230715,-0.001955572708827334,0.0035325623151603066,17.01966910797637
1629,C,606158032900391.0,2.7496491639488934,10.224884,3.679215238740459,146,1970-01-08 00:22:38.032900391,-1.5357056,2.5190582,-0.38565063,11.179090889848219,2.9753608711008477,101.12835693359375,17.583288192749023,93.36524200439453,17019669.0,0.0,0.0,0.0,0.0,0.0,-0.0,0.0,17.01966910797637
1629,C,606158032900391.0,2.7496491639488934,10.224884,3.679215238740459,151,1970-01-08 00:22:38.032900391,-1.5357056,2.5190582,-0.38565063,11.179090889848219,2.9753608711008477,101.01042175292969,17.704402923583984,93.47406005859375,17019669.0,0.0,0.0,0.0,0.0,0.0,0.0,0.0,17.01966910797637
1629,C,606158032900391.0,2.7496491639488934,10.224884,3.679215238740459,151,1970-01-08 00:22:38.032900391,-1.5357056,2.5190582,-0.38565063,11.179090889848219,2.9753608711008477,100.89556884765625,17.822711944580078,93.58364868164062,17019669.0,0.0,0.0,0.0,0.0,0.0,0.0,0.0,17.01966910797637
1629,C,606158083254395.0,4.939910963948893,12.685928,3.563919838740459,146,1970-01-08 00:22:38.083254395,-0.78630066,2.3446808,0.6072998,12.948166790910843,2.5464897072018795,100.78475952148438,17.56148338317871,93.6661376953125,17070023.0,50354.0,0.1936000553400826,0.08335631372399997,0.1823604118457371,0.00487426859329726,0.0020986619106291475,0.004591288089040123,17.070023111999035
1629,C,606158083254395.0,4.939910963948893,12.685928,3.563919838740459,146,1970-01-08 00:22:38.083254395,-0.78630066,2.3446808,0.6072998,12.948166790910843,2.5464897072018795,100.67640686035156,17.306852340698242,93.74991607666016,17070023.0,0.0,0.0,0.0,0.0,0.0,0.0,0.0,17.070023111999035
1629,C,606158083254395.0,4.939910963948893,12.685928,3.563919838740459,151,1970-01-08 00:22:38.083254395,-0.78630066,2.3446808,0.6072998,12.948166790910843,2.5464897072018795,100.57051086425781,17.058658599853516,93.83495330810547,17070023.0,0.0,0.0,0.0,0.0,0.0,0.0,0.0,17.070023111999035
1629,C,606158083254395.0,4.939910963948893,12.685928,3.563919838740459,151,1970-01-08 00:22:38.083254395,-0.78630066,2.3446808,0.6072998,12.948166790910843,2.5464897072018795,100.46697998046875,16.816757202148438,93.92117309570312,17070023.0,0.0,0.0,0.0,0.0,0.0,0.0,0.0,17.070023111999035
1629,C,606158133608399.0,6.553207503948894,8.208771,2.058487638740459,146,1970-01-08 00:22:38.133608399,-0.36735535,1.1104736,1.0044403,8.758460384698607,1.541752861432296,100.46233367919922,16.75728416442871,93.96868133544922,17120377.0,50354.0,0.2893622436662626,0.03259663672299999,0.14155535306053707,0.007285273208785494,0.0008206855227749708,0.003563939124005142,17.1203771160217
1629,C,606158133608399.0,6.553207503948894,8.208771,2.058487638740459,146,1970-01-08 00:22:38.133608399,-0.36735535,1.1104736,1.0044403,8.758460384698607,1.541752861432296,100.4576416015625,16.697818756103516,94.01617431640625,17120377.0,0.0,0.0,-0.0,0.0,0.0,0.0,0.0,17.1203771160217
1629,C,606158133608399.0,6.553207503948894,8.208771,2.058487638740459,151,1970-01-08 00:22:38.133608399,-0.36735535,1.1104736,1.0044403,8.758460384698607,1.541752861432296,100.452880859375,16.63835906982422,94.06365966796875,17120377.0,0.0,0.0,-0.0,0.0,0.0,-0.0,0.0,17.1203771160217
1629,C,606158133608399.0,6.553207503948894,8.208771,2.058487638740459,151,1970-01-08 00:22:38.133608399,-0.36735535,1.1104736,1.0044403,8.758460384698607,1.541752861432296,100.44808959960938,16.578901290893555,94.11113739013672,17120377.0,0.0,0.0,-0.0,0.0,0.0,-0.0,0.0,17.1203771160217
1629,C,606158183962403.0,3.6882477639488935,7.632019,3.574646738740459,146,1970-01-08 00:22:38.183962403,-0.771698,1.9597626,0.3302765,8.472546431971823,2.1319638406912556,100.45304107666016,16.714279174804688,94.21305084228516,17170731.0,50354.0,0.2578491192798626,-0.09464563017000004,0.14182542422183708,0.006491867276109101,-0.002382893030790091,0.0035707387056331925,17.17073111992795
1629,C,606158183962403.0,3.6882477639488935,7.632019,3.574646738740459,146,1970-01-08 00:22:38.183962403,-0.771698,1.9597626,0.3302765,8.472546431971823,2.1319638406912556,100.45809936523438,16.846294403076172,94.31503295898438,17170731.0,0.0,0.0,-0.0,0.0,0.0,-0.0,0.0,17.17073111992795
1629,C,606158183962403.0,3.6882477639488935,7.632019,3.574646738740459,151,1970-01-08 00:22:38.183962403,-0.771698,1.9597626,0.3302765,8.472546431971823,2.1319638406912556,100.46330261230469,16.975019454956055,94.41707611083984,17170731.0,0.0,0.0,-0.0,0.0,0.0,-0.0,0.0,17.17073111992795
1629,C,606158183962403.0,3.6882477639488935,7.632019,3.574646738740459,151,1970-01-08 00:22:38.183962403,-0.771698,1.9597626,0.3302765,8.472546431971823,2.1319638406912556,100.46859741210938,17.100536346435547,94.51919555664062,17170731.0,0.0,0.0,-0.0,0.0,0.0,-0.0,0.0,17.17073111992795
1629,C,606158234316407.0,1.7120362639488933,9.223938,4.601837908740459,146,1970-01-08 00:22:38.234316407,-1.070755,2.8829498,-0.23164368,10.666998084789974,3.0840840802139264,100.45929718017578,17.085739135742188,94.66968536376953,17221085.0,50354.0,0.13596295097038258,-0.06908677061100003,0.20585935396962707,0.0034231392165813223,-0.001739397623673148,0.005182920954893301,17.221085123950616
1629,C,606158234316407.0,1.7120362639488933,9.223938,4.601837908740459,146,1970-01-08 00:22:38.234316407,-1.070755,2.8829498,-0.23164368,10.666998084789974,3.0840840802139264,100.449951171875,17.070972442626953,94.8201675415039,17221085.0,0.0,0.0,-0.0,0.0,0.0,-0.0,0.0,17.221085123950616
1629,C,606158234316407.0,1.7120362639488933,9.223938,4.601837908740459,151,1970-01-08 00:22:38.234316407,-1.070755,2.8829498,-0.23164368,10.666998084789974,3.0840840802139264,100.44056701660156,17.056230545043945,94.97065734863281,17221085.0,0.0,0.0,-0.0,0.0,0.0,-0.0,0.0,17.221085123950616
1629,C,606158234316407.0,1.7120362639488933,9.223938,4.601837908740459,151,1970-01-08 00:22:38.234316407,-1.070755,2.8829498,-0.23164368,10.666998084789974,3.0840840802139264,100.43113708496094,17.041507720947266,95.12112426757812,17221085.0,0.0,0.0,-0.0,0.0,0.0,-0.0,0.0,17.221085123950616
1629,C,606158284670411.0,3.255294863948894,8.768356,4.591843398740459,146,1970-01-08 00:22:38.284670411,-0.90000916,2.7970886,-0.17810059,9.565903134136835,2.9437121028545254,100.25416564941406,17.185958862304688,95.21528625488281,17271439.0,50354.0,0.1250624958070826,-0.04047721396200001,0.2314693142784471,0.0031486984569349184,-0.0010190948159212745,0.005827702925588463,17.27143912797328
1629,C,606158284670411.0,3.255294863948894,8.768356,4.591843398740459,146,1970-01-08 00:22:38.284670411,-0.90000916,2.7970886,-0.17810059,9.565903134136835,2.9437121028545254,100.08167266845703,17.327129364013672,95.3104019165039,17271439.0,0.0,0.0,-0.0,0.0,0.0,-0.0,0.0,17.27143912797328
1629,C,606158284670411.0,3.255294863948894,8.768356,4.591843398740459,151,1970-01-08 00:22:38.284670411,-0.90000916,2.7970886,-0.17810059,9.565903134136835,2.9437121028545254,99.9135513305664,17.4650821685791,95.4064712524414,17271439.0,0.0,0.0,-0.0,0.0,0.0,-0.0,0.0,17.27143912797328
1629,C,606158284670411.0,3.255294863948894,8.768356,4.591843398740459,151,1970-01-08 00:22:38.284670411,-0.90000916,2.7970886,-0.17810059,9.565903134136835,2.9437121028545254,99.74971008300781,17.599895477294922,95.50350189208984,17271439.0,0.0,0.0,-0.0,0.0,0.0,-0.0,0.0,17.27143912797328
1629,C,606158335024415.0,4.264083963948893,9.485382,4.545044688740459,146,1970-01-08 00:22:38.335024415,-0.76776123,2.6705627,-0.20567322,9.899780913696732,2.7863352121285714,99.58860778808594,17.55872917175293,95.59355163574219,17321793.0,50354.0,0.1893154007499826,-0.03389483837400003,0.23003943137850713,0.004766393844682312,-0.0008533703457421988,0.005791702763816674,17.321793131995946
1629,C,606158335024415.0,4.264083963948893,9.485382,4.545044688740459,146,1970-01-08 00:22:38.335024415,-0.76776123,2.6705627,-0.20567322,9.899780913696732,2.7863352121285714,99.43147277832031,17.51883316040039,95.68494415283203,17321793.0,0.0,0.0,-0.0,0.0,0.0,-0.0,0.0,17.321793131995946
1629,C,606158335024415.0,4.264083963948893,9.485382,4.545044688740459,151,1970-01-08 00:22:38.335024415,-0.76776123,2.6705627,-0.20567322,9.899780913696732,2.7863352121285714,99.27821350097656,17.48016357421875,95.77764129638672,17321793.0,0.0,0.0,-0.0,0.0,0.0,-0.0,0.0,17.321793131995946
1629,C,606158335024415.0,4.264083963948893,9.485382,4.545044688740459,151,1970-01-08 00:22:38.335024415,-0.76776123,2.6705627,-0.20567322,9.899780913696732,2.7863352121285714,99.12871551513672,17.44269371032715,95.87158203125,17321793.0,0.0,0.0,-0.0,0.0,0.0,-0.0,0.0,17.321793131995946
1629,C,606158385378418.0,4.069976963948894,9.39032,3.882218138740459,146,1970-01-08 00:22:38.385378418,-0.7137451,2.426941,-0.28115845,9.923101078766798,2.545294631130434,99.08368682861328,17.438274383544922,95.9852066040039,17372147.0,50354.0,0.20982665198168263,-0.01823565074600007,0.2121731962074871,0.005282805616942824,-0.0004591189788320438,0.005341884560915903,17.372147134970874
1629,C,606158385378418.0,4.069976963948894,9.39032,3.882218138740459,146,1970-01-08 00:22:38.385378418,-0.7137451,2.426941,-0.28115845,9.923101078766798,2.545294631130434,99.0397720336914,17.434053421020508,96.09918212890625,17372147.0,0.0,0.0,-0.0,0.0,0.0,-0.0,0.0,17.372147134970874
1629,C,606158385378418.0,4.069976963948894,9.39032,3.882218138740459,151,1970-01-08 00:22:38.385378418,-0.7137451,2.426941,-0.28115845,9.923101078766798,2.545294631130434,98.99696350097656,17.430023193359375,96.21349334716797,17372147.0,0.0,0.0,-0.0,0.0,0.0,-0.0,0.0,17.372147134970874
1629,C,606158385378418.0,4.069976963948894,9.39032,3.882218138740459,151,1970-01-08 00:22:38.385378418,-0.7137451,2.426941,-0.28115845,9.923101078766798,2.545294631130434,98.95519256591797,17.426166534423828,96.32811737060547,17372147.0,0.0,0.0,-0.0,0.0,0.0,-0.0,0.0,17.372147134970874
1629,C,606158435732422.0,2.996780563948894,9.149902,3.611527238740459,146,1970-01-08 00:22:38.435732422,-0.6371002,1.9882813,-0.22871399,10.11304764465879,2.100349799912255,98.95758819580078,17.57656478881836,96.43376922607422,17422501.0,50354.0,0.1779197542798826,-0.02668203070600004,0.1886700273688371,0.004479485653504605,-0.000671773487084963,0.004750145279065212,17.42250113899354
1629,C,606158435732422.0,2.996780563948894,9.149902,3.611527238740459,146,1970-01-08 00:22:38.435732422,-0.6371002,1.9882813,-0.22871399,10.11304764465879,2.100349799912255,98.96021270751953,17.723222732543945,96.53950500488281,17422501.0,0.0,0.0,-0.0,0.0,0.0,-0.0,0.0,17.42250113899354
1629,C,606158435732422.0,2.996780563948894,9.149902,3.611527238740459,151,1970-01-08 00:22:38.435732422,-0.6371002,1.9882813,-0.22871399,10.11304764465879,2.100349799912255,98.9630355834961,17.866220474243164,96.6452865600586,17422501.0,0.0,0.0,-0.0,0.0,0.0,-0.0,0.0,17.42250113899354
1629,C,606158435732422.0,2.996780563948894,9.149902,3.611527238740459,151,1970-01-08 00:22:38.435732422,-0.6371002,1.9882813,-0.22871399,10.11304764465879,2.100349799912255,98.96607208251953,18.005659103393555,96.75115203857422,17422501.0,0.0,0.0,-0.0,0.0,0.0,-0.0,0.0,17.42250113899354
1629,C,606158486086426.0,3.0940705639488937,9.085342,4.120041638740459,146,1970-01-08 00:22:38.486086426,-0.6271515,1.9625397,-0.08416748,9.954433962528833,2.0620293990915575,98.89453887939453,18.130023956298828,96.83147430419922,17472855.0,50354.0,0.1533493588470826,-0.034360461812,0.1946577096283371,0.0038608768076929985,-0.000865093347040724,0.004900897155312643,17.472855143016204
1629,C,606158486086426.0,3.0940705639488937,9.085342,4.120041638740459,146,1970-01-08 00:22:38.486086426,-0.6271515,1.9625397,-0.08416748,9.954433962528833,2.0620293990915575,98.82490539550781,18.25138282775879,96.91223907470703,17472855.0,0.0,0.0,-0.0,0.0,0.0,-0.0,0.0,17.472855143016204
1629,C,606158486086426.0,3.0940705639488937,9.085342,4.120041638740459,151,1970-01-08 00:22:38.486086426,-0.6271515,1.9625397,-0.08416748,9.954433962528833,2.0620293990915575,98.75713348388672,18.369815826416016,96.99347686767578,17472855.0,0.0,0.0,-0.0,0.0,0.0,-0.0,0.0,17.472855143016204
1629,C,606158486086426.0,3.0940705639488937,9.085342,4.120041638740459,151,1970-01-08 00:22:38.486086426,-0.6271515,1.9625397,-0.08416748,9.954433962528833,2.0620293990915575,98.69117736816406,18.485397338867188,97.07515716552734,17472855.0,0.0,0.0,-0.0,0.0,0.0,-0.0,0.0,17.472855143016204
1629,C,606158536440430.0,3.899917663948894,9.060318,4.111618788740459,146,1970-01-08 00:22:38.536440430,-0.5578766,1.5872803,0.114349365,9.639921844737412,1.6863454061584042,98.62345123291016,18.482776641845703,97.13611602783203,17523209.0,50354.0,0.1760876416137826,-0.036615918180000005,0.2072485145826871,0.004433358552910205,-0.0009218789720178602,0.005217895851648313,17.52320914703887
1629,C,606158536440430.0,3.899917663948894,9.060318,4.111618788740459,146,1970-01-08 00:22:38.536440430,-0.5578766,1.5872803,0.114349365,9.639921844737412,1.6863454061584042,98.55741119384766,18.480283737182617,97.1976318359375,17523209.0,0.0,0.0,-0.0,0.0,0.0,-0.0,0.0,17.52320914703887
1629,C,606158536440430.0,3.899917663948894,9.060318,4.111618788740459,151,1970-01-08 00:22:38.536440430,-0.5578766,1.5872803,0.114349365,9.639921844737412,1.6863454061584042,98.49302673339844,18.477922439575195,97.25968933105469,17523209.0,0.0,0.0,-0.0,0.0,0.0,-0.0,0.0,17.52320914703887
1629,C,606158536440430.0,3.899917663948894,9.060318,4.111618788740459,151,1970-01-08 00:22:38.536440430,-0.5578766,1.5872803,0.114349365,9.639921844737412,1.6863454061584042,98.43023681640625,18.475688934326172,97.32227325439453,17523209.0,0.0,0.0,-0.0,0.0,0.0,-0.0,0.0,17.52320914703887
1629,C,606158586794434.0,3.843521263948894,9.171936,4.537735738740459,146,1970-01-08 00:22:38.586794434,-0.47355652,1.4472809,0.17272949,9.73060448719824,1.532551225197703,98.3033676147461,18.477209091186523,97.35625457763672,17573563.0,50354.0,0.19495656188768262,-0.03443574104200001,0.21776479893838704,0.004908421358646185,-0.0008669886522144344,0.005482664342871771,17.57356315094512
1629,C,606158586794434.0,3.843521263948894,9.171936,4.537735738740459,146,1970-01-08 00:22:38.586794434,-0.47355652,1.4472809,0.17272949,9.73060448719824,1.532551225197703,98.1796646118164,18.478769302368164,97.39128875732422,17573563.0,0.0,0.0,-0.0,0.0,0.0,-0.0,0.0,17.57356315094512
1629,C,606158586794434.0,3.843521263948894,9.171936,4.537735738740459,151,1970-01-08 00:22:38.586794434,-0.47355652,1.4472809,0.17272949,9.73060448719824,1.532551225197703,98.05903625488281,18.48036003112793,97.42732238769531,17573563.0,0.0,0.0,-0.0,0.0,0.0,-0.0,0.0,17.57356315094512
1629,C,606158586794434.0,3.843521263948894,9.171936,4.537735738740459,151,1970-01-08 00:22:38.586794434,-0.47355652,1.4472809,0.17272949,9.73060448719824,1.532551225197703,97.94143676757812,18.481990814208984,97.46436309814453,17573563.0,0.0,0.0,-0.0,0.0,0.0,-0.0,0.0,17.57356315094512
1629,C,606158637148438.0,5.216659663948894,10.544388,5.562561778740459,146,1970-01-08 00:22:38.637148438,-0.44717407,1.6150818,0.0038452148,10.713643969638794,1.675848637332281,97.9457778930664,18.47063636779785,97.54864501953125,17623917.0,50354.0,0.2281081752216826,0.002928689347999969,0.25429519059761707,0.005743079527556303,7.373561171459522e-05,0.006402390013676205,17.623917154967785
1629,C,606158637148438.0,5.216659663948894,10.544388,5.562561778740459,146,1970-01-08 00:22:38.637148438,-0.44717407,1.6150818,0.0038452148,10.713643969638794,1.675848637332281,97.95011138916016,18.459274291992188,97.63294219970703,17623917.0,0.0,0.0,0.0,0.0,0.0,0.0,0.0,17.623917154967785
1629,C,606158637148438.0,5.216659663948894,10.544388,5.562561778740459,151,1970-01-08 00:22:38.637148438,-0.44717407,1.6150818,0.0038452148,10.713643969638794,1.675848637332281,97.95443725585938,18.447914123535156,97.71722412109375,17623917.0,0.0,0.0,0.0,0.0,0.0,0.0,0.0,17.623917154967785
1629,C,606158637148438.0,5.216659663948894,10.544388,5.562561778740459,151,1970-01-08 00:22:38.637148438,-0.44717407,1.6150818,0.0038452148,10.713643969638794,1.675848637332281,97.958740234375,18.436546325683594,97.80149841308594,17623917.0,0.0,0.0,0.0,0.0,0.0,0.0,0.0,17.623917154967785
1629,C,606158687502442.0,4.690017763948894,10.183594,4.834961688740459,146,1970-01-08 00:22:38.687502442,-0.24995422,1.9147034,-0.508728,10.455925736858926,1.9968401037768069,97.80929565429688,18.31674575805664,97.85163116455078,17674271.0,50354.0,0.2494204176021826,0.028399202813999942,0.26177844834076713,0.006279657853970152,0.0007150067292480765,0.006590795993875495,17.67427115899045
1629,C,606158687502442.0,4.690017763948894,10.183594,4.834961688740459,146,1970-01-08 00:22:38.687502442,-0.24995422,1.9147034,-0.508728,10.455925736858926,1.9968401037768069,97.66352844238281,18.200029373168945,97.90320587158203,17674271.0,0.0,0.0,0.0,0.0,0.0,0.0,0.0,17.67427115899045
1629,C,606158687502442.0,4.690017763948894,10.183594,4.834961688740459,151,1970-01-08 00:22:38.687502442,-0.24995422,1.9147034,-0.508728,10.455925736858926,1.9968401037768069,97.52136993408203,18.086336135864258,97.95619201660156,17674271.0,0.0,0.0,0.0,0.0,0.0,0.0,0.0,17.67427115899045
1629,C,606158687502442.0,4.690017763948894,10.183594,4.834961688740459,151,1970-01-08 00:22:38.687502442,-0.24995422,1.9147034,-0.508728,10.455925736858926,1.9968401037768069,97.3826904296875,17.9755859375,98.01053619384766,17674271.0,0.0,0.0,0.0,0.0,0.0,0.0,0.0,17.67427115899045
1629,C,606158737856446.0,5.141479563948893,11.137299,4.925324238740459,146,1970-01-08 00:22:38.737856446,0.4006195,1.6702881,-0.5046997,11.300417239133603,1.7902737522406873,97.43065643310547,17.989843368530273,98.10102081298828,17724625.0,50354.0,0.24752760822448258,0.043326923060999965,0.2457347187961871,0.0062320025922677985,0.0010908419419067962,0.006186863015131603,17.724625163013116
1629,C,606158737856446.0,5.141479563948893,11.137299,4.925324238740459,146,1970-01-08 00:22:38.737856446,0.4006195,1.6702881,-0.5046997,11.300417239133603,1.7902737522406873,97.47865295410156,18.004030227661133,98.1915283203125,17724625.0,0.0,0.0,0.0,0.0,0.0,0.0,0.0,17.724625163013116
1629,C,606158737856446.0,5.141479563948893,11.137299,4.925324238740459,151,1970-01-08 00:22:38.737856446,0.4006195,1.6702881,-0.5046997,11.300417239133603,1.7902737522406873,97.52667999267578,18.018142700195312,98.28206634521484,17724625.0,0.0,0.0,0.0,0.0,0.0,0.0,0.0,17.724625163013116
1629,C,606158737856446.0,5.141479563948893,11.137299,4.925324238740459,151,1970-01-08 00:22:38.737856446,0.4006195,1.6702881,-0.5046997,11.300417239133603,1.7902737522406873,97.57472229003906,18.032182693481445,98.37261199951172,17724625.0,0.0,0.0,0.0,0.0,0.0,0.0,0.0,17.724625163013116
1629,C,606158788210450.0,5.922042963948893,9.991272,3.762940238740459,146,1970-01-08 00:22:38.788210450,0.9761963,1.3895874,-0.8105774,10.139475659372494,1.881740704710192,97.64772033691406,18.063152313232422,98.45069122314453,17774979.0,50354.0,0.2785463066848826,0.038484832066999985,0.21874443474953706,0.00701296036340529,0.0009689326169508587,0.005507328633689095,17.77497916703578
1629,C,606158788210450.0,5.922042963948893,9.991272,3.762940238740459,146,1970-01-08 00:22:38.788210450,0.9761963,1.3895874,-0.8105774,10.139475659372494,1.881740704710192,97.72077178955078,18.094024658203125,98.52881622314453,17774979.0,0.0,0.0,0.0,0.0,0.0,0.0,0.0,17.77497916703578
1629,C,606158788210450.0,5.922042963948893,9.991272,3.762940238740459,151,1970-01-08 00:22:38.788210450,0.9761963,1.3895874,-0.8105774,10.139475659372494,1.881740704710192,97.79389190673828,18.124805450439453,98.60700225830078,17774979.0,0.0,0.0,0.0,0.0,0.0,0.0,0.0,17.77497916703578
1629,C,606158788210450.0,5.922042963948893,9.991272,3.762940238740459,151,1970-01-08 00:22:38.788210450,0.9761963,1.3895874,-0.8105774,10.139475659372494,1.881740704710192,97.86705017089844,18.155488967895508,98.68524169921875,17774979.0,0.0,0.0,0.0,0.0,0.0,0.0,0.0,17.77497916703578
1629,C,606158838564454.0,4.845871063948893,10.2140045,2.242569738740459,146,1970-01-08 00:22:38.838564454,0.78349304,1.6510162,-1.0710449,10.825196671796634,2.118219302670734,98.13081359863281,18.0407657623291,98.83963775634766,17825333.0,50354.0,0.27110377148038256,0.015239046440499967,0.15120072470303708,0.0068255796545615924,0.0003836734722324677,0.003806780645848365,17.82533317094203
1629,C,606158838564454.0,4.845871063948893,10.2140045,2.242569738740459,146,1970-01-08 00:22:38.838564454,0.78349304,1.6510162,-1.0710449,10.825196671796634,2.118219302670734,98.38758087158203,17.928211212158203,98.99169158935547,17825333.0,0.0,0.0,0.0,0.0,0.0,0.0,0.0,17.82533317094203
1629,C,606158838564454.0,4.845871063948893,10.2140045,2.242569738740459,151,1970-01-08 00:22:38.838564454,0.78349304,1.6510162,-1.0710449,10.825196671796634,2.118219302670734,98.63753509521484,17.81780433654785,99.14147186279297,17825333.0,0.0,0.0,0.0,0.0,0.0,0.0,0.0,17.82533317094203
1629,C,606158838564454.0,4.845871063948893,10.2140045,2.242569738740459,151,1970-01-08 00:22:38.838564454,0.78349304,1.6510162,-1.0710449,10.825196671796634,2.118219302670734,98.88090515136719,17.70952033996582,99.28910064697266,17825333.0,0.0,0.0,0.0,0.0,0.0,0.0,0.0,17.82533317094203
1629,C,606158888918457.0,4.406128063948893,10.435608,1.9655006387404592,146,1970-01-08 00:22:38.888918457,0.6473999,2.1040192,-1.3197174,11.20430751019278,2.5666471203403503,99.14527893066406,17.660322189331055,99.46827697753906,17875687.0,50354.0,0.23293758204308257,0.026426093912499962,0.1059465878938371,0.005864669503098691,0.0006653297664350116,0.0026674172434031367,17.875687174033374
1629,C,606158888918457.0,4.406128063948893,10.435608,1.9655006387404592,146,1970-01-08 00:22:38.888918457,0.6473999,2.1040192,-1.3197174,11.20430751019278,2.5666471203403503,99.40289306640625,17.611572265625,99.64547729492188,17875687.0,0.0,0.0,0.0,0.0,0.0,0.0,0.0,17.875687174033374
1629,C,606158888918457.0,4.406128063948893,10.435608,1.9655006387404592,151,1970-01-08 00:22:38.888918457,0.6473999,2.1040192,-1.3197174,11.20430751019278,2.5666471203403503,99.65391540527344,17.563289642333984,99.82073211669922,17875687.0,0.0,0.0,0.0,0.0,0.0,0.0,0.0,17.875687174033374
1629,C,606158888918457.0,4.406128063948893,10.435608,1.9655006387404592,151,1970-01-08 00:22:38.888918457,0.6473999,2.1040192,-1.3197174,11.20430751019278,2.5666471203403503,99.89848327636719,17.515485763549805,99.99408721923828,17875687.0,0.0,0.0,0.0,0.0,0.0,0.0,0.0,17.875687174033374
1629,C,606158939272461.0,4.870864963948893,8.149612,1.4349067387404593,146,1970-01-08 00:22:38.939272461,0.37075806,1.7450409,-1.2907867,9.18631330385596,2.2019899151959494,99.94770812988281,17.564027786254883,100.09590148925781,17926041.0,50354.0,0.23356685346338257,-0.025549116060000047,0.08561205654283709,0.005880512669647583,-0.0006432500950426212,0.0021554547475790093,17.926041177939624
1629,C,606158939272461.0,4.870864963948893,8.149612,1.4349067387404593,146,1970-01-08 00:22:38.939272461,0.37075806,1.7450409,-1.2907867,9.18631330385596,2.2019899151959494,99.99703216552734,17.612483978271484,100.19776916503906,17926041.0,0.0,0.0,-0.0,0.0,0.0,-0.0,0.0,17.926041177939624
1629,C,606158939272461.0,4.870864963948893,8.149612,1.4349067387404593,151,1970-01-08 00:22:38.939272461,0.37075806,1.7450409,-1.2907867,9.18631330385596,2.2019899151959494,100.04645538330078,17.66085433959961,100.29971313476562,17926041.0,0.0,0.0,-0.0,0.0,0.0,-0.0,0.0,17.926041177939624
1629,C,606158939272461.0,4.870864963948893,8.149612,1.4349067387404593,151,1970-01-08 00:22:38.939272461,0.37075806,1.7450409,-1.2907867,9.18631330385596,2.2019899151959494,100.09598541259766,17.709138870239258,100.40172576904297,17926041.0,0.0,0.0,-0.0,0.0,0.0,-0.0,0.0,17.926041177939624
1629,C,606158989626465.0,3.2467957639488936,6.8866577,1.6177069387404592,146,1970-01-08 00:22:38.989626465,0.115997314,1.0957031,-0.84898376,8.591525855988698,1.3909687577183616,100.12140655517578,17.741317749023438,100.4661865234375,17976395.0,50354.0,0.20437834414628261,-0.11490103776310007,0.0768556545579371,0.005145633570570958,-0.0028928634277615704,0.0019349948148051823,17.97639518196229
1629,C,606158989626465.0,3.2467957639488936,6.8866577,1.6177069387404592,146,1970-01-08 00:22:38.989626465,0.115997314,1.0957031,-0.84898376,8.591525855988698,1.3909687577183616,100.14686584472656,17.773460388183594,100.53064727783203,17976395.0,0.0,0.0,-0.0,0.0,0.0,-0.0,0.0,17.97639518196229
1629,C,606158989626465.0,3.2467957639488936,6.8866577,1.6177069387404592,151,1970-01-08 00:22:38.989626465,0.115997314,1.0957031,-0.84898376,8.591525855988698,1.3909687577183616,100.17236328125,17.805574417114258,100.59513854980469,17976395.0,0.0,0.0,-0.0,0.0,0.0,-0.0,0.0,17.97639518196229
1629,C,606158989626465.0,3.2467957639488936,6.8866577,1.6177069387404592,151,1970-01-08 00:22:38.989626465,0.115997314,1.0957031,-0.84898376,8.591525855988698,1.3909687577183616,100.19792175292969,17.837677001953125,100.65966796875,17976395.0,0.0,0.0,-0.0,0.0,0.0,-0.0,0.0,17.97639518196229
1629,C,606159039980469.0,4.289260963948894,6.1418,2.510758238740459,146,1970-01-08 00:22:39.039980469,-0.4525299,1.0460358,-0.39442444,7.203982173346382,1.206045125252353,100.19298553466797,17.847829818725586,100.71741485595703,18026749.0,50354.0,0.18973530023828258,-0.16545172048710005,0.10394236777343709,0.004776965654099241,-0.004165577966703718,0.0026169569934318257,18.026749185984954
1629,C,606159039980469.0,4.289260963948894,6.1418,2.510758238740459,146,1970-01-08 00:22:39.039980469,-0.4525299,1.0460358,-0.39442444,7.203982173346382,1.206045125252353,100.18806457519531,17.857986450195312,100.7751693725586,18026749.0,0.0,0.0,-0.0,0.0,0.0,-0.0,0.0,18.026749185984954
1629,C,606159039980469.0,4.289260963948894,6.1418,2.510758238740459,151,1970-01-08 00:22:39.039980469,-0.4525299,1.0460358,-0.39442444,7.203982173346382,1.206045125252353,100.18315124511719,17.868152618408203,100.83291625976562,18026749.0,0.0,0.0,-0.0,0.0,0.0,-0.0,0.0,18.026749185984954
1629,C,606159039980469.0,4.289260963948894,6.1418,2.510758238740459,151,1970-01-08 00:22:39.039980469,-0.4525299,1.0460358,-0.39442444,7.203982173346382,1.206045125252353,100.17825317382812,17.878318786621094,100.89066314697266,18026749.0,0.0,0.0,-0.0,0.0,0.0,-0.0,0.0,18.026749185984954
1629,C,606159090334473.0,3.8830567639488938,2.6012268,1.748108638740459,146,1970-01-08 00:22:39.090334473,-0.5437927,0.84947205,-0.06599426,5.276102140010841,1.0107761901912016,100.16473388671875,17.874069213867188,100.93519592285156,18077103.0,50354.0,0.20575444343528262,-0.2733460142564001,0.10722549137433707,0.005180279622370111,-0.006882032600933385,0.0026996161963316846,18.07710319000762
1629,C,606159090334473.0,3.8830567639488938,2.6012268,1.748108638740459,146,1970-01-08 00:22:39.090334473,-0.5437927,0.84947205,-0.06599426,5.276102140010841,1.0107761901912016,100.15121459960938,17.869827270507812,100.97974395751953,18077103.0,0.0,0.0,-0.0,0.0,0.0,-0.0,0.0,18.07710319000762
1629,C,606159090334473.0,3.8830567639488938,2.6012268,1.748108638740459,151,1970-01-08 00:22:39.090334473,-0.5437927,0.84947205,-0.06599426,5.276102140010841,1.0107761901912016,100.1376953125,17.865598678588867,101.02429962158203,18077103.0,0.0,0.0,-0.0,0.0,0.0,-0.0,0.0,18.07710319000762
1629,C,606159090334473.0,3.8830567639488938,2.6012268,1.748108638740459,151,1970-01-08 00:22:39.090334473,-0.5437927,0.84947205,-0.06599426,5.276102140010841,1.0107761901912016,100.12417602539062,17.86137580871582,101.06883239746094,18077103.0,0.0,0.0,-0.0,0.0,0.0,-0.0,0.0,18.07710319000762
1629,C,606159140688477.0,4.494552763948894,2.520523,1.701447238740459,146,1970-01-08 00:22:39.140688477,-0.9681244,0.17306519,0.112854004,4.923243080839553,0.9899254719845975,100.07818603515625,17.85430335998535,101.07673645019531,18127457.0,50354.0,0.2109230750838826,-0.36451890528540004,0.08684946832733707,0.005310410261386913,-0.009177492478370517,0.0021866090640773658,18.127457194030285
1629,C,606159140688477.0,4.494552763948894,2.520523,1.701447238740459,146,1970-01-08 00:22:39.140688477,-0.9681244,0.17306519,0.112854004,4.923243080839553,0.9899254719845975,100.0322036743164,17.84723472595215,101.08464813232422,18127457.0,0.0,0.0,-0.0,0.0,0.0,-0.0,0.0,18.127457194030285
1629,C,606159140688477.0,4.494552763948894,2.520523,1.701447238740459,151,1970-01-08 00:22:39.140688477,-0.9681244,0.17306519,0.112854004,4.923243080839553,0.9899254719845975,99.98623657226562,17.84017562866211,101.09258270263672,18127457.0,0.0,0.0,-0.0,0.0,0.0,-0.0,0.0,18.127457194030285
1629,C,606159140688477.0,4.494552763948894,2.520523,1.701447238740459,151,1970-01-08 00:22:39.140688477,-0.9681244,0.17306519,0.112854004,4.923243080839553,0.9899254719845975,99.94026184082031,17.833120346069336,101.10050201416016,18127457.0,0.0,0.0,-0.0,0.0,0.0,-0.0,0.0,18.127457194030285
1629,C,606159191042481.0,3.8455505639488936,5.7578278,2.080475638740459,146,1970-01-08 00:22:39.191042481,-0.6912842,0.25271606,0.4529724,7.236252012779816,0.8642472142352116,99.90843963623047,17.808637619018555,101.1094741821289,18177811.0,50354.0,0.20997878148648264,-0.28504516190840007,0.09521747228633708,0.005286635781485174,-0.007176582041367789,0.002397290299753109,18.177811197936535
1629,C,606159191042481.0,3.8455505639488936,5.7578278,2.080475638740459,146,1970-01-08 00:22:39.191042481,-0.6912842,0.25271606,0.4529724,7.236252012779816,0.8642472142352116,99.87662506103516,17.784154891967773,101.11846923828125,18177811.0,0.0,0.0,-0.0,0.0,0.0,-0.0,0.0,18.177811197936535
1629,C,606159191042481.0,3.8455505639488936,5.7578278,2.080475638740459,151,1970-01-08 00:22:39.191042481,-0.6912842,0.25271606,0.4529724,7.236252012779816,0.8642472142352116,99.84480285644531,17.759674072265625,101.1274642944336,18177811.0,0.0,0.0,-0.0,0.0,0.0,-0.0,0.0,18.177811197936535
1629,C,606159191042481.0,3.8455505639488936,5.7578278,2.080475638740459,151,1970-01-08 00:22:39.191042481,-0.6912842,0.25271606,0.4529724,7.236252012779816,0.8642472142352116,99.81298828125,17.735204696655273,101.13648223876953,18177811.0,0.0,0.0,-0.0,0.0,0.0,-0.0,0.0,18.177811197936535
1629,C,606159241396485.0,6.013794063948894,12.393753,1.7521217387404593,146,1970-01-08 00:22:39.241396485,-0.699234,-0.35610962,0.2677002,12.872370651062177,0.8290992976070987,99.77169036865234,17.72504425048828,101.11566925048828,18228165.0,50354.0,0.2482287196965826,-0.0364668501984,0.09649330417283708,0.006249654475800861,-0.0009181258874451168,0.002429411919159519,18.2281652019592
1629,C,606159241396485.0,6.013794063948894,12.393753,1.7521217387404593,146,1970-01-08 00:22:39.241396485,-0.699234,-0.35610962,0.2677002,12.872370651062177,0.8290992976070987,99.73040008544922,17.714872360229492,101.09486389160156,18228165.0,0.0,0.0,0.0,0.0,0.0,-0.0,0.0,18.2281652019592
1629,C,606159241396485.0,6.013794063948894,12.393753,1.7521217387404593,151,1970-01-08 00:22:39.241396485,-0.699234,-0.35610962,0.2677002,12.872370651062177,0.8290992976070987,99.68911743164062,17.704681396484375,101.07408142089844,18228165.0,0.0,0.0,0.0,0.0,0.0,0.0,0.0,18.2281652019592
1629,C,606159241396485.0,6.013794063948894,12.393753,1.7521217387404593,151,1970-01-08 00:22:39.241396485,-0.699234,-0.35610962,0.2677002,12.872370651062177,0.8290992976070987,99.64783477783203,17.694477081298828,101.05329895019531,18228165.0,0.0,0.0,0.0,0.0,0.0,0.0,0.0,18.2281652019592
1629,C,606159291750489.0,4.530578763948894,6.966217,3.2380836387404592,146,1970-01-08 00:22:39.291750489,-0.5205078,-1.4952698,0.31150818,7.631087884493569,1.6136286719254191,99.72364807128906,17.732685089111328,101.0115737915039,18278519.0,50354.0,0.26547567468798267,-0.006043235310000022,0.12563840078883712,0.00668388106161934,-0.00015215053539987058,0.003163198016660552,18.278519205981866
1629,C,606159291750489.0,4.530578763948894,6.966217,3.2380836387404592,146,1970-01-08 00:22:39.291750489,-0.5205078,-1.4952698,0.31150818,7.631087884493569,1.6136286719254191,99.79755401611328,17.76999855041504,100.96934509277344,18278519.0,0.0,0.0,-0.0,0.0,0.0,-0.0,0.0,18.278519205981866
1629,C,606159291750489.0,4.530578763948894,6.966217,3.2380836387404592,151,1970-01-08 00:22:39.291750489,-0.5205078,-1.4952698,0.31150818,7.631087884493569,1.6136286719254191,99.86959838867188,17.806425094604492,100.92660522460938,18278519.0,0.0,0.0,-0.0,0.0,0.0,-0.0,0.0,18.278519205981866
1629,C,606159291750489.0,4.530578763948894,6.966217,3.2380836387404592,151,1970-01-08 00:22:39.291750489,-0.5205078,-1.4952698,0.31150818,7.631087884493569,1.6136286719254191,99.9398422241211,17.841995239257812,100.8833999633789,18278519.0,0.0,0.0,-0.0,0.0,0.0,-0.0,0.0,18.278519205981866
1629,C,606159342104493.0,5.570526263948894,19.408813,6.07981943874046,146,1970-01-08 00:22:39.342104493,0.2056427,1.0282898,0.22679138,19.4911162795966,1.0728947585339554,99.96578979492188,17.821943283081055,100.93453216552734,18328873.0,50354.0,0.2543155212873826,0.17057493030999996,0.23459684578173712,0.006402901879452433,0.004294565020414869,0.005906444786246795,18.32887321000453
1629,C,606159342104493.0,5.570526263948894,19.408813,6.07981943874046,146,1970-01-08 00:22:39.342104493,0.2056427,1.0282898,0.22679138,19.4911162795966,1.0728947585339554,99.99170684814453,17.801864624023438,100.98565673828125,18328873.0,0.0,0.0,0.0,0.0,0.0,0.0,0.0,18.32887321000453
1629,C,606159342104493.0,5.570526263948894,19.408813,6.07981943874046,151,1970-01-08 00:22:39.342104493,0.2056427,1.0282898,0.22679138,19.4911162795966,1.0728947585339554,100.01760864257812,17.781766891479492,101.0367660522461,18328873.0,0.0,0.0,0.0,0.0,0.0,0.0,0.0,18.32887321000453
1629,C,606159342104493.0,5.570526263948894,19.408813,6.07981943874046,151,1970-01-08 00:22:39.342104493,0.2056427,1.0282898,0.22679138,19.4911162795966,1.0728947585339554,100.0434799194336,17.761646270751953,101.08786010742188,18328873.0,0.0,0.0,0.0,0.0,0.0,0.0,0.0,18.32887321000453
1629,C,606159392458497.0,1.4545899639488935,12.633606,2.738266738740459,146,1970-01-08 00:22:39.392458497,1.0755768,-0.20121765,-0.6041565,14.012533586957927,1.2499436274736604,100.1059799194336,17.93714714050293,101.08619689941406,18379227.0,50354.0,0.1768713512697826,0.31326278316299994,0.22201295569043708,0.0044530900109193165,0.00788701709169485,0.005589620185418135,18.379227214027196
1629,C,606159392458497.0,1.4545899639488935,12.633606,2.738266738740459,146,1970-01-08 00:22:39.392458497,1.0755768,-0.20121765,-0.6041565,14.012533586957927,1.2499436274736604,100.16695404052734,18.108272552490234,101.0841064453125,18379227.0,0.0,0.0,0.0,0.0,0.0,0.0,0.0,18.379227214027196
1629,C,606159392458497.0,1.4545899639488935,12.633606,2.738266738740459,151,1970-01-08 00:22:39.392458497,1.0755768,-0.20121765,-0.6041565,14.012533586957927,1.2499436274736604,100.22647094726562,18.275146484375,101.08163452148438,18379227.0,0.0,0.0,0.0,0.0,0.0,0.0,0.0,18.379227214027196
1629,C,606159392458497.0,1.4545899639488935,12.633606,2.738266738740459,151,1970-01-08 00:22:39.392458497,1.0755768,-0.20121765,-0.6041565,14.012533586957927,1.2499436274736604,100.28453826904297,18.437870025634766,101.0787582397461,18379227.0,0.0,0.0,0.0,0.0,0.0,0.0,0.0,18.379227214027196
1629,C,606159442812500.0,1.4259645639488934,8.817276,0.07515023874045923,146,1970-01-08 00:22:39.442812500,0.35232544,1.0414429,-0.87423706,11.590101965630652,1.4046447831067637,100.3218765258789,18.471569061279297,101.1410140991211,18429581.0,50354.0,0.07252372134888259,0.046599656113999965,0.07083339924203708,0.001825929732400817,0.0011732395419821772,0.0017833724927167676,18.429581217002124
1629,C,606159442812500.0,1.4259645639488934,8.817276,0.07515023874045923,146,1970-01-08 00:22:39.442812500,0.35232544,1.0414429,-0.87423706,11.590101965630652,1.4046447831067637,100.3592300415039,18.505224227905273,101.20329284667969,18429581.0,0.0,0.0,-0.0,0.0,0.0,0.0,0.0,18.429581217002124
1629,C,606159442812500.0,1.4259645639488934,8.817276,0.07515023874045923,151,1970-01-08 00:22:39.442812500,0.35232544,1.0414429,-0.87423706,11.590101965630652,1.4046447831067637,100.39666748046875,18.538846969604492,101.26563262939453,18429581.0,0.0,0.0,-0.0,0.0,0.0,-0.0,0.0,18.429581217002124
1629,C,606159442812500.0,1.4259645639488934,8.817276,0.07515023874045923,151,1970-01-08 00:22:39.442812500,0.35232544,1.0414429,-0.87423706,11.590101965630652,1.4046447831067637,100.4341049194336,18.572416305541992,101.32797241210938,18429581.0,0.0,0.0,-0.0,0.0,0.0,-0.0,0.0,18.429581217002124
1629,C,606159493166504.0,4.450195463948894,8.366379,1.1847084387404592,146,1970-01-08 00:22:39.493166504,-0.45439148,0.5259247,-0.21775818,9.584389338173887,0.7283454071548696,100.42074584960938,18.578365325927734,101.35733795166016,18479935.0,50354.0,0.1479440810223826,-0.06083631806500004,0.031719461922937085,0.003724788127900527,-0.0015316759799225061,0.000798600892833787,18.47993522102479
1629,C,606159493166504.0,4.450195463948894,8.366379,1.1847084387404592,146,1970-01-08 00:22:39.493166504,-0.45439148,0.5259247,-0.21775818,9.584389338173887,0.7283454071548696,100.40737915039062,18.584321975708008,101.38670349121094,18479935.0,0.0,0.0,-0.0,0.0,0.0,-0.0,0.0,18.47993522102479
1629,C,606159493166504.0,4.450195463948894,8.366379,1.1847084387404592,151,1970-01-08 00:22:39.493166504,-0.45439148,0.5259247,-0.21775818,9.584389338173887,0.7283454071548696,100.3940200805664,18.590282440185547,101.41606140136719,18479935.0,0.0,0.0,-0.0,0.0,0.0,-0.0,0.0,18.47993522102479
1629,C,606159493166504.0,4.450195463948894,8.366379,1.1847084387404592,151,1970-01-08 00:22:39.493166504,-0.45439148,0.5259247,-0.21775818,9.584389338173887,0.7283454071548696,100.38066864013672,18.596256256103516,101.4454345703125,18479935.0,0.0,0.0,-0.0,0.0,0.0,-0.0,0.0,18.47993522102479
1629,C,606159543520508.0,2.9770355639488937,11.300446,2.546494238740459,146,1970-01-08 00:22:39.543520508,-0.26164246,-0.40016174,0.13787842,12.274306498244572,0.4975908497313587,100.41570281982422,18.612863540649414,101.44094848632812,18530289.0,50354.0,0.1869953955893826,0.0016824530249999923,0.09394048981093708,0.004707983074753886,4.235911981042481e-05,0.002365139711969963,18.53028922493104
1629,C,606159543520508.0,2.9770355639488937,11.300446,2.546494238740459,146,1970-01-08 00:22:39.543520508,-0.26164246,-0.40016174,0.13787842,12.274306498244572,0.4975908497313587,100.4498519897461,18.629060745239258,101.43619537353516,18530289.0,0.0,0.0,0.0,0.0,0.0,0.0,0.0,18.53028922493104
1629,C,606159543520508.0,2.9770355639488937,11.300446,2.546494238740459,151,1970-01-08 00:22:39.543520508,-0.26164246,-0.40016174,0.13787842,12.274306498244572,0.4975908497313587,100.48316192626953,18.64485740661621,101.43119049072266,18530289.0,0.0,0.0,0.0,0.0,0.0,0.0,0.0,18.53028922493104
1629,C,606159543520508.0,2.9770355639488937,11.300446,2.546494238740459,151,1970-01-08 00:22:39.543520508,-0.26164246,-0.40016174,0.13787842,12.274306498244572,0.4975908497313587,100.5156478881836,18.660261154174805,101.42594146728516,18530289.0,0.0,0.0,0.0,0.0,0.0,0.0,0.0,18.53028922493104
1629,C,606159593874512.0,2.1431275639488936,6.8121643,2.4876106387404593,146,1970-01-08 00:22:39.593874512,-0.008575439,-0.08786011,0.11151123,8.783599369009528,0.14222408902632397,100.5134048461914,18.655582427978516,101.42029571533203,18580643.0,50354.0,0.1289103470710826,-0.03744801047690004,0.1267436585003371,0.003245575808208647,-0.0009428285597769123,0.003191025090062987,18.580643228953704
1629,C,606159593874512.0,2.1431275639488936,6.8121643,2.4876106387404593,146,1970-01-08 00:22:39.593874512,-0.008575439,-0.08786011,0.11151123,8.783599369009528,0.14222408902632397,100.51117706298828,18.650901794433594,101.4146728515625,18580643.0,0.0,0.0,-0.0,0.0,0.0,-0.0,0.0,18.580643228953704
1629,C,606159593874512.0,2.1431275639488936,6.8121643,2.4876106387404593,151,1970-01-08 00:22:39.593874512,-0.008575439,-0.08786011,0.11151123,8.783599369009528,0.14222408902632397,100.50895690917969,18.646224975585938,101.40904235839844,18580643.0,0.0,0.0,-0.0,0.0,0.0,-0.0,0.0,18.580643228953704
1629,C,606159593874512.0,2.1431275639488936,6.8121643,2.4876106387404593,151,1970-01-08 00:22:39.593874512,-0.008575439,-0.08786011,0.11151123,8.783599369009528,0.14222408902632397,100.50672149658203,18.641542434692383,101.40340423583984,18580643.0,0.0,0.0,-0.0,0.0,0.0,-0.0,0.0,18.580643228953704
1629,C,606159644228516.0,3.566192763948894,5.7820435,3.077164438740459,146,1970-01-08 00:22:39.644228516,0.20204163,0.14318848,0.048797607,7.038528727301917,0.25239843007969315,100.51904296875,18.637836456298828,101.41036987304688,18630997.0,50354.0,0.1437435578954826,-0.17638483021940005,0.1401043421257371,0.0036190315571345655,-0.004440840870433835,0.0035274070216996835,18.63099723297637
1629,C,606159644228516.0,3.566192763948894,5.7820435,3.077164438740459,146,1970-01-08 00:22:39.644228516,0.20204163,0.14318848,0.048797607,7.038528727301917,0.25239843007969315,100.5313720703125,18.63412857055664,101.41732788085938,18630997.0,0.0,0.0,-0.0,0.0,0.0,-0.0,0.0,18.63099723297637
1629,C,606159644228516.0,3.566192763948894,5.7820435,3.077164438740459,151,1970-01-08 00:22:39.644228516,0.20204163,0.14318848,0.048797607,7.038528727301917,0.25239843007969315,100.54369354248047,18.630414962768555,101.42427825927734,18630997.0,0.0,0.0,-0.0,0.0,0.0,-0.0,0.0,18.63099723297637
1629,C,606159644228516.0,3.566192763948894,5.7820435,3.077164438740459,151,1970-01-08 00:22:39.644228516,0.20204163,0.14318848,0.048797607,7.038528727301917,0.25239843007969315,100.55602264404297,18.626712799072266,101.43124389648438,18630997.0,0.0,0.0,-0.0,0.0,0.0,-0.0,0.0,18.63099723297637
1629,C,606159694582520.0,6.3312226639488935,5.7041473,5.896897138740459,146,1970-01-08 00:22:39.694582520,0.5080261,0.5476074,-0.12471008,5.8080113440814785,0.7573090431716607,100.59087371826172,18.62781524658203,101.46084594726562,18681351.0,50354.0,0.2491872282281826,-0.20428137422840006,0.22593994833623707,0.006273786845100954,-0.005143192158948429,0.005688490079261441,18.681351236999035
1629,C,606159694582520.0,6.3312226639488935,5.7041473,5.896897138740459,146,1970-01-08 00:22:39.694582520,0.5080261,0.5476074,-0.12471008,5.8080113440814785,0.7573090431716607,100.62574005126953,18.62890625,101.49047088623047,18681351.0,0.0,0.0,-0.0,0.0,0.0,-0.0,0.0,18.681351236999035
1629,C,606159694582520.0,6.3312226639488935,5.7041473,5.896897138740459,151,1970-01-08 00:22:39.694582520,0.5080261,0.5476074,-0.12471008,5.8080113440814785,0.7573090431716607,100.66060638427734,18.62997817993164,101.52008819580078,18681351.0,0.0,0.0,-0.0,0.0,0.0,-0.0,0.0,18.681351236999035
1629,C,606159694582520.0,6.3312226639488935,5.7041473,5.896897138740459,151,1970-01-08 00:22:39.694582520,0.5080261,0.5476074,-0.12471008,5.8080113440814785,0.7573090431716607,100.6954574584961,18.631032943725586,101.54969787597656,18681351.0,0.0,0.0,-0.0,0.0,0.0,-0.0,0.0,18.681351236999035
1629,C,606159744936524.0,7.710891833948894,4.7303467,4.382691178740459,146,1970-01-08 00:22:39.744936524,0.7764282,1.0214996,-0.46554565,4.825909076360604,1.364930377268131,100.75265502929688,18.64439582824707,101.60721588134766,18731705.0,50354.0,0.35353831671357266,-0.23075994456200002,0.2588091950692171,0.00890103419989762,-0.005809843124237475,0.00651603910425768,18.7317052410217
1629,C,606159744936524.0,7.710891833948894,4.7303467,4.382691178740459,146,1970-01-08 00:22:39.744936524,0.7764282,1.0214996,-0.46554565,4.825909076360604,1.364930377268131,100.80989074707031,18.657705307006836,101.6647720336914,18731705.0,0.0,0.0,-0.0,0.0,0.0,-0.0,0.0,18.7317052410217
1629,C,606159744936524.0,7.710891833948894,4.7303467,4.382691178740459,151,1970-01-08 00:22:39.744936524,0.7764282,1.0214996,-0.46554565,4.825909076360604,1.364930377268131,100.86714172363281,18.67096710205078,101.72234344482422,18731705.0,0.0,0.0,-0.0,0.0,0.0,-0.0,0.0,18.7317052410217
1629,C,606159744936524.0,7.710891833948894,4.7303467,4.382691178740459,151,1970-01-08 00:22:39.744936524,0.7764282,1.0214996,-0.46554565,4.825909076360604,1.364930377268131,100.92439270019531,18.684165954589844,101.77992248535156,18731705.0,0.0,0.0,-0.0,0.0,0.0,-0.0,0.0,18.7317052410217
1629,C,606159795290528.0,4.764663763948894,8.9058075,1.1986244387404592,146,1970-01-08 00:22:39.795290528,0.5736389,0.002532959,-0.6575012,9.976675868389316,0.8725685253754835,100.95523071289062,18.71642303466797,101.78665161132812,18782059.0,50354.0,0.31409706328827264,-0.15015174570660003,0.1405207833013171,0.00790802176240884,-0.0037803705016550694,0.0035378917611772606,18.78205924492795
1629,C,606159795290528.0,4.764663763948894,8.9058075,1.1986244387404592,146,1970-01-08 00:22:39.795290528,0.5736389,0.002532959,-0.6575012,9.976675868389316,0.8725685253754835,100.98607635498047,18.74867057800293,101.79338073730469,18782059.0,0.0,0.0,-0.0,0.0,0.0,-0.0,0.0,18.78205924492795
1629,C,606159795290528.0,4.764663763948894,8.9058075,1.1986244387404592,151,1970-01-08 00:22:39.795290528,0.5736389,0.002532959,-0.6575012,9.976675868389316,0.8725685253754835,101.01693725585938,18.78091812133789,101.80014038085938,18782059.0,0.0,0.0,-0.0,0.0,0.0,-0.0,0.0,18.78205924492795
1629,C,606159795290528.0,4.764663763948894,8.9058075,1.1986244387404592,151,1970-01-08 00:22:39.795290528,0.5736389,0.002532959,-0.6575012,9.976675868389316,0.8725685253754835,101.04780578613281,18.81316566467285,101.80693054199219,18782059.0,0.0,0.0,-0.0,0.0,0.0,-0.0,0.0,18.78205924492795
1629,C,606159845644532.0,-2.529495436051107,13.429382,-5.943069061259541,146,1970-01-08 00:22:39.845644532,0.21917725,0.14186096,-0.9349518,19.83496335970072,0.9707203856996741,101.06420135498047,18.857688903808594,101.8237533569336,18832413.0,50354.0,0.05627483299148259,0.06886386604149998,-0.11945088226116292,0.0014168314702265573,0.0017337855553268451,-0.003007414862689299,18.832413248950616
1629,C,606159845644532.0,-2.529495436051107,13.429382,-5.943069061259541,146,1970-01-08 00:22:39.845644532,0.21917725,0.14186096,-0.9349518,19.83496335970072,0.9707203856996741,101.08060455322266,18.902202606201172,101.8405990600586,18832413.0,0.0,-0.0,0.0,-0.0,0.0,0.0,-0.0,18.832413248950616
1629,C,606159845644532.0,-2.529495436051107,13.429382,-5.943069061259541,151,1970-01-08 00:22:39.845644532,0.21917725,0.14186096,-0.9349518,19.83496335970072,0.9707203856996741,101.09703063964844,18.94671630859375,101.85746002197266,18832413.0,0.0,-0.0,0.0,-0.0,-0.0,0.0,-0.0,18.832413248950616
1629,C,606159845644532.0,-2.529495436051107,13.429382,-5.943069061259541,151,1970-01-08 00:22:39.845644532,0.21917725,0.14186096,-0.9349518,19.83496335970072,0.9707203856996741,101.11348724365234,18.99122428894043,101.87434387207031,18832413.0,0.0,-0.0,0.0,-0.0,-0.0,0.0,-0.0,18.832413248950616
1629,C,606159895998536.0,2.788635563948894,6.890793,-0.8782493612595408,146,1970-01-08 00:22:39.895998536,-1.0442505,-0.48786926,-0.52565,10.051779145300154,1.266800475253778,101.05477142333984,19.021709442138672,101.85437774658203,18882767.0,50354.0,0.0065243710000825825,0.018131845974999984,-0.17174033392376292,0.0001642640886690792,0.0004565054861125746,-0.004323906387198579,18.88276725297328
1629,C,606159895998536.0,2.788635563948894,6.890793,-0.8782493612595408,146,1970-01-08 00:22:39.895998536,-1.0442505,-0.48786926,-0.52565,10.051779145300154,1.266800475253778,100.99603271484375,19.052175521850586,101.8343734741211,18882767.0,0.0,0.0,-0.0,-0.0,0.0,0.0,-0.0,18.88276725297328
1629,C,606159895998536.0,2.788635563948894,6.890793,-0.8782493612595408,151,1970-01-08 00:22:39.895998536,-1.0442505,-0.48786926,-0.52565,10.051779145300154,1.266800475253778,100.9372787475586,19.082624435424805,101.81432342529297,18882767.0,0.0,0.0,-0.0,-0.0,0.0,-0.0,-0.0,18.88276725297328
1629,C,606159895998536.0,2.788635563948894,6.890793,-0.8782493612595408,151,1970-01-08 00:22:39.895998536,-1.0442505,-0.48786926,-0.52565,10.051779145300154,1.266800475253778,100.87848663330078,19.1130428314209,101.79422760009766,18882767.0,0.0,0.0,-0.0,-0.0,0.0,-0.0,-0.0,18.88276725297328
1629,C,606159946352540.0,0.7420960639488934,7.139694,-0.45779346125954135,146,1970-01-08 00:22:39.946352540,-0.52864075,-0.5881195,0.7373047,11.014983029291448,1.081186297306298,100.83965301513672,19.082380294799805,101.75631713867188,18933121.0,50354.0,0.0888932301955826,-0.14022362880100003,-0.033637550142562936,0.002238064856634183,-0.0035304103023227782,-0.0008468925999393071,18.933121256995946
1629,C,606159946352540.0,0.7420960639488934,7.139694,-0.45779346125954135,146,1970-01-08 00:22:39.946352540,-0.52864075,-0.5881195,0.7373047,11.014983029291448,1.081186297306298,100.80084991455078,19.051694869995117,101.71844482421875,18933121.0,0.0,0.0,-0.0,-0.0,0.0,-0.0,-0.0,18.933121256995946
1629,C,606159946352540.0,0.7420960639488934,7.139694,-0.45779346125954135,151,1970-01-08 00:22:39.946352540,-0.52864075,-0.5881195,0.7373047,11.014983029291448,1.081186297306298,100.76206970214844,19.020986557006836,101.68058776855469,18933121.0,0.0,0.0,-0.0,-0.0,0.0,-0.0,-0.0,18.933121256995946
1629,C,606159946352540.0,0.7420960639488934,7.139694,-0.45779346125954135,151,1970-01-08 00:22:39.946352540,-0.52864075,-0.5881195,0.7373047,11.014983029291448,1.081186297306298,100.72333526611328,18.990251541137695,101.64277648925781,18933121.0,0.0,0.0,-0.0,-0.0,0.0,-0.0,-0.0,18.933121256995946
1629,C,606159996706543.0,2.6705170639488935,7.2333374,1.6673896387404592,146,1970-01-08 00:22:39.996706543,-1.2528381,-0.21304321,0.6762848,9.114986824415091,1.4395665475585886,100.6549301147461,18.95899772644043,101.62507629394531,18983475.0,50354.0,0.08591936072108258,-0.13159938844220004,0.03045400296043707,0.0021631917448746963,-0.0033132778028092703,0.0007667404325349241,18.983475259970874
1629,C,606159996706543.0,2.6705170639488935,7.2333374,1.6673896387404592,146,1970-01-08 00:22:39.996706543,-1.2528381,-0.21304321,0.6762848,9.114986824415091,1.4395665475585886,100.5865478515625,18.927722930908203,101.60740661621094,18983475.0,0.0,0.0,-0.0,0.0,0.0,-0.0,0.0,18.983475259970874
1629,C,606159996706543.0,2.6705170639488935,7.2333374,1.6673896387404592,151,1970-01-08 00:22:39.996706543,-1.2528381,-0.21304321,0.6762848,9.114986824415091,1.4395665475585886,100.51820373535156,18.89643669128418,101.58980560302734,18983475.0,0.0,0.0,-0.0,0.0,0.0,-0.0,0.0,18.983475259970874
1629,C,606159996706543.0,2.6705170639488935,7.2333374,1.6673896387404592,151,1970-01-08 00:22:39.996706543,-1.2528381,-0.21304321,0.6762848,9.114986824415091,1.4395665475585886,100.44987487792969,18.865121841430664,101.57221984863281,18983475.0,0.0,0.0,-0.0,0.0,0.0,-0.0,0.0,18.983475259970874
1629,C,606160047060547.0,5.149185263948894,9.698364,3.727509338740459,146,1970-01-08 00:22:40.047060547,-0.99328613,0.94329834,0.62664795,9.973712409939623,1.506358771188436,100.34782409667969,18.629732131958008,101.593994140625,19033829.0,50354.0,0.1968766455094826,-0.06717975385220004,0.1358273715560371,0.004956763303992244,-0.0016913846627368404,0.0034197257336663466,19.03382926399354
1629,C,606160047060547.0,5.149185263948894,9.698364,3.727509338740459,146,1970-01-08 00:22:40.047060547,-0.99328613,0.94329834,0.62664795,9.973712409939623,1.506358771188436,100.24835205078125,18.40021324157715,101.61691284179688,19033829.0,0.0,0.0,-0.0,0.0,0.0,-0.0,0.0,19.03382926399354
1629,C,606160047060547.0,5.149185263948894,9.698364,3.727509338740459,151,1970-01-08 00:22:40.047060547,-0.99328613,0.94329834,0.62664795,9.973712409939623,1.506358771188436,100.15135955810547,18.176414489746094,101.64089965820312,19033829.0,0.0,0.0,-0.0,0.0,0.0,-0.0,0.0,19.03382926399354
1629,C,606160047060547.0,5.149185263948894,9.698364,3.727509338740459,151,1970-01-08 00:22:40.047060547,-0.99328613,0.94329834,0.62664795,9.973712409939623,1.506358771188436,100.05681610107422,17.958206176757812,101.66594696044922,19033829.0,0.0,0.0,-0.0,0.0,0.0,-0.0,0.0,19.03382926399354
1629,C,606160097414551.0,7.767852863948894,7.765854,4.196152478740459,146,1970-01-08 00:22:40.097414551,-0.47225952,0.43621826,0.34965515,7.8480762919326965,0.7318293165141586,100.03916931152344,17.937185287475586,101.68531036376953,19084183.0,50354.0,0.3252122689460826,-0.05377258341400004,0.1994940335787171,0.008187869295255524,-0.0013538323326142791,0.005022661283411361,19.084183268016204
1629,C,606160097414551.0,7.767852863948894,7.765854,4.196152478740459,146,1970-01-08 00:22:40.097414551,-0.47225952,0.43621826,0.34965515,7.8480762919326965,0.7318293165141586,100.02149963378906,17.916170120239258,101.70467376708984,19084183.0,0.0,0.0,-0.0,0.0,0.0,-0.0,0.0,19.084183268016204
1629,C,606160097414551.0,7.767852863948894,7.765854,4.196152478740459,151,1970-01-08 00:22:40.097414551,-0.47225952,0.43621826,0.34965515,7.8480762919326965,0.7318293165141586,100.00385284423828,17.895158767700195,101.72406005859375,19084183.0,0.0,0.0,-0.0,0.0,0.0,-0.0,0.0,19.084183268016204
1629,C,606160097414551.0,7.767852863948894,7.765854,4.196152478740459,151,1970-01-08 00:22:40.097414551,-0.47225952,0.43621826,0.34965515,7.8480762919326965,0.7318293165141586,99.98619842529297,17.87415885925293,101.74343872070312,19084183.0,0.0,0.0,-0.0,0.0,0.0,-0.0,0.0,19.084183268016204
1629,C,606160147768555.0,5.729370263948894,14.068054,4.037949338740459,146,1970-01-08 00:22:40.147768555,0.59295654,0.082855225,0.34088135,14.167590623373815,0.6889575759191525,100.0162124633789,17.85665512084961,101.74461364746094,19134537.0,50354.0,0.33981958669108264,0.05624310171599999,0.20730998145871712,0.008555637734121388,0.0014160325719037318,0.0052194434031861215,19.13453727203887
1629,C,606160147768555.0,5.729370263948894,14.068054,4.037949338740459,146,1970-01-08 00:22:40.147768555,0.59295654,0.082855225,0.34088135,14.167590623373815,0.6889575759191525,100.04620361328125,17.839147567749023,101.74578094482422,19134537.0,0.0,0.0,0.0,0.0,0.0,0.0,0.0,19.13453727203887
1629,C,606160147768555.0,5.729370263948894,14.068054,4.037949338740459,151,1970-01-08 00:22:40.147768555,0.59295654,0.082855225,0.34088135,14.167590623373815,0.6889575759191525,100.07621002197266,17.82164192199707,101.74694061279297,19134537.0,0.0,0.0,0.0,0.0,0.0,0.0,0.0,19.13453727203887
1629,C,606160147768555.0,5.729370263948894,14.068054,4.037949338740459,151,1970-01-08 00:22:40.147768555,0.59295654,0.082855225,0.34088135,14.167590623373815,0.6889575759191525,100.10620880126953,17.804136276245117,101.74808502197266,19134537.0,0.0,0.0,0.0,0.0,0.0,0.0,0.0,19.13453727203887
1629,C,606160198122559.0,-0.552795436051106,7.4164886,0.3670356387404592,146,1970-01-08 00:22:40.198122559,0.8344116,-1.040451,-0.58151245,11.615819143999145,1.4549700103852872,100.13309478759766,17.84189796447754,101.69964599609375,19184891.0,50354.0,0.13033062444198262,0.047447129040199994,0.11090430677803709,0.0032813341315757966,0.0011945763678451154,0.00279223773175064,19.18489127594512
1629,C,606160198122559.0,-0.552795436051106,7.4164886,0.3670356387404592,146,1970-01-08 00:22:40.198122559,0.8344116,-1.040451,-0.58151245,11.615819143999145,1.4549700103852872,100.15996551513672,17.879680633544922,101.6512222290039,19184891.0,0.0,-0.0,-0.0,0.0,0.0,0.0,0.0,19.18489127594512
1629,C,606160198122559.0,-0.552795436051106,7.4164886,0.3670356387404592,151,1970-01-08 00:22:40.198122559,0.8344116,-1.040451,-0.58151245,11.615819143999145,1.4549700103852872,100.18680572509766,17.917490005493164,101.60281372070312,19184891.0,0.0,-0.0,-0.0,0.0,-0.0,-0.0,0.0,19.18489127594512
1629,C,606160198122559.0,-0.552795436051106,7.4164886,0.3670356387404592,151,1970-01-08 00:22:40.198122559,0.8344116,-1.040451,-0.58151245,11.615819143999145,1.4549700103852872,100.213623046875,17.955312728881836,101.55441284179688,19184891.0,0.0,-0.0,-0.0,0.0,-0.0,-0.0,0.0,19.18489127594512
1629,C,606160248476563.0,-1.571960436051107,6.480728,1.8811958387404593,146,1970-01-08 00:22:40.248476563,0.31993103,0.26197815,-0.74812317,11.247270189166349,0.8547962871498286,100.23595428466797,17.989803314208984,101.574951171875,19235245.0,50354.0,-0.05349497859191742,-0.14357897766180003,0.05660372390853709,-0.001346843076008705,-0.0036148879205911396,0.0014251119568452384,19.235245279967785
1629,C,606160248476563.0,-1.571960436051107,6.480728,1.8811958387404593,146,1970-01-08 00:22:40.248476563,0.31993103,0.26197815,-0.74812317,11.247270189166349,0.8547962871498286,100.25830841064453,18.024282455444336,101.59549713134766,19235245.0,0.0,-0.0,-0.0,0.0,-0.0,-0.0,0.0,19.235245279967785
1629,C,606160248476563.0,-1.571960436051107,6.480728,1.8811958387404593,151,1970-01-08 00:22:40.248476563,0.31993103,0.26197815,-0.74812317,11.247270189166349,0.8547962871498286,100.28067016601562,18.05875587463379,101.6160659790039,19235245.0,0.0,-0.0,-0.0,0.0,-0.0,-0.0,0.0,19.235245279967785
1629,C,606160248476563.0,-1.571960436051107,6.480728,1.8811958387404593,151,1970-01-08 00:22:40.248476563,0.31993103,0.26197815,-0.74812317,11.247270189166349,0.8547962871498286,100.30305480957031,18.093223571777344,101.63665771484375,19235245.0,0.0,-0.0,-0.0,0.0,-0.0,-0.0,0.0,19.235245279967785
1629,C,606160298830567.0,3.4845124639488936,9.235077,1.6230476387404589,146,1970-01-08 00:22:40.298830567,-0.69021606,0.5013275,0.25497437,10.482693956315405,0.8903591416361549,100.52626037597656,18.127216339111328,101.73802947998047,19285599.0,50354.0,0.04815232240638258,-0.09779237751500003,0.08822633803253709,0.0012123310212254943,-0.0024621186886951557,0.0022212745126451864,19.28559928399045
1629,C,606160298830567.0,3.4845124639488936,9.235077,1.6230476387404589,146,1970-01-08 00:22:40.298830567,-0.69021606,0.5013275,0.25497437,10.482693956315405,0.8903591416361549,100.74407958984375,18.160015106201172,101.83781433105469,19285599.0,0.0,0.0,-0.0,0.0,0.0,-0.0,0.0,19.28559928399045
1629,C,606160298830567.0,3.4845124639488936,9.235077,1.6230476387404589,151,1970-01-08 00:22:40.298830567,-0.69021606,0.5013275,0.25497437,10.482693956315405,0.8903591416361549,100.95661926269531,18.191654205322266,101.93600463867188,19285599.0,0.0,0.0,-0.0,0.0,0.0,-0.0,0.0,19.28559928399045
1629,C,606160298830567.0,3.4845124639488936,9.235077,1.6230476387404589,151,1970-01-08 00:22:40.298830567,-0.69021606,0.5013275,0.25497437,10.482693956315405,0.8903591416361549,101.16399383544922,18.222171783447266,102.03266143798828,19285599.0,0.0,0.0,-0.0,0.0,0.0,-0.0,0.0,19.28559928399045
1629,C,606160349184571.0,3.3199615639488935,9.959839,2.327393338740459,146,1970-01-08 00:22:40.349184571,-0.34732056,-0.14718628,0.3014984,10.983461781792833,0.48290439801425705,101.24822235107422,18.250558853149414,102.05480194091797,19335953.0,50354.0,0.17131624260038258,-0.010198799868000012,0.09946025249003708,0.0043132290399498325,-0.0002567751842766363,0.0025041107769416637,19.335953288013116
1629,C,606160349184571.0,3.3199615639488935,9.959839,2.327393338740459,146,1970-01-08 00:22:40.349184571,-0.34732056,-0.14718628,0.3014984,10.983461781792833,0.48290439801425705,101.33037567138672,18.278209686279297,102.07634735107422,19335953.0,0.0,0.0,0.0,0.0,0.0,-0.0,0.0,19.335953288013116
1629,C,606160349184571.0,3.3199615639488935,9.959839,2.327393338740459,151,1970-01-08 00:22:40.349184571,-0.34732056,-0.14718628,0.3014984,10.983461781792833,0.48290439801425705,101.41050720214844,18.305145263671875,102.09727478027344,19335953.0,0.0,0.0,0.0,0.0,0.0,0.0,0.0,19.335953288013116
1629,C,606160349184571.0,3.3199615639488935,9.959839,2.327393338740459,151,1970-01-08 00:22:40.349184571,-0.34732056,-0.14718628,0.3014984,10.983461781792833,0.48290439801425705,101.48866271972656,18.33138084411621,102.11760711669922,19335953.0,0.0,0.0,0.0,0.0,0.0,0.0,0.0,19.335953288013116
1629,C,606160399538575.0,2.468216063948894,7.780075,3.220001938740459,146,1970-01-08 00:22:40.399538575,-0.04319763,0.104660034,0.017150879,9.216427158422686,0.11451598405886708,101.48814392089844,18.329500198364258,102.1228256225586,19386307.0,50354.0,0.1457289481375826,-0.046831385222000026,0.13966677090113708,0.0036690177272599178,-0.0011790737857342948,0.0035163902909779283,19.38630729203578
1629,C,606160399538575.0,2.468216063948894,7.780075,3.220001938740459,146,1970-01-08 00:22:40.399538575,-0.04319763,0.104660034,0.017150879,9.216427158422686,0.11451598405886708,101.48762512207031,18.327621459960938,102.12805938720703,19386307.0,0.0,0.0,-0.0,0.0,0.0,-0.0,0.0,19.38630729203578
1629,C,606160399538575.0,2.468216063948894,7.780075,3.220001938740459,151,1970-01-08 00:22:40.399538575,-0.04319763,0.104660034,0.017150879,9.216427158422686,0.11451598405886708,101.48711395263672,18.325740814208984,102.1332778930664,19386307.0,0.0,0.0,-0.0,0.0,0.0,-0.0,0.0,19.38630729203578
1629,C,606160399538575.0,2.468216063948894,7.780075,3.220001938740459,151,1970-01-08 00:22:40.399538575,-0.04319763,0.104660034,0.017150879,9.216427158422686,0.11451598405886708,101.48660278320312,18.32386016845703,102.13850402832031,19386307.0,0.0,0.0,-0.0,0.0,0.0,-0.0,0.0,19.38630729203578
1629,C,606160449892579.0,3.925735563948894,5.799576,4.423889908740459,146,1970-01-08 00:22:40.449892579,0.16471863,0.62532043,0.0048217773,6.618883896148607,0.6466692483648753,101.50495910644531,18.317392349243164,102.17073059082031,19436661.0,50354.0,0.16098052013558262,-0.15157432677300003,0.19245026504402707,0.004053006555453564,-0.003816186825163822,0.0048453203230134695,19.43666129594203
1629,C,606160449892579.0,3.925735563948894,5.799576,4.423889908740459,146,1970-01-08 00:22:40.449892579,0.16471863,0.62532043,0.0048217773,6.618883896148607,0.6466692483648753,101.5233154296875,18.310914993286133,102.20294952392578,19436661.0,0.0,0.0,-0.0,0.0,0.0,-0.0,0.0,19.43666129594203
1629,C,606160449892579.0,3.925735563948894,5.799576,4.423889908740459,151,1970-01-08 00:22:40.449892579,0.16471863,0.62532043,0.0048217773,6.618883896148607,0.6466692483648753,101.54167938232422,18.304428100585938,102.23517608642578,19436661.0,0.0,0.0,-0.0,0.0,0.0,-0.0,0.0,19.43666129594203
1629,C,606160449892579.0,3.925735563948894,5.799576,4.423889908740459,151,1970-01-08 00:22:40.449892579,0.16471863,0.62532043,0.0048217773,6.618883896148607,0.6466692483648753,101.56002044677734,18.297935485839844,102.26738739013672,19436661.0,0.0,0.0,-0.0,0.0,0.0,-0.0,0.0,19.43666129594203
1629,C,606160500246582.0,6.816345323948894,5.539505,5.984101088740459,146,1970-01-08 00:22:40.500246582,0.614563,1.1394043,-0.19793701,5.618919365745889,1.309621662830617,101.60987091064453,18.29619026184082,102.32826232910156,19487015.0,50354.0,0.2704533705146026,-0.20798515766300005,0.2620419893435771,0.00680920450944615,-0.005236442314481352,0.006597431165703241,19.487015299033374
1629,C,606160500246582.0,6.816345323948894,5.539505,5.984101088740459,146,1970-01-08 00:22:40.500246582,0.614563,1.1394043,-0.19793701,5.618919365745889,1.309621662830617,101.65971374511719,18.294401168823242,102.3891372680664,19487015.0,0.0,0.0,-0.0,0.0,0.0,-0.0,0.0,19.487015299033374
1629,C,606160500246582.0,6.816345323948894,5.539505,5.984101088740459,151,1970-01-08 00:22:40.500246582,0.614563,1.1394043,-0.19793701,5.618919365745889,1.309621662830617,101.70953369140625,18.292551040649414,102.45000457763672,19487015.0,0.0,0.0,-0.0,0.0,0.0,-0.0,0.0,19.487015299033374
1629,C,606160500246582.0,6.816345323948894,5.539505,5.984101088740459,151,1970-01-08 00:22:40.500246582,0.614563,1.1394043,-0.19793701,5.618919365745889,1.309621662830617,101.7593765258789,18.290651321411133,102.51087188720703,19487015.0,0.0,0.0,-0.0,0.0,0.0,-0.0,0.0,19.487015299033374
1629,C,606160550600586.0,7.211151233948894,3.1493835,3.411743938740459,146,1970-01-08 00:22:40.550600586,0.76164246,0.6390991,-0.35073853,3.5638730760830413,1.0543075513920133,101.80899047851562,18.301298141479492,102.54759979248047,19537369.0,50354.0,0.35317028083819263,-0.2747090542355,0.2365591902568871,0.008891768160663177,-0.006916349858487185,0.005955850733097647,19.537369302939624
1629,C,606160550600586.0,7.211151233948894,3.1493835,3.411743938740459,146,1970-01-08 00:22:40.550600586,0.76164246,0.6390991,-0.35073853,3.5638730760830413,1.0543075513920133,101.85860443115234,18.31191062927246,102.5843276977539,19537369.0,0.0,0.0,-0.0,0.0,0.0,-0.0,0.0,19.537369302939624
1629,C,606160550600586.0,7.211151233948894,3.1493835,3.411743938740459,151,1970-01-08 00:22:40.550600586,0.76164246,0.6390991,-0.35073853,3.5638730760830413,1.0543075513920133,101.90824127197266,18.322494506835938,102.6210708618164,19537369.0,0.0,0.0,-0.0,0.0,0.0,-0.0,0.0,19.537369302939624
1629,C,606160550600586.0,7.211151233948894,3.1493835,3.411743938740459,151,1970-01-08 00:22:40.550600586,0.76164246,0.6390991,-0.35073853,3.5638730760830413,1.0543075513920133,101.9578857421875,18.333045959472656,102.6578369140625,19537369.0,0.0,0.0,-0.0,0.0,0.0,-0.0,0.0,19.537369302939624
1629,C,606160600954590.0,4.423141563948894,4.921814,1.0149543387404591,146,1970-01-08 00:22:40.600954590,0.7097168,-0.41600037,-0.6863251,6.897708718990862,1.0713525969224078,101.9889907836914,18.37093734741211,102.6438980102539,19587723.0,50354.0,0.29291658977267265,-0.29026066054250005,0.11145098253213709,0.0073747609807065795,-0.007307892650478524,0.0028060013872116154,19.58772330696229
1629,C,606160600954590.0,4.423141563948894,4.921814,1.0149543387404591,146,1970-01-08 00:22:40.600954590,0.7097168,-0.41600037,-0.6863251,6.897708718990862,1.0713525969224078,102.02007293701172,18.40882682800293,102.62997436523438,19587723.0,0.0,0.0,-0.0,0.0,0.0,-0.0,0.0,19.58772330696229
1629,C,606160600954590.0,4.423141563948894,4.921814,1.0149543387404591,151,1970-01-08 00:22:40.600954590,0.7097168,-0.41600037,-0.6863251,6.897708718990862,1.0713525969224078,102.0511703491211,18.446727752685547,102.61608123779297,19587723.0,0.0,0.0,-0.0,0.0,0.0,-0.0,0.0,19.58772330696229
1629,C,606160600954590.0,4.423141563948894,4.921814,1.0149543387404591,151,1970-01-08 00:22:40.600954590,0.7097168,-0.41600037,-0.6863251,6.897708718990862,1.0713525969224078,102.08226013183594,18.484636306762695,102.60220336914062,19587723.0,0.0,0.0,-0.0,0.0,0.0,-0.0,0.0,19.58772330696229
1629,C,606160651308594.0,2.3017731639488934,14.837555,-2.270766461259541,146,1970-01-08 00:22:40.651308594,0.7021637,-0.17314148,-0.97039795,17.222203675771475,1.210241304475468,102.11795043945312,18.533893585205078,102.60400390625,19638077.0,50354.0,0.1693131781042826,0.0040124333129999525,-0.03161758180866292,0.004262797885131523,0.00010102103352139982,-0.0007960358571967064,19.638077310984954
1629,C,606160651308594.0,2.3017731639488934,14.837555,-2.270766461259541,146,1970-01-08 00:22:40.651308594,0.7021637,-0.17314148,-0.97039795,17.222203675771475,1.210241304475468,102.15362548828125,18.58314323425293,102.60581970214844,19638077.0,0.0,0.0,0.0,-0.0,0.0,0.0,-0.0,19.638077310984954
1629,C,606160651308594.0,2.3017731639488934,14.837555,-2.270766461259541,151,1970-01-08 00:22:40.651308594,0.7021637,-0.17314148,-0.97039795,17.222203675771475,1.210241304475468,102.18933868408203,18.632402420043945,102.60769653320312,19638077.0,0.0,0.0,0.0,-0.0,0.0,0.0,-0.0,19.638077310984954
1629,C,606160651308594.0,2.3017731639488934,14.837555,-2.270766461259541,151,1970-01-08 00:22:40.651308594,0.7021637,-0.17314148,-0.97039795,17.222203675771475,1.210241304475468,102.22506713867188,18.681659698486328,102.60960388183594,19638077.0,0.0,0.0,0.0,-0.0,0.0,0.0,-0.0,19.638077310984954
1629,C,606160701662598.0,5.574905563948894,10.137421,-2.5447685612595405,146,1970-01-08 00:22:40.701662598,-0.9486847,-0.2035675,0.027404785,12.76536318282215,0.9706664768658885,102.17416381835938,18.682472229003906,102.59879302978516,19688431.0,50354.0,0.19831114033228261,0.13532577075199997,-0.12124072526196292,0.00499287958014588,0.0034070969302231035,-0.0030524777399204405,19.68843131500762
1629,C,606160701662598.0,5.574905563948894,10.137421,-2.5447685612595405,146,1970-01-08 00:22:40.701662598,-0.9486847,-0.2035675,0.027404785,12.76536318282215,0.9706664768658885,102.12326049804688,18.683277130126953,102.58798217773438,19688431.0,0.0,0.0,0.0,-0.0,0.0,0.0,-0.0,19.68843131500762
1629,C,606160701662598.0,5.574905563948894,10.137421,-2.5447685612595405,151,1970-01-08 00:22:40.701662598,-0.9486847,-0.2035675,0.027404785,12.76536318282215,0.9706664768658885,102.07237243652344,18.684070587158203,102.57717895507812,19688431.0,0.0,0.0,0.0,-0.0,0.0,0.0,-0.0,19.68843131500762
1629,C,606160701662598.0,5.574905563948894,10.137421,-2.5447685612595405,151,1970-01-08 00:22:40.701662598,-0.9486847,-0.2035675,0.027404785,12.76536318282215,0.9706664768658885,102.02146911621094,18.684850692749023,102.56636047363281,19688431.0,0.0,0.0,0.0,-0.0,0.0,0.0,-0.0,19.68843131500762
1629,C,606160752016602.0,1.351104863948894,7.491852,-1.7019645612595413,146,1970-01-08 00:22:40.752016602,-0.7962189,-0.7599335,0.69506836,11.59652216867276,1.3017616856447072,101.96665954589844,18.658756256103516,102.5195083618164,19738785.0,50354.0,0.1743761645431826,-0.04961699367900005,-0.10691999982566293,0.004390268694703709,-0.0012492070498561843,-0.0026919248356107157,19.738785319030285
1629,C,606160752016602.0,1.351104863948894,7.491852,-1.7019645612595413,146,1970-01-08 00:22:40.752016602,-0.7962189,-0.7599335,0.69506836,11.59652216867276,1.3017616856447072,101.91187286376953,18.632612228393555,102.4726791381836,19738785.0,0.0,0.0,-0.0,-0.0,0.0,-0.0,-0.0,19.738785319030285
