Subject-id_accel,Activity_accel,Timestamp_accel,accel_x,accel_y,accel_z,Segment_accel,DateTime,gyro_x,gyro_y,gyro_z,accel_magnitude,gyro_magnitude,Roll,Pitch,Yaw,Time_Difference,Difference_Microseconds,vx,vy,vz,dx,dy,dz,Time_diff
1636,C,504401792786805.0,-1.3395356375436256,8.200320581748391,1.8318024,186,1970-01-06 20:06:41.792786805,0.113983154,1.1422577,0.03817749,12.300308269163898,1.1485653369955835,-97.96025848388672,12.433483123779297,104.00182342529297,15005506.0,50354.0,0.014762668015328268,-0.07907503628864151,0.11206446602270001,0.003998278459781794,-0.0036582747350895548,0.004803080659736294,15.005506523011718
1636,C,504401843140809.0,1.615191362456374,9.039523581748393,-0.5794525,186,1970-01-06 20:06:41.843140809,-0.15072632,0.87805176,-0.42893982,10.184027490790381,0.9887783806098677,-97.86689758300781,12.554400444030762,103.98406982421875,15055860.0,50354.0,0.0069401841861282685,-0.05942164349564151,0.0315304134323,0.0005464127098760713,-0.0034869309069288945,0.0036152882800385357,15.055860527034383
1636,C,504401893494813.0,-0.8258791375436259,10.877368581748392,1.9288025,186,1970-01-06 20:06:41.893494813,-0.03907776,0.7814789,-0.6949005,9.828944372352328,1.0464812694798113,-97.87639617919922,12.514629364013672,103.94930267333984,15106214.0,50354.0,0.019872513886628262,0.007978394000358517,0.033972584949999995,0.0006750632993777912,-0.00129518669254274,0.0016491689902711673,15.106214530998841
1636,C,504401943848817.0,-0.6277436375436256,10.476383081748391,-0.97958374,186,1970-01-06 20:06:41.943848817,-0.11489868,0.8594208,-0.34594727,9.903300715866031,0.9335337871543993,-97.89105224609375,12.491601943969727,103.90812683105469,15156568.0,50354.0,-0.03659786060837173,0.04415420563185849,0.02389848072052,-0.00042109405441333533,0.0013125424609403277,0.0014570198203866821,15.156568535021506
1636,C,504401994202821.0,1.370058962456374,9.843524581748392,0.39782715,186,1970-01-06 20:06:41.994202821,-0.5151367,0.64434814,-0.17875671,9.502506261217695,0.8440997017997185,-97.92361450195312,12.478315353393555,103.876708984375,15206922.0,50354.0,0.018689272935328266,0.018125115243858483,-0.014646885666430002,-0.0004508845118442153,0.0015680064616879262,0.00023292740867682392,15.206922539044172
1636,C,504402044556825.0,2.929354662456374,10.028903581748391,-0.43347168,186,1970-01-06 20:06:42.044556825,-0.44978333,0.8295593,-0.18449402,8.874545930436595,0.9615153246714997,-97.82853698730469,12.460040092468262,103.86322021484375,15257276.0,50354.0,0.10824633683442828,0.006858923872358481,-0.0008974223318100002,0.0031958578471731605,0.0006290231528289945,-0.0003913590424716885,15.25727654300863
1636,C,504402094910828.0,2.103167562456374,10.810748881748392,0.12956238,186,1970-01-06 20:06:42.094910828,-0.15705872,0.95025635,-0.24208069,8.334320603392385,0.9931050461629106,-97.84642028808594,12.441573143005371,103.81671905517578,15307630.0,50354.0,0.12670381205662826,0.031210730073458478,-0.007651524446100001,0.005915339898630131,0.0009584796773938337,-0.00021523683302744013,15.307630546041764
1636,C,504402145264832.0,1.7201719624563743,10.397525581748392,-0.4099884,186,1970-01-06 20:06:42.145264832,0.10786438,0.8158264,-0.20108032,8.861207008537411,0.8471367861809843,-97.7294692993164,12.627205848693848,103.80281066894531,15357984.0,50354.0,0.09626021921872827,0.040491526167458484,-0.007060285905539999,0.005613565415419652,0.0018052477053775663,-0.00037039924922324034,15.357984550006222
1636,C,504402195618836.0,1.9435300624563738,7.8942905817483915,-0.64523315,186,1970-01-06 20:06:42.195618836,-0.15870667,0.44454956,-0.16441345,11.189837613714321,0.4998438765650581,-97.635498046875,12.67348861694336,103.80470275878906,15408338.0,50354.0,0.09224102588122826,-0.03293614445164153,-0.026567312964350002,0.004745895847881606,0.00019022184545912347,-0.0008466420567472206,15.408338554028887
1636,C,504402245972840.0,2.478411662456374,4.371967581748391,-0.008041382,186,1970-01-06 20:06:42.245972840,-0.5695648,0.22035217,-0.4236908,14.507188403858219,0.7432852980029868,-97.47415924072266,12.569043159484863,103.83831787109375,15458692.0,50354.0,0.11133122680812826,-0.18464161821764155,-0.016447492892164003,0.00512533860595993,-0.00547795533072454,-0.001082983767049453,15.458692558051553
1636,C,504402296326844.0,2.233752362456374,5.493869581748392,0.7773895,186,1970-01-06 20:06:42.296326844,-0.24601746,0.119766235,-0.80545044,13.468548250064194,0.8506579529794102,-97.48660278320312,12.52833080291748,103.83760070800781,15509046.0,50354.0,0.11863815365522828,-0.24507701773464155,0.019369877566886,0.005789939091925928,-0.010819026097370633,7.357687895547572e-05,15.50904656201601
1636,C,504402346680848.0,-0.2956516375436262,8.620670581748392,-0.14831543,186,1970-01-06 20:06:42.346680848,0.85369873,0.03504944,-0.764328,11.29402178021966,1.146397521120805,-97.44319915771484,12.490209579467773,103.84091186523438,15559400.0,50354.0,0.04879556195112826,-0.1381074223036415,0.01583819786039,0.004215478657821239,-0.009647434646843853,0.0008864337150325278,15.559400566038676
1636,C,504402397034852.0,-2.224743637543626,10.769702581748392,-2.2202911,186,1970-01-06 20:06:42.397034852,1.4692383,-0.32711792,-0.43873596,10.828711002512128,1.567850936272048,-97.36552429199219,12.470562934875488,103.86042022705078,15609754.0,50354.0,-0.06345599184087175,-0.0052777748626414945,-0.05963440660580999,-0.0003691056433340719,-0.0036100091090555076,-0.0011026571475834391,15.609754570003133
1636,C,504402447388856.0,-2.7453736375436257,11.201236581748393,-2.2101898,186,1970-01-06 20:06:42.447388856,0.6830139,-0.13560486,-0.23774719,10.870736994656987,0.7358127424839322,-97.32955169677734,12.459637641906738,103.86885070800781,15660108.0,50354.0,-0.12513264263487175,0.059693135319358534,-0.1115462176193,-0.004748096050195795,0.001370015530218765,-0.004309814576115595,15.660108574025799
1636,C,504402497742860.0,-1.261075037543626,11.236118181748392,-0.81118774,186,1970-01-06 20:06:42.497742860,-0.232193,-0.68914795,-0.06086731,9.652583016861945,0.7297556547672917,-97.33352661132812,12.461017608642578,103.90425872802734,15710462.0,50354.0,-0.10087035829267174,0.07143608088055853,-0.07606922232458002,-0.005690077554352763,0.0033014402762653124,-0.004723593931467067,15.710462578048464
1636,C,504402548096864.0,0.847781162456374,10.263583581748392,0.7254486,186,1970-01-06 20:06:42.548096864,-0.76316833,-1.2984161,0.2935028,9.34270671577326,1.5344230714708507,-97.35784912109375,12.483875274658203,103.9682846069336,15760816.0,50354.0,-0.010405499893071742,0.0478287912995585,-0.0021586543277800014,-0.0028015922815424637,0.0030027316868788067,-0.0019695432504764684,15.760816582012922
1636,C,504402598450868.0,3.636950462456374,10.280734581748392,4.9268646,186,1970-01-06 20:06:42.598450868,-0.116622925,-1.3205566,0.47424316,9.81691040652198,1.407969181213105,-97.34983825683594,12.51584243774414,104.03224182128906,15811170.0,50354.0,0.11291208812042827,0.023775098402358513,0.1423082894364,0.0025808083718001557,0.0018027711310251648,0.003528547363129726,15.811170586035587
1636,C,504402648804871.0,3.524981462456374,10.713245281748392,4.376343,186,1970-01-06 20:06:42.648804871,1.6083984,-0.54219055,0.25216675,9.189179386743012,1.715955732365327,-97.26380920410156,12.531795501708984,104.05815124511719,15861524.0,50354.0,0.18031596007352826,0.03509623102325851,0.23422685774520002,0.0073826025693792445,0.00148220346094876,0.009480025400591145,15.861524589010514
1636,C,504402699158875.0,2.551104562456374,10.533176581748393,-2.6247406,186,1970-01-06 20:06:42.699158875,1.258606,-0.60983276,0.5374756,8.862935709848898,1.4982873819800315,-97.19490814208984,12.562291145324707,104.08568572998047,15911878.0,50354.0,0.15297761784922825,0.04145196325725852,0.04410009362480001,0.00839133241136124,0.0019272538874005776,0.007007437654642491,15.91187859303318
1636,C,504402749512879.0,2.889971762456374,9.863467581748392,0.49493408,186,1970-01-06 20:06:42.749512879,0.16748047,-0.8253174,0.7176361,9.047530152845361,1.1064357598149974,-97.17838287353516,12.603056907653809,104.12303161621094,15962232.0,50354.0,0.13698997863232826,0.020057110104358504,-0.05362213875404,0.007300514176616149,0.001548613940025432,-0.00023973653021887515,15.962232596997637
1636,C,504402799866883.0,3.780428862456374,8.051486581748392,2.2652588,186,1970-01-06 20:06:42.799866883,0.2668152,-0.25982666,0.4124756,10.92559766975261,0.5557304785533681,-97.16273498535156,12.625140190124512,104.13360595703125,16012585.999999998,50353.99999999814,0.16794067653342204,-0.042424399025639936,0.06949337613975742,0.007677239105107811,-0.0005631412331710818,0.00039959014366019286,16.012586601020303
1636,C,504402850220887.0,4.728579522456374,7.293079581748392,1.3906403,186,1970-01-06 20:06:42.850220887,0.5111542,0.4232788,-0.047195435,11.480902679662677,0.6653352296338434,-97.1418228149414,12.620162963867188,104.11238861083984,16062940.000000002,50354.000000003725,0.21423130410696412,-0.10713905770164941,0.0920445716407068,0.009621943956583714,-0.0037655591500232424,0.004067040911269048,16.062940605042968
1636,C,504402900574891.0,2.859057462456374,7.0610695817483915,1.7303619,186,1970-01-06 20:06:42.900574891,0.041412354,0.8440857,-0.25938416,11.918325025394358,0.8840111958947223,-97.14874267578125,12.602042198181152,104.07112121582031,16113294.0,50353.99999999814,0.1910339363691412,-0.13207478651063662,0.0785774723893971,0.010203362959466526,-0.006022686955732503,0.004295751202545767,16.113294609007426
1636,C,504402950928895.0,1.3401975624563742,8.570560581748392,0.9734497,186,1970-01-06 20:06:42.950928895,-0.28131104,0.82484436,-0.4416504,10.744042434663163,0.9770154529329879,-97.17134094238281,12.574995040893555,104.03202056884766,16163647.999999998,50353.99999999814,0.10572464376222435,-0.09991164737363782,0.06807386465319748,0.007471490771967114,-0.005840722445904161,0.0036922407127212673,16.16364861303009
1636,C,504403001282899.0,0.1207913624563739,10.848880581748393,0.0234375,186,1970-01-06 20:06:43.001282899,-0.9701843,0.7931824,-0.47554016,9.14017390994478,1.3403485887667714,-97.22795104980469,12.546435356140137,103.9947509765625,16214002.0,50354.00000000186,0.03678331816252962,-0.004545929826641649,0.025098629034400927,0.003587922957379663,-0.0026299284211715335,0.002345803873572752,16.214002617052756
1636,C,504403051636903.0,-1.2582979375436256,10.528980581748392,0.74876404,186,1970-01-06 20:06:43.051636903,-0.939209,0.62901306,-0.07055664,10.202049608286698,1.1325851909590081,-97.28175354003906,12.538960456848145,103.96324920654297,16264356.0,50354.0,-0.02863900304097174,0.044761210513358525,0.01944171817258,0.0002050494218154627,0.0010125001218494708,0.0011213923216301588,16.264356621017214
1636,C,504403101990907.0,1.7591886624563742,10.260944581748392,0.23666382,186,1970-01-06 20:06:43.101990907,-0.4414978,0.17555237,0.080200195,8.969515736873149,0.48184127396425364,-97.30587768554688,12.541828155517578,103.95380401611328,16314710.000000002,50354.00000000186,0.012610925781128737,0.029958745841359612,0.024810117231220917,-0.0004035389011710822,0.0018812243411428081,0.0011141284599615368,16.31471062503988
1636,C,504403152344911.0,2.618502662456374,10.031467581748393,-0.37556458,186,1970-01-06 20:06:43.152344911,-0.5522003,0.13790894,-0.109573364,8.940791581835809,0.5796122575914782,-97.21527862548828,12.579218864440918,103.97350311279297,16365064.0,50353.99999999814,0.11021713448732418,0.017432861040357867,-0.00349710443451987,0.0030924420733787245,0.0011931784864609568,0.0005365977231825224,16.365064629004337
1636,C,504403202698914.0,2.795336762456374,10.187869581748393,0.16371155,186,1970-01-06 20:06:43.202698914,-0.5525665,0.41348267,-0.25709534,8.740300176803023,0.7364751653398058,-97.04056549072266,12.587230682373047,103.99913787841797,16415417.999999998,50353.99999999814,0.13630423520102322,0.01559305176535795,-0.005333823736309802,0.006206668524643293,0.0008314934067094764,-0.0002223362785569704,16.415418632037472
1636,C,504403253052918.0,3.001940762456374,10.950259981748392,0.35394287,186,1970-01-06 20:06:43.253052918,-0.31759644,0.45515442,-0.22895813,7.957169447431791,0.6003789387039713,-96.82142639160156,12.592665672302246,104.02969360351562,16465772.000000002,50354.000000003725,0.14595805624473904,0.03872548802016137,0.013032985332340964,0.0071065177117304815,0.0013675778761801209,0.0001938417915032909,16.46577263600193
1636,C,504403303406922.0,3.0799436624563743,10.728290581748393,0.2464447,186,1970-01-06 20:06:43.303406922,-0.08369446,0.49847412,-0.07736206,8.152266705790371,0.511337559027214,-96.61676025390625,12.58237075805664,104.051513671875,16516126.0,50353.99999999814,0.15312360416602258,0.052331667537156575,0.01511595784988944,0.0075299789641614665,0.002292546005466509,0.0007087059424989886,16.516126640024595
1636,C,504403353760926.0,2.852099362456374,9.488239581748392,-0.114105225,186,1970-01-06 20:06:43.353760926,0.1826477,0.6847992,-0.00030517578,9.409434067951924,0.7087384706421592,-96.467529296875,12.567118644714355,104.0488052368164,16566479.999999998,50353.99999999814,0.14935104723822273,0.015522379926357938,0.0033319109620748764,0.007615404298404403,0.0017083613529888415,0.00046446199307880837,16.56648064404726
1636,C,504403404114930.0,2.510775562456374,8.630069581748392,-0.8331146,186,1970-01-06 20:06:43.404114930,0.38708496,0.8321533,-0.03427124,10.354031496906217,0.9184162448749636,-96.41409301757812,12.568737983703613,104.01607513427734,16616834.0,50354.00000000186,0.13502110198453326,-0.03730453019064288,-0.023848153534025883,0.0071596376009815926,-0.0005484091972039223,-0.0005165374392340296,16.616834648011718
1636,C,504403454468934.0,2.528231662456374,7.816577581748392,-1.3182373,186,1970-01-06 20:06:43.454468934,0.25100708,0.77615356,-0.11550903,11.189146179185308,0.823869673505671,-96.42249298095703,12.539800643920898,103.97450256347656,16667188.0,50354.0,0.12686708490162826,-0.07939196436464149,-0.0541645867863,0.00659355888123289,-0.002938067643418395,-0.001964126763044845,16.667188652034383
1636,C,504403504822938.0,2.462435762456374,6.567752581748392,-0.99295044,186,1970-01-06 20:06:43.504822938,-0.04185486,0.2652588,-0.17582703,12.388150266975412,0.32098162682882725,-96.38358306884766,12.490386962890625,103.97148895263672,16717542.000000002,50354.00000000186,0.12565003375703293,-0.13131491947364635,-0.05818877372998216,0.006357623496469349,-0.005304967214396769,-0.0028287205577185405,16.71754265599884
1636,C,504403555176942.0,1.215685862456374,5.582965581748391,-0.7818451,186,1970-01-06 20:06:43.555176942,-0.023910522,-0.58052063,-0.18261719,13.614910920809407,0.6090360851389722,-96.3048324584961,12.556291580200195,104.0179672241211,16767896.0,50353.99999999814,0.09260406815042484,-0.18755056879763457,-0.04468402731057834,0.0054949835237238604,-0.008028076398205743,-0.002590028511798096,16.767896660021506
1636,C,504403605530946.0,-0.2555056375436262,8.135745581748392,-0.37486267,186,1970-01-06 20:06:43.605530946,0.07992554,-1.072464,-0.1719513,11.715989353740492,1.0890979629087467,-96.28874969482422,12.553628921508789,104.07354736328125,16818250.0,50354.0,0.024174457522628253,-0.14807320903664153,-0.02912243152529,0.0029401329408704577,-0.00844999985453357,-0.0018582252141106572,16.81825066404417
1636,C,504403655884950.0,-1.1244783375436258,10.982898581748392,0.34812927,186,1970-01-06 20:06:43.655884950,-0.18482971,-0.579422,-0.08547974,9.738159074096378,0.6141650118112816,-96.29147338867188,12.552553176879883,104.10352325439453,16868604.0,50354.0,-0.03474385654077174,-0.012119095895641509,-0.0006730668118000005,-0.0002661057590797987,-0.00403316166128009,-0.000750161261632915,16.86860466800863
1636,C,504403706238953.0,-0.2837953375436255,10.928943581748392,1.4513397,186,1970-01-06 20:06:43.706238953,-0.50434875,-0.70274353,-0.029251099,9.400264679428593,0.8654893167313685,-96.30887603759766,12.554953575134277,104.13947296142578,16918958.0,50354.0,-0.03545610631767173,0.0582052501503585,0.04530523025769,-0.0017674244648870315,0.00116031110567101,0.0011237039790771726,16.918958671041764
1636,C,504403756592957.0,0.819750762456374,9.769824581748392,2.4529114,186,1970-01-06 20:06:43.756592957,-0.32279968,-1.4624481,0.0154418945,10.077907602841758,1.4977291246108095,-96.308837890625,12.563761711120605,104.2138442993164,16969312.0,50354.0,0.01349374973302827,0.027663686052358485,0.0982973299447,-0.0005529462517315684,0.002161922206775806,0.0036154816582155734,16.969312675006222
1636,C,504403806946961.0,2.606493962456374,10.144824581748392,3.006775,186,1970-01-06 20:06:43.806946961,0.022125244,-1.3842468,0.27113342,9.32418584113253,1.4107239493158101,-96.29273223876953,12.584831237792969,104.2828140258789,17019666.0,50354.0,0.08626256343912826,0.007921921989358472,0.13745852449280002,0.002511564696735385,0.0008959388536663078,0.005935625147172939,17.019666679028887
1636,C,504403857300965.0,2.415316562456374,10.160678581748392,1.225708,186,1970-01-06 20:06:43.857300965,0.78845215,-1.1473541,0.33221436,8.945051910767832,1.4312388356303927,-96.24095153808594,12.60760498046875,104.3393783569336,17070020.0,50354.0,0.12643412358572828,0.017762453147358494,0.10656122449100001,0.005355064489224814,0.0006466555128171231,0.006143685220165134,17.070020683051553
1636,C,504403907654969.0,1.7695646624563741,10.657642581748393,-0.02861023,186,1970-01-06 20:06:43.907654969,0.95314026,-0.9825592,0.48272705,8.590933790363438,1.4515248332492316,-96.18294525146484,12.63691234588623,104.38674926757812,17120374.0,50354.0,0.10536275459962828,0.030673671933358525,0.030139330555290004,0.0058359500020727225,0.0012194763211572125,0.0034417098744004442,17.12037468701601
1636,C,504403958008973.0,2.354418762456374,10.94353088174839,0.3141632,186,1970-01-06 20:06:43.958008973,0.84539795,-0.66241455,0.67884827,8.134288215376838,1.2705611766451461,-95.927001953125,12.802193641662598,104.46241760253906,17170728.0,50354.0,0.10382953068902825,0.05038354429045848,0.0071893671256899995,0.0052668341667125055,0.002040777532867041,0.0009398246215140336,17.170728691038676
1636,C,504404008362977.0,3.131396262456374,10.147403581748392,1.7176514,186,1970-01-06 20:06:44.008362977,0.85546875,-0.06138611,0.6804199,8.874616131996884,1.094790517424911,-95.88433837890625,12.836353302001953,104.46197509765625,17221082.0,50354.0,0.13811636488222825,0.037537256987458474,0.051154996184200004,0.006091471812797526,0.0022135820137741155,0.0014689360350531007,17.221082695003133
1636,C,504404058716981.0,4.076128962456374,8.829410581748391,1.8905182,186,1970-01-06 20:06:44.058716981,0.8501129,-0.21958923,0.611969,10.066738966893082,1.0702417622385154,-95.84004974365234,12.867916107177734,104.46996307373047,17271436.0,50354.0,0.18146386258762828,-0.015689949805641524,0.09084288601920001,0.008046071387008578,0.0005500496529166054,0.0035750806802350025,17.2714366990258
1636,C,504404109070985.0,4.6499509824563745,7.884509581748391,-0.022705078,186,1970-01-06 20:06:44.109070985,0.26901245,-0.5089264,0.30400085,10.80592753469632,0.6509917784985345,-95.82115936279297,12.8856201171875,104.49433898925781,17321790.0,50354.0,0.21969651477306826,-0.07266283204364156,0.047025930972594006,0.010100014820810257,-0.0022244579886194003,0.0034711232054023982,17.321790703048464
1636,C,504404159424989.0,4.258349412456374,6.341281581748392,1.6458435,186,1970-01-06 20:06:44.159424989,-0.94210815,-0.27012634,-0.0052337646,12.469624597335212,0.9800833628575206,-95.86518859863281,12.886738777160645,104.5081558227539,17372144.0,50354.0,0.22428427904271828,-0.13530645587664153,0.040865756050694,0.011178104445900058,-0.005236042761968967,0.0022128490041853225,17.37214470701292
1636,C,504404209778993.0,3.811724662456374,8.221881581748391,3.1746063,186,1970-01-06 20:06:44.209778993,-0.90834045,1.0008545,-0.23291016,10.984317457527363,1.3715098417101053,-95.92171478271484,12.870018005371094,104.45832824707031,17422498.0,50354.0,0.20318025498407827,-0.12681244103264153,0.12136446461460002,0.010762274573192657,-0.0065993674674850195,0.004084470265690108,17.422498711035587
1636,C,504404260132996.0,-0.28748793754362634,9.669864581748392,2.001297,186,1970-01-06 20:06:44.260132996,-0.38781738,0.92977905,-0.75364685,10.55594779795849,1.2581235935169046,-95.95075988769531,12.827730178833008,104.41488647460938,17472852.0,50354.0,0.08872970802312825,-0.04300870684164152,0.1303137173841,0.0073494171386324384,-0.004275587040030824,0.006336501588181271,17.472852714010514
1636,C,504404310487000.0,-1.9750946375436262,10.933246581748392,0.3083496,186,1970-01-06 20:06:44.310487000,-0.036621094,1.1200714,-0.3028412,10.3154334414471,1.1608677091043393,-95.96490478515625,12.806861877441406,104.35936737060547,17523206.0,50354.0,-0.05696504149297176,0.025255329763358505,0.058149972448200006,0.00079973900922975,-0.0004469767746999315,0.004744950318907817,17.52320671803318
1636,C,504404360841004.0,1.5817899624563743,10.784656581748392,-0.5821533,186,1970-01-06 20:06:44.360841004,0.17288208,0.86750793,-0.21658325,8.561461734938927,0.9106956277366076,-95.92427825927734,13.025936126708984,104.3255844116211,17573560.0,50354.0,-0.009902231804671743,0.05332244794735849,-0.0068935557549,-0.0016835173398147705,0.001978352709422722,0.0012904828030872143,17.573560721997637
1636,C,504404411195008.0,1.780215362456374,11.050647581748393,-0.7819061,186,1970-01-06 20:06:44.411195008,-0.17814636,1.1282196,-0.4935608,8.257815224759828,1.2442740271749024,-95.94376373291016,13.208906173706055,104.27096557617188,17623914.0,50354.0,0.08464520806532827,0.05627825292435852,-0.0343429235138,0.0018818039133145495,0.0027594168458472193,-0.00103821083854806,17.623914726020303
1636,C,504404461549012.0,2.667056062456374,11.520648581748393,-0.76737976,186,1970-01-06 20:06:44.461549012,-0.4696045,0.6784973,-0.5107422,7.523720764624572,0.9704352463654543,-95.9786605834961,13.265213012695312,104.23806762695312,17674268.0,50354.0,0.11196895266502825,0.07480832350835856,-0.03900637009722,0.004950154724708187,0.0033003667348465186,-0.0018467151652446505,17.674268730042968
1636,C,504404511903016.0,2.515368362456374,11.438281881748392,0.9177704,186,1970-01-06 20:06:44.511903016,-0.5235748,-0.0055236816,-0.21435547,7.6631150737550495,0.5657820691506396,-96.00450897216797,13.254583358764648,104.23950958251953,17724622.0,50354.0,0.13047789974602825,0.08456779227945851,0.003786385143280001,0.00610408440315317,0.004012612467189871,-0.0008867335611853474,17.724622734007426
1636,C,504404562257020.0,1.379366862456374,10.487293081748392,2.335266,186,1970-01-06 20:06:44.562257020,0.12800598,1.0912628,0.121398926,9.19533316216517,1.1054310149500752,-96.01104736328125,13.25490951538086,104.18310546875,17774976.0,50354.0,0.09805774875762825,0.05855100085595849,0.0819016974428,0.005753842022376559,0.003603301854770394,0.0021573688552697363,17.77497673803009
1636,C,504404612611024.0,1.598635662456374,8.308826581748392,-1.7256012,186,1970-01-06 20:06:44.612611024,0.53715515,1.8043976,0.19276428,11.004473860462241,1.8924968749515019,-96.08979034423828,13.349499702453613,104.07050323486328,17825330.0,50354.0,0.07497716956972826,-0.020239295232141512,0.015349530669599995,0.004356500138727855,0.0009645738124908402,0.002448494170185895,17.825330742052756
1636,C,504404662965028.0,1.957491862456374,6.745425581748393,-2.6544342,186,1970-01-06 20:06:44.662965028,-0.5010376,2.331253,-0.11274719,12.565249240049196,2.3871512636353094,-96.30296325683594,13.328630447387695,103.91492462158203,17875684.0,50354.0,0.08953262269472827,-0.11444829327964151,-0.1102761512658,0.004141863039842222,-0.0033910294159611616,-0.0023899675267505275,17.875684746017214
1636,C,504404713319032.0,1.069430362456374,5.594470581748391,-3.2534485,186,1970-01-06 20:06:44.713319032,-1.9709778,1.6558685,0.1722107,14.004049780556205,2.5799826554803773,-96.61013793945312,13.38562297821045,103.78567504882812,17926038.0,50354.0,0.07620882085662825,-0.18278763429164152,-0.14874276273790002,0.004172872324292503,-0.007483508948462193,-0.006521319197871156,17.92603875003988
1636,C,504404763673036.0,2.1710843624563743,4.977252581748392,-1.0311737,186,1970-01-06 20:06:44.763673036,-2.1798706,1.0597992,-0.046173096,14.003191600709163,2.4242817764977787,-96.67330169677734,13.315354347229004,103.74537658691406,17976392.0,50354.0,0.08158643922912827,-0.22730492591264154,-0.10787393312940001,0.003972811263179092,-0.010324900388263236,-0.006460838551851013,17.976392754004337
1636,C,504404814027039.0,3.816149662456374,8.680805081748392,-0.8760071,186,1970-01-06 20:06:44.814027039,-0.62431335,-0.097961426,-0.25357056,10.096480214322234,0.6809270363782669,-96.66034698486328,13.113658905029297,103.7616958618164,18026746.0,50354.0,0.15074059104522827,-0.14960028220614152,-0.0480170910016,0.005849297641217475,-0.009489342424806601,-0.0039248683145461875,18.026746757037472
1636,C,504404864381043.0,-0.22033403754362624,10.373554081748392,0.0016784668,186,1970-01-06 20:06:44.864381043,0.6174927,-0.8679962,-0.39794922,9.723333929854967,1.1371359722857854,-96.61890411376953,13.098910331726074,103.8083267211914,18077100.0,50354.0,0.09053184998842825,-0.013737599340641508,-0.022012971998076402,0.006074516247904371,-0.004112357843703357,-0.0017631468961428528,18.07710076100193
1636,C,504404914735047.0,-3.459881637543626,10.950824581748392,-1.1456757,186,1970-01-06 20:06:44.914735047,1.3990631,0.1633606,-0.17539978,11.39006227842177,1.419446838116179,-96.55059814453125,13.089259147644043,103.801025390625,18127454.0,50354.0,-0.09265679005167175,0.0434146816108585,-0.0288024183402764,-5.349961597228159e-05,0.0007471799003172532,-0.0012793790825487087,18.127454765024595
1636,C,504404965089051.0,0.6714506624563743,10.851535581748392,-3.6644287,186,1970-01-06 20:06:44.965089051,0.24945068,0.5456543,0.38058472,9.59466642992303,0.7104991104557632,-96.54495239257812,13.105055809020996,103.7709732055664,18177808.0,50354.0,-0.07020432665977175,0.055448821836358506,-0.12110399847880002,-0.004100354335444013,0.002489086426290583,-0.0037741938562538867,18.17780876904726
1636,C,504405015443055.0,2.945742562456374,10.310916581748392,0.23686218,186,1970-01-06 20:06:45.015443055,-0.44665527,-0.1318512,0.23774719,8.58830981564219,0.5228856428638187,-96.36224365234375,13.108092308044434,103.82252502441406,18228162.0,50354.0,0.09107007382362826,0.039337858120358504,-0.08629584227404001,0.0005253369163444155,0.0023864442412702643,-0.0052217057906342535,18.228162773011718
1636,C,504405065797059.0,2.754824662456374,11.473544881748392,0.37916565,186,1970-01-06 20:06:45.065797059,1.1977997,0.13600159,0.09805298,7.514569979050571,1.20947713524874,-96.07373046875,13.187129974365234,103.8674545288086,18278516.0,50354.0,0.14352318102162825,0.054998186266458506,0.015509732675910002,0.005906354377239023,0.0023750985895268917,-0.0017821818813521192,18.278516777034383
1636,C,504405116151063.0,1.4937009624563742,10.891834081748392,0.8368988,186,1970-01-06 20:06:45.116151063,1.6625824,-0.45783997,-0.007003784,8.517942494462877,1.7244844817827962,-95.98526000976562,13.189188957214355,103.89087677001953,18328870.0,50354.0,0.10696512965842826,0.0696239461639585,0.030616854657650006,0.0063065441979917826,0.0031376114282006093,0.0011613290892970405,18.32887078099884
1636,C,504405166505067.0,1.5574673624563742,10.726245581748392,0.4105072,186,1970-01-06 20:06:45.166505067,2.1053314,-0.56648254,0.32099915,8.614704381514077,2.2037157771027402,-95.873779296875,13.208074569702148,103.9181137084961,18379224.0,50354.0,0.07681926491632828,0.05080919168785851,0.031405940862,0.004627139702208646,0.0030321451116951973,0.0015615479227982284,18.379224785021506
1636,C,504405216859071.0,1.1261167624563742,10.989902581748392,0.38589478,186,1970-01-06 20:06:45.216859071,1.701889,-1.1820679,0.41586304,8.54774431460475,2.1134457070313992,-95.77535247802734,13.23475170135498,103.97633361816406,18429578.0,50354.0,0.06756459751292827,0.053278262312358514,0.02005101265046,0.003635152504381392,0.002620609829363464,0.0012955317185832055,18.42957878904417
1636,C,504405267213075.0,2.137042062456374,10.635120581748392,0.5967865,186,1970-01-06 20:06:45.267213075,1.1420288,-1.4702759,0.60443115,8.509734646934882,1.9573650699960325,-95.70173645019531,13.272175788879395,104.04837799072266,18479932.0,50354.0,0.08215654973482826,0.050984008187358515,0.02474096658656,0.0037695293242567666,0.002625011184371376,0.0011277276612504524,18.47993279300863
1636,C,504405317567078.0,3.0730008624563743,9.596744581748393,0.7259979,186,1970-01-06 20:06:45.317567078,0.58425903,-1.0035095,0.60401917,9.28689430567758,1.3089037735656046,-95.66144561767578,13.307196617126465,104.09661865234375,18530286.0,50354.0,0.13117325072052827,0.01590846922135852,0.0333037428388,0.005371004386064512,0.001684151903719269,0.0014613916492022888,18.530286796041764
1636,C,504405367921082.0,3.3310117624563738,9.753925581748392,1.8501434,186,1970-01-06 20:06:45.367921082,0.41436768,-0.630249,0.5969238,9.245234870971755,0.9618900141055745,-95.63398742675781,13.34000301361084,104.12582397460938,18580640.0,50354.0,0.16123382585742826,-0.006277377293641479,0.06485950951010001,0.007361932967003212,0.00024248200146413193,0.002471456204388256,18.580640800006222
1636,C,504405418275086.0,4.321581842456374,9.166476581748391,1.9198303,186,1970-01-06 20:06:45.418275086,-0.07785034,0.27531433,0.36428833,9.726940365049218,0.463211229479223,-95.64154815673828,13.356770515441895,104.10989379882812,18630994.0,50354.0,0.19266934919088827,-0.017110234729641523,0.09491662784490001,0.008910220238191466,-0.0005888299079101962,0.004022683810186836,18.630994804028887
1636,C,504405468629090.0,3.800494162456374,6.875217581748393,2.5556946,186,1970-01-06 20:06:45.468629090,-0.6487732,0.9072571,-0.02418518,12.12998605500368,1.1156195738110204,-95.68467712402344,13.351093292236328,104.06362915039062,18681348.0,50354.0,0.2044895075756883,-0.08958746604564151,0.1126802904073,0.009999268536812099,-0.0026863280124193012,0.00522666761083564,18.681348808051553
1636,C,504405518983094.0,-0.18386563754362584,6.821857581748391,-1.4786682,186,1970-01-06 20:06:45.518983094,0.38612366,1.6991425,0.030044556,12.963276092077814,1.7427218342188986,-95.71928405761719,13.576957702636719,103.96871185302734,18731702.0,50354.0,0.09105585637172826,-0.1486179386086415,0.027116293672799996,0.007440945628104107,-0.005997297472980884,0.0035196585973846775,18.73170281201601
1636,C,504405569337098.0,0.7136869624563742,8.171451581748391,1.8766632,186,1970-01-06 20:06:45.569337098,-0.46014404,1.0167389,-0.3614807,11.445363288440486,1.1730979604420175,-95.75406646728516,13.553892135620117,103.91854858398438,18782056.0,50354.0,0.013339311497328267,-0.11598265519064155,0.010020320115000004,0.0026283571414392366,-0.006661849150084549,0.0009349885253354406,18.782056816038676
1636,C,504405619691102.0,-1.450650237543626,11.788577881748392,-0.5443878,186,1970-01-06 20:06:45.619691102,-0.52671814,0.4598236,-0.5250702,9.339281447385344,0.874396052741582,-95.78527069091797,13.525461196899414,103.8977279663086,18832410.0,50354.0,-0.01855452437687174,0.009064461802458464,0.0335426977458,-0.00013130341466826607,-0.002691879354934286,0.0010967861006813617,18.832410820003133
1636,C,504405670045106.0,-0.9057741375436263,10.430743581748391,0.092041016,186,1970-01-06 20:06:45.670045106,-0.5609741,0.28570557,-0.41209412,10.048980838328411,0.7524235358748484,-95.81623840332031,13.503519058227539,103.88525390625,18882764.0,50354.0,-0.059327696491571755,0.06594665648645848,-0.011388734980767999,-0.001960840674804802,0.0018885549251600618,0.0005577703205352108,18.8827648240258
1636,C,504405720399110.0,2.334490762456374,9.060550581748393,0.12512207,186,1970-01-06 20:06:45.720399110,-0.49775696,-0.13015747,-0.45204163,9.944712940008014,0.6848683037477348,-95.67603302001953,13.507858276367188,103.93232727050781,18933118.0,50354.0,0.03597079846542826,-0.0027368868456415047,0.005467515016222,-0.0005880566216042149,0.0015914323702468489,-0.00014907855504737462,18.933118828048464
1636,C,504405770753114.0,1.7403440624563742,10.562488581748392,-0.45083618,186,1970-01-06 20:06:45.770753114,-0.24046326,0.5749359,-0.55914307,8.701904893359929,0.8372662905239064,-95.6341552734375,13.657317161560059,103.91984558105469,18983472.0,50354.0,0.10259211638682829,0.0005800570193585065,-0.008200504147469999,0.003488598507235263,-5.4302504536327054e-05,-6.880846735743087e-05,18.98347283201292
1636,C,504405821107118.0,1.4648008624563742,10.420841081748392,-0.5417633,186,1970-01-06 20:06:45.821107118,-0.6661682,0.75683594,-0.6275635,8.939140467896419,1.1876096401171445,-95.6309585571289,13.831324577331543,103.89486694335938,19033826.0,50354.0,0.08069593377452827,0.0348280909378585,-0.02499067710796,0.004614643238912475,0.0008914709411188527,-0.0008356543704679611,19.033826836035587
1636,C,504405871461121.0,2.247500362456374,9.732440581748392,0.07331848,186,1970-01-06 20:06:45.871461121,-0.63082886,0.83602905,-0.6013794,9.318779944087826,1.20770311161194,-95.5213394165039,13.853835105895996,103.89111328125,19084180.0,50354.0,0.09346460793962827,0.013929972441858505,-0.011794035233139998,0.004384839958737319,0.001227581761711135,-0.0009261287026118747,19.084180839010514
1636,C,504405921815125.0,3.267535162456374,9.960620581748392,-0.22181702,186,1970-01-06 20:06:45.921815125,-0.2871704,0.54022217,-0.5300598,8.868060185358685,0.8094876300300757,-95.43873596191406,13.731327056884766,103.89061737060547,19134534.0,50354.0,0.13885204941072826,0.0023430009133585017,-0.0037387477415800007,0.005849036482109927,0.00040970465016429864,-0.00039106887695452544,19.13453484303318
1636,C,504405972169129.0,3.337664562456374,9.980563581748392,-0.8349457,186,1970-01-06 20:06:45.972169129,-0.115859985,0.34083557,-0.47094727,8.872991936908988,0.5927763094303601,-95.44908142089844,13.603338241577148,103.87523651123047,19184888.0,50354.0,0.16629911347412826,0.008589993684358492,-0.026606115001440004,0.007682790827952034,0.00027526000498672077,-0.0007639926092810147,19.184888846997637
1636,C,504406022523133.0,2.6359586624563742,10.017947581748391,-1.2527161,186,1970-01-06 20:06:46.022523133,0.04624939,0.062408447,-0.30741882,9.029051345928448,0.31708066989729333,-95.51630401611328,13.59782600402832,103.85728454589844,19235242.0,50354.0,0.15039791193362825,0.010033315563358468,-0.052561061138600006,0.007973481008691087,0.00046887905692977,-0.0019931919936777877,19.235242851020303
1636,C,504406072877137.0,1.678332362456374,9.567111581748392,-1.2197266,186,1970-01-06 20:06:46.072877137,0.009506226,-0.053894043,-0.11416626,9.724306782788403,0.12660517811699695,-95.566162109375,13.723554611206055,103.84852600097656,19285596.0,50354.0,0.10862090513422827,-0.0003761654406415191,-0.06224868985790001,0.006521316757317424,0.00024313806863964464,-0.002890565100838881,19.285596855042968
1636,C,504406123231141.0,2.021288862456374,9.217761581748391,-1.3731842,186,1970-01-06 20:06:46.123231141,-0.19064331,0.09020996,-0.012435913,9.97090759301985,0.21127555576332363,-95.64306640625,13.787118911743164,103.82821655273438,19335950.0,50354.0,0.09314536357962826,-0.020522448362641523,-0.0652817152116,0.005079869347408766,-0.0005261643997252571,-0.0032108330084348025,19.335950859007426
1636,C,504406173585145.0,2.607531562456374,9.235111081748391,-1.2124023,186,1970-01-06 20:06:46.173585145,-0.30722046,0.18125916,0.04055786,9.784596138320671,0.3590045043370581,-95.70242309570312,13.770263671875,103.80879211425781,19386304.0,50354.0,0.11653981183802826,-0.028881224951141555,-0.06509731131049999,0.0052792436614903385,-0.0012438362830211166,-0.0032825527507469115,19.38630486303009
1636,C,504406223939149.0,3.179400462456374,9.163577581748392,-0.53234863,186,1970-01-06 20:06:46.223939149,-0.3218994,-0.0552063,-0.06416321,9.680244823093696,0.3328421199270821,-95.65428924560547,13.667277336120605,103.82698822021484,19436658.0,50354.0,0.14569758759122825,-0.030245415519141537,-0.04392759416461,0.006602351005430392,-0.0014886314271203174,-0.0027449200451468442,19.436658867052756
1636,C,504406274293153.0,4.393191332456374,8.372882581748392,0.0018310547,186,1970-01-06 20:06:46.274293153,-0.22319031,-0.58299255,-0.3431244,10.324992954549845,0.7123402148613812,-95.65799713134766,13.653074264526367,103.85858917236328,19487012.0,50354.0,0.19065514362051827,-0.051953742463641504,-0.0133568409933281,0.008468352713718142,-0.0020695282005325287,-0.0014422502239714076,19.487012871017214
1636,C,504406324647157.0,2.692980762456374,6.870212581748392,-0.19483948,186,1970-01-06 20:06:46.324647157,0.29431152,-2.0523682,-0.5469971,12.0101571795903,2.1443041590652108,-95.49876403808594,13.550551414489746,103.99442291259766,19537366.0,50354.0,0.17840855483361828,-0.1096937930686415,-0.004859373123778101,0.009291916735979797,-0.0040698000020962894,-0.00045862962282638286,19.53736687503988
1636,C,504406375001161.0,0.6441068624563737,7.962558581748391,-0.23347473,186,1970-01-06 20:06:46.375001161,0.58270264,-2.7460327,-0.3222046,11.51272709784284,2.8256067950784343,-95.33415985107422,13.74050521850586,104.1607894897461,19587720.0,50354.0,0.08401785513242825,-0.12002452041664152,-0.01078366686517,0.0066071097237151545,-0.005783617978618972,-0.00039384481780174637,19.587720879004337
1636,C,504406425355164.0,-0.20090963754362612,11.069995581748392,-1.3462524,186,1970-01-06 20:06:46.425355164,0.6464386,-1.5014648,0.009918213,9.222943199907217,1.6347408908319734,-95.2835693359375,13.747941970825195,104.2376937866211,19638074.0,50354.0,0.011158376531628248,-0.01428658382564152,-0.03977278995201,0.002396251984605951,-0.0033815506715079604,-0.001272859913286141,19.638074882037472
1636,C,504406475709168.0,0.7640563624563743,11.689533081748392,-1.4591827,186,1970-01-06 20:06:46.475709168,0.39587402,-1.0629425,0.30844116,8.219837964901105,1.1754569099713335,-95.25115966796875,13.768177032470703,104.29071807861328,19688428.0,50354.0,0.014178345093128262,0.0795474531608585,-0.0706324395127,0.0006379026403464947,0.001643072907252758,-0.002779672462233004,19.68842888600193
1636,C,504406526063172.0,3.3391294624563743,9.970493581748391,-0.45144653,186,1970-01-06 20:06:46.526063172,-0.48916626,-0.74620056,0.46244812,8.854818393067204,1.0049662528454553,-95.20906066894531,13.691280364990234,104.34058380126953,19738782.0,50354.0,0.10330590951382827,0.05186529130685848,-0.048103912123710006,0.002957901078239345,0.0033085786674637106,-0.0029894251251498948,19.738782890024595
1636,C,504406576417176.0,3.139819162456374,9.194568581748392,1.1360474,186,1970-01-06 20:06:46.576417176,-0.34725952,-1.3284302,0.21850586,9.708566405850629,1.390345561850366,-95.21053314208984,13.7081937789917,104.40764617919922,19789136.0,50354.0,0.16312048952942826,-0.01095042990964153,0.017236196103990003,0.006707817448712071,0.0010301134653977312,-0.0007771564862284906,19.78913689404726
1636,C,504406626771180.0,1.7359343624563741,9.831912581748393,0.39035034,186,1970-01-06 20:06:46.626771180,0.0057525635,-2.1487732,0.08480835,9.38655327916899,2.1504538621544023,-94.99655151367188,13.861273765563965,104.56214141845703,19839490.0,50354.0,0.12275684649672824,-0.014439483746641493,0.03843011589998001,0.0071975336891305424,-0.0006392418561242376,0.001401510737323953,19.839490898011718
1636,C,504406677125184.0,1.2533903624563743,9.809238581748392,0.5167999,186,1970-01-06 20:06:46.677125184,0.049835205,-2.0709076,0.20637512,9.582930486700194,2.0817618801270634,-94.96880340576172,13.88054370880127,104.6674575805664,19889844.0,50354.0,0.07526222859912828,0.0010360628433585153,0.022839321592480002,0.00498552625368838,-0.0003374579280819555,0.001542580627747666,19.889844902034383
1636,C,504406727479188.0,1.665637062456374,9.214511581748392,0.73197937,186,1970-01-06 20:06:46.727479188,0.16793823,-2.3896942,0.35664368,10.012355100002011,2.421990159578093,-94.93135833740234,13.90861988067627,104.78851318359375,19940198.0,50354.0,0.07349235347702827,-0.01450824213364151,0.03144051568079,0.0037451941129313937,-0.00033918905799145495,0.0013666034630291188,19.94019890599884
1636,C,504406777833192.0,2.0649289624563743,8.804691581748392,0.3662567,186,1970-01-06 20:06:46.777833192,0.19754028,-2.8084412,0.40434265,10.267448367763446,2.844267412654608,-94.7125473022461,13.984259605407715,104.97298431396484,19990552.0,50354.0,0.09392446080922827,-0.039799721952641524,0.027650289534390003,0.004215053133285082,-0.0013673116118003482,0.0014877292029025872,19.990552910021506
1636,C,504406828187196.0,2.468585062456374,8.650226581748392,0.87112427,186,1970-01-06 20:06:46.828187196,0.17181396,-2.5615082,0.46948242,10.347085802390348,2.609838699653137,-94.43108367919922,14.001163482666016,105.16094970703125,20040906.0,50354.0,0.11414028260522825,-0.05400672539764152,0.031153540681690003,0.005238446044945772,-0.0023617649249380764,0.0014805040333502463,20.04090691404417
1636,C,504406878541200.0,2.949069062456374,8.947040581748391,1.3174438,186,1970-01-06 20:06:46.878541200,0.296875,-2.1190338,0.589798,10.006992892634079,2.219527132515266,-94.39042663574219,14.038710594177246,105.26749420166016,20091260.0,50354.0,0.13640027790292825,-0.05042280462464154,0.055101578298390005,0.006307859691913856,-0.0026292222773710208,0.0021716451305614747,20.09126091800863
1636,C,504406928895203.0,3.179110562456374,9.428699581748392,1.8441162,186,1970-01-06 20:06:46.928895203,0.28494263,-1.9493561,0.66503906,9.583574678818144,2.0792927784042847,-94.35247802734375,14.079292297363281,105.36505126953125,20141614.0,50354.0,0.15428917841642828,-0.030823189903641537,0.07959859612,0.007318688441752439,-0.002045530404238583,0.003391346291331805,20.141614921041764
1636,C,504406979249207.0,3.956561062456374,9.821414581748392,2.1077728,186,1970-01-06 20:06:46.979249207,0.112716675,-2.0133514,0.6823578,9.155447362729968,2.128826220226972,-94.32228088378906,14.12092399597168,105.46589660644531,20191968.0,50354.0,0.17965480450042826,-0.008809075705641505,0.09949670935299999,0.008407707657897698,-0.0009978215512449192,0.004509082505893721,20.191968925006222
1636,C,504407029603211.0,5.176623342456374,10.050815581748392,1.6992493,186,1970-01-06 20:06:47.029603211,-0.29074097,-1.9949341,0.5845947,8.811079643318195,2.0990577262780175,-94.31231689453125,14.157578468322754,105.56619262695312,20242322.0,50354.0,0.22994618376248824,0.006853938826358499,0.0958493954117,0.01031252408149545,-4.922448120970823e-05,0.004918228879660852,20.242322929028887
1636,C,504407079957215.0,6.110186562456374,10.317203581748393,2.0221405,186,1970-01-06 20:06:47.079957215,-0.63571167,-1.6660461,0.20469666,8.708883939013107,1.7949205155979902,-94.32332611083984,14.174052238464355,105.65106201171875,20292676.0,50354.0,0.28416801297598826,0.019336418479358505,0.09369343099460001,0.012943853131284622,0.0006593946258860371,0.004772119740431415,20.292676933051553
1636,C,504407130311219.0,6.654955862456374,10.191440581748392,3.41716,186,1970-01-06 20:06:47.130311219,-0.7420349,-1.0859833,-0.1351471,9.341183249032547,1.3222103687898195,-94.34664154052734,14.171417236328125,105.70744323730469,20343030.0,50354.0,0.3213879908320283,0.022876934104358506,0.13694526868850002,0.015246083507874434,0.0010628055780002434,0.00580679054192141,20.34303093701601
1636,C,504407180665223.0,6.872851362456374,9.709705581748391,4.366165,186,1970-01-06 20:06:47.180665223,-0.5703583,-0.57167053,-0.36746216,10.19367361540181,0.887211487910992,-94.36759948730469,14.155264854431152,105.73826599121094,20393384.0,50354.0,0.3405896025016283,0.007581956958358471,0.195960773525,0.016666609867361473,0.0007668635002860254,0.00838157542480929,20.393384941038676
1636,C,504407231019227.0,3.384737962456374,6.5149575817483925,-1.129425,186,1970-01-06 20:06:47.231019227,-0.4453125,-0.07467651,-0.5739441,12.310250825963626,0.7302681930132519,-94.4122543334961,13.940899848937988,105.73860931396484,20443738.0,50354.0,0.25825532643332827,-0.08498085553264152,0.08149140298,0.015077118775795402,-0.0019486720694047244,0.006985413447866385,20.443738945003133
1636,C,504407281373231.0,2.2960691624563743,6.681995581748392,0.31965637,186,1970-01-06 20:06:47.281373231,-0.34580994,0.2740631,-0.40234375,12.273458485679056,0.5971395067724762,-94.28317260742188,13.869617462158203,105.76203918457031,20494092.0,50354.0,0.14302568098392826,-0.1612095102026415,-0.02038754479751,0.010103051923744269,-0.006198334838117221,0.001538411837460551,20.4940929490258
1636,C,504407331727235.0,4.175311062456374,9.504932581748392,1.4267426,186,1970-01-06 20:06:47.331727235,-0.7203522,-1.0189667,-0.53692627,9.316582619377774,1.3584882212113005,-94.3061752319336,13.846660614013672,105.81644439697266,20544446.0,50354.0,0.16292993992262828,-0.08593090962764151,0.04396908686769,0.0077030446675643745,-0.006222254350067036,0.0005937124847009219,20.544446953048464
1636,C,504407382081239.0,1.861697162456374,10.145923581748391,-0.9844055,186,1970-01-06 20:06:47.382081239,-0.6911316,-1.0957336,-0.39413452,9.093981815370466,1.3541185437557341,-94.3820571899414,13.959502220153809,105.86096954345703,20594800.0,50354.0,0.15199375607862828,0.001280405628358478,0.011136721166700001,0.007928833894223638,-0.002131245739189949,0.0013873989288818373,20.59480095701292
1636,C,504407432435243.0,0.8562040624563743,9.170841081748392,-0.6036835,186,1970-01-06 20:06:47.432435243,-0.16366577,-1.192627,-0.113357544,10.327894484777959,1.2091300915039727,-94.3572998046875,14.17270278930664,105.92707824707031,20645154.0,50354.0,0.06842859913962827,-0.007131016067141511,-0.03998331675300001,0.005549573637330045,-0.00014730081901724042,-0.0007262707370762752,20.645154961035587
1636,C,504407482789246.0,3.429903962456374,8.818774581748391,-0.16546631,186,1970-01-06 20:06:47.482789246,-0.09692383,-0.6919403,0.022033691,9.968959617527217,0.6990429823158533,-94.2668685913086,14.023221969604492,105.98365020751953,20695508.0,50354.0,0.10791134174322826,-0.040544646440141524,-0.01936488476637,0.0044397106916076795,-0.001200330154945865,-0.0014942096696531789,20.695508964010514
1636,C,504407533143250.0,4.201876662456374,9.370410581748391,-1.4975433,186,1970-01-06 20:06:47.533143250,-0.25576782,-0.49320984,0.09352112,9.45839821299853,0.5633997904742531,-94.27360534667969,14.029723167419434,106.00865173339844,20745862.0,50354.0,0.19214534079342827,-0.03552008513864154,-0.04186959295097,0.007554527096225402,-0.0019150817469590214,-0.0015417004454894693,20.74586296803318
1636,C,504407583497254.0,4.851916312456374,8.510394581748391,-1.1836243,186,1970-01-06 20:06:47.583497254,-0.9212799,-1.1367493,0.2399292,10.247336288962156,1.4827412607084016,-94.30571746826172,14.045937538146973,106.06614685058594,20796216.0,50354.0,0.22794734572937825,-0.043284168398641534,-0.0675037566652,0.0105766735685847,-0.001984054691308176,-0.0027536928232863127,20.796216971997637
1636,C,504407633851258.0,3.956988362456374,9.578326581748392,1.177536,186,1970-01-06 20:06:47.633851258,-0.9527893,-1.5197296,0.34225464,9.226901290026463,1.8260678371605419,-94.33470153808594,14.068721771240234,106.14291381835938,20846570.0,50354.0,0.22178179300027828,-0.03804946726664151,-0.0001532851291000012,0.011322830525796563,-0.002047736945144831,-0.0017034013412550912,20.846570976020303
1636,C,504407684205262.0,3.273470862456374,9.288547581748391,0.07551575,186,1970-01-06 20:06:47.684205262,-0.13179016,-1.8599701,0.32695007,9.527047202470623,1.8930804968198898,-94.19670104980469,13.974934577941895,106.26671600341797,20896924.0,50354.0,0.18204127190562827,-0.01845790918564152,0.03154808390975,0.01016705330513601,-0.00142268621693913,0.000790426848900425,20.896924980042968
1636,C,504407734559266.0,3.4563169624563743,8.867709581748391,-0.868042,186,1970-01-06 20:06:47.734559266,0.16304016,-2.0756836,0.3992157,9.953390214720157,2.120004168912947,-94.18506622314453,13.850105285644531,106.3665542602539,20947278.0,50354.0,0.16943586806782826,-0.036349113394641544,-0.01995343339625,0.008849139953111715,-0.001379876407503787,0.0002919185159783895,20.947278984007426
1636,C,504407784913270.0,4.575320242456374,7.955005581748392,-1.4394073,186,1970-01-06 20:06:47.784913270,0.35879517,-2.2737274,0.41723633,10.832906486082571,2.339370945061505,-94.13951873779297,13.879159927368164,106.4817886352539,20997632.0,50354.0,0.20221252990808827,-0.06992370032864154,-0.0580946510261,0.009356991715839652,-0.0026756306311110983,-0.001965016621501506,20.99763298803009
1636,C,504407835267274.0,6.606539762456374,7.244174581748393,-2.2566833,186,1970-01-06 20:06:47.835267274,0.21775818,-2.7034302,0.20832825,11.801438663104292,2.720175386069254,-94.0954818725586,13.899255752563477,106.61991119384766,21047986.0,50354.0,0.28152568934368827,-0.1107994410236415,-0.09305647303620002,0.012179077146101978,-0.00455006652982643,-0.003805531850516528,21.047986992052756
1636,C,504407885621278.0,3.962969762456374,7.060947581748392,-1.1987457,186,1970-01-06 20:06:47.885621278,0.14979553,-3.3015747,0.014282227,11.721071627085957,3.3050019943255937,-94.09355163574219,13.670310020446777,106.77835083007812,21098340.0,50354.0,0.2661085413087283,-0.1333091392896415,-0.086997335933,0.013787787025135893,-0.0061459217265475265,-0.00453321474841755,21.098340996017214
1636,C,504407935975282.0,2.6980008624563743,6.934833581748391,-0.4423828,186,1970-01-06 20:06:47.935975282,0.33171082,-3.0637054,0.17663574,11.952279088068982,3.0866685974914088,-93.99101257324219,13.603934288024902,106.94646453857422,21148695.0,50355.0,0.1677065879087407,-0.14110021975605977,-0.04131951280875,0.010922380415872825,-0.006908941637373144,-0.0032306974591954107,21.14869500003988
1636,C,504407986329286.0,2.776034362456374,9.495013581748392,-1.4846954,186,1970-01-06 20:06:47.986329286,0.49777222,-2.0609283,0.28507996,9.534629302545861,2.1392693201974877,-94.0715103149414,13.595942497253418,107.02062225341797,21199049.0,50354.0,0.13781978485762827,-0.07981493796464154,-0.04851804784140001,0.007692237487138872,-0.005561980925934097,-0.002261840264488827,21.199049004004337
1636,C,504408036683289.0,2.386858962456374,12.256366581748392,-1.7952118,186,1970-01-06 20:06:48.036683289,0.16593933,-1.8065338,0.2256012,7.107610204143415,1.8281127244305064,-94.04159545898438,13.613581657409668,107.11249542236328,21249403.0,50354.0,0.12998616524132825,0.05416529837635848,-0.0825782235744,0.006742550405641429,-0.0006457809759142025,-0.0033006108254355973,21.249403007037472
1636,C,504408087037293.0,0.9520903624563739,9.362033581748392,8.212112,186,1970-01-06 20:06:48.087037293,-0.0499115,0.038879395,0.7007141,13.014834149499446,0.7035645067274401,-94.04517364501953,13.648397445678711,107.10797119140625,21299757.0,50354.0,0.08406472715332826,0.050817260916358485,0.1615582963354,0.005389159317820268,0.0026431458953127354,0.0019884812919036972,21.29975701100193
1636,C,504408137391297.0,1.9373044624563742,8.962314581748393,1.3394012,186,1970-01-06 20:06:48.137391297,0.6589203,-1.2737427,1.0279236,10.23271429925563,1.7644328706392716,-93.99763488769531,13.704130172729492,107.16963958740234,21350111.0,50354.0,0.07274629350682826,-0.03211708628764149,0.2404784478364,0.003948031067160761,0.00047081429662720783,0.01012207910801341,21.350111015024595
1636,C,504408187745301.0,3.414980862456374,10.417575581748391,1.0127563,186,1970-01-06 20:06:48.187745301,-0.13276672,-2.8452911,0.7435913,8.450737069618302,2.94384722210825,-93.97025299072266,13.751104354858398,107.3130874633789,21400465.0,50354.0,0.13475448762532824,-0.005541705353641512,0.059220269377499996,0.0052242471665643045,-0.0009481353971525822,0.0075455146032943595,21.40046501904726
1636,C,504408238099305.0,5.051943782456374,9.940189581748392,1.8140564,186,1970-01-06 20:06:48.238099305,-0.2339325,-2.8564453,0.63012695,8.938026828191116,2.9344614735185472,-93.94755554199219,13.792396545410156,107.4575424194336,21450819.0,50354.0,0.21317176178496827,0.019078253521358467,0.0711706633479,0.008759739181403036,0.0003408096732186098,0.003282852513227395,21.450819023011718
1636,C,504408288453309.0,6.260561962456374,10.198581581748392,1.7197571,186,1970-01-06 20:06:48.288453309,-0.5561371,-2.2849884,0.6274719,8.782047341752511,2.4339641425913774,-93.94786834716797,13.831560134887695,107.57268524169922,21501173.0,50354.0,0.28481495713966826,0.013564641583358504,0.0889708224895,0.012537811622365575,0.0008218501700514592,0.00403188218892822,21.501173027034383
1636,C,504408338807313.0,7.470431362456374,8.402377581748391,0.49949646,186,1970-01-06 20:06:48.338807313,-0.6119385,-1.8410797,0.35420227,10.63465805536269,1.9721821512242457,-93.95612335205078,13.855572700500488,107.66600799560547,21551527.0,50354.0,0.3457052189413283,-0.025152851140641513,0.05587414688012,0.01587460647319125,-0.0002917563520237143,0.0036467617938189226,21.55152703099884
1636,C,504408389161317.0,8.029330362456374,9.355472581748392,2.5172424,186,1970-01-06 20:06:48.389161317,-0.87687683,-0.6681671,-0.4928894,10.18621801296368,1.2076010140545672,-93.99134063720703,13.83329963684082,107.70209503173828,21601881.0,50354.0,0.39023750094812826,-0.04637980643364152,0.07595243427822002,0.01852882985865685,-0.0018009777197477241,0.0033189978338235265,21.601881035021506
1636,C,504408439515321.0,0.2643003624563738,6.962131581748391,0.964447,186,1970-01-06 20:06:48.439515321,-0.12246704,0.52142334,-0.43032837,12.617336543938821,0.687068396456986,-94.00350189208984,13.810016632080078,107.67686462402344,21652235.0,50354.0,0.2088087407611283,-0.08264087997564153,0.08765849402380002,0.015082187227513954,-0.0032483538217265196,0.004119232341859958,21.65223503904417
1636,C,504408489869325.0,2.506167362456374,8.542545581748392,2.381958,186,1970-01-06 20:06:48.489869325,0.15032959,0.080703735,-0.19602966,10.675925210443824,0.2598840242728166,-93.9968032836914,13.799959182739258,107.67341613769531,21702589.0,50354.0,0.06975206591012825,-0.10310794305464153,0.084252438685,0.007013325429562226,-0.004676598117433437,0.004328201552809459,21.70258904300863
1636,C,504408540223328.0,1.290530162456374,9.723834581748392,-0.025543213,186,1970-01-06 20:06:48.540223328,-0.29864502,0.19248962,-0.21394348,9.63466120726648,0.41474439648180317,-93.9220962524414,13.980827331542969,107.68631744384766,21752943.0,50354.0,0.09558945358472826,-0.033576546623641505,0.059327455092299,0.0041628034363220025,-0.003441305396630132,0.0036149109856310575,21.752943046041764
1636,C,504408590577332.0,0.5043823624563739,7.283038581748391,0.37823486,186,1970-01-06 20:06:48.590577332,-0.36003113,0.25915527,-0.09233093,12.200703571864995,0.4531102174664733,-93.8031234741211,14.144824028015137,107.70733642578125,21803297.0,50354.0,0.04519051263972826,-0.06528715436264154,0.008879717596519,0.003544417209633142,-0.0024890913997316485,0.0017172519867863709,21.803297050006222
1636,C,504408640931336.0,1.9994535624563738,8.741321581748393,-0.34251404,186,1970-01-06 20:06:48.640931336,-0.27157593,0.059890747,-0.022247314,10.34530664631828,0.27898983908342884,-93.77201080322266,14.185452461242676,107.71543884277344,21853651.0,50354.0,0.06303907708152826,-0.09002388416364152,0.0008993430851399997,0.002724896380412075,-0.0039102660169762285,0.00024620741078212866,21.853651054028887
1636,C,504408691285340.0,4.343264582456374,11.043033581748393,0.9213257,186,1970-01-06 20:06:48.691285340,-0.7699127,-0.24412537,0.0818634,7.716046290161417,0.8118278008041403,-93.8074951171875,14.190347671508789,107.72772216796875,21904005.0,50354.0,0.15969061473446827,0.004641509951358535,0.01457274116382,0.0056076654508513445,-0.0021496720355426487,0.0003895406651360659,21.904005058051553
1636,C,504408741639344.0,3.007296562456374,11.478595581748392,1.4428253,186,1970-01-06 20:06:48.741639344,-0.48231506,-0.9056854,0.04710388,7.573329444302574,1.027186758280605,-93.82022094726562,14.195706367492676,107.774169921875,21954359.0,50354.0,0.18506507794546828,0.07355785744935853,0.059522229727000005,0.008679914074602764,0.0019688254730478535,0.0018654890821181754,21.95435906201601
1636,C,504408791993348.0,2.016070362456374,10.659717581748392,0.23423767,186,1970-01-06 20:06:48.791993348,0.09434509,-0.71720886,0.2238617,8.507773830437667,0.7572341814765744,-93.67301177978516,14.336542129516602,107.84325408935547,22004713.0,50354.0,0.12647330906852827,0.0639071105173585,0.04222341439569,0.007843601969851392,0.003460955498498035,0.0025616500820769663,22.004713066038676
1636,C,504408842347352.0,1.871844362456374,8.910526581748393,-0.7415924,186,1970-01-06 20:06:48.842347352,0.6179657,-0.93440247,0.34840393,10.23992713724613,1.1731900446040426,-93.64685821533203,14.416674613952637,107.88617706298828,22055067.0,50354.0,0.09788602902912825,-0.0007491626956414862,-0.012773670037210003,0.005648695055284698,0.0015901276523073696,0.0007414562137134509,22.055067070003133
1636,C,504408892701356.0,3.396731362456374,10.950366781748393,1.1796265,186,1970-01-06 20:06:48.892701356,0.8156738,-0.54393005,0.39146423,7.956272056846578,1.0556646677183694,-93.59941101074219,14.437926292419434,107.91293334960938,22105421.0,50354.0,0.1326469310261283,0.0065685122127585325,0.011028384535699997,0.005804128335311194,0.00014651376279245588,-4.3941053071517434e-05,22.1054210740258
1636,C,504408943055360.0,3.2925901624563743,12.012134581748391,0.23005676,186,1970-01-06 20:06:48.943055360,0.7544861,-0.7303467,0.42655945,6.8530759946547315,1.1334057268597166,-93.41262817382812,14.42383861541748,107.98406982421875,22155775.0,50354.0,0.16841704803272828,0.08465769682875851,0.035491595437020004,0.0075798878007648325,0.002296802265038275,0.0011712335357731715,22.155775078048464
1636,C,504408993409364.0,4.389575002456374,10.496799581748391,0.14649963,186,1970-01-06 20:06:48.993409364,0.12519836,-0.8954773,0.56163025,8.20484707777782,1.064416629838637,-93.3952865600586,14.454532623291016,108.02850341796875,22206129.0,50354.0,0.1934138723570083,0.07323823543435845,0.00948056023103,0.009109817082652398,0.003975345886588496,0.001132263963254495,22.20612908201292
1636,C,504409043763368.0,5.033923152456374,9.875308581748392,0.20254517,186,1970-01-06 20:06:49.043763368,-0.26849365,-1.3360138,0.36360168,8.818727899089486,1.410399906260485,-93.39178466796875,14.476634979248047,108.09626007080078,22256483.0,50354.0,0.23725541304623832,0.019439367232358475,0.0087879009296,0.01084296059859754,0.0023333440023399323,0.0004599450466411816,22.256483086035587
1636,C,504409094117371.0,6.185290362456374,9.190448581748392,1.0407257,186,1970-01-06 20:06:49.094117371,-0.018630981,-0.69685364,-0.08622742,9.652668491395968,0.7024153165998933,-93.3836669921875,14.474386215209961,108.13243865966797,22306837.0,50354.0,0.2824661386649583,-0.013450631894641513,0.03130183069399001,0.013085029507432797,0.00015077838959769998,0.0010093391730871257,22.306837089010514
1636,C,504409144471375.0,4.947436332456374,10.274631581748391,0.30471802,186,1970-01-06 20:06:49.144471375,0.12695313,-0.1362915,-0.37590027,8.420953895457014,0.419515772260257,-93.37528228759766,14.456024169921875,108.14061737060547,22357191.0,50354.0,0.28028865999781827,-0.0033968767236415374,0.03387423653844,0.014168477565932727,-0.0004241697244825124,0.0016409378447108905,22.35719109303318
1636,C,504409194812377.0,1.466631862456374,7.464084581748391,2.0371704,186,1970-01-06 20:06:49.194812377,0.021835327,0.31828308,-0.7076111,11.890724039521496,0.7762051077921952,-93.37773895263672,14.419766426086426,108.1263656616211,22407532.0,50341.0,0.1614453035000513,-0.04684944480670427,0.05894650247561,0.011118664728223124,-0.001264725036079569,0.0023363444113531453,22.407532095036004
1636,C,504409245166381.0,-2.064541637543626,5.041415581748392,-0.34417725,186,1970-01-06 20:06:49.245166381,0.20596313,1.5618439,-0.21614075,15.289240960840488,1.5901238953921701,-93.3873062133789,14.404369354248047,108.0465316772461,22457886.0,50354.0,-0.01505357440737175,-0.17861822238364153,0.04262448853755,0.0036857045633663927,-0.005676599456851336,0.0025572528407383295,22.45788609900046
1636,C,504409295520385.0,-0.447979937543626,6.272418581748392,0.52215576,186,1970-01-06 20:06:49.295520385,-0.21203613,1.0701294,-0.20498657,13.497690961252893,1.1100251109997925,-93.41146850585938,14.390965461730957,107.99201965332031,22508240.0,50354.0,-0.06325775569597175,-0.2086207972656415,0.0044809649462699995,-0.0019716443580118795,-0.00974951679771,0.001185974002362136,22.508240103023127
1636,C,504409345874389.0,3.612093962456374,9.405399581748393,1.5970917,186,1970-01-06 20:06:49.345874389,-0.30841064,-0.3738556,0.010421753,9.497067283588404,0.4847615346251831,-93.4220962524414,14.392598152160645,108.01124572753906,22558594.0,50354.0,0.07966289880522825,-0.0987487720976415,0.05335629330042,0.000413032288061751,-0.007738643647859377,0.001456168650876914,22.558594107045792
1636,C,504409396228393.0,4.360140802456374,9.910754581748392,2.0847626,186,1970-01-06 20:06:49.396228393,-0.34913635,-0.5282593,0.096069336,9.034156664699053,0.640455616141582,-93.43286895751953,14.39897346496582,108.03817749023438,22608948.0,50354.0,0.20071695467620826,-0.007146386625641479,0.0926980457111,0.007059123571102128,-0.0026661224111760957,0.0036772100932930397,22.60894811101025
1636,C,504409446582397.0,6.0790128624563735,11.618564581748391,1.048996,186,1970-01-06 20:06:49.446582397,-0.21525574,-0.34675598,0.17932129,7.258120739194289,0.4457924049554592,-93.43932342529297,14.408961296081543,108.05549621582031,22659302.0,50354.0,0.26282657182150826,0.04857446857935848,0.0788986402722,0.011670635366633009,0.001043034819348733,0.004320289763001545,22.659302115032915
1636,C,504409496936401.0,7.467013362456374,10.988132281748392,0.2347107,186,1970-01-06 20:06:49.496936401,0.24081421,0.32333374,-0.27555847,8.146884396568934,0.4883325317332981,-93.43121337890625,14.394235610961914,108.03968811035156,22709656.0,50354.0,0.3410483022646283,0.07569960693225847,0.0323198835859,0.015203757704866662,0.0031288483991559804,0.002800148775175384,22.709656118997373
1636,C,504409547290405.0,6.395831062456374,9.758075581748392,-1.649643,186,1970-01-06 20:06:49.547290405,0.07766724,0.91290283,-0.79071045,9.217954721550507,1.2102259263998723,-93.43840026855469,14.352034568786621,107.99510192871094,22760010.0,50354.0,0.34902483408602825,0.028858075379258483,-0.035623750517100004,0.01737397135390048,0.0026324487675570625,-8.318145772682244e-05,22.760010123020038
1636,C,504409597644409.0,3.351901062456374,9.821430081748392,-0.097335815,186,1970-01-06 20:06:49.597644409,-0.71429443,1.2014313,-0.921051,8.988732400961842,1.6739141692302253,-93.41720581054688,14.179089546203613,107.95377349853516,22810364.0,50354.0,0.24541865170892826,-0.0005159859101415077,-0.043983685625255,0.014966303641859621,0.0007135687865639581,-0.002004276419756072,22.810364127042703
1636,C,504409647998412.0,2.600497362456374,10.905124581748392,2.529007,186,1970-01-06 20:06:49.647998412,-0.67282104,1.2279358,-0.7242737,8.479848968150671,1.5764158313401992,-93.46575927734375,14.139252662658691,107.89280700683594,22860718.0,50354.0,0.14986353514402828,0.028363266762858518,0.061222185424745,0.009952019618396889,0.0007011109900288562,0.00043401370945175973,22.86071813001763
1636,C,504409698352416.0,1.378115662456374,10.429523581748391,1.8986053,186,1970-01-06 20:06:49.698352416,-0.26449585,0.6629486,-0.41651917,9.146855224805103,0.8264061470528105,-93.48698425292969,14.116451263427734,107.85997772216797,22911072.0,50354.0,0.10016954012822826,0.04367323681235849,0.1114739948771,0.006295082736129603,0.0018136630505132389,0.004347971731459552,22.911072134040296
1636,C,504409748706420.0,-0.014767637543625867,8.015949081748392,2.4111176,186,1970-01-06 20:06:49.748706420,0.105148315,0.66648865,0.18318176,11.962229083822463,0.6991558094751551,-93.49024200439453,14.123568534851074,107.82511901855469,22961426.0,50354.0,0.034325013223228264,-0.029067534751141523,0.1085058934533,0.003386169369729621,0.0003677277607952596,0.005538433648494481,22.961426138004754
1636,C,504409799060424.0,1.0140713624563742,4.320133081748391,-2.3038025,186,1970-01-06 20:06:49.799060424,0.45199585,-0.8721466,0.6670532,15.041677674668525,1.187392063279447,-93.59711456298828,14.1743745803833,107.8337173461914,23011780.0,50354.0,0.025159469882128267,-0.18288365936964154,0.0027018722726999916,0.0014976408311435615,-0.005336295214378955,0.002799877917683502,23.01178014202742
1636,C,504409849414428.0,4.106753362456374,3.3307375817483926,-1.2169495,186,1970-01-06 20:06:49.849414428,0.8102722,-0.21746826,0.41177368,15.422947007248137,0.9345539287494382,-93.55418395996094,14.195597648620605,107.84358215332031,23062134.0,50354.0,0.12892700409912825,-0.3008432293051415,-0.088641973104,0.0038794351554260957,-0.012178791876165015,-0.0021637139186296405,23.062134146050084
1636,C,504409899768432.0,4.867449758456374,5.496463581748392,-0.81066895,186,1970-01-06 20:06:49.899768432,0.49168396,0.5780029,0.1690979,13.21759951382026,0.7774539013434183,-93.53704071044922,14.20224666595459,107.81329345703125,23112488.0,50354.0,0.22594351197522025,-0.2712267563066415,-0.05104934971565,0.008934574983203873,-0.014403006027747862,-0.003517008434630328,23.112488150014542
1636,C,504409950122436.0,5.079653742456374,10.016055581748391,0.8233032,186,1970-01-06 20:06:49.950122436,-0.20805359,0.42004395,-0.02355957,8.715921928956396,0.4693381186118122,-93.55272674560547,14.199777603149414,107.791748046875,23162842.0,50354.0,0.2504382248424803,-0.10291050502064153,0.00031809251224999895,0.011993862987859248,-0.009419653828437005,-0.0012772608626100018,23.162842154037207
1636,C,504410000476440.0,4.409808162456374,12.747806581748392,1.4442139,186,1970-01-06 20:06:50.000476440,-0.36839294,-0.5426178,-0.18591309,6.127973755279411,0.6816972290922355,-93.56415557861328,14.19218635559082,107.82027435302734,23213196.0,50354.0,0.23891618237998827,0.0796565576903585,0.057089278026700004,0.012320475910640092,-0.000585464631934536,0.0014453453680591444,23.213196158001665
1636,C,504410050830444.0,2.7732267624563742,13.364749581748391,1.2700653,186,1970-01-06 20:06:50.050830444,0.07772827,-0.6630707,-0.03211975,5.843537988340253,0.6683832100642156,-93.5518569946289,14.192638397216797,107.85450744628906,23263550.0,50354.0,0.18084727030452827,0.1639666265283585,0.0683374074184,0.010568384448238074,0.006133700909074638,0.0031578676594512826,23.26355016202433
1636,C,504410101184448.0,2.672259362456374,11.444766881748393,0.07789612,186,1970-01-06 20:06:50.101184448,0.8812866,-0.9018402,0.39060974,7.556114602093707,1.3200597663206268,-93.39366912841797,14.273530006408691,107.92503356933594,23313904.0,50354.0,0.13710100416692828,0.1311599960014585,0.03393762467134,0.008004983706367862,0.007430402975433204,0.002574978482923384,23.313904166046996
1636,C,504410151538451.0,4.321276662456374,10.110278581748393,-0.17285156,186,1970-01-06 20:06:50.151538451,0.9656067,-0.4884491,0.5167389,8.594977591189945,1.1991655069876344,-93.3395767211914,14.300753593444824,107.9486312866211,23364258.0,50354.0,0.17607625649922826,0.04922217963445854,-0.0023906931128799998,0.007884863891791823,0.004541482035985484,0.0007942570958473475,23.364258169021923
1636,C,504410201892455.0,5.390856762456374,10.238956581748392,0.25354004,186,1970-01-06 20:06:50.201892455,0.2408905,-0.41241455,0.23930359,8.473254765764674,0.5342098859332731,-93.32246398925781,14.313899040222168,107.96916198730469,23414612.0,50354.0,0.24452238323902828,0.018863493711358502,0.002031493860960001,0.010589411952690085,0.0017141929978276356,-9.043559565589813e-06,23.41461217304459
1636,C,504410252246459.0,4.357180592456374,9.420383581748393,0.23085022,186,1970-01-06 20:06:50.252246459,-0.23222351,-1.0917969,-0.011001587,9.283076828386244,1.116274726204463,-93.32015991210938,14.316512107849121,108.02543640136719,23464966.0,50354.0,0.24542633648463827,0.0014940072963585045,0.01219549357602,0.012335438916482753,0.0005125408028712912,0.0003581928627008455,23.464966177009046
1636,C,504410302600463.0,1.8972043624563741,7.946841581748393,1.6859283,186,1970-01-06 20:06:50.302600463,0.37104797,-0.75949097,-0.044677734,11.259452245173291,0.8464627750043333,-93.29190063476562,14.316471099853516,108.06470489501953,23515320.0,50354.0,0.15746665000983825,-0.05621457205864147,0.04825873279804,0.010143636720971436,-0.0013776996590199983,0.0015220560574197089,23.51532018103171
1636,C,504410352954467.0,0.9737272624563742,4.5404245817483915,2.5735931,186,1970-01-06 20:06:50.352954467,1.3413544,0.53152466,0.32600403,14.886046979223963,1.479198674338142,-93.2318344116211,14.331236839294434,108.03636169433594,23565674.0,50354.0,0.07228144552042827,-0.17907729980164153,0.10724197028780003,0.005784367801165521,-0.0059239434578263455,0.0039150412015921945,23.565674185054377
1636,C,504410403308471.0,3.325640662456374,4.581287581748391,2.2228699,186,1970-01-06 20:06:50.403308471,0.7939453,0.82270813,0.25990295,14.359715632072675,1.1724962046756866,-93.20281982421875,14.341902732849121,107.99322509765625,23616028.0,50354.0,0.10824518624552827,-0.26381185285964154,0.12076054895100001,0.004545119007971488,-0.011150620196553124,0.00574041942687527,23.616028189018834
1636,C,504410453662475.0,5.240557662456374,10.755832581748392,2.2201843,186,1970-01-06 20:06:50.453662475,-0.5731354,0.07325745,0.041305542,8.248848174258937,0.5792728100934621,-93.23243713378906,14.343756675720215,107.98931884765625,23666382.0,50354.0,0.21567117522632825,-0.10732652564364153,0.11186277559340002,0.008155242232776933,-0.009344150955577158,0.00585675744205436,23.6663821930415
1636,C,504410504016479.0,5.271807662456374,12.187488581748392,2.413437,186,1970-01-06 20:06:50.504016479,-1.1887054,-0.3678131,0.22517395,6.949857902832798,1.2645197951314848,-93.28734588623047,14.356042861938477,108.00762176513672,23716736.0,50354.0,0.2646698217853283,0.08417479693335848,0.1166606834701,0.012093545281762479,-0.0005828910737387964,0.005753535128841741,23.716736197005957
1636,C,504410554370483.0,6.721987762456374,11.753879581748393,1.9507599,186,1970-01-06 20:06:50.554370483,-1.1165466,-0.26715088,0.13510132,7.451436662772178,1.1559836803874337,-93.33985900878906,14.363558769226074,108.02098083496094,23767090.0,50354.0,0.30196778741302827,0.10930262625235852,0.1098773853513,0.014266235086787022,0.0048711810835467976,0.005703548958716388,23.767090201028623
1636,C,504410604724487.0,5.973879862456374,10.933902581748391,1.2265625,186,1970-01-06 20:06:50.604724487,-0.75479126,0.36351013,-0.36993408,7.936063354455564,0.9158060298613735,-93.38196563720703,14.34402847290039,108.00337982177734,23817444.0,50354.0,0.31964385919242827,0.0777410915303585,0.07999544606480001,0.01565031642658558,0.004709199682615467,0.00478042827656315,23.817444205051288
1636,C,504410655078491.0,4.119158762456374,9.913257581748391,-0.07531738,186,1970-01-06 20:06:50.655078491,-0.43327332,1.0454407,-0.74261475,8.804017322298455,1.3535688730012503,-93.4163818359375,14.303860664367676,107.95178985595703,23867798.0,50354.0,0.25411243345942824,0.03139975143635847,0.02898489838624,0.014445462180095792,0.0027478390033730334,0.002743798132243835,23.867798209015746
1636,C,504410705432494.0,2.545611362456374,10.163318581748392,0.30955505,186,1970-01-06 20:06:50.705432494,-0.68296814,1.3961334,-0.7333679,8.82909915634735,1.7185640597897507,-93.33094024658203,14.280129432678223,107.9159164428711,23918152.0,50354.0,0.16779891743492825,0.01199875806835848,0.005897401817590001,0.010622462081467214,0.0010926442738002588,0.000878231672231828,23.91815221204888
1636,C,504410755786498.0,2.635149962456374,11.791507581748391,1.2360687,186,1970-01-06 20:06:50.755786498,-0.15361023,1.5079498,-0.48608398,7.339877264745457,1.5917871521322609,-93.3573989868164,14.251470565795898,107.8397216796875,23968506.0,50354.0,0.13043602787732825,0.05928745831835847,0.03891416915375,0.0075086612181266815,0.0017947730699683728,0.0011282209223454271,23.96850621601334
1636,C,504410806140502.0,0.5775633624563739,9.469394581748391,-1.2622223,186,1970-01-06 20:06:50.806140502,0.43833923,0.48831177,-0.01121521,10.226726748283554,0.6562891483278311,-93.34165954589844,14.249479293823242,107.8145980834961,24018860.0,50354.0,0.08088648338132826,0.04181653377035845,-0.0006584691872,0.005320466865959195,0.002545495208817626,0.0009631637580578294,24.018860220036004
1636,C,504410856494506.0,-0.20109263754362594,4.430499581748393,-0.7219391,186,1970-01-06 20:06:50.856494506,0.18955994,-0.910141,0.36236572,15.13374136893157,0.9977968359164715,-93.31004333496094,14.398133277893066,107.86308288574219,24069214.0,50354.0,0.009478403441128255,-0.14351156464564152,-0.0499552315678,0.0022751167555289877,-0.002560375792347002,-0.001274301143908635,24.06921422400046
1636,C,504410906848510.0,2.9830655624563738,4.215259581748391,1.6832275,186,1970-01-06 20:06:50.906848510,0.8069916,-0.16999817,0.50912476,14.686584399278994,0.9691970086205212,-93.26788330078125,14.424036979675293,107.8703384399414,24119568.0,50354.0,0.07004173233052825,-0.2757949215406415,0.024202358046800005,0.002002078458322996,-0.010556879402712048,-0.0006483800966382168,24.119568228023127
1636,C,504410957202514.0,4.152880662456374,8.283664581748392,0.80773926,186,1970-01-06 20:06:50.957202514,0.90548706,0.21878052,0.5396576,10.457966933825267,1.0765695783351275,-93.225830078125,14.450359344482422,107.85749053955078,24169922.0,50354.0,0.17966171810462825,-0.17878378633564154,0.06271507011652,0.006286783771605936,-0.011444928128201179,0.002188320088867908,24.169922232045792
1636,C,504411007556518.0,5.284258842456374,9.720035581748391,0.24682617,186,1970-01-06 20:06:51.007556518,-0.016220093,-0.5067444,0.44044495,8.98450440789321,0.6715986393142791,-93.22042846679688,14.473769187927246,107.88232421875,24220276.0,50354.0,0.2375988613151883,-0.04019004098364154,0.026550793831110003,0.010505369608052722,-0.005513104050417591,0.002247446656609481,24.22027623601025
1636,C,504411057910522.0,6.112109162456374,10.357593581748391,1.1190338,186,1970-01-06 20:06:51.057910522,-0.27745056,-0.5752106,-0.15498352,8.505184461467962,0.6571650774868245,-93.2267837524414,14.4676513671875,107.91243743896484,24270630.0,50354.0,0.2869263572596883,0.012025269449358453,0.03438825646469,0.013205971428059668,-0.0007091044529186453,0.0015342624692973568,24.270630240032915
1636,C,504411108264526.0,3.458315862456374,11.861865881748392,1.4309998,186,1970-01-06 20:06:51.108264526,0.120269775,-0.48054504,-0.453537,7.1070576770838425,0.6716279957060696,-93.2142562866211,14.44636344909668,107.93852996826172,24320984.0,50354.0,0.24095459085222826,0.06595013091245847,0.0642021959472,0.013290458630613724,0.0019631866549094648,0.0024822118203741547,24.320984243997373
1636,C,504411158618530.0,2.506991362456374,14.656665581748392,0.9099884,186,1970-01-06 20:06:51.158618530,0.34513855,-1.2763367,-0.17251587,4.7364542769342295,1.3333858090833461,-93.18045806884766,14.44131088256836,108.00482177734375,24371338.0,50354.0,0.15018854000162826,0.17418786665645844,0.0589390599114,0.009847810605507547,0.0060459543647926215,0.0031003273987519724,24.371338248020038
1636,C,504411208972534.0,-0.3969850375436259,10.860538381748391,1.7138824,186,1970-01-06 20:06:51.208972534,0.7969208,-1.5844421,0.091674805,9.561919990146652,1.7759346270617165,-93.12031555175781,14.450241088867188,108.08625793457031,24421692.0,50354.0,0.05312362924232826,0.14897744418895847,0.0660611951316,0.005118790485055093,0.008136333031155062,0.003147131421217611,24.421692252042703
1636,C,504411259326537.0,-4.7724736375436265,2.108417581748391,2.876297,186,1970-01-06 20:06:51.259326537,0.93984985,-0.21160889,0.83551025,19.36978369397041,1.2752150566579417,-93.0711669921875,14.492528915405273,108.09483337402344,24472046.0,50354.0,-0.13015146106267175,-0.16694979570704155,0.11556694675380001,-0.0019393297217407883,-0.00045248989417077755,0.004572851728248716,24.47204625501763
1636,C,504411309680541.0,3.995898262456374,5.093982581748392,3.6195068,186,1970-01-06 20:06:51.309680541,0.63894653,-0.07998657,0.59480286,14.092739893503117,0.8766076441850057,-93.0385971069336,14.522436141967773,108.09732818603516,24522400.0,50354.0,-0.01955183821857176,-0.31213437108364156,0.16354485227260002,-0.0037690799660038683,-0.01206190206728903,0.007027197764087674,24.522400259040296
1636,C,504411360034545.0,7.465472262456374,11.264102581748393,1.2835083,186,1970-01-06 20:06:51.360034545,-1.0225067,0.32980347,0.16339111,7.986335743076301,1.0867322279181582,-93.09410095214844,14.529717445373535,108.07986450195312,24572754.0,50354.0,0.2885629257057283,-0.08162168983864149,0.12344321117270002,0.00677289214966414,-0.00991359634584032,0.007225498473362319,24.572754263004754
1636,C,504411410388549.0,9.616564762456374,12.489688581748393,6.8085785,186,1970-01-06 20:06:51.410388549,-2.6667633,-1.3791351,0.35266113,10.382956120894434,3.0229141560573263,-93.20982360839844,14.551107406616211,108.14997100830078,24623108.0,50354.0,0.43007444617622825,0.10458000012335854,0.2037344693636,0.01809313311187202,0.0005780213780383212,0.008237352462862427,24.62310826702742
1636,C,504411460742553.0,7.4093808624563735,12.269397581748393,3.4565277,186,1970-01-06 20:06:51.460742553,-2.5308533,-1.9748993,-0.08564758,7.7375719600222475,3.211351923913235,-93.31070709228516,14.552450180053711,108.2520751953125,24673462.0,50354.0,0.42866223299842826,0.12989031233835854,0.2584445787974,0.021620413371580327,0.005903259056848651,0.0116362818955495,24.673462271050084
1636,C,504411511096557.0,3.467349062456374,11.780811181748392,1.1510315,186,1970-01-06 20:06:51.511096557,-1.3426666,0.3058014,-0.4099579,7.132755966596579,1.4367788886150612,-93.3814926147461,14.531098365783691,108.237548828125,24723816.0,50354.0,0.27384342931952826,0.11204290603855854,0.1160045179784,0.017686985060179194,0.006091152639075642,0.009427504909524317,24.723816275014542
1636,C,504411561450561.0,1.9595670624563741,10.737216581748392,-0.71136475,186,1970-01-06 20:06:51.561450561,0.74227905,1.7027283,-0.26434326,8.4802595276613,1.8762034033646833,-93.40838623046875,14.64220142364502,108.13996124267578,24774170.0,50354.0,0.13663346727692827,0.0734671850015585,0.011069489764750001,0.010334576825608987,0.004670587562117027,0.0031993422929492876,24.774170279037207
1636,C,504411611804565.0,4.138278002456374,12.905460181748392,-1.9475708,186,1970-01-06 20:06:51.611804565,1.4891205,1.1917114,-0.050125122,6.140587924828512,1.907922548812117,-93.34943389892578,14.636180877685547,108.0786361694336,24824524.0,50354.0,0.15352544519930827,0.1017824728745585,-0.06694402034235,0.0073053309394142075,0.004412260636346998,-0.0014067530563522353,24.824524283001665
1636,C,504411662158569.0,1.772555362456374,7.0254095817483915,-2.4978638,186,1970-01-06 20:06:51.662158569,0.7710266,1.1360321,-0.2243805,12.311040363977387,1.391185666587397,-93.54340362548828,14.617819786071777,107.9656753540039,24874878.0,50354.0,0.14881705162840828,0.008330308035558483,-0.11192270692420002,0.007612077042631419,0.002772309484974015,-0.00450332759238993,24.87487828702433
1636,C,504411712512573.0,-4.134457637543626,0.3797805817483919,-3.1051483,186,1970-01-06 20:06:51.712512573,-0.74432373,-0.43618774,0.3833313,20.61643788639708,0.9440447262323488,-93.57525634765625,14.63830852508545,107.9869613647461,24925232.0,50354.0,-0.059465613579871755,-0.30702872725364155,-0.14106703564170003,0.002249601155748004,-0.007520330100653678,-0.006369522748581666,24.925232291046996
1636,C,504411762866576.0,1.192202562456374,2.990497581748391,13.789261,186,1970-01-06 20:06:51.762866576,-0.108673096,2.8881836,0.115493774,21.207152895966484,2.8925340379909015,-93.61842346191406,14.635011672973633,107.8376235961914,24975586.0,50354.0,-0.07407715602547175,-0.4086157066776415,0.26899390544790003,-0.0033622063103537336,-0.018017779913087915,0.0032208148011106975,24.975586294021923
1636,C,504411813220580.0,2.192416162456374,9.017627581748393,3.5268402,186,1970-01-06 20:06:51.813220580,0.43363953,0.96328735,0.5491028,10.624257031611663,1.1905795419107803,-93.60974884033203,14.659378051757812,107.78614807128906,25025940.0,50354.0,0.08521454563712826,-0.19114063275864152,0.4359674799124,0.0002804060582526757,-0.015100065357987299,0.017748812799216276,25.02594029804459
1636,C,504411863574584.0,5.662127492456374,13.078189581748392,0.60487366,186,1970-01-06 20:06:51.863574584,-0.2703247,-1.0315247,0.47962952,5.706041989106999,1.169257510814282,-93.61018371582031,14.68656063079834,107.83779907226562,25076294.0,50354.0,0.19775384559973827,0.06283718872535851,0.10402415985322,0.007124295186170589,-0.0032302958104259666,0.013595369514379013,25.076294302009046
1636,C,504411913928588.0,5.452822662456374,13.438052981748392,-0.35466003,186,1970-01-06 20:06:51.913928588,-0.22868347,-0.8953247,0.20675659,5.301027023529672,0.9469164352728063,-93.61007690429688,14.699694633483887,107.88331604003906,25126648.0,50354.0,0.27984110005023827,0.17413023902115854,0.006299628562509999,0.01202440794662946,0.00596612892837406,0.0027776220209428343,25.12664830603171
1636,C,504411964282592.0,5.844119062456374,10.588916581748391,-0.12579346,186,1970-01-06 20:06:51.964282592,0.0031585693,-1.0458832,-0.22883606,8.16575007393658,1.070629528342361,-93.59603881835938,14.691561698913574,107.93801879882812,25177002.0,50354.0,0.2844231018081283,0.11145781270015848,-0.012096377517730001,0.014206479810188096,0.007190250378187599,-0.000145944748445574,25.177002310054377
1636,C,504412014636596.0,2.266039862456374,9.917697581748392,-1.689148,186,1970-01-06 20:06:52.014636596,0.27618408,-1.0514069,-0.5527649,9.290223643584435,1.2195421887270101,-93.74903106689453,14.701584815979004,107.9481201171875,25227356.0,50354.0,0.2041894712525283,0.022825824794358473,-0.04569478113842,0.012301798751948152,0.003380859141199453,-0.0014550080014858887,25.227356314018834
1636,C,504412064990600.0,1.605975162456374,11.536533181748393,-0.8443451,186,1970-01-06 20:06:52.064990600,0.19082642,-0.79377747,-0.26548767,7.886421407283218,0.8584760319144887,-93.79924011230469,14.923880577087402,107.9720230102539,25277710.0,50354.0,0.09748572228222827,0.046683967932558516,-0.0637857557787,0.007595276347624567,0.0017500480514855892,-0.0027563914779623307,25.2777103180415
1636,C,504412115344604.0,1.213808962456374,7.407031581748392,-0.45202637,186,1970-01-06 20:06:52.115344604,0.16181946,-0.27877808,-0.11482239,11.85270930785467,0.3421796849149436,-93.750244140625,14.98876953125,107.99639129638672,25328064.0,50354.0,0.07099370491292827,-0.0165270699494415,-0.03263874450019,0.004241806538492456,0.0007592602205209372,-0.002427679643521614,25.328064322005957
1636,C,504412165698608.0,-0.7921571375436258,3.179172581748391,3.6016693,186,1970-01-06 20:06:52.165698608,0.13616943,1.5800018,0.48371887,16.882383380467544,1.657990273452725,-93.76498413085938,15.00772762298584,107.91314697265625,25378418.0,50354.0,0.010615927995828259,-0.22694033777564154,0.07929856004861001,0.0020546857277437634,-0.006129778924294416,0.0011747541760625706,25.378418326028623
1636,C,504412216052612.0,1.672564462456374,4.712268581748392,-1.6986237,186,1970-01-06 20:06:52.216052612,0.41322327,1.506134,0.08607483,14.42695559841753,1.5641617477693992,-93.84436798095703,14.94731330871582,107.81443786621094,25428772.0,50354.0,0.02216601521932826,-0.2947863858266416,0.047912979071200006,0.0008253509843279957,-0.013135513720134682,0.003202804920419457,25.428772330051288
1636,C,504412266406616.0,4.661257742456374,9.133670581748392,0.0335083,186,1970-01-06 20:06:52.266406616,-1.0114288,-0.27331543,-0.002380371,9.55678097456417,1.0477095054983623,-93.89129638671875,14.948115348815918,107.82854461669922,25479126.0,50354.0,0.15946664165308827,-0.14486998968064152,-0.0419226104258,0.004572965402076831,-0.011069228566146868,0.00015081951138523598,25.479126334015746
1636,C,504412316760619.0,4.9858884824563745,10.801532581748392,4.0744934,186,1970-01-06 20:06:52.316760619,-1.4879608,-1.904419,0.08979797,8.879353203187515,2.418450484362614,-93.94039916992188,14.959092140197754,107.92655181884766,25529480.0,50354.0,0.2428862005046283,0.008439410047358487,0.1034271588009,0.010130037507004832,-0.0034349127034271672,0.001548500014439893,25.52948033704888
1636,C,504412367114623.0,6.431414562456374,12.136676581748393,1.0577393,186,1970-01-06 20:06:52.367114623,-1.3119812,-1.4780121,0.14958191,6.830282802339514,1.9819659897937447,-93.98643493652344,14.971657752990723,108.00233459472656,25579834.0,50354.0,0.2874534387617683,0.08404609210935851,0.1292142226879,0.013352361097810067,0.002328507487799664,0.005857212061743518,25.57983434101334
1636,C,504412417468627.0,5.530871362456374,12.673785981748392,0.93948364,186,1970-01-06 20:06:52.417468627,-0.26753235,-0.23132324,-0.28718567,6.129702573063216,0.4555871033227005,-93.99646759033203,14.95814037322998,108.01531982421875,25630188.0,50354.0,0.3011744727315283,0.13118381596115852,0.05028408196038,0.01481988492766673,0.005418843395491407,0.004519228816129746,25.630188345036004
1636,C,504412467822631.0,4.629565232456374,11.641971581748392,-0.051940918,186,1970-01-06 20:06:52.467822631,0.96598816,0.59454346,-0.33992004,7.0498564912762935,1.1841286605274608,-93.95576477050781,14.939120292663574,107.98583221435547,25680542.0,50354.0,0.25580931215011826,0.11872862817615848,0.022345663111794,0.014023180751965217,0.006292045606045231,0.0018285990916821248,25.68054234900046
1636,C,504412518176635.0,3.0010404624563742,8.200671581748392,-2.2805328,186,1970-01-06 20:06:52.518176635,0.9022522,1.5685883,-0.21582031,10.886358740016115,1.8223903790105527,-94.14238739013672,14.79360294342041,107.85144805908203,25730896.0,50354.0,0.19211575958081825,0.006109026927358471,-0.05872469079808601,0.01127740953096979,0.0031430376425412463,-0.000915914780057774,25.730896353023127
1636,C,504412568530639.0,3.986666662456374,9.069125581748391,-3.3029785,186,1970-01-06 20:06:52.568530639,0.15538025,1.5526886,-0.28749084,10.20520469785786,1.5867059884376589,-94.15477752685547,14.773653984069824,107.77244567871094,25781250.0,50354.0,0.17592950228392826,-0.05866751681464154,-0.1405760640001,0.009266275557968724,-0.001323265099892126,-0.0050177951035539296,25.781250357045792
1636,C,504412618884643.0,2.1609067624563743,11.973438081748391,-0.07022095,186,1970-01-06 20:06:52.618884643,-0.5950775,0.5907135,-0.24913025,7.2229133153201905,0.8747145543281891,-94.10661315917969,14.929827690124512,107.7647476196289,25831604.0,50354.0,0.15477745611902827,0.036319425355858456,-0.08492704255265,0.008326209091711237,-0.0005626578986577817,-0.005677491713678587,25.83160436101025
1636,C,504412669238647.0,-0.7652712375436259,11.216281581748392,-7.1420746,186,1970-01-06 20:06:52.669238647,0.7315521,0.9839783,0.08277893,11.748889065742102,1.2289158315919138,-94.08319854736328,14.930440902709961,107.71365356445312,25881958.0,50354.0,0.035137915610728265,0.09037837196785847,-0.18158396506235003,0.00478149931404008,0.0031898704432192218,-0.006709947638722856,25.881958365032915
1636,C,504412719592651.0,-1.3767976375436257,4.487735581748392,1.8720856,186,1970-01-06 20:06:52.719592651,-0.39894104,-1.2218933,0.19483948,15.606771742920069,1.300053696178678,-94.08708953857422,14.944514274597168,107.77601623535156,25932312.0,50354.0,-0.053930868068071736,-0.0980891598746415,-0.132682513053,-0.0004731501640185366,-0.00019413450712907611,-0.007912287119510168,25.932312368997373
1636,C,504412769946655.0,1.972918462456374,6.324603581748391,0.16661072,186,1970-01-06 20:06:52.769946655,0.14071655,-1.2602386,0.182724,12.688915735631944,1.2811676457629824,-93.94110870361328,14.909727096557617,107.87189483642578,25982666.0,50354.0,0.015008534008828265,-0.2212469368806415,0.05132825724863999,-0.000979947604609573,-0.008039924908007761,-0.002048256098386372,25.982666373020038
1636,C,504412820300659.0,3.660357462456374,7.320255581748391,-0.35446167,186,1970-01-06 20:06:52.820300659,0.18522644,-0.39118958,0.33148193,11.433221217745812,0.5451773945168443,-93.87159729003906,14.701469421386719,107.90504455566406,26033020.0,50354.0,0.14182898796152826,-0.14993258084064154,-0.00472952336815,0.003948698290647666,-0.009345186717668744,0.0011732163229090965,26.033020377042703
1636,C,504412870654662.0,6.953982362456374,9.220416581748392,-1.0484009,186,1970-01-06 20:06:52.870654662,0.6987915,-1.3236237,0.05279541,9.762837858260927,1.4976904269544518,-93.81937408447266,14.70854377746582,107.97313690185547,26083374.0,50354.0,0.26723723377182823,-0.07702469693964153,-0.03531987092489001,0.010299060264580717,-0.005714103382674187,-0.0010083236001158684,26.08337438001763
1636,C,504412921008666.0,7.568697962456374,10.661594581748393,-1.176712,186,1970-01-06 20:06:52.921008666,0.61050415,-1.0509491,-0.44874573,8.566567636084837,1.295601041274383,-93.77468872070312,14.6896390914917,108.02886962890625,26133728.0,50354.0,0.3656375225403283,0.007100195063358506,-0.0560216674833,0.015933887739671165,-0.001760489183739178,-0.002299705912503,26.133728384040296
1636,C,504412971362670.0,7.112780562456374,11.393512581748393,-1.0151978,186,1970-01-06 20:06:52.971362670,0.35360718,-0.7999573,-0.7081909,7.714754043866705,1.1253906301429972,-93.7459487915039,14.656928062438965,108.07252502441406,26184082.0,50354.0,0.36963558482172826,0.06181223305535854,-0.0551857130346,0.0185119710240545,0.0017350082027449392,-0.0027998682192991683,26.184082388004754
1636,C,504413021716674.0,5.198596002456374,12.138904581748392,-0.6117096,186,1970-01-06 20:06:53.021716674,0.012130737,-1.4112091,-0.3453369,6.5896285520593745,1.4528991201059291,-93.72663879394531,14.644295692443848,108.14646911621094,26234436.0,50354.0,0.3099635277748083,0.09900646692535851,-0.0409606476098,0.017110266857843004,0.0040489324094145135,-0.002420676921944059,26.23443639202742
1636,C,504413072070678.0,-0.36011963754362597,7.822543581748391,0.026519775,186,1970-01-06 20:06:53.072070678,-0.40472412,-1.1321106,0.12489319,12.03769153221327,1.2087490777040992,-93.73222351074219,14.654206275939941,108.20443725585938,26284790.0,50354.0,0.12181831943940827,0.009100180412358473,-0.014733324224024999,0.010870971567312331,0.002721801060021701,-0.001402207128860212,26.284790396050084
1636,C,504413122424682.0,-7.530499637543626,2.5641975817483917,0.70292664,186,1970-01-06 20:06:53.122424682,-1.4915009,1.1352386,0.10421753,20.322816609786024,1.8772860483128486,-93.82169342041016,14.655665397644043,108.14553833007812,26335144.0,50354.0,-0.19866212148887175,-0.23196221772664155,0.018365272390455004,-0.001934696404199342,-0.005610997513461706,9.144155898620823e-05,26.335144400014542
1636,C,504413172778686.0,-0.7717256375436259,7.3697695817483915,-2.2334747,186,1970-01-06 20:06:53.172778686,-0.28504944,2.0822906,0.8861389,12.820758776691694,2.280883485885652,-93.86393737792969,14.692892074584961,108.03507995605469,26385498.0,50354.0,-0.20902512575087176,-0.24336170872464155,-0.03853460850662,-0.010264341823755022,-0.011967230496263954,-0.0005078033753966862,26.385498404037207
1636,C,504413223132690.0,5.441500662456374,10.820453581748392,-3.1161194,186,1970-01-06 20:06:53.223132690,1.0566864,0.9704132,0.31314087,8.486055182865513,1.4684499076044633,-93.82408905029297,14.705260276794434,107.98396301269531,26435852.0,50354.0,0.11757092580222826,-0.035493951412641514,-0.1346867306557,-0.0023025423921069973,-0.0070207489552763765,-0.0043611936560897305,26.435852408001665
1636,C,504413273486694.0,7.540148762456374,10.921649581748392,0.5722351,186,1970-01-06 20:06:53.273486694,-1.5106049,-1.2901611,0.26457214,8.250160201593493,2.0041060962736976,-93.88294219970703,14.72279167175293,108.04956817626953,26486206.0,50354.0,0.32683898757102825,0.05393173134735851,-0.06404737502110001,0.01118890838899848,0.00046420798541636977,-0.005003528578624794,26.48620641202433
1636,C,504413323840698.0,9.194872862456375,9.809894581748392,1.0767975,186,1970-01-06 20:06:53.323840698,-0.51452637,-0.87635803,-0.32192993,9.957294666102461,1.0660110984415982,-93.89689636230469,14.709704399108887,108.09590148925781,26536560.0,50354.0,0.42133763945042824,0.02848888740435849,0.0415176937702,0.01883684293851921,0.002075103918311979,-0.0005672297848539097,26.536560416046996
1636,C,504413374194701.0,6.470980662456374,8.714069581748392,0.53941345,186,1970-01-06 20:06:53.374194701,0.014984131,0.07435608,-0.78611755,10.125264947699057,0.7897684174698265,-93.89642333984375,14.670239448547363,108.09483337402344,26586914.0,50354.0,0.3944191941967283,-0.027091354255641516,0.040691343088150006,0.020538309800734462,3.518569208524721e-05,0.0020697769209826783,26.586914419021923
1636,C,504413424548705.0,2.559634162456374,10.177249581748391,-1.664566,186,1970-01-06 20:06:53.424548705,0.2341919,0.28567505,-0.3795166,8.962535028709603,0.5296120560312731,-94.06688690185547,14.65126895904541,108.03617858886719,26637268.0,50354.0,0.22736378944682825,-0.01784245742064152,-0.028327965751350007,0.015654630179193826,-0.001131298576573778,0.0003112727512086136,26.63726842304459
1636,C,504413474902709.0,1.227984362456374,14.122806581748392,0.034194946,186,1970-01-06 20:06:53.474902709,-0.4403839,-0.040283203,-0.25671387,5.809272248065496,0.5113342613922189,-94.08815002441406,14.638614654541016,108.03919982910156,26687622.0,50354.0,0.09536087160172826,0.11833331402835849,-0.041047852026558,0.008125238791219508,0.0025300582968124903,-0.00174667496419439,26.687622427009046
1636,C,504413525256713.0,-0.09856893754362606,10.826175581748391,2.0903168,186,1970-01-06 20:06:53.525256713,-0.88623047,-1.0641632,0.026123047,9.506709287377443,1.3851101673784745,-94.11861419677734,14.643723487854004,108.09395599365234,26737976.0,50354.0,0.028435292153028258,0.1346713239303585,0.053488832229042,0.0031168160148535053,0.006369897769886617,0.00031322655855793965,26.73797643103171
1636,C,504413575610717.0,-0.26319603754362575,4.547199081748392,0.43321228,186,1970-01-06 20:06:53.575610717,-0.31852722,-1.0156403,0.64460754,15.03361803708217,1.244388881937584,-93.97916412353516,14.808906555175781,108.18021392822266,26788330.0,50354.0,-0.009108156777771739,-0.10641374609714153,0.06353489164716002,0.0004865992873428334,0.0007114410371069034,0.0029463062960311385,26.788330435054377
1636,C,504413625964721.0,0.24362466245637382,3.572116581748391,-0.8304901,186,1970-01-06 20:06:53.625964721,0.6200714,-0.588562,0.49798584,15.816031241524332,0.9893854990763034,-93.920166015625,14.885957717895508,108.214111328125,26838684.0,50354.0,-0.0004927485105717419,-0.2890491895401415,-0.01000226367414,-0.00024172199244462382,-0.009956570330539876,0.001347790974476725,26.838684439018834
1636,C,504413676318725.0,3.110095062456374,7.326587581748392,-3.1934662,186,1970-01-06 20:06:53.676318725,1.1380463,0.55033875,0.40966797,11.925817357348482,1.3288528761074996,-93.87092590332031,14.904525756835938,108.18426513671875,26889038.0,50354.0,0.08443660151412825,-0.21907252527564156,-0.1013111477651,0.0021134543870705426,-0.01279298041391697,-0.002802537759805746,26.8890384430415
1636,C,504413726672729.0,4.664965632456374,9.383365581748391,-2.643402,186,1970-01-06 20:06:53.726672729,0.9700928,-0.111328125,0.48165894,9.675113650642533,1.0887926003191697,-93.82137298583984,14.928926467895508,108.18833923339844,26939392.0,50354.0,0.19575270311581827,-0.07276270920264154,-0.1469548306714,0.0070543261226681635,-0.007347535698459733,-0.006250592539095761,26.939392447005957
1636,C,504413777026733.0,6.8352842624563745,10.887073581748393,-2.02063,186,1970-01-06 20:06:53.777026733,0.2607422,-0.7061615,0.089019775,8.307812169560156,0.7580073081996905,-93.79902648925781,14.935717582702637,108.22449493408203,26989746.0,50354.0,0.2895417916042183,0.01687964681935849,-0.11742633366400003,0.012218259493566362,-0.0014069678616239175,-0.006656324574472367,26.989746451028623
1636,C,504413827380737.0,6.312304462456374,11.89569458174839,-1.6680908,186,1970-01-06 20:06:53.827380737,-0.43460083,-1.1790161,-0.3991089,7.1528078057720705,1.3184251057815566,-93.8047103881836,14.919715881347656,108.2867431640625,27040100.0,50354.0,0.3310168413271283,0.08013255405235847,-0.09287092358160001,0.015623804701312515,0.0024424761813472183,-0.005294654045672473,27.040100455051288
1636,C,504413877734741.0,4.809313772456374,11.692081281748392,-0.35263062,186,1970-01-06 20:06:53.877734741,-0.99861145,-2.0154572,-0.54652405,7.005896208017583,2.31473132141321,-93.827392578125,14.899160385131836,108.3926773071289,27090454.0,50354.0,0.2800089823003983,0.10040023291525846,-0.05087570319134001,0.015383797161470238,0.004545273977483692,-0.0036191088222623114,27.090454459015746
1636,C,504413928088744.0,0.695956362456374,6.335162581748392,1.5477753,186,1970-01-06 20:06:53.928088744,-1.4636993,-2.0555267,-0.45895386,13.115440734657684,2.5648088234490856,-93.87289428710938,14.883158683776855,108.50038146972656,27140808.0,50354.0,0.13860618618669826,-0.03959728124874151,0.030090157608360004,0.01053947409699963,0.0015308359141078972,-0.0005233176811426875,27.14080846204888
1636,C,504413978442748.0,-5.434460637543626,2.521823581748393,1.0257263,186,1970-01-06 20:06:53.978442748,-1.2634583,-0.39097595,0.43566895,19.172023062140358,1.3924785468047236,-93.93128204345703,14.906224250793457,108.51903533935547,27191162.0,50354.0,-0.11930132213387176,-0.2704768593616415,0.06479304978320001,0.00048603856225801277,-0.007806736638147614,0.0023888745124973068,27.19116246601334
1636,C,504414028796752.0,0.2715177624563738,5.751926581748393,-0.42947388,186,1970-01-06 20:06:54.028796752,-0.73062134,0.022476196,0.6187439,13.719855024142879,0.9576830037320471,-93.91912078857422,15.048388481140137,108.52842712402344,27241516.0,50354.0,-0.12998741276607176,-0.2851609921336415,0.015011847178340004,-0.0062763424785758784,-0.01398929418709674,0.0020092478908006932,27.241516470036004
1636,C,504414079150756.0,9.306567362456374,9.618167581748391,-0.473938,186,1970-01-06 20:06:54.079150756,-0.6638031,-1.6612854,-0.90174866,10.131355157488755,2.003410687211827,-93.92923736572266,15.009088516235352,108.61742401123047,27291870.0,50354.0,0.24114744918992823,-0.10649633924564152,-0.02274520090276,0.0027986762370434343,-0.009860756632136208,-0.0001947026467197222,27.29187047400046
1636,C,504414129504760.0,9.184023862456375,11.364139581748391,1.3115692,186,1970-01-06 20:06:54.129504760,-1.1344757,-2.1178894,-0.82398987,8.62718922557167,2.5399704585655063,-93.9569091796875,14.975272178649902,108.729736328125,27342224.0,50354.0,0.4655376152696283,0.03480234745535847,0.021089040722400004,0.017792209867898253,-0.0018050396313039564,-4.169714486092359e-05,27.342224478023127
1636,C,504414179858764.0,9.287722362456375,12.386432581748391,1.4791565,186,1970-01-06 20:06:54.179858764,-0.5567627,-1.0533295,-0.18457031,7.866429765533552,1.2056342476120343,-93.97052001953125,14.969704627990723,108.78478240966797,27392578.0,50354.0,0.46506315470462833,0.10449895536035846,0.07026210094890001,0.02342973558564186,0.003507188900991305,0.0022999476938583207,27.392578482045792
1636,C,504414230212768.0,7.845293962456374,11.062091581748392,0.17507935,186,1970-01-06 20:06:54.230212768,1.0711365,0.9815216,-0.46417236,8.207320545217714,1.525180000094015,-93.92961120605469,14.943163871765137,108.73574829101562,27442932.0,50354.0,0.4313579520123283,0.09689429286435848,0.04164869599545001,0.022569194203812818,0.005070477810553698,0.002817578134667901,27.44293248601025
1636,C,504414280566772.0,6.000124962456374,8.632053581748393,-2.0031586,186,1970-01-06 20:06:54.280566772,2.2716217,1.8660278,-0.27346802,10.322385886832874,2.9524751745351643,-93.84062194824219,14.923200607299805,108.640380859375,27493286.0,50354.0,0.3485861122725283,0.002370292781358515,-0.04602555127725,0.019636651706499832,0.002499184472802217,-0.00011019608542987841,27.493286490032915
1636,C,504414330920776.0,4.266741762456374,9.117358581748391,-4.0761566,186,1970-01-06 20:06:54.330920776,2.1253662,2.367218,0.30348206,10.418162772315238,3.1957790762767506,-93.7660903930664,14.930490493774414,108.51710510253906,27543640.0,50354.0,0.2584889035331283,-0.046592249959641514,-0.1530589187904,0.015284327672939017,-0.0011133762158776312,-0.005012349702893225,27.543640493997373
1636,C,504414381274780.0,2.641421362456374,9.778995581748392,-3.832199,186,1970-01-06 20:06:54.381274780,0.43873596,1.8958893,0.80352783,9.940697700817333,2.1053604095347005,-93.7701187133789,14.964347839355469,108.41647338867188,27593994.0,50354.0,0.1739268229959283,-0.017715691225641535,-0.19910866894120002,0.010886930746822059,-0.0016190810352218713,-0.008866523356318495,27.593994498020038
1636,C,504414431628784.0,-2.898709337543626,4.364322581748391,-4.2842255,186,1970-01-06 20:06:54.431628784,-1.7851868,1.2949982,0.32447815,16.82607759520981,2.229169872110446,-93.87694549560547,14.976217269897461,108.34848022460938,27644348.0,50354.0,-0.0064777393487717464,-0.13738287859764153,-0.20434721963650004,0.00421586557898446,-0.0039049166924407983,-0.010157808906720757,27.644348502042703
1636,C,504414481982787.0,-2.182232637543626,1.2857245817483935,1.9272308,186,1970-01-06 20:06:54.481982787,0.28416443,2.228012,-0.03277588,18.857594816185486,2.246299435456235,-93.8924331665039,14.967032432556152,108.23355102539062,27694702.0,50354.0,-0.12792287610677175,-0.3512179625646415,-0.05934205556189999,-0.003383804295324219,-0.0123015033779428,-0.006638904881670117,27.69470250501763
1636,C,504414532336791.0,-2.051037637543626,5.218646581748391,0.36872864,186,1970-01-06 20:06:54.532336791,1.8851471,1.3109894,0.411438,15.125689796178825,2.332756743296388,-93.81604766845703,14.98315143585205,108.1644287109375,27745056.0,50354.0,-0.10658104571587174,-0.3297086472166415,0.05780537082088,-0.005904105239728695,-0.01714368925446336,-3.8689111724660334e-05,27.745056509040296
1636,C,504414582690795.0,1.593310362456374,9.028125581748393,-1.4884491,186,1970-01-06 20:06:54.582690795,0.7461395,0.40701294,1.0265198,10.293440511110937,1.3327139927905514,-93.906494140625,15.11621379852295,108.10836791992188,27795410.0,50354.0,-0.01152419960487174,-0.1347782172396415,-0.02819120202142,-0.0029735357614403585,-0.011694385786415839,0.0007455959278640044,27.795410513004754
1636,C,504414633044799.0,6.184496862456374,11.598422881748391,-0.69348145,186,1970-01-06 20:06:54.633044799,-0.14938354,-0.490036,0.6166229,7.254172350260204,0.8016698348593027,-93.90792083740234,15.148641586303711,108.13151550292969,27845764.0,50354.0,0.19582185250162826,0.02584541066545849,-0.05493446545735001,0.004640062006981639,-0.002742601271118206,-0.0020928549301129926,27.84576451702742
1636,C,504414683398803.0,6.126620262456374,12.720279581748393,-0.4574585,186,1970-01-06 20:06:54.683398803,-0.5280304,-1.4445496,-0.2841034,6.127462424350463,1.5640506360332072,-93.91456604003906,15.139398574829102,108.2071762084961,27896118.0,50354.0,0.3099569958539283,0.1188027719234585,-0.028977215121150007,0.012733994065047848,0.0036418072930411633,-0.002112644381924895,27.896118521050084
1636,C,504414733752807.0,4.895022392456374,12.392719081748393,-0.34173584,186,1970-01-06 20:06:54.733752807,-0.19387817,-1.5368652,-0.4303894,6.306096578940811,1.6077246105617558,-93.90311431884766,15.123165130615234,108.28809356689453,27946472.0,50354.0,0.27749189712273825,0.13880076735085856,-0.02012131589818,0.014790200778473536,0.006485684308309481,-0.0012361537154736717,27.946472525014542
1636,C,504414784106811.0,2.501971362456374,11.381213981748392,-0.82603455,186,1970-01-06 20:06:54.784106811,-0.14520264,-1.4142761,-0.40275574,7.710778188926865,1.4776579035071438,-93.95380401611328,15.1673583984375,108.34619903564453,27996826.0,50354.0,0.18623411176743826,0.10508711273965851,-0.029400955109030003,0.011675229725827975,0.006140365157038949,-0.0012468222171485262,27.996826529037207
1636,C,504414834460815.0,1.448016162456374,11.490192281748392,0.10757446,186,1970-01-06 20:06:54.834460815,-0.15093994,-0.38058472,-0.11885071,7.949802817088737,0.4263250940915701,-93.9560775756836,15.162737846374512,108.36628723144531,28047180.0,50354.0,0.09944883591472826,0.0823641954960585,-0.018088669685930002,0.007192639573793906,0.0047194615874506475,-0.0011956462834627082,28.047180533001665
1636,C,504414884814819.0,2.717593162456374,8.950137581748391,0.048797607,186,1970-01-06 20:06:54.884814819,0.23112488,0.18707275,0.041870117,9.96321105938507,0.30027992048282315,-93.83979034423828,15.090534210205078,108.38446807861328,28097534.0,50354.0,0.10487754597332827,0.021156984973258488,0.003936979530859,0.005144325316795599,0.002606352760675994,-0.00035629710303422264,28.09753453702433
1636,C,504414935168823.0,1.159960762456374,4.584537581748393,-1.3591003,186,1970-01-06 20:06:54.935168823,0.21643066,0.5211334,0.092559814,14.634694102555981,0.5718300187567195,-93.87776947021484,15.078261375427246,108.34635925292969,28147888.0,50354.0,0.09762517516752826,-0.15270668340864152,-0.032989490901661,0.005098411010163346,-0.0033120267575076387,-0.000731455078782682,28.147888541046996
1636,C,504414985522826.0,-0.8737001375436257,3.548816581748392,-0.6910248,186,1970-01-06 20:06:54.985522826,-0.58815,1.3424377,0.40097046,16.189887460681536,1.5194856730729323,-93.89503479003906,15.231291770935059,108.28353118896484,28198242.0,50354.0,0.0072071837534282614,-0.2886957422256415,-0.0516159996427,0.0026393643005529223,-0.011113188870194343,-0.002130112435435377,28.198242544021923
1636,C,504415035876830.0,2.109469362456374,6.059985581748393,1.0198364,186,1970-01-06 20:06:55.035876830,-0.79385376,1.8188934,0.46162415,12.956697695292227,2.0375656673326925,-93.74498748779297,15.173283576965332,108.24425506591797,28248596.0,50354.0,0.031112961775628268,-0.2515483879296415,0.0082784896532,0.0009647863039850562,-0.01360172646491956,-0.0010911084890056415,28.24859654804459
1636,C,504415086230834.0,3.3376798624563744,8.010425581748391,-0.50164795,186,1970-01-06 20:06:55.086230834,-0.27793884,-0.42158508,0.1821289,10.792585445552259,0.5368006284221005,-93.72631072998047,15.002190589904785,108.27247619628906,28298950.0,50354.0,0.13714287603562827,-0.13921845813664152,0.013046430605650002,0.004236177228574007,-0.00983833688341081,0.0005368975173570665,28.298950552009046
1636,C,504415136584838.0,3.874896062456374,9.294544081748391,0.17633057,186,1970-01-06 20:06:55.136584838,-0.72743225,-0.8617401,0.23869324,9.443514352609206,1.1527047068134018,-93.7513656616211,15.0169095993042,108.3161849975586,28349304.0,50354.0,0.18159102406152827,-0.057781978782141544,-0.00819051567626,0.00802476340274611,-0.004959880000304201,0.00012225737017725207,28.34930455603171
1636,C,504415186938842.0,4.906970022456374,11.941028581748391,0.7447052,186,1970-01-06 20:06:55.186938842,-0.4600525,-0.9090271,0.07084656,6.789599552642835,1.021272640559069,-93.76225280761719,15.023420333862305,108.36289978027344,28399658.0,50354.0,0.22110104241984826,0.04117881294885845,0.02318891758129,0.010138578157801618,-0.00041801790618456843,0.0003776147647629403,28.399658560054377
1636,C,504415237292846.0,5.607058522456374,14.32088058174839,1.0940247,186,1970-01-06 20:06:55.237292846,0.38404846,-0.4537201,-0.21638489,4.571559465005669,0.6325958973884463,-93.7367935180664,15.014108657836914,108.38706970214844,28450012.0,50354.0,0.2647116966752683,0.16772688700935845,0.04629370269230001,0.01223130733219775,0.005259618807848027,0.0017493639306281757,28.450012564018834
1636,C,504415287646850.0,5.237872122456374,12.549823581748392,0.061035156,186,1970-01-06 20:06:55.287646850,1.024292,0.51600647,-0.43592834,6.1538413255318085,1.2269760779905272,-93.69210052490234,14.990686416625977,108.36188507080078,28500366.0,50354.0,0.27304281884696824,0.18305451872435846,0.029080941994512003,0.01353904543730335,0.00883162345215779,0.0018977074292798662,28.5003665680415
1636,C,504415338000854.0,4.106127762456374,9.532748581748391,-1.1499634,186,1970-01-06 20:06:55.338000854,1.274292,1.2326508,-0.4309845,9.255767264245138,1.8245535714921857,-93.64447021484375,14.965235710144043,108.29963684082031,28550720.0,50354.0,0.23525388510244827,0.06250371936035848,-0.027415946399188006,0.01279738611533446,0.006182419760258919,4.1919594103472286e-05,28.550720572005957
1636,C,504415388354858.0,3.825808522456374,9.815204581748391,-1.8044586,186,1970-01-06 20:06:55.388354858,0.8673401,1.3022156,-0.42582703,9.109796340554645,1.6215341431588761,-93.61809539794922,14.939863204956055,108.2337875366211,28601074.0,50354.0,0.19970235984524826,-0.006345783202641537,-0.07438348269400001,0.010950893379048155,0.0014138883586428395,-0.002563004226279195,28.601074576028623
1636,C,504415438708862.0,0.9893522624563742,9.920459581748393,-2.089096,186,1970-01-06 20:06:55.438708862,-0.018554688,1.2649231,-0.638855,9.793852875598356,1.4172192619299908,-93.63530731201172,14.903982162475586,108.17054748535156,28651428.0,50354.0,0.12123130308174829,0.0034156166443584947,-0.0980280241642,0.008080146831512992,-7.377280343789216e-05,-0.004340804508168902,28.651428580051288
1636,C,504415489062866.0,-2.8009766375436262,7.564731581748392,-2.302124,186,1970-01-06 20:06:55.489062866,-1.3226471,-0.60876465,-0.34529114,13.679015383874749,1.4964009227444803,-93.69306945800781,14.888699531555176,108.203125,28701782.0,50354.0,-0.045611266891571745,-0.0532445420766415,-0.11055774594000002,0.001903885651160075,-0.0012545428556085892,-0.005251563933913445,28.701782584015746
1636,C,504415539416869.0,-3.102963637543626,3.3005715817483914,6.141861,186,1970-01-06 20:06:55.539416869,-0.09957886,2.1497955,0.4653778,18.36536883280611,2.201843122911346,-93.72698211669922,14.904964447021484,108.09056854248047,28752136.0,50354.0,-0.14864350430587175,-0.21991346225264155,0.096673058449,-0.004890752374438035,-0.00687729907499836,-0.0003495747769609077,28.75213658704888
1636,C,504415589770873.0,0.28677636245637395,7.282794581748393,-0.5976715,186,1970-01-06 20:06:55.589770873,0.49604797,-0.79241943,0.555542,12.288287806203606,1.087482898875493,-93.67454528808594,15.103337287902832,108.13423156738281,28802490.0,50354.0,-0.07090314702487174,-0.22701179010164152,0.1395860590415,-0.005527526040554129,-0.011252237078523785,0.005948295801058319,28.80249059101334
1636,C,504415640124877.0,4.494128222456374,7.600574581748392,-2.4552765,186,1970-01-06 20:06:55.640124877,-0.030227661,0.4697113,0.51885986,11.361739452072358,0.7005411987573896,-93.68283081054688,15.127717018127441,108.10822296142578,28852844.0,50354.0,0.12036883473434827,-0.11875061457064151,-0.07686407179600001,0.0012453976194614907,-0.008705260062434071,0.0015791514728799537,28.852844595036004
1636,C,504415690478881.0,6.543139462456374,9.733279581748391,-2.035614,186,1970-01-06 20:06:55.690478881,0.09024048,-0.6478119,0.2388916,9.34467059837757,0.6963280825608,-93.6697769165039,15.141716003417969,108.14091491699219,28903198.0,50354.0,0.2778852885030483,-0.05705475372564154,-0.1130671501185,0.010026844060747934,-0.004426251757595518,-0.004781898374141367,28.90319859900046
1636,C,504415740832885.0,5.697375292456374,11.371921581748392,-1.0270691,186,1970-01-06 20:06:55.740832885,-0.2592926,-1.2450562,-0.37701416,7.440923599071208,1.326475506903051,-93.66561889648438,15.12689208984375,108.20652770996094,28953552.0,50354.0,0.3081794399844383,0.03789644969335848,-0.07710917240870001,0.014755351669129451,-0.0004823486206207906,-0.004788069272267315,28.953552603023127
1636,C,504415791186889.0,4.360491762456374,12.175250881748392,0.66064453,186,1970-01-06 20:06:55.791186889,-0.38554382,-1.8183746,-0.5919342,6.563292274097091,1.9507732621181253,-93.65988159179688,15.103160858154297,108.30247497558594,29003906.0,50354.0,0.25322691884153825,0.0993779611134585,-0.009225471398890002,0.014134527896161613,0.0034561578408832307,-0.002173647327143694,29.003906607045792
1636,C,504415841540893.0,3.2928037624563737,10.915561581748392,0.30056763,186,1970-01-06 20:06:55.841540893,-0.33140564,-1.5828094,-0.65374756,7.92763678653973,1.7442766888192145,-93.50574493408203,14.977352142333984,108.42504119873047,29054260.0,50354.0,0.19268702143072827,0.0878881853934585,0.02420043855232,0.011226775274234855,0.004714799770604649,0.0003770247480219071,29.05426061101025
1636,C,504415891894897.0,-2.675656337543626,1.9081605817483904,0.72224426,186,1970-01-06 20:06:55.891894897,-0.010482788,-0.7783203,-0.37034607,18.392699565175935,0.8620026622933294,-93.4955825805664,14.961250305175781,108.46642303466797,29104614.0,50354.0,0.015537920717028251,-0.17060634708964156,0.025751334954529997,0.005242479368454066,-0.002082595157024801,0.0012576358015819625,29.104614615032915
1636,C,504415942248901.0,-0.7955293375436261,4.308246581748392,-0.9844513,186,1970-01-06 20:06:55.942248901,0.37167358,0.89286804,0.54803467,15.46935565529421,1.1116189034221515,-93.49956512451172,15.143561363220215,108.41590881347656,29154968.0,50354.0,-0.08739404174167174,-0.33695871684464157,-0.0066015866460800016,-0.0018091215590374493,-0.012778965614673447,0.0004821332131618456,29.154968618997373
1636,C,504415992602905.0,4.5641660624563745,6.393390581748392,0.26072693,186,1970-01-06 20:06:55.992602905,-0.55511475,2.079773,0.3135376,12.301104288511764,2.1752962887409897,-93.55569458007812,15.152812957763672,108.3073959350586,29205322.0,50354.0,0.09488296682312827,-0.22403408113464152,-0.018221208463490002,0.00018854866677583105,-0.01412411567472441,-0.000624963512473644,29.205322623020038
1636,C,504416042956909.0,5.290225032456374,9.301502081748392,0.46743774,186,1970-01-06 20:06:56.042956909,-0.69911194,-1.2003174,0.110321045,9.411022878091469,1.3934454055911971,-93.57450866699219,15.1620512008667,108.36908721923828,29255676.0,50354.0,0.2481040045966183,-0.0983188874111415,0.01833300189659,0.008635382979434959,-0.00811588068907718,2.8146232651586807e-06,29.255676627042703
1636,C,504416093310912.0,5.582247732456374,10.158466581748392,1.4722137,186,1970-01-06 20:06:56.093310912,-1.2159576,-1.32901,0.17991638,8.690309435174001,1.8103011818175627,-93.61749267578125,15.175204277038574,108.4372329711914,29306030.0,50354.0,0.27373624680220826,-0.0035255689591414912,0.04883460430488,0.013138372009468255,-0.0025641378780346153,0.0016910788213344101,29.30603063001763
1636,C,504416143664916.0,6.666125262456374,11.813571581748391,0.26968384,186,1970-01-06 20:06:56.143664916,-0.23040771,-0.11425781,-0.10118103,7.124415400083417,0.27636960904792174,-93.62738037109375,15.170516967773438,108.44347381591797,29356384.0,50354.0,0.3083772868929183,0.05972080484235849,0.04385575436458,0.014655872437842204,0.0014148274538317545,0.0023336651602209944,29.356384634040296
1636,C,504416194018920.0,5.940493562456374,11.708926981748391,0.5890198,186,1970-01-06 20:06:56.194018920,0.85006714,0.5738983,-0.10151672,7.094176120718462,1.0306692222484515,-93.59254455566406,15.163640975952148,108.41412353515625,29406738.0,50354.0,0.3173968421548283,0.09875674633315845,0.021619581544280002,0.015755115247035115,0.00398998930594599,0.0016484725321773686,29.406738638004754
1636,C,504416244372924.0,5.551455492456374,9.448673081748392,-1.823288,186,1970-01-06 20:06:56.244372924,1.8530579,1.7856598,-0.30751038,9.447018516688367,2.5917112369815034,-93.52376556396484,15.142752647399902,108.32279205322266,29457092.0,50354.0,0.2893328013555383,0.03921569679865848,-0.0310751704714,0.015275632234660502,0.0034737322007297555,-0.00023806336241810025,29.45709264202742
1636,C,504416294726928.0,3.842303262456374,8.766773081748392,-3.4165344,186,1970-01-06 20:06:56.294726928,1.2793274,2.4369507,-0.21661377,10.539405308828275,2.760856540274207,-93.49251556396484,15.12448501586914,108.19749450683594,29507446.0,50354.0,0.2365066641724383,-0.0348589119416415,-0.13192300856480002,0.013239060223597866,0.00010969077234511653,-0.0041038051535944075,29.507446646050084
1636,C,504416345080932.0,2.351656862456374,9.934360581748392,-4.391693,186,1970-01-06 20:06:56.345080932,0.43266296,1.3031464,-0.34283447,10.100501846484226,1.4152467101566082,-93.4881591796875,15.103404998779297,108.13119506835938,29557800.0,50354.0,0.15594533406492828,-0.022630757754141525,-0.1965877412498,0.009880763959622178,-0.0014474174139307292,-0.008270915148082186,29.557800650014542
1636,C,504416395434936.0,2.082720762456374,9.752307581748392,-0.9181061,186,1970-01-06 20:06:56.395434936,-1.137619,0.7393036,-0.6299896,9.39129031367426,1.4958722198911643,-93.6133804321289,15.115872383117676,108.07962036132812,29608154.0,50354.0,0.11164432546242828,0.0021820443523584768,-0.1336848119407,0.006737104857920257,-0.0005148372573166918,-0.008315272071677218,29.608154654037207
1636,C,504416445788940.0,0.9593229624563739,6.772586581748392,14.795013,186,1970-01-06 20:06:56.445788940,1.3942108,5.683136,0.24676514,19.38537401839248,5.856855093277609,-93.62045288085938,15.110259056091309,107.78504943847656,29658508.0,50354.0,0.07658953486212826,-0.07742193964564151,0.34937888502130005,0.00473916390139136,-0.001894314843798987,0.005430529677950268,29.658508658001665
1636,C,504416496142944.0,-1.6536379375436256,7.705997581748392,-2.678543,186,1970-01-06 20:06:56.496142944,-0.1186676,-0.23348999,0.3840027,13.026826322148755,0.4648200171327071,-93.62357330322266,15.130159378051758,107.79586029052734,29708862.0,50354.0,-0.01748076812777174,-0.1289418865156415,0.30505636519000007,0.0014881814200708942,-0.005195622051262623,0.016476716294569906,29.70886266202433
1636,C,504416546496948.0,3.411623962456374,7.211002581748392,0.52963257,186,1970-01-06 20:06:56.546496948,0.39215088,-0.83462524,0.50239563,11.5761726745976,1.0501347403895032,-93.59312438964844,15.157855033874512,107.83738708496094,29759216.0,50354.0,0.044260814149228264,-0.11790388688364152,-0.05410311789611,0.000674241218682211,-0.006214836036873749,0.006318249907118271,29.759216666046996
1636,C,504416596850951.0,2.107592562456374,6.704776581748392,-1.9243622,186,1970-01-06 20:06:56.596850951,0.062469482,0.15306091,0.84310913,12.4369924739179,0.8591641772331603,-93.7323226928711,15.136975288391113,107.79027557373047,29809570.0,50354.0,0.13895731444772827,-0.1431116280006415,-0.03511510789451,0.004612882823685574,-0.0065715876182415945,-0.0022462472707304396,29.809570669021923
1636,C,504416647204955.0,4.050204262456374,9.595325581748392,-1.5420837,186,1970-01-06 20:06:56.647204955,0.13853455,-0.8282776,0.576828,9.255574489646198,1.0188062356451606,-93.71470642089844,15.168447494506836,107.83114624023438,29859924.0,50354.0,0.15503485066082826,-0.08308152782964148,-0.0872747084243,0.007401840740938128,-0.005694865084339035,-0.0030814084054586795,29.85992467304459
1636,C,504416697558959.0,5.905230562456374,10.499622581748392,-0.78982544,186,1970-01-06 20:06:56.697558959,-0.32051086,-1.4197845,0.1875763,8.298859397057166,1.467549013198496,-93.71168518066406,15.182403564453125,107.90392303466797,29910278.0,50354.0,0.2506479825868283,0.01246130991235851,-0.05871047641778,0.010213876692676248,-0.0017780052265034335,-0.0036754689987690487,29.910278677009046
1636,C,504416747912963.0,5.973467862456374,12.048694581748393,0.5323181,186,1970-01-06 20:06:56.747912963,-0.115600586,-1.2450714,-0.4344635,6.760989220850293,1.3237540630395639,-93.70024871826172,15.16474723815918,107.9697494506836,29960632.0,50354.0,0.2990699902440283,0.07422978122535852,-0.006483262299179999,0.013840249401962476,0.0021826216015743017,-0.0016413827596769022,29.96063268103171
1636,C,504416798266967.0,3.108782762456374,11.941516581748392,-0.030044556,186,1970-01-06 20:06:56.798266967,-0.17277527,-1.4411774,-0.4243927,6.961003043263851,1.5122674221207115,-93.60262298583984,15.125245094299316,108.06824493408203,30010986.0,50354.0,0.2286638239834283,0.11053234646335851,0.012645741017288001,0.013286754240804674,0.004651756088818829,0.00015515272668580518,30.010986685054377
1636,C,504416848620971.0,0.41807836245637375,8.168781581748393,1.0358734,186,1970-01-06 20:06:56.848620971,-0.3603058,-1.1922607,-0.002243042,11.450685920062107,1.245516309614428,-93.60453796386719,15.128880500793457,108.12987518310547,30061340.0,50354.0,0.08879578254192826,0.012847776862358504,0.025323752805388004,0.007992680513488903,0.0031063413649715776,0.0009559579459735138,30.061340689018834
1636,C,504416898974975.0,-2.0546386375436256,3.902286581748392,3.0813904,186,1970-01-06 20:06:56.898974975,-0.012252808,0.42086792,0.69122314,16.594929945175338,0.8093635565433316,-93.61143493652344,15.162049293518066,108.10587310791016,30111694.0,50354.0,-0.041203678045871744,-0.1895559168476415,0.1036603506926,0.0011982264148972148,-0.00444898084040947,0.003247432773768844,30.1116946930415
