Subject-id_accel,Activity_accel,Timestamp_accel,accel_x,accel_y,accel_z,Segment_accel,DateTime,gyro_x,gyro_y,gyro_z,accel_magnitude,gyro_magnitude,Roll,Pitch,Yaw,Time_Difference,Difference_Microseconds,vx,vy,vz,dx,dy,dz,Time_diff
1649,C,1164775228155871.0,-0.11671733,10.192330201707826,3.3117244042069167,250,1970-01-14 11:32:55.228155871,1.4136059,-0.37710363,0.6562029,8.775381782609006,1.6034622023117344,-105.36875915527344,5.921524524688721,-160.99903869628906,15004214.0,39751.0,-0.028420713439765002,0.019604624828587776,0.14232740425327917,-0.0010783988068837856,0.0003364501399698908,0.005232027435738578,15.004214473068714
1649,C,1164775267379725.0,0.81522566,10.488014201707825,2.249297404206917,250,1970-01-14 11:32:55.267379725,0.46552056,-1.6373115,0.4463458,8.737336716878739,1.7597508099138934,-105.337890625,5.9647216796875,-160.9256134033203,15043438.0,39224.0,0.01369914536796,0.02118771443978772,0.10906275970661211,-0.0002887193930242397,0.0008000193577313803,0.004930263895581388,15.043438327033073
1649,C,1164775307298683.0,0.015562311,11.176347201707827,1.4681890042069172,250,1970-01-14 11:32:55.307298683,0.42290998,-1.4732608,0.28442562,8.293443563760082,1.5589253251238897,-105.46987915039062,5.847380638122559,-160.87448120117188,15083357.0,39919.0,0.0165821125071745,0.04120362143147469,0.07419916996873593,0.0006043987665587471,0.0012452998683224624,0.0036578164853551098,15.083357285009697
1649,C,1164775347491652.0,-1.3850456,9.142472201707825,1.262886304206917,250,1970-01-14 11:32:55.347491652,0.9779128,-0.42397526,-0.03195793,10.367186560607065,1.066344116496074,-105.49642181396484,5.897459983825684,-160.86141967773438,15123550.0,40193.0,-0.027521820917388497,0.01444575414074263,0.054885054935538614,-0.0002198498500658656,0.0011183576761870655,0.0025941411257887534,15.123550253920257
1649,C,1164775387640714.0,-1.3431472,8.967097201707826,0.18250270420691717,250,1970-01-14 11:32:55.387640714,0.9555422,0.041545313,0.10972224,10.911176977089037,0.9627179643923373,-105.65330505371094,5.932993412017822,-160.88595581054688,15163699.0,40149.0,-0.05476710636359999,-0.02991964901113253,0.02901546164940351,-0.0016519090707022034,-0.00031063070257564203,0.0016842609201844208,15.163699316093698
1649,C,1164775427343683.0,-0.5770026,8.273976201707827,3.3709809042069168,250,1970-01-14 11:32:55.427343683,0.6956177,0.624245,0.13422333,10.686459233073684,0.9442360440560289,-105.3875503540039,5.862110614776611,-160.89393615722656,15203402.0,39703.0,-0.0381178537547,-0.0468282313320942,0.07054197985242723,-0.0018439057857884324,-0.0015235605466335654,0.001976364549973593,15.203402284998447
1649,C,1164775467042069.0,-2.9747956,7.971109201707826,4.338836964206917,250,1970-01-14 11:32:55.467042069,0.86179894,0.24074976,0.29188246,11.309826516275463,0.9411977636930683,-105.34603881835938,5.872992038726807,-160.9095001220703,15243100.0,39698.0,-0.0704996424718,-0.06659169982760274,0.15303217487014617,-0.0021559486825997983,-0.0022512722135888245,0.00443772339708836,15.243100671097636
1649,C,1164775508863423.0,-1.5173253,2.3321672017078257,3.047165204206917,250,1970-01-14 11:32:55.508863423,0.5006743,0.066046394,0.46978164,16.68483463041667,0.6897330426490983,-105.32198333740234,5.894772529602051,-160.9189453125,15284922.0,41822.0,-0.0939347401399,-0.19440378712817533,0.15444869134370168,-0.003438487374793259,-0.005457676627732275,0.006429732393397772,15.284922024933621
1649,C,1164775549337694.0,-3.550601,4.595883201707826,1.6166297042069169,250,1970-01-14 11:32:55.549337694,-0.515588,0.77444726,0.27057716,15.006663320295488,0.968922878137973,-105.2601318359375,6.092095375061035,-160.95053100585938,15325396.0,40474.0,-0.10255962453310001,-0.2564422439860775,0.09438121756157077,-0.003976456457887502,-0.009123771131659134,0.005035570866515999,15.325396296102554
1649,C,1164775588682538.0,-5.2235494,5.877978201707826,-4.0330872957930834,250,1970-01-14 11:32:55.588682538,-1.3369069,-0.3121225,0.5230448,16.426109041272962,1.469120953863534,-105.32611083984375,6.121438026428223,-160.9423370361328,15364741.0,39345.0,-0.17260947374399999,-0.1795339615413056,-0.04753776197047886,-0.005413264085856249,-0.008576741903237444,0.0009215278801157555,15.364741140045226
1649,C,1164775628826651.0,-3.3291376,3.8231552017078254,-5.922113295793083,250,1970-01-14 11:32:55.628826651,-3.5760927,1.5073493,0.7840346,18.633924864305527,3.9591982982923373,-105.51383209228516,6.13918924331665,-161.02589416503906,15404885.0,40144.0,-0.17166953346399996,-0.19869005032664105,-0.1998207862743175,-0.006910368232678975,-0.007591712366213425,-0.004964980780369553,15.404885252937675
1649,C,1164775667252799.0,-2.2709002,2.6865082017078272,12.830471704206918,250,1970-01-14 11:32:55.667252799,-1.2325109,3.4972632,-0.52624065,18.335413469180782,3.7452452830763265,-105.59272766113281,6.06695556640625,-161.18821716308594,15443311.0,38426.0,-0.1075935262514,-0.2515046370301751,0.13273029010085502,-0.005365481166311981,-0.008649590528186509,-0.0012890097029807349,15.443311400944367
1649,C,1164775706612538.0,-3.8241386,10.995584701707827,8.997355004206916,250,1970-01-14 11:32:55.706612538,-3.1627703,-0.74035877,-0.9491506,9.833201773349446,3.3841001670101853,-105.74573516845703,6.031261444091797,-161.13949584960938,15482671.0,39360.0,-0.11995036358399998,-0.11646441166077995,0.42957162962158424,-0.004478063751960672,-0.007241630878237995,0.011066101780137604,15.482671139994636
1649,C,1164775746914725.0,-2.7030537,6.4256527017078255,-6.467392295793084,250,1970-01-14 11:32:55.746914725,-3.4823494,-1.1696603,-1.0034791,16.83889162469573,3.8081272123201533,-105.91248321533203,5.998942852020264,-161.0691375732422,15522973.0,40302.0,-0.1315294520373,-0.043904245083771214,0.05098127853724714,-0.005067569764584815,-0.0032315888020594506,0.009683621652308612,15.522973326966166
1649,C,1164775786889672.0,-1.4867992,11.260742901707825,4.097022604206917,250,1970-01-14 11:32:55.786889672,-3.50472,-0.9012137,-1.3592775,7.7763266177822254,3.8656026352270016,-106.08122253417969,5.946029186248779,-161.0067596435547,15562948.0,39975.0,-0.08374468483874999,-0.0382481678767297,-0.047377764210578495,-0.004302791810810048,-0.0016420213540480118,7.202524260428955e-05,15.562948273960501
1649,C,1164775828733059.0,-2.345719,15.255468301707825,3.646314104206917,250,1970-01-14 11:32:55.828733059,-3.4951327,-1.0418286,-0.5613944,4.40912447860656,3.690057329465033,-106.24996948242188,5.933573246002197,-160.9486083984375,15604791.0,41843.0,-0.08018202952129999,0.1446975126922605,0.16200221894508002,-0.0034295927544837853,0.0022270799675581277,0.0023981155297278737,15.604791661025956
1649,C,1164775866881860.0,-1.2072762,16.340640201707828,3.0974433042069167,250,1970-01-14 11:32:55.866881860,-3.4738274,-1.1483551,-0.23116238,3.1597942099485214,3.666010404597078,-106.41758728027344,5.938629627227783,-160.8899383544922,15642940.0,38149.0,-0.0677716069424,0.22881977164840187,0.12863380068678967,-0.0028221416387268455,0.007124655440155964,0.005543736756468099,15.64294046210125
1649,C,1164775906812798.0,-0.2705448,18.318250801707826,2.514455304206917,250,1970-01-14 11:32:55.906812798,-2.3148196,-1.0290455,0.17789917,2.117236538784923,2.5394827300655343,-106.52845001220703,5.9617509841918945,-160.84288024902344,15682871.0,39931.0,-0.029505435175499996,0.30065828832869523,0.11204436166628638,-0.0019421847844049325,0.010571294206472731,0.00480525985046034,15.682871399912983
1649,C,1164775946137589.0,-1.1755531,18.827617211707825,0.769082304206917,250,1970-01-14 11:32:55.946137589,-1.1909657,-0.58909124,0.20240025,3.9479304269202555,1.3440214465629967,-106.5853500366211,5.979844093322754,-160.8173828125,15722196.0,39325.0,-0.028433899958749995,0.3449956298137852,0.06456255822543701,-0.0011392321770771906,0.01269517016547652,0.003472533562371011,15.72219619108364
1649,C,1164775985588996.0,-0.65062433,16.985279101707825,-4.528088295793084,250,1970-01-14 11:32:55.985588996,0.027696876,0.47723848,-0.12037488,9.284532676097745,0.4929642943133754,-106.586181640625,5.967264652252197,-160.83865356445312,15761647.0,39451.0,-0.036022262895465,0.3198074862302804,-0.07414827268703293,-0.0012714300403808177,0.013113573865527214,-0.00018908301061221038,15.761647597886622
1649,C,1164776025939829.0,-2.420538,18.742623051707827,-2.154836595793083,250,1970-01-14 11:32:56.025939829,1.8727349,-0.35473305,-0.34621096,7.118021927350871,1.9372231599029663,-106.4902572631836,5.9557204246521,-160.8166046142578,15801998.0,40351.0,-0.061962235588915,0.3253884898962374,-0.1348313511501967,-0.0019768862491716084,0.013017151416340559,-0.004216268400728026,15.801998431095853
1649,C,1164776066910610.0,-3.4171243,3.6465832017078252,3.320104104206917,250,1970-01-14 11:32:56.066910610,1.4913702,-0.38456047,-0.58269966,15.660235493536426,1.6466969127009308,-106.41290283203125,5.933220863342285,-160.78976440429688,15842969.0,40971.0,-0.11958743104665,0.05713828470434632,0.0238710875436116,-0.0037191356958628666,0.007836252241080258,-0.0022730764801126993,15.842969211982563
1649,C,1164776107041548.0,-6.84203,9.608744201707825,7.408203704206917,250,1970-01-14 11:32:56.107041548,1.4242586,1.361408,0.040480047,11.875464151667506,1.9706808306631194,-106.34852600097656,5.915966510772705,-160.85598754882812,15883100.0,40131.0,-0.20585506060665001,-0.1273090279867633,0.2152688603297278,-0.006530166316269292,-0.001408011049333338,0.004798462624052492,15.88310014992021
1649,C,1164776146965871.0,-3.7972038,13.981753201707825,0.8217547042069171,250,1970-01-14 11:32:56.146965871,2.5885925,1.743838,-0.45167214,7.22685668313413,3.1536946306439417,-106.22708129882812,5.869833946228027,-160.9337615966797,15923024.0,39924.0,-0.2123803851156,0.07965830916698319,0.16428642974875696,-0.008348815967507556,-0.0009512036490804507,0.007576682700546713,15.923024473013356
1649,C,1164776185401235.0,-2.7742813,8.607967201707826,1.5226572042069169,250,1970-01-14 11:32:56.185401235,2.8069718,1.9952403,0.14274544,11.059799074534444,3.446802982675413,-106.10006713867188,6.0645365715026855,-161.0321807861328,15961459.0,38435.0,-0.12628751490925,0.05745495185264024,0.04505373584994285,-0.006508350368727555,0.002634974093644613,0.004022994632393013,15.961459836922586
1649,C,1164776225315558.0,-2.6809072,7.339040201707826,1.6687036042069172,250,1970-01-14 11:32:56.225315558,2.694054,2.5566347,0.30253512,12.191465500168151,3.7263702772260174,-105.9264907836914,6.209502220153809,-161.15415954589844,16001373.999999998,39914.99999999814,-0.10887192448874493,-0.07290459974632875,0.06369158333391613,-0.004693194511785266,-0.00030833634783827406,0.0021702847076117645,16.001374159939587
1649,C,1164776266028891.0,-0.46208093,9.419003201707826,2.977134704206917,250,1970-01-14 11:32:56.266028891,2.3616912,2.4341292,0.1470065,9.60081768581904,3.3947284423783195,-105.65682220458984,6.098208427429199,-161.25637817382812,16042086.999999998,40713.0,-0.063980237868345,-0.05785228945836931,0.09457300752522622,-0.0035186650430221013,-0.002661752615095436,0.003221713143824131,16.04208749299869
1649,C,1164776305467433.0,0.41479546,9.123918201707825,2.673669704206917,250,1970-01-14 11:32:56.305467433,2.4937842,2.646117,0.0958738,9.942061651163336,3.6373186002033253,-105.42420959472656,5.856440544128418,-161.3733673095703,16081526.0,39439.00000000186,-0.0009324458256650439,-0.020845061385346083,0.11143103753172186,-0.0012800456661040914,-0.0015518724099627189,0.00406229676650068,16.081526034977287
1649,C,1164776345095350.0,-0.6344634,9.175393201707825,4.070686384206917,250,1970-01-14 11:32:56.345095350,2.2050974,2.7601001,0.45912898,9.737409509870776,3.562500038706331,-105.32820892333984,5.841982364654541,-161.51324462890625,16121153.0,39627.0,-0.00435239072919,-0.025771193508424037,0.1336292993577875,-0.00010471110907962043,-0.0009236311663377144,0.004855502984960294,16.121153952088207
1649,C,1164776384929361.0,-0.18974048,9.769753201707825,4.258032664206917,250,1970-01-14 11:32:56.384929361,1.4231933,1.3464943,0.40266997,9.117396315169506,2.000167286463105,-105.26424407958984,5.843642711639404,-161.5838623046875,16160986.999999998,39833.99999999814,-0.016415668677959232,-0.013042719083169906,0.16588309728725056,-0.0004136374392121719,-0.0007730566970867405,0.0059653884039789435,16.160987962968647
1649,C,1164776425184101.0,1.033098,10.362917201707827,3.687015544206917,250,1970-01-14 11:32:56.425184101,0.8809737,1.3379722,0.43995422,8.622443968981058,1.6612778165497601,-105.22740173339844,5.8472747802734375,-161.65455627441406,16201242.0,40255.00000000186,0.016974678483800788,0.010721323544749006,0.15991395781485684,1.1251469867076438e-05,-4.6723888699568837e-05,0.006557480226567971,16.201242703013122
1649,C,1164776465066183.0,1.1234791,9.484843201707825,2.917878304206917,250,1970-01-14 11:32:56.465066183,0.850081,2.0548952,0.46019423,9.600584451492137,2.2709052641775553,-105.19566345214844,5.8425211906433105,-161.76028442382812,16241124.0,39882.0,0.0430043039511,0.004940590204511489,0.13170818823122027,0.0011960408887343565,0.0003123142220740035,0.005815237214304824,16.241124785039574
1649,C,1164776504726809.0,1.043872,9.404637201707827,3.421857704206917,250,1970-01-14 11:32:56.504726809,0.8266452,1.9387813,0.330232,9.598634475517285,2.133370195192745,-105.16434478759766,5.833073616027832,-161.8586883544922,16280785.000000002,39661.00000000186,0.04297965598855202,-0.014089958860066606,0.12572013491485642,0.0017051049175833494,-0.00018143655512399426,0.005104932362148513,16.280785410897806
1649,C,1164776546555194.0,1.1713632,9.642262201707826,4.129942874206917,250,1970-01-14 11:32:56.546555194,0.45486793,2.0069582,0.36964676,9.32150472474111,2.0907952500109195,-105.1519775390625,5.8246750831604,-161.9608917236328,16322613.0,41827.99999999814,0.04632942897279794,-0.011567545876964555,0.1579383572969399,0.0018678102028815897,-0.0005366010540702458,0.005932433706117244,16.3226137959864
1649,C,1164776584907224.0,0.2124854,9.515968201707826,3.619379354206917,250,1970-01-14 11:32:56.584907224,0.16085494,1.9888487,0.45380265,9.412222078835184,2.0462967302815875,-105.1543197631836,5.820582389831543,-162.06333923339844,16360965.0,38352.0,0.0265366807536,-0.008471373784101474,0.1486010030520637,0.0013972805201134069,-0.00038426632342060217,0.0058781987740524925,16.360965826082975
1649,C,1164776624989049.0,0.3172317,8.478681201707825,4.190995004206917,250,1970-01-14 11:32:56.624989049,0.21624869,2.1315942,0.2514024,10.412811855647753,2.1572344555300695,-105.1543197631836,5.804853916168213,-162.1700439453125,16401046.999999998,40081.99999999814,0.010616060401099508,-0.032172831306145455,0.15652771251696437,0.0007445780854812982,-0.0008145505142136009,0.006115084588718608,16.40104765095748
1649,C,1164776666592641.0,-1.0265139,8.553499201707826,5.473688554206917,250,1970-01-14 11:32:56.666592641,-0.13209279,2.593919,0.18748654,10.420414533839972,2.6040383035608667,-105.17387390136719,5.7799763679504395,-162.29832458496094,16442651.000000002,41604.000000003725,-0.014754488324401323,-0.05341578324815244,0.2010447473821426,-8.608757766053207e-05,-0.0017804143599586643,0.0074382223108218895,16.44265124294907
1649,C,1164776704290403.0,-0.05566519,9.073639201707826,6.3439809042069175,250,1970-01-14 11:32:56.704290403,-0.3355583,2.702576,0.28975195,9.972382040644742,2.738699070910072,-105.20421600341797,5.758553981781006,-162.43321228027344,16480349.0,37697.99999999814,-0.020397993667408992,-0.03718646823401657,0.22275125162163137,-0.0006625891330635998,-0.0017077618381873192,0.00798813078522174,16.480349004967138
1649,C,1164776744167955.0,-1.4670471,8.272779201707825,5.920805704206917,250,1970-01-14 11:32:56.744167955,-0.4111921,3.0466564,0.4857606,10.798036132186233,3.1124198822260034,-105.24021911621094,5.741991996765137,-162.5873565673828,16520226.000000002,39877.00000000186,-0.03036059899416642,-0.04493303666349917,0.24454144779187068,-0.0010120501997828686,-0.001637339748399194,0.009317115487256545,16.520226557040587
1649,C,1164776786404984.0,-2.4025815,9.428579201707826,4.037766104206917,250,1970-01-14 11:32:56.786404984,-0.79681784,2.8495824,0.588026,9.76567114641341,3.016755393002228,-105.29464721679688,5.732838153839111,-162.73329162597656,16562463.000000002,42237.0,-0.0817207515891,-0.04009646255746658,0.21031009873598755,-0.002366990002292712,-0.0017956954792979652,0.009605782385348573,16.562463585985824
1649,C,1164776826298214.0,-3.2255883,11.964638201707826,0.8660474042069168,250,1970-01-14 11:32:56.826298214,-0.9821738,2.4394555,0.5486112,8.468701620707025,2.6863698104788423,-105.35629272460938,5.727055549621582,-162.8588104248047,16602356.0,39892.99999999814,-0.11226228891569477,0.03576841093722862,0.09781391614557197,-0.003869282717428708,-8.63294816430724e-05,0.00614599566283474,16.602356815943494
1649,C,1164776866213890.0,-4.024653,10.151628701707827,0.32016950420691703,250,1970-01-14 11:32:56.866213890,-0.7414241,3.5228295,1.1675298,10.496863795853487,3.784595515510092,-105.41194915771484,5.736611843109131,-163.0450439453125,16642271.999999998,39915.99999999814,-0.14470031586539325,0.050219654858367234,0.023674517058122194,-0.005128459666220716,0.0017161498171484222,0.002424666149879215,16.642272491939366
1649,C,1164776903417226.0,-1.977012,9.208912201707825,1.0102980042069172,250,1970-01-14 11:32:56.903417226,0.024501082,4.143879,1.2708606,10.4831885929296,4.334445770140922,-105.5467529296875,5.871169090270996,-163.2743377685547,16679475.0,37203.00000000186,-0.11163997149750558,-0.0044542983851139995,0.024748691357761175,-0.0047683138553812005,0.0008513042784372626,0.0009007443113480994,16.67947582807392
1649,C,1164776943444049.0,-2.5384524,13.371231801707825,5.126529344206917,250,1970-01-14 11:32:56.943444049,-0.43356264,3.3065808,1.1920309,6.094829298818923,3.5415237986334667,-105.58647155761719,5.884217739105225,-163.45053100585938,16719501.999999998,40026.99999999814,-0.0903702467693958,0.05964311201235632,0.12281939413747456,-0.004042931503284443,0.0011045213215287628,0.002953353879058763,16.719502650899813
1649,C,1164776983773215.0,0.32680854,13.721982201707826,6.840179204206917,250,1970-01-14 11:32:56.983773215,0.17896444,2.1774006,1.901497,5.658903597111828,2.896341223798376,-105.59103393554688,5.946538925170898,-163.58163452148438,16759830.999999998,40329.0,-0.04459669261497,0.1510969137718748,0.24130269452449074,-0.002721540849216044,0.004249467249926128,0.007342339856824198,16.759831816889346
1649,C,1164777023106444.0,-0.724246,8.457731201707826,1.4855471042069168,250,1970-01-14 11:32:57.023106444,0.5858955,1.4753913,1.9046929,10.88492033088157,2.479497543524968,-105.59011840820312,5.965182781219482,-163.6807098388672,16799165.0,39334.00000000186,-0.007816402525820368,0.05073522350497801,0.16374205930758262,-0.0010308083421339729,0.003969432643824052,0.007966015173615764,16.79916504607536
1649,C,1164777062994205.0,-1.264737,5.069337201707826,-0.9146398957930826,250,1970-01-14 11:32:57.062994205,0.9491506,1.627724,0.850081,14.902514471237039,2.06712602136816,-105.70083618164062,5.957529067993164,-163.78646850585938,16839052.0,39887.0,-0.0396672824605,-0.12111551129647996,0.011385887911001303,-0.0009469908715246801,-0.0014036292695698194,0.0034926642153538284,16.83905280707404
1649,C,1164777102982955.0,-0.9816227,10.181556201707826,1.5292413042069168,250,1970-01-14 11:32:57.102982955,1.2634037,1.5659387,0.16085494,9.256992810876902,2.018471509101326,-105.73006439208984,5.947559356689453,-163.87319946289062,16879041.0,39989.0,-0.04491483902165,-0.08695821184540575,0.012288647860530409,-0.001691177227974848,-0.0041603300573604335,0.00047336050548389073,16.879041556967422
1649,C,1164777142661028.0,-2.8006175,11.012344201707826,2.707787004206917,250,1970-01-14 11:32:57.142661028,1.8471686,1.6724652,-0.21198763,8.550175235440612,2.5008219523408735,-105.6457748413086,5.914742469787598,-163.9512481689453,16918719.0,39678.0,-0.07503586332779999,0.031621390103363095,0.08405840461062204,-0.002379701983910738,-0.0010978272065403842,0.0019114291739751935,16.918719629989937
1649,C,1164777182642278.0,-2.5342624,7.395304201707827,0.8091850042069169,250,1970-01-14 11:32:57.182642278,1.7459685,1.0641992,-0.39521313,12.33863338501182,2.0825751747289427,-105.62076568603516,6.029671669006348,-164.00331115722656,16958700.0,39981.0,-0.10664691664095001,-0.02383570459151942,0.07030602893419675,-0.003631929612965297,0.000155639746224511,0.0030858222087777,16.958700879942626
1649,C,1164777222539309.0,-1.7088615,6.392732201707826,-2.7845115957930826,250,1970-01-14 11:32:57.222539309,0.2695119,0.49215218,-0.34194988,14.576931002520645,0.6570998044075016,-105.60930633544922,6.006582260131836,-164.02252197265625,16998597.0,39897.0,-0.08464395711915,-0.11593995580646288,-0.03940480251225663,-0.003815965995203355,-0.0027883147614491503,0.0006164331152780727,16.998597911093384
1649,C,1164777262516497.0,-6.341043,14.895739501707826,6.364930204206917,250,1970-01-14 11:32:57.262516497,-1.1536814,0.87564737,-0.14487597,7.709055328132685,1.4555851524309107,-105.67121887207031,5.9878034591674805,-164.0629425048828,17038575.0,39978.0,-0.1609095410505,0.03375086087957545,0.07156898756358414,-0.004908368874913134,-0.001642877818493553,0.0006429298949909856,17.038575099082664
1649,C,1164777302470038.0,1.3180081,7.8041132017078265,1.836896204206917,250,1970-01-14 11:32:57.302470038,1.0183928,1.7214674,0.4165184,11.4771795963656,2.043052001759417,-105.62957000732422,5.984637260437012,-164.1519317626953,17078528.0,39953.0,-0.10034265667985,0.06192420752978276,0.16384378524767898,-0.005218904527960338,0.0019112530040795446,0.004702723256064197,17.078528640093282
1649,C,1164777342707851.0,6.431424,4.0727502017078265,5.342007464206917,250,1970-01-14 11:32:57.342707851,0.40266997,1.6117451,-0.39627838,16.16450767357259,1.7078940033178978,-105.61699676513672,5.94385290145874,-164.22459411621094,17118766.0,40238.0,0.1559108244199,-0.15538178518668053,0.14443236290481795,0.0011179759667620662,-0.0018802730048791264,0.006202207824680086,17.1187664528843
1649,C,1164777382108476.0,0.63087213,9.775739201707825,2.246903204206917,250,1970-01-14 11:32:57.382108476,0.6849651,1.026915,-0.531567,9.410038620131587,1.343984777046232,-105.54956817626953,5.660995960235596,-164.26339721679688,17158167.0,39401.0,0.139130764909065,-0.11330763450800997,0.14950533462308674,0.005812466830575275,-0.00529331591269525,0.005790719610148485,17.15816707792692
1649,C,1164777422276757.0,-2.7874494,12.113078201707825,3.089063704206917,250,1970-01-14 11:32:57.422276757,0.25672874,-0.1470065,-0.015978966,7.461317271616611,0.2962699517984683,-105.53600311279297,5.662195682525635,-164.25607299804688,17198335.0,40168.0,-0.04331269789067999,0.0459686087301999,0.10716755938858345,0.001924410057997245,-0.0013524369937215374,0.005155018403330385,17.19833535887301
1649,C,1164777462300299.0,-2.15957,11.417563201707825,-1.646068595793083,250,1970-01-14 11:32:57.462300299,0.035153728,0.112918034,0.05965481,9.929862643766805,0.13245740202366663,-105.53487396240234,5.663558483123779,-164.26234436035156,17238358.0,40023.0,-0.09899727872310002,0.07865803044445227,0.028876496612023444,-0.0028478360970066586,0.002493965989843552,0.0027224456266561454,17.238358900882304
1649,C,1164777502259517.0,-2.0057425,12.164553901707826,-0.321476295793083,250,1970-01-14 11:32:57.502259517,0.3206446,1.5211977,0.002130529,8.528912086701723,1.5546253378702761,-105.5261001586914,5.643296241760254,-164.3360137939453,17278318.0,39960.0,-0.08322294375000001,0.07956269972624469,-0.0393115469338916,-0.003640760045012539,0.0031612501888105254,-0.00020849230543092576,17.278318119002506
1649,C,1164777542001809.0,-1.4885949,12.334542201707826,-1.348589295793083,250,1970-01-14 11:32:57.542001809,0.30999196,2.3446472,-0.22583607,8.928452480080017,2.3758087966512638,-105.52140808105469,5.601039409637451,-164.44647216796875,17318060.0,39742.0,-0.0694359784754,0.0973499386709724,-0.0331858733704087,-0.0030334854435409234,0.003515431037591101,-0.0014405962388667512,17.318060410907492
1649,C,1164777582094101.0,-2.4468741,12.361477201707826,3.444602604206917,250,1970-01-14 11:32:57.582094101,0.068176925,2.6322684,-0.2727077,7.048720389331061,2.647235258223248,-105.53003692626953,5.552672386169434,-164.57022094726562,17358152.0,40092.0,-0.07889041157400001,0.10215480496087015,0.04201668278046372,-0.002973350814930273,0.0039992720908439165,0.00017702240543396295,17.358152702916414
1649,C,1164777621736704.0,-2.1972785,13.176104201707826,4.442984739206917,250,1970-01-14 11:32:57.621736704,-0.6380934,2.6248116,0.04261058,6.114044239342669,2.7015948593647527,-105.5742416381836,5.519537448883057,-164.69781494140625,17397795.0,39643.0,-0.0920540707609,0.11769176978780331,0.1563438125274773,-0.0033883760566012205,0.004357688881380831,0.003931802557746353,17.397795306053013
1649,C,1164777662162851.0,1.7363948,11.154200801707827,1.8572469042069168,250,1970-01-14 11:32:57.662162851,0.37816888,2.0410466,-0.07243799,8.360671046162697,2.0770484316855145,-105.5647201538086,5.488657474517822,-164.79559326171875,17438221.0,40426.0,-0.009315842228099997,0.09561365503404055,0.12734658220832382,-0.0020489900512466568,0.00431154255192393,0.0057342339487947485,17.438221452990547
1649,C,1164777702456497.0,6.642114,9.133494201707826,1.6286007042069168,250,1970-01-14 11:32:57.702456497,0.16831179,2.5992453,-0.8607337,12.14871957748046,2.743222100111616,-105.567138671875,5.412323474884033,-164.90977478027344,17478515.0,40294.0,0.1688018167936,0.013854991233815131,0.07022937176671351,0.003213163929571129,0.0022054648163584885,0.003980562744735077,17.478515099035576
1649,C,1164777741727381.0,0.7248446,6.991282701707826,-2.624698595793083,250,1970-01-14 11:32:57.741727381,-2.0133498,0.50387007,-0.2396845,13.899136854411065,2.089236971753586,-105.6697998046875,5.393998622894287,-164.93089294433594,17517785.0,39270.0,0.144650232111,-0.06823600550143369,-0.019558382101294368,0.00615463098024182,-0.0010677712151446904,0.0009949248820805049,17.517785982927307
1649,C,1164777781716444.0,-4.1479545,0.23424820170782468,1.347281904206917,250,1970-01-14 11:32:57.781716444,-3.303385,-1.7544906,0.025566347,19.366996585496594,3.7404870487427546,-105.680908203125,5.5935444831848145,-164.8326873779297,17557775.0,39990.0,-0.0684450824505,-0.24742750958620408,-0.025541946748265383,0.0015237219674616974,-0.006311691984177317,-0.0009017810753469472,17.557775045977905
1649,C,1164777821480350.0,-3.4847605,3.3479062017078256,1.415516704206917,250,1970-01-14 11:32:57.821480350,-3.7646446,-2.2551649,0.221575,16.222336856082276,4.394020160527961,-105.75279998779297,5.805019855499268,-164.71641540527344,17597538.0,39763.0,-0.1517498232725,-0.3184587972284918,0.054928580533179644,-0.004377805018131824,-0.011250668608936375,0.0005842503595947728,17.597538952017203
1649,C,1164777861200402.0,-10.8152075,4.1014807017078265,-0.03955929579308304,250,1970-01-14 11:32:57.861200402,-2.2423816,-0.87990844,0.15659387,18.877223870112296,2.413925380562409,-105.86083984375,5.824538230895996,-164.67601013183594,17637259.0,39721.0,-0.284004514464,-0.24131725140471347,0.02732720210980295,-0.008654299024615758,-0.011117432213879773,0.0016336409711809558,17.637259003939107
1649,C,1164777901445714.0,-1.6639702,11.048257601707826,1.3263326042069168,250,1970-01-14 11:32:57.901445714,-0.71159667,0.066046394,-0.30786142,8.627331727742826,0.7781456167324394,-106.05460357666016,5.941909313201904,-164.6912384033203,17677504.0,40245.0,-0.25111225326825,-0.08955039098951856,0.025893095898557372,-0.0107678871586922,-0.006657884134077935,0.0010709254466732307,17.677504315972328
1649,C,1164777940996183.0,-1.1055226,14.925667001707826,3.3548200042069167,250,1970-01-14 11:32:57.940996183,-0.18961707,0.066046394,0.29188246,4.273735917917096,0.3542769112593138,-106.07926940917969,6.180329322814941,-164.7000274658203,17717054.0,39550.0,-0.05476672012,0.12604435903254446,0.09256979283138357,-0.006048756698752644,0.0007216682180508373,0.0023426036246345823,17.717054784996435
1649,C,1164777981264933.0,-0.7302315,16.071891001707826,5.386300204206917,250,1970-01-14 11:32:57.981264933,1.2154667,0.27803403,0.2908172,3.0239164240237093,1.2803268584477834,-106.0203857421875,6.190460205078125,-164.71751403808594,17757323.0,40269.0,-0.03696199092645,0.2294841316197724,0.1759980848363083,-0.0018469117325647475,0.007158388395039073,0.0054074799329001414,17.7573235349264
1649,C,1164778021300141.0,-0.6266823,18.451727551707826,2.229545404206917,250,1970-01-14 11:32:58.021300141,2.4064324,0.60293967,0.07563378,2.429777996761803,2.48196970370441,-105.90330505371094,6.185804843902588,-164.74771118164062,17797358.0,40035.0,-0.0271620219915,0.29873353439299777,0.1524501894664239,-0.0012836024285850641,0.010573597129410629,0.006574713330854943,17.797358742915094
1649,C,1164778061601287.0,-1.3186066,17.064886201707825,4.399290554206917,250,1970-01-14 11:32:58.061601287,2.795254,0.80747044,0.36218992,2.248489244197553,2.9320018714420018,-105.76830291748047,6.192209720611572,-164.791748046875,17837659.0,40301.0,-0.039198543979449996,0.32072772543820205,0.13357435898001796,-0.0013371985845976278,0.012482454116228591,0.005763537663470026,17.837659888900816
1649,C,1164778100873319.0,3.1172507,8.332634201707826,4.219126904206917,250,1970-01-14 11:32:58.100873319,2.0378509,-1.4817829,0.77231675,11.00383166337235,2.6353348963070675,-105.65977478027344,6.249448776245117,-164.73052978515625,17876931.0,39272.0,0.0353181755476,0.1138401106414697,0.16923124521341404,-7.619491452780651e-05,0.008533174029260435,0.005945890843942231,17.876931920880452
1649,C,1164778141047225.0,-0.06823475,8.221304201707825,-4.1569882957930835,250,1970-01-14 11:32:58.141047225,1.1323761,-0.7030745,-0.38562572,13.755961704006724,1.3875505685656933,-105.598876953125,6.240349769592285,-164.69125366210938,17917105.0,40174.0,0.06124558338765001,-0.06118623929058984,0.001248178227208666,0.001939676225732367,0.0010576583138251238,0.0034244201786517883,17.917105827014893
1649,C,1164778180476079.0,-2.1787236,10.101351201707827,1.5094891042069172,250,1970-01-14 11:32:58.180476079,1.5723304,1.0120013,-0.7030745,9.539197754193038,1.9976694597745894,-105.60855102539062,6.3667826652526855,-164.73989868164062,17956534.0,39429.0,-0.044297660391074994,-0.025182210049362153,-0.05219412281252547,0.0003341198279159781,-0.0017027107945124837,-0.0010043738245272282,17.95653468091041
1649,C,1164778220479620.0,-5.245097,4.805376201707826,-0.08445069579308306,250,1970-01-14 11:32:58.220479620,1.9941751,-0.051132694,-0.7914915,15.716043514930657,2.1461145534262513,-105.50739288330078,6.329345226287842,-164.72674560546875,17996538.0,40004.0,-0.1484912596412,-0.09387483847688013,0.02850361824509351,-0.003856163978485564,-0.002381379084621898,-0.0004738574723577741,17.99653822206892
1649,C,1164778260310504.0,0.3441665,2.569790201707825,-2.305072795793083,250,1970-01-14 11:32:58.260310504,-0.21411815,0.27483824,-0.35153726,17.691578034034684,0.4949354356822996,-105.51905059814453,6.3087334632873535,-164.73533630371094,18036369.0,39831.0,-0.09760448137275,-0.24346367349277562,-0.04758855509668429,-0.004901119730163321,-0.006718265135131679,-0.0003800860598678562,18.036369106033817
1649,C,1164778300536079.0,-2.4259248,6.199999201707826,2.602442204206917,250,1970-01-14 11:32:58.300536079,-1.3923006,1.7651432,-0.12250541,13.055064964352276,2.2514970692287983,-105.42919921875,6.390270233154297,-164.8006591796875,18076594.0,40225.0,-0.04186936380875,-0.21782261062380273,0.0059808422267232375,-0.0028051677112129183,-0.009277620389294682,-0.0008368351250970916,18.076594681013376
1649,C,1164778340225453.0,-0.43993455,3.0576092017078267,5.175011904206917,250,1970-01-14 11:32:58.340225453,-0.7755125,0.18109496,0.5816344,15.84222367999654,0.9861610403260775,-105.46983337402344,6.415888786315918,-164.81723022460938,18116284.0,39690.0,-0.056872978800750006,-0.20524476123421642,0.15434357678147254,-0.001959541789085528,-0.00839577199452239,0.0031816380952176455,18.11628405493684
1649,C,1164778380430974.0,3.3620577,6.870974201707826,7.677551304206917,250,1970-01-14 11:32:58.380430974,0.17257284,0.09054748,0.14061491,12.860833512395091,0.24031808952786743,-105.46190643310547,6.421457290649414,-164.82350158691406,18156489.0,40205.0,0.058741980622874994,-0.19441965213283685,0.2583686518971391,3.757160912926757e-05,-0.008034253869711188,0.00829654757701179,18.15648957598023
1649,C,1164778420831651.0,1.210269,7.876538201707826,3.200992604206917,250,1970-01-14 11:32:58.420831651,1.3635385,0.094808534,-0.12357068,11.151092811699785,1.3724050466451738,-105.39405822753906,6.414239883422852,-164.8264617919922,18196890.0,40401.0,0.09236328550334999,-0.09802267569480216,0.21975202622191364,0.003052401928382808,-0.005907481243282222,0.009658276758343924,18.196890252875164
1649,C,1164778460237485.0,-1.6747441,12.308205801707826,3.582867754206917,250,1970-01-14 11:32:58.460237485,0.9651296,-0.7595336,0.12144015,6.849551139573291,1.2341451066860585,-105.34185791015625,6.430159091949463,-164.7912139892578,18236296.0,39406.0,-0.0091515528953,0.011521211099298562,0.13366240064182777,0.001639520767576409,-0.0017043383569252074,0.006963324452496296,18.236296087037772
1649,C,1164778499690089.0,-2.9939492,13.532241601707826,-0.6680372957930834,250,1970-01-14 11:32:58.499690089,0.7414241,-0.4101268,0.25246766,8.041762912789782,0.8841117618745526,-105.30291748046875,6.447751522064209,-164.77467346191406,18275748.0,39452.0,-0.0920946440358,0.12309906547977713,0.057497945622671284,-0.0019971824806628785,0.0026555195757988473,0.003770828990413509,18.275748691055924
1649,C,1164778539988631.0,-2.3361423,11.791657201707826,-4.030095295793083,250,1970-01-14 11:32:58.539988631,-0.4016047,-0.17789917,0.54648066,11.36307179749434,0.7011244978624085,-105.3228530883789,6.476454734802246,-164.77330017089844,18316047.0,40299.0,-0.10739867867925,0.11533369893942366,-0.09466502265416546,-0.0040196907060469,0.004804300986664687,-0.000748898018646092,18.316047233063728
1649,C,1164778579876651.0,-0.05686229,14.232545601707827,2.390555404206917,250,1970-01-14 11:32:58.579876651,-0.96406436,1.5350461,0.4293016,5.120540258136724,1.8628168141580588,-105.3801040649414,6.476834774017334,-164.85350036621094,18355935.0,39888.0,-0.047726083542960006,0.12812430071132172,-0.03269898359779449,-0.0030938082577597562,0.004855526345034466,-0.0025401477406890895,18.355935252970085
1649,C,1164778619591339.0,-1.7884687,13.848874801707826,3.089662204206917,250,1970-01-14 11:32:58.619591339,-1.0205233,1.8407769,0.4644553,5.533188478264725,2.155376098762021,-105.44190216064453,6.474764347076416,-164.9490203857422,18395649.0,39714.0,-0.03664273746843,0.16841556495062457,0.1088206810502735,-0.0016753116788231714,0.005888392112449267,0.0015115485463138758,18.39564994093962
1649,C,1164778659783214.0,1.3305776,10.814822201707827,1.8710137042069168,250,1970-01-14 11:32:58.659783214,-0.753142,1.2410331,-0.05006743,8.59897108401591,1.45254699579959,-105.48625946044922,6.455806732177734,-165.00852966308594,18435841.0,40192.0,-0.009201779545599998,0.10176005498064092,0.09968974305548439,-0.0009212914139139467,0.005429449258138711,0.00419022548282931,18.435841816011816
1649,C,1164778699416235.0,4.3281183,10.540088201707826,1.898546904206917,250,1970-01-14 11:32:58.699416235,-1.784318,0.0628506,-0.23329292,9.76042622559447,1.8006017076428886,-105.5754623413086,6.443726539611816,-165.00843811035156,18475474.0,39633.0,0.11213554730235,0.03477618200928626,0.07469949779663274,0.002039787008751636,0.0027056703403108917,0.003455784391345979,18.475474837003276
1649,C,1164778739338995.0,-0.6404489,1.8018492017078245,-0.2568332957930828,250,1970-01-14 11:32:58.739338995,-2.538525,-0.037284255,-0.664725,17.750772204057863,2.6243777580449246,-105.70381927490234,6.302928447723389,-164.99778747558594,18515397.0,39923.0,0.0736114127281,-0.14488181652171853,0.03277106619435275,0.0037077879426478276,-0.002197873623319917,0.0021452736631060567,18.51539759687148
1649,C,1164778779986599.0,-4.2664676,-0.7324117982921727,-0.03357429579308313,250,1970-01-14 11:32:58.779986599,-3.794472,-2.2061627,-1.0034791,20.58590566744028,4.502459541383143,-105.81661987304688,6.425995349884033,-164.87042236328125,18556045.0,40648.0,-0.099728170946,-0.3766151542129803,-0.005902243891397235,-0.0005307969940205997,-0.010598904433212018,0.0005460819444852679,18.556045200908557
1649,C,1164778819344308.0,-7.89907,9.359148201707827,2.314539404206917,250,1970-01-14 11:32:58.819344308,-3.2011197,-1.2665994,-0.47404268,12.569830586072579,3.475076666243499,-105.96908569335938,6.4205427169799805,-164.80259704589844,18595402.0,39357.0,-0.23939953166160002,-0.2159373676853851,0.04488597188592164,-0.0066735244957636585,-0.011660544802176985,0.0007671412913402485,18.595402909908444
1649,C,1164778859269464.0,-6.9108634,9.079625201707826,-1.9351686957930827,250,1970-01-14 11:32:58.859269464,-1.212271,-0.38136467,0.14061491,13.62794740549669,1.2785978812275254,-106.02784729003906,6.432555675506592,-164.7860870361328,18635328.0,39926.0,-0.29565070046420006,-0.023181566547613365,0.007573377452065378,-0.010681207783927347,-0.004773531284093349,0.0010472459908342348,18.635328066069633
1649,C,1164778899153006.0,-0.48362875,10.756763201707827,1.168315404206917,250,1970-01-14 11:32:58.899153006,-0.25353295,-0.18429075,-0.1949434,8.808353080036905,0.3691137581760195,-106.20207214355469,6.344668388366699,-164.79258728027344,18675211.0,39883.0,-0.147457265209225,0.004713939346713204,-0.015292204914165523,-0.008836237497476605,-0.00036827218782675057,-0.00015392499783547004,18.67521160794422
1649,C,1164778939124881.0,-2.8299465,14.392956901707826,3.597831554206917,250,1970-01-14 11:32:58.939124881,0.9171927,-0.0127831735,-0.113983296,5.388247027046473,0.9243365459750278,-106.15595245361328,6.339371204376221,-164.7903594970703,18715183.0,39972.0,-0.0662251149465,0.11091670598686522,0.0952562131108589,-0.00427065604979232,0.0023109940776368985,0.0015981606678191138,18.715183482971042
1649,C,1164778978995610.0,-0.8702923,16.532774901707825,2.944813004206917,250,1970-01-14 11:32:58.978995610,1.856756,-0.60080916,-0.03195793,2.96780627155471,1.9518032174288962,-106.05986022949219,6.346171855926514,-164.76089477539062,18755054.0,39871.0,-0.0737661105974,0.22578412636699266,0.13043089059425897,-0.0027907950768304183,0.006712299443390334,0.004499185255913377,18.75505421194248
1649,C,1164779018400089.0,-1.7208325,16.969716601707827,1.8225310042069172,250,1970-01-14 11:32:59.018400089,2.8879318,1.0290455,-0.049002163,3.739679197379489,3.066184262972493,-105.92089080810547,6.329642295837402,-164.80996704101562,18794458.0,39404.0,-0.051050340809600005,0.27390688760029513,0.09392621165376937,-0.002459133725620714,0.009844912357183504,0.004420283628490655,18.79445869103074
1649,C,1164779058893526.0,2.4438813,12.912143401707826,2.904111604206917,250,1970-01-14 11:32:59.058893526,2.6045716,0.017044231,0.46339005,6.6533157090161845,2.645527180691203,-105.79144287109375,6.351695537567139,-164.81716918945312,18834952.0,40494.0,0.014639569053600004,0.2081768194891567,0.0957003328925549,-0.0007372088957437321,0.00976074881744013,0.003839368647429428,18.834952127886936
1649,C,1164779098158266.0,2.6132712,10.593957201707827,1.9182990042069168,250,1970-01-14 11:32:59.098158266,1.2069446,-0.8266452,0.28868666,9.075401777552624,1.491106147064707,-105.72710418701172,6.376813888549805,-164.78109741210938,18874216.0,39264.0,0.09928201788,0.07668456704625608,0.09467356506438038,0.0022365085946804354,0.005592398740463223,0.0037374203646905533,18.874216868076473
1649,C,1164779139201651.0,-1.1330559,9.923581201707826,-0.3669666957930833,250,1970-01-14 11:32:59.139201651,0.9672601,-2.0879183,-0.37923414,10.274799479156544,2.3321263819674183,-105.66692352294922,6.386802673339844,-164.67478942871094,18915260.0,41044.0,0.030376978386599994,0.018829723114896,0.03183644163326869,0.0026608619213831647,0.001960144262687163,0.002596238357449154,18.915260253008455
1649,C,1164779177989360.0,-3.5733461,12.030478701707827,-2.230852595793083,250,1970-01-14 11:32:59.177989360,1.9281287,0.28122982,-0.92464954,10.271721549165182,2.156790965124607,-105.57063293457031,6.338492393493652,-164.67588806152344,18954047.0,38787.0,-0.09127360718700002,0.04565346073689143,-0.050380808431376316,-0.001180998770640558,0.0012505546260296397,-0.0003596401774991003,18.954047962091863
1649,C,1164779218257433.0,-5.059547,6.059937701707826,-3.4022152957930833,250,1970-01-14 11:32:59.218257433,1.0940266,1.0301107,-0.60080916,15.906468844501605,1.6183305912272545,-105.52053833007812,6.29574728012085,-164.7177276611328,18994316.0,40269.0,-0.17381898612195001,-0.030394710925427577,-0.11341900546314167,-0.005337506819979054,0.00030722729807891895,-0.0032980273528591723,18.994316034950316
1649,C,1164779257773370.0,-0.6344634,0.15643520170782566,2.436045204206917,250,1970-01-14 11:32:59.257773370,0.3334278,0.15339808,-0.36218992,18.85269292002495,0.515641936725605,-105.504150390625,6.276247024536133,-164.7202911376953,19033831.0,39515.0,-0.112499410478,-0.2644270123607653,-0.01908910558451368,-0.005656935720823513,-0.005824940197826956,-0.00261802900402405,19.03383197193034
1649,C,1164779298125453.0,-0.59017074,10.351544201707826,5.416826254206917,250,1970-01-14 11:32:59.298125453,-1.5947009,2.944391,-0.6412892,8.594831427828323,3.4093637470030163,-105.59844970703125,6.2058844566345215,-164.85430908203125,19074184.0,40353.0,-0.02470883072571,-0.18344515356698413,0.15844346098068673,-0.002768382078646655,-0.009036492755841237,0.0028116831516508856,19.074184054974467
1649,C,1164779338107901.0,-1.5161282,0.8196302017078274,8.193501704206916,250,1970-01-14 11:32:59.338107901,-0.644485,0.45593318,0.23009712,18.489824942825045,0.8223020518533362,-105.63340759277344,6.21082878112793,-164.8795166015625,19114166.0,39982.0,-0.04210702210954,-0.16850065250131768,0.27208406621665093,-0.0013357157140294828,-0.0070357486091114215,0.008606675796201977,19.114166503073648
1649,C,1164779377835818.0,2.2008698,6.735103201707826,12.188227204206918,250,1970-01-14 11:32:59.377835818,-0.19068234,0.4101268,0.2396845,14.522282724960608,0.5118714744995716,-105.64543151855469,6.216839790344238,-164.9026336669922,19153894.0,39728.0,0.013601707142399999,-0.2392671756745515,0.4048626630367324,-0.000566229576507269,-0.008099900138885466,0.013446869829889206,19.153894420014694
1649,C,1164779417719464.0,3.2573113,4.6569362017078255,-4.641215295793082,250,1970-01-14 11:32:59.417719464,2.6876621,-0.9534117,-0.029827405,17.238930491009373,2.851913586973198,-105.50599670410156,6.228203296661377,-164.8560333251953,19193778.0,39884.0,0.10884704749620001,-0.16368315021708513,0.15050251147758872,0.0024418730650029616,-0.008035635398931018,0.011075092310164592,19.19377806596458
1649,C,1164779457512797.0,-0.84216046,11.230216701707826,5.738247904206917,250,1970-01-14 11:32:59.457512797,0.65726817,-0.22583607,-0.08522116,7.789972426166893,0.7001899913023175,-105.4718246459961,6.227113246917725,-164.8439483642578,19233571.0,39793.0,0.04805304868806,-0.07387266225719051,0.02182710929330586,0.0031217627637301296,-0.004726529222894426,0.0034287562996681044,19.233571399003267
1649,C,1164779498210558.0,-2.5504234,13.393976201707826,2.704195704206917,250,1970-01-14 11:32:59.498210558,1.4327807,0.36964676,-0.09054748,6.322347009189828,1.4824635265683057,-105.40199279785156,6.217829704284668,-164.86065673828125,19274269.0,40698.0,-0.06903568896714,0.10223730139160507,0.1717952849876131,-0.00042697574703899903,0.0005771920417462019,0.00394002210122242,19.27426915988326
1649,C,1164779537358735.0,-0.7266402,11.527696201707826,0.029274004206916615,250,1970-01-14 11:32:59.537358735,0.51984906,-0.70200926,0.42184472,8.65575198672391,0.9700582529418064,-105.37290954589844,6.24747896194458,-164.8322296142578,19313417.0,39148.0,-0.0641452429064,0.10416641562445796,0.05350493607249238,-0.0026068835604926726,0.004040146356872418,0.004410026527030504,19.313417336903512
1649,C,1164779577254464.0,2.3780408,9.165217201707826,0.49793910420691745,250,1970-01-14 11:32:59.577254464,0.2609898,0.350472,0.15446335,10.787392794447655,0.46347084588058235,-105.36195373535156,6.250283718109131,-164.85128784179688,19353313.0,39896.0,0.032942139168800004,0.021801436571335396,0.010516847086639162,-0.0006224395133576447,0.002512806715601686,0.001277106530458356,19.35331306606531
1649,C,1164779617211391.0,1.8237832,11.367284501707825,-0.7189139957930832,250,1970-01-14 11:32:59.617211391,-0.69668293,0.54648066,-0.036218993,9.349379627989977,0.8861828435268618,-105.39960479736328,6.241290092468262,-164.87730407714844,19393269.0,39956.0,0.083944039872,0.018629519030837847,-0.00441463638410842,0.0023351520848771024,0.0008077296310202171,0.00012190996541515917,19.39326999289915
1649,C,1164779657172433.0,-2.309806,13.623221201707826,4.155680544206917,250,1970-01-14 11:32:59.657172433,-0.6466155,0.83516735,0.25566345,5.755353566754177,1.0867289942815435,-105.43670654296875,6.2425103187561035,-164.9212188720703,19433231.0,39962.0,-0.009711221566799998,0.1077076944599481,0.06867003240385681,0.001483245942556201,0.002524343862759394,0.0012838870678705924,19.433231035014614
1649,C,1164779696853110.0,-1.9243397,11.942491701707826,5.318065474206917,250,1970-01-14 11:32:59.696853110,-1.051416,0.69987875,0.16192019,7.242487471392256,1.2733907560867552,-105.49320983886719,6.240983009338379,-164.9573211669922,19472911.0,39680.0,-0.084005450688,0.11835974400376653,0.18795912100533047,-0.001859338777535232,0.004485177979120098,0.005091522403638276,19.472911712015048
1649,C,1164779736541860.0,1.1480197,12.159167201707827,3.159094104206917,250,1970-01-14 11:32:59.736541860,-0.644485,0.55287224,0.098004326,6.956984894054582,0.8547710084591849,-105.52848052978516,6.238311290740967,-164.98544311523438,19512600.0,39689.0,-0.01540568224,0.08933317010883192,0.16822499325383336,-0.001972764227389696,0.0041215620341074595,0.007068295655415977,19.51260046195239
1649,C,1164779776561547.0,1.9369092,11.090155801707827,1.523854304206917,250,1970-01-14 11:32:59.776561547,-0.50600064,1.091896,-0.12996227,8.574935842664734,1.2104394714813138,-105.559326171875,6.217419624328613,-165.03659057617188,19552620.0,40020.0,0.06172942728900001,0.07302295329834721,0.09370579765236081,0.0009269381384304903,0.0032487460293776547,0.005241235126032946,19.552620148984715
1649,C,1164779817106495.0,2.1601684,11.593536601707825,1.9709717042069168,250,1970-01-14 11:32:59.817106495,-0.958738,-0.07243799,-0.314253,8.022416985387702,1.0115239804612841,-105.60643005371094,6.203258514404297,-165.02883911132812,19593165.0,40545.0,0.08305800564600001,0.06251415424824376,0.07084886025556944,0.0029352032341747876,0.0027476760127382654,0.0033359343024385157,19.593165097059682
1649,C,1164779857236651.0,1.3221979,4.071553201707825,-1.1498702957930833,250,1970-01-14 11:32:59.857236651,-2.2668827,0.040480047,-0.37923414,15.918901498987466,2.2987419043263535,-105.71943664550781,6.184454917907715,-165.02565002441406,19633295.0,40130.0,0.06987367980949999,-0.078953973094465,0.01647539975982357,0.0030685742686646076,-0.0003298649651494292,0.0017521612772088606,19.633295252919197
1649,C,1164779896764620.0,-1.3479356,-0.7324117982921727,-1.3204572957930827,250,1970-01-14 11:32:59.896764620,-3.3534524,-1.8876486,-0.5635249,20.513770584168974,3.8892699249432057,-105.89930725097656,6.122666835784912,-164.928955078125,19672823.0,39528.0,-0.0005086799028000017,-0.32137960930289305,-0.04882355452010899,0.0013709298581560186,-0.007912192922501384,-0.0006393289306822811,19.672823221888393
1649,C,1164779936215401.0,-6.1740475,3.6364072017078257,1.416713704206917,250,1970-01-14 11:32:59.936215401,-3.5718317,-2.7505128,-0.43569317,16.740750230517783,4.529142401655459,-106.06305694580078,6.139588832855225,-164.7899627685547,19712274.0,39451.0,-0.14837487763905,-0.3293370386699246,0.0018987057841670866,-0.0029368026142917625,-0.012835711239587816,-0.000925616103740822,19.712274003075436
1649,C,1164779976348787.0,-8.392874,7.687995201707826,0.190882704206917,250,1970-01-14 11:32:59.976348787,-2.8826056,-1.4594123,-0.2790993,14.64973562417609,3.243022621845728,-106.19922637939453,6.146457195281982,-164.71554565429688,19752407.0,40133.0,-0.29230713027975,-0.16606227917185987,0.0322588333294362,-0.008842945511902602,-0.00994093041147217,0.0006854222586231204,19.75240738899447
1649,C,1164780016264881.0,-1.1755531,13.165928601707826,1.4508312042069171,250,1970-01-14 11:33:00.016264881,-0.8383631,-0.3110572,0.40373522,6.600799683330196,0.9811276150337929,-106.24012756347656,6.170183181762695,-164.70620727539062,19792323.0,39916.0,-0.19096666806180002,0.025025811268569557,0.032765326184123304,-0.009645178467300656,-0.002814805826413868,0.0012977521755716205,19.792323482921347
1649,C,1164780055992797.0,-1.3221979,11.536674701707826,2.033819204206917,250,1970-01-14 11:33:00.055992797,0.3717773,-0.17576863,0.1768339,7.8711101937261,0.4476418214114683,-106.28495025634766,6.268736839294434,-164.70712280273438,19832051.0,39728.0,-0.049615325864,0.10135811201904847,0.0692190957127324,-0.004778920727342092,0.0025104902521852442,0.0020258185565591416,19.83205139893107
1649,C,1164780095826183.0,-0.39504328,15.432040701707827,2.566529204206917,250,1970-01-14 11:33:00.095826183,1.3773869,-0.314253,0.0031957934,3.991936088545464,1.412784425663047,-106.21443176269531,6.273287773132324,-164.69200134277344,19871884.0,39833.0,-0.03420143396147,0.14675902033212784,0.09162283907617413,-0.001669336497063973,0.004941624866472203,0.0032034083942232565,19.871884784894064
1649,C,1164780135535714.0,-1.939902,17.325255601707827,2.807146404206917,250,1970-01-14 11:33:00.135535714,1.1323761,-0.71479243,-1.7086842,3.029443662013415,2.170899708684433,-106.15145874023438,6.201200008392334,-164.63351440429688,19911594.0,39710.0,-0.0463603385344,0.2612381181043178,0.10669432920505668,-0.0015995539929054988,0.00810078318365563,0.003937587376223838,19.911594315897673
1649,C,1164780175591183.0,-4.2904096,18.423595671707826,3.7372938042069173,250,1970-01-14 11:33:00.175591183,2.6557043,1.9750003,0.01917476,4.388296947832675,3.3096463837485173,-106.02899932861328,6.174753189086914,-164.72921752929688,19951649.0,40055.0,-0.124777565569,0.32342111887833197,0.13106877627400806,-0.003427464374430844,0.011709262868670018,0.004761800594981969,19.95164978504181
1649,C,1164780215746131.0,1.7621324,13.814757601707825,3.886931374206917,250,1970-01-14 11:33:00.215746131,2.5363946,-0.27164245,1.2431636,5.403156657933774,2.8377002878944286,-105.90260314941406,6.238247394561768,-164.7332763671875,19991804.0,40155.0,-0.05076148548300001,0.25374653784700274,0.15307538101960377,-0.0035243852974965306,0.01158808362790291,0.005704904318062492,19.99180473294109
1649,C,1164780255556912.0,3.7469256,-0.07580179829217215,-2.742613295793083,250,1970-01-14 11:33:00.255556912,1.5126755,-0.4527374,0.6221144,20.64936821979298,1.697110676516523,-105.82552337646484,6.274356365203857,-164.71994018554688,20031615.0,39811.0,0.10966055401899999,-0.11666701525510975,0.022778223509866576,0.0011724154087433475,0.0027286364369529257,0.003500453924961372,20.031615514075384
1649,C,1164780295388579.0,0.99179804,11.732400601707827,-1.6281122957930831,250,1970-01-14 11:33:00.295388579,0.829841,-1.5520903,-0.7030745,9.492101990904102,1.8952398627048082,-105.77477264404297,6.261662006378174,-164.6351776123047,20071447.0,39832.0,0.09437642001424,-0.15820077823117384,-0.08704737088203009,0.004063600374846008,-0.005474266975072824,-0.0012799843390640085,20.071447181049734
1649,C,1164780335366964.0,-3.3794158,12.355491201707826,3.909676304206917,250,1970-01-14 11:33:00.335366964,1.2868395,0.7882957,-0.5571333,7.3753298026490315,1.608652704398196,-105.71375274658203,6.224154472351074,-164.66574096679688,20111425.0,39978.0,-0.04772609140464,0.08970846925847546,0.04560618296418413,0.0009324934185772944,-0.001369092764055268,-0.0008283679052898228,20.111425566021353
1649,C,1164780375237485.0,-8.9124155,-0.7324117982921727,-1.8040862957930832,250,1970-01-14 11:33:00.375237485,1.788579,-0.4889564,-0.81918836,22.45727299096674,2.0271069950797984,-105.62056732177734,6.191319465637207,-164.6309356689453,20151296.0,39871.0,-0.24504380288115,-0.15902390055320725,0.04197598961273398,-0.005836514227534366,-0.0013818377805761256,0.0017459944014071509,20.151296087075025
1649,C,1164780415112589.0,3.551798,4.415720201707826,0.10768410420691676,250,1970-01-14 11:33:00.415112589,-0.69348717,1.1472899,-0.67963874,15.539630519851961,1.5030327296853543,-105.66021728515625,6.143129825592041,-164.6772918701172,20191171.0,39875.0,-0.10687731140625001,-0.31733903870690044,-0.03382201869474919,-0.007016427216105038,-0.009497486101498398,0.00016256979517732174,20.191171190934256
1649,C,1164780455160349.0,-1.5053543,0.7932932017078258,-5.734767295793083,250,1970-01-14 11:33:00.455160349,-1.6149409,2.2647521,-0.23861924,20.855402280197872,2.791787120581617,-105.75231170654297,6.1009907722473145,-164.78367614746094,20231218.0,40047.0,0.04097696542694999,-0.2881579201167067,-0.1126739002867256,-0.0013195555777165138,-0.0121241683550045,-0.0029333610337255603,20.23121895105578
1649,C,1164780494802172.0,-0.748188,11.203880501707825,8.750752004206916,250,1970-01-14 11:33:00.494802172,-0.85966843,0.10972224,0.3888215,8.789041789156368,0.9498689058767702,-105.79641723632812,6.118206977844238,-164.79428100585938,20270860.0,39642.0,-0.04466746192829999,-0.15069562002459838,0.05977983290547058,-7.31493311532583e-05,-0.008698516019140807,-0.0010484133095638557,20.270860773976892
1649,C,1164780534970766.0,3.2267854,2.1855202017078277,13.191996704206918,250,1970-01-14 11:33:00.534970766,1.107875,0.8905611,-0.3206446,19.080010631432,1.4571544351809007,-105.74513244628906,6.090676784515381,-164.8330078125,20311029.0,40169.0,0.0497813894803,-0.12473678157224835,0.44070913643413767,0.00010271067791814425,-0.005531922069871869,0.010052070704701363,20.3110293680802
1649,C,1164780575075402.0,4.7046065,6.939807201707826,-7.721355295793082,250,1970-01-14 11:33:00.575075402,2.320146,-0.76059884,-0.17470337,17.748341800695755,2.447878535429138,-105.62496948242188,6.092547416687012,-164.79380798339844,20351134.0,40105.0,0.15904423607475,-0.21004337224300765,0.10970003684221845,0.00418747585644264,-0.006713179034380421,0.01103707994712413,20.351134004071355
1649,C,1164780614762485.0,-2.2942438,12.192087201707826,6.290111304206917,250,1970-01-14 11:33:00.614762485,0.7861652,0.017044231,-0.09267801,7.285263520459009,0.7917925492444228,-105.58562469482422,6.087854862213135,-164.7933807373047,20390821.0,39687.0,0.04783003223745,-0.00928885340582154,-0.028400890147040073,0.00410510954325314,-0.004352319019662542,0.0016132596174457722,20.390821086941287
1649,C,1164780654646964.0,-3.6739025,11.176347201707827,2.012870104206917,250,1970-01-14 11:33:00.654646964,1.2623384,-0.3291667,0.14487597,8.901210534474208,1.312569235959342,-105.52101135253906,6.099246025085449,-164.77938842773438,20430705.0,39884.0,-0.11901677351460001,0.07515011887291494,0.16557805524658867,-0.0014196059945489256,0.0013134053559447766,0.002735587026415198,20.430705565959215
1649,C,1164780694587954.0,0.6925228,10.816020201707826,1.986533904206917,250,1970-01-14 11:33:00.694587954,0.44421527,-0.5123922,0.48149952,8.487013368082973,0.831693910331345,-105.49685668945312,6.129294395446777,-164.7610321044922,20470646.0,39941.0,-0.05953964329885,0.04777677322991226,0.07987009775002846,-0.003565860921973003,0.0024549114987395104,0.004901722339418942,20.470646556001157
1649,C,1164780734273006.0,2.8550856,9.125713201707827,2.610223304206917,250,1970-01-14 11:33:00.734273006,0.43036684,-0.026631612,0.084155895,10.34550932743488,0.4393257042247302,-105.47530364990234,6.133703708648682,-164.76087951660156,20510331.0,39685.0,0.070393419677,0.006780845057275049,0.0912111549079515,0.00021536605778344137,0.001082559540863514,0.0033946797558659673,20.510331607889384
1649,C,1164780787832693.0,2.3720553,10.469459201707826,0.5033259042069167,250,1970-01-14 11:33:00.787832693,-0.30146983,-0.12783173,-0.08628642,9.62568409244284,0.33863011660429465,-105.48960876464844,6.131253242492676,-164.75352478027344,20563891.0,53560.0,0.139982833302,-0.00012928303652885888,0.08338084780132247,0.00563387605477762,0.00017812883091558297,0.004675573832554357,20.563891294877976
1649,C,1164780813753943.0,-2.4570496,10.303660201707826,3.153707204206917,250,1970-01-14 11:33:00.813753943,-0.7094661,0.15659387,0.15339808,9.028896365104453,0.7425595990346319,-105.5261001586914,6.136549472808838,-164.76316833496094,20589812.0,25921.0,-0.0011015686251499995,0.015204214027968543,0.047396977601597494,0.0017999706308443144,0.00019537864311455403,0.0016949460061345442,20.589812544872984
1649,C,1164780854085661.0,-2.7419596,11.068608201707825,4.119168944206917,250,1970-01-14 11:33:00.854085661,-1.0684602,0.99495703,0.3089267,8.290060839787333,1.492307741889504,-105.58512115478516,6.138089179992676,-164.81553649902344,20630144.0,40332.0,-0.1048432195272,0.03573956462327999,0.14666482040891338,-0.00213648259788029,0.001027332240281078,0.003913450218679963,20.630144262919202
1649,C,1164780893995555.0,-0.022744916,13.994322501707826,4.707544024206917,250,1970-01-14 11:33:00.893995555,-0.6199839,0.6466155,0.1257012,4.889574388487894,0.9045951761870611,-105.61964416503906,6.135446071624756,-164.8485565185547,20670054.0,39910.0,-0.05516967861678,0.10901278218665929,0.17613705728469806,-0.003193057382463121,0.0028885330805923383,0.006441511469376017,20.6700541570317
1649,C,1164780934449515.0,3.5332432,7.294148201707825,3.833061904206917,250,1970-01-14 11:33:00.934449515,-0.4133226,1.2410331,0.28549087,12.133946713752483,1.3388441895230851,-105.64714050292969,6.132469654083252,-164.9125213623047,20710508.0,40454.0,0.071006848790468,0.03415269691798835,0.1727508361140266,0.000320338441103187,0.0028958081458497075,0.007056955419776003,20.710508116986603
1649,C,1164780973978422.0,2.8431146,10.343763201707826,3.302746204206917,250,1970-01-14 11:33:00.973978422,-1.0769824,0.8948221,-0.6295713,9.082431304207502,1.5352386467067132,-105.70469665527344,6.090074062347412,-164.94729614257812,20750037.0,39529.0,0.1260255237381,-0.03877970006719138,0.14103567935874523,0.003894246326840882,-9.145040374242328e-05,0.0062018335850615985,20.750037024030462
1649,C,1164781013667224.0,-0.03172317,15.560729001707827,3.701979304206917,250,1970-01-14 11:33:01.013667224,-0.9193232,-0.5400891,0.10439592,3.4238357719225445,1.0713308966466413,-105.70838165283203,5.963703632354736,-164.91836547851562,20789725.0,39688.0,0.05578925153692,0.1251063432845802,0.13900177298896413,0.003607932400557497,0.0017130659080058638,0.005557063204387945,20.789725825889036
1649,C,1164781053966807.0,1.5041572,9.791900201707826,1.461605104206917,250,1970-01-14 11:33:01.053966807,-1.4519554,0.46978164,0.21837921,9.712551870651513,1.5416091437943904,-105.78364562988281,5.967838287353516,-164.94407653808594,20830025.0,40300.0,0.029669545704500002,0.11591547844882538,0.10404622582953878,0.0017219947644146131,0.004856589707928123,0.004897417176192834,20.830025408882648
1649,C,1164781093136911.0,1.9794062,-0.7324117982921727,-2.0171698957930833,250,1970-01-14 11:33:01.093136911,-2.5683527,-1.0908308,-0.5773733,20.774118837772487,2.8495100198768943,-105.90576934814453,5.954957962036133,-164.88339233398438,20869195.0,39170.0,0.068225589189,-0.20643591961910449,-0.010880736443215069,0.0019172762168891977,-0.0017728428403199165,0.0018246461096311502,20.869195512961596
1649,C,1164781133317276.0,-2.3624785,1.6629872017078249,0.8929822042069171,250,1970-01-14 11:33:01.133317276,-3.823234,-3.0306773,-0.61572284,17.757261486661324,4.917442193985503,-105.98234558105469,6.009597301483154,-164.71820068359375,20909375.0,40180.0,-0.007695922507000001,-0.37506874014537955,-0.022584930723966078,0.0012160410036413801,-0.011682428614668484,-0.0006723252533886693,20.909375878050923
1649,C,1164781173149255.0,-5.7466826,5.469768201707826,1.4939267042069169,250,1970-01-14 11:33:01.173149255,-3.0711575,-2.1731396,-0.18855181,14.90456903265518,3.7669743688998847,-106.12462615966797,6.030584335327148,-164.61058044433594,20949207.0,39832.0,-0.1615020524676,-0.24829764338557392,0.04753767781996992,-0.003369746869594133,-0.012414964894402471,0.0004969589111640124,20.949207857018337
1649,C,1164781213135140.0,-3.4488475,10.745391201707825,0.6595476042069168,250,1970-01-14 11:33:01.213135140,-1.3230585,-1.0588728,0.011717909,9.649860482873878,1.6946482556546718,-106.18541717529297,6.0458784103393555,-164.5596160888672,20989193.0,39986.0,-0.1838462332893,-0.06767311804751092,0.04305441184811778,-0.0069045482771377025,-0.006317203433331665,0.0018112076487340773,20.98919374193065
1649,C,1164781252728734.0,-0.78170687,11.897600201707826,2.032622104206917,250,1970-01-14 11:33:01.252728734,-0.25566345,-0.47191215,0.17576863,7.46003145180757,0.5647649849942912,-106.2846908569336,6.060415744781494,-164.5486297607422,21028787.0,39594.0,-0.08375228486288999,0.060242100813419616,0.053296883717468664,-0.0052976478638589045,-0.00014711184818330545,0.0019074665983119146,21.028787336079404
1649,C,1164781293468995.0,-1.316811,14.837081601707826,2.561142204206917,250,1970-01-14 11:33:01.293468995,0.6625945,-0.05006743,0.02130529,4.689624009545628,0.6648248899966358,-106.2513427734375,6.062139987945557,-164.5465087890625,21069527.0,40740.0,-0.042746809011900005,0.14533346833557675,0.09357497896238978,-0.002576786542229472,0.004187574343565056,0.0029917798427887164,21.069527596933767
1649,C,1164781332576026.0,-1.2605472,15.632555001707827,4.003648704206917,250,1970-01-14 11:33:01.332576026,1.4317155,0.12037488,-0.004261058,3.525011277471191,1.4367733089428352,-106.18036651611328,6.0602545738220215,-164.55226135253906,21108634.0,39107.0,-0.050396373563700005,0.212539439324888,0.1283646390276699,-0.0018212752204919947,0.0069976678999388985,0.004339696320368632,21.108634627889842
1649,C,1164781372573109.0,-3.515885,19.315435801707824,3.9425965642069167,250,1970-01-14 11:33:01.372573109,2.630138,1.6426378,-0.49960902,3.5922493410341523,3.1409383970237625,-106.05646514892578,6.013453960418701,-164.6246337890625,21148631.0,39997.0,-0.0955214793517,0.3069367940821079,0.15891298600037404,-0.0029181381815286266,0.010388745453789807,0.005745121584123336,21.14863171102479
1649,C,1164781412662276.0,-1.3138182,15.147729201707826,2.702400104206917,250,1970-01-14 11:33:01.412662276,2.5853968,0.7669904,0.07456851,4.362383575311048,2.6977974997812604,-105.93119049072266,6.006471157073975,-164.66273498535156,21188720.0,40089.0,-0.09680898579239999,0.29792471091096495,0.13319563572002108,-0.003855168008580912,0.012124146436833648,0.0058551712680744595,21.188720877980813
1649,C,1164781452791859.0,1.38325,11.731203201707826,2.012271404206917,250,1970-01-14 11:33:01.452791859,2.751578,0.5954828,0.6103965,7.707686874643487,2.880688310524429,-105.79750061035156,6.027689456939697,-164.69992065429688,21228850.0,40130.0,0.0013931490670000008,0.14605177867453498,0.09459988381632357,-0.0019145187638951507,0.008908388263533056,0.004570717099496755,21.228850461076945
1649,C,1164781492776807.0,0.53211135,3.6172532017078254,0.007726204206917053,250,1970-01-14 11:33:01.492776807,0.8628642,0.30786142,0.69348717,15.930506934843415,1.1490159861902118,-105.77528381347656,5.85897159576416,-164.7262725830078,21268835.0,39985.0,0.038292861789874996,-0.0849989853547126,0.04038480218621358,0.0007934225720560733,0.0012205979704465488,0.002698681334905724,21.268835409078747
1649,C,1164781532584515.0,-0.97264445,11.355313501707826,-2.542697295793083,250,1970-01-14 11:33:01.532584515,0.9214538,-1.4775218,-0.36005938,10.378357015221864,1.7781424386521079,-105.72139739990234,5.861693859100342,-164.64988708496094,21308643.0,39808.0,-0.008768370822400002,-0.09210443233521491,-0.05045606460693105,0.0005876554682166223,-0.0035250664257003178,-0.0002004584072219606,21.308643117081374
1649,C,1164781572493734.0,-1.5382746,10.389253201707826,1.469386104206917,250,1970-01-14 11:33:01.572493734,0.95447695,-0.07350325,-0.30253512,9.159029337904444,1.0039703554763355,-105.7754898071289,5.943612575531006,-164.65272521972656,21348552.0,39909.0,-0.050104134183225,0.042793756283307595,-0.021417388172506147,-0.0011747714011347441,-0.0009839698852777846,-0.0014341988134872795,21.348552335985005
1649,C,1164781612488838.0,-1.4095862,8.400868201707826,3.829470504206917,250,1970-01-14 11:33:01.612488838,1.0578076,0.6956177,-0.6018744,10.59807232972532,1.401817996940548,-105.7252197265625,5.905206203460693,-164.6781768798828,21388547.0,39995.0,-0.058949846348000004,-0.016195547235195527,0.10596388502675565,-0.002180806975673172,0.0005318976854396211,0.0016907185708428547,21.388547440059483
1649,C,1164781652796859.0,0.92416185,2.2052732017078256,-6.456618295793082,250,1970-01-14 11:33:01.652796859,0.95234644,-0.84368944,-0.4495416,19.995051205123143,1.3493936649765135,-105.67278289794922,5.894981384277344,-164.6312255859375,21428855.0,40308.0,-0.009783242349899999,-0.18126222615556095,-0.05294753659162757,-0.0013852466696174764,-0.003979563964917306,0.0010684914863615712,21.42885546106845
1649,C,1164781692195713.0,1.067814,5.654719201707826,9.135620104206918,250,1970-01-14 11:33:01.692195713,-1.3635385,2.122007,-0.7946873,14.043289122627376,2.6445564569153257,-105.75032043457031,5.827998638153076,-164.7230682373047,21468254.0,39399.0,0.039240928257075,-0.23127227964891342,0.052774996124848365,0.000580301683528394,-0.008126723497095244,-3.398960925316937e-06,21.468254314968362
1649,C,1164781732115401.0,-1.927931,4.148767201707827,2.504878504206917,250,1970-01-14 11:33:01.732115401,-1.2921658,-0.99282646,0.32384038,14.996135625513721,1.661405858327313,-105.61433410644531,5.897306442260742,-164.6594696044922,21508174.0,39920.0,-0.017167935319999997,-0.1955384113878236,0.23234435222394015,0.00044057693902401705,-0.00851914139309327,0.005690982193041818,21.508174003101885
1649,C,1164781772175557.0,0.40043023,7.593424201707826,11.192837704206916,250,1970-01-14 11:33:01.772175557,-1.1845741,0.628506,0.5187838,13.109537231341076,1.4378359508543561,-105.67741394042969,5.913808345794678,-164.69692993164062,21548234.0,40060.0,-0.0305958404231,-0.15739190618958449,0.27436525565452907,-0.0009567084281342928,-0.007069194261075484,0.010149393445805737,21.548234158894047
1649,C,1164781811863838.0,1.252766,4.477370201707826,5.191172804206917,250,1970-01-14 11:33:01.811863838,2.3542345,-0.74675035,-0.2034655,14.472662807531044,2.478195790470483,-105.55569458007812,5.914062023162842,-164.65802001953125,21587922.0,39688.0,0.032806025988120005,-0.14940955585861984,0.3251243045289641,4.385892235225701e-05,-0.006088168212884567,0.01189627083228124,21.58792243991047
1649,C,1164781851810452.0,-0.38486794,11.607303201707825,3.350630204206917,250,1970-01-14 11:33:01.851810452,0.5816344,-0.18961707,-0.066046394,7.3798342952951925,0.6153172634171319,-105.36811065673828,5.841184139251709,-164.63185119628906,21627869.0,39947.0,0.01733496190141,-0.07021337577687752,0.17060970238855372,0.0010014910216115276,-0.0043866386250216065,0.009901543187167043,21.62786905397661
1649,C,1164781891555765.0,-2.6839,12.044843901707825,3.335067904206917,250,1970-01-14 11:33:01.891555765,0.69987875,-0.18429075,0.37390783,7.441827584048916,0.8146167261801306,-105.33270263671875,5.861649990081787,-164.6278839111328,21667614.0,39745.0,-0.06098409088765,0.08052629331262749,0.1328615356594539,-0.0008674173157790545,0.00020494345372919142,0.006030732178109032,21.66761436709203
1649,C,1164781931609515.0,-1.5119383,11.550441201707827,-1.8938682957930828,250,1970-01-14 11:33:01.931609515,0.17576863,-0.5123922,0.49428272,9.86836487522588,0.7333183382430275,-105.32205200195312,5.892258644104004,-164.609619140625,21707668.0,40054.0,-0.0840300536341,0.08001357476610522,0.028862904557703854,-0.002904198272337087,0.0032151319380127803,0.0032388553642290186,21.70766811701469
1649,C,1164781971189463.0,1.6412252,12.127443501707827,0.6733141042069168,250,1970-01-14 11:33:01.971189463,-0.165116,0.7094661,0.2428803,7.952043675448701,0.767851730891648,-105.33415985107422,5.89459228515625,-164.64723205566406,21747248.0,39580.0,0.0025585877510000015,0.08070133828059575,-0.024154767451490224,-0.001612320309826549,0.0031805481291942122,9.317403333196772e-05,21.74724806495942
1649,C,1164782011917328.0,-0.8098387,13.522664801707826,0.1651447042069174,250,1970-01-14 11:33:02.011917328,-0.83516735,1.0727214,0.2790993,6.963072215426625,1.3878516216744758,-105.38164520263672,5.893843173980713,-164.70294189453125,21787975.0,40727.0,0.01692993899275,0.12320138043660461,0.017073955945135114,0.0003968546143463532,0.00415217301259771,-0.00014419010510966228,21.787975929910317
1649,C,1164782050851442.0,-1.7088615,11.901191901707826,3.168670904206917,250,1970-01-14 11:33:02.050851442,-0.41545314,1.8077538,0.28549087,7.315067577410818,1.8767205838386427,-105.30729675292969,6.07391881942749,-164.7835235595703,21826910.0,38935.0,-0.0490327961435,0.11337593037374416,0.06490105535679631,-0.0006249623715822256,0.004605568798200464,0.0015958485325203498,21.826910044066608
1649,C,1164782090731129.0,2.082357,10.140855201707826,2.057761204206917,250,1970-01-14 11:33:02.090731129,-0.7435546,1.7715348,-0.11824436,9.32060986624632,1.9248871965556864,-105.35337829589844,6.044797897338867,-164.8678436279297,21866789.0,39879.0,0.007447313522249999,0.04869319821855635,0.10421244302571762,-0.0008291937307264144,0.0032315773895661756,0.0033720386009981366,21.86678973096423
1649,C,1164782130641754.0,5.783793,10.770530201707826,1.5352268042069168,250,1970-01-14 11:33:02.130641754,-1.2836437,-0.4293016,-0.42184472,10.404044750902806,1.4177425648206126,-105.41477966308594,6.030155658721924,-164.84141540527344,21906700.0,39911.0,0.15697295632500002,0.026169351417861017,0.07169987220190226,0.003281088694936798,0.0014939196092695268,0.0035104182065247686,21.906700355932117
1649,C,1164782170842483.0,2.2523453,8.575645201707825,-0.34362329579308337,250,1970-01-14 11:33:02.170842483,-2.2509038,0.13422333,-0.27483824,11.623123550471368,2.271589724694366,-105.52762603759766,6.015121936798096,-164.84422302246094,21946901.0,40201.0,0.16153039789915002,-0.005102001303643722,0.02395182632087226,0.006402076671582528,0.00042346427097082474,0.001922646966157029,21.94690108508803
1649,C,1164782210478004.0,-2.8329391,-0.7324117982921727,-1.6783902957930827,250,1970-01-14 11:33:02.210478004,-3.1350732,-1.6692694,-0.4133226,20.768848439651748,3.575748854548563,-105.72651672363281,6.06339693069458,-164.76324462890625,21986536.0,39635.0,-0.011505917631499997,-0.23298972202781032,-0.04007125435125884,0.0029731101377041542,-0.00471838272712109,-0.0003194467649921861,21.98653660598211
1649,C,1164782250272275.0,-3.6415808,3.371249201707826,2.352846704206917,250,1970-01-14 11:33:02.250272275,-3.7614489,-2.6141589,-0.40053943,16.080515105180265,4.598125315467723,-105.90062713623047,6.079747676849365,-164.63128662109375,22026330.0,39794.0,-0.12882352245030002,-0.3374762521842388,0.013419659158210065,-0.002792134869307575,-0.011350561488897142,-0.0005302867895560916,22.02633087709546
1649,C,1164782290220713.0,-9.346365,11.491184401707827,1.1395850042069169,250,1970-01-14 11:33:02.290220713,-2.167813,-1.3038837,-0.10439592,12.389853342272374,2.5318815956136924,-106.00218200683594,6.092645168304443,-164.5668182373047,22066279.0,39949.0,-0.2594277233821,-0.09463051998857407,0.06975957715971212,-0.007755124509879274,-0.008631116720765851,0.0016614636558323367,22.06627931492403
1649,C,1164782330149931.0,-1.4263457,9.979246201707825,0.39199540420691736,250,1970-01-14 11:33:02.330149931,-0.4878911,0.07456851,0.19707392,9.922669124434645,0.5314473803557569,-106.24954223632812,6.157153606414795,-164.5968780517578,22106208.0,39929.0,-0.21507178277015002,0.03734221178189175,0.030577237063777993,-0.009473145390576596,-0.001143732429192309,0.0020031743275648684,22.10620853304863
1649,C,1164782370527744.0,-1.5316905,13.152760701707827,1.636381904206917,250,1970-01-14 11:33:02.370527744,0.59761333,0.57417756,0.21198763,6.601085506327951,0.8554299023732217,-106.22296142578125,6.159303665161133,-164.62759399414062,22146586.0,40378.0,-0.0597197928418,0.07130768737305856,0.0409509094795669,-0.005547767120029658,0.002193532814039292,0.00144408175056359,22.146586345974356
1649,C,1164782409970921.0,-2.2457612,15.277614601707826,4.084453024206917,250,1970-01-14 11:33:02.409970921,1.7417074,0.5411543,0.20879184,4.269932791333557,1.8357523460624625,-106.13899230957031,6.1617889404296875,-164.65664672851562,22186029.0,39443.0,-0.07449701370155,0.1741482465463118,0.11282344604071344,-0.002646956750244677,0.004840759200790862,0.003032660952393209,22.186029522912577
1649,C,1164782449918265.0,-1.3730747,16.804516801707827,2.667085704206917,250,1970-01-14 11:33:02.449918265,2.7718182,1.0013486,-0.066046394,3.113729330468217,2.94788691756207,-106.00547790527344,6.144753932952881,-164.70411682128906,22225976.0,39947.0,-0.07228081884865001,0.24931185158612257,0.13485185879197373,-0.00293166703844142,0.008457980270048179,0.004946942701075678,22.225976866902784
1649,C,1164782489845348.0,0.7858967,14.734729501707825,3.3524258042069173,250,1970-01-14 11:33:02.489845348,2.8229508,0.85540736,0.37816888,4.3832406354808535,2.9738501429230193,-105.86932373046875,6.151190757751465,-164.75070190429688,22265903.0,39927.0,-0.011722128003000001,0.23834914357823833,0.12017051799821957,-0.0016769928294729148,0.009735420276963717,0.005091139219051024,22.26590394997038
1649,C,1164782529696390.0,4.1455603,8.075257201707826,3.081282504206917,250,1970-01-14 11:33:02.529696390,2.9134984,-0.02876214,0.78936094,11.664821607814469,3.0186736956977684,-105.72467041015625,6.1895599365234375,-164.76011657714844,22305754.0,39851.0,0.0982617464535,0.06396059005890853,0.12819485489929985,0.0017243451674354377,0.006023672597586969,0.004948804237669523,22.305754991946742
1649,C,1164782569842379.0,0.33279404,8.792320201707826,-0.6596572957930826,250,1970-01-14 11:33:02.569842379,1.4253238,-1.5542208,-0.6306366,11.353456704063857,2.2011026217009144,-105.64437103271484,6.180210590362549,-164.67628479003906,22345900.0,40146.0,0.08989400666681999,-0.05484791878123765,0.048609282808490896,0.003776850432384183,0.00018291865055668747,0.0035489894562084835,22.345900980988517
1649,C,1164782609638161.0,-1.7926586,12.565582501707826,-1.5006207957930826,250,1970-01-14 11:33:02.609638161,1.2474247,-1.3337111,-0.6540724,8.91943307535623,1.93975884709287,-105.57410430908203,6.166656494140625,-164.60284423828125,22385696.0,39796.0,-0.02904838501488,0.03497874799256462,-0.04298521346638151,0.001210706179630302,-0.00039535676035301604,0.00011190773176929254,22.385696762939915
1649,C,1164782649448421.0,-4.920683,1.1206982017078246,-6.005910295793083,250,1970-01-14 11:33:02.649448421,0.41971418,-0.5486112,-0.9555422,21.232101763973933,1.1790653661436046,-105.54888153076172,6.127988815307617,-164.56336975097656,22425507.0,39811.0,-0.1336324212188,-0.11771553945815978,-0.14942125464356842,-0.0032382427884845174,-0.0016469172025184045,-0.0038299469509626084,22.425507022999227
1649,C,1164782689327796.0,-0.1921347,10.176169201707825,8.480805904206917,250,1970-01-14 11:33:02.689327796,-0.79681784,3.3214946,-0.9981528,9.558152057364705,3.5585887736740904,-105.60433197021484,6.0353193283081055,-164.7107696533203,22465386.0,39879.0,-0.10194702852915001,-0.16556031240959368,0.04934818098396764,-0.004697336438249249,-0.005648378848317069,-0.0019954070522356098,22.465386397903785
1649,C,1164782730127275.0,-2.172738,-0.7324117982921727,-4.768107295793082,250,1970-01-14 11:33:02.730127275,-0.75633776,-1.2378373,0.49641323,21.81737131682488,1.5332038623066864,-105.87997436523438,6.070119380950928,-164.68321228027344,22506185.0,40799.0,-0.04824222064365,-0.20718227084902244,0.07573719526233803,-0.003063785588500534,-0.007603762327184139,0.0025516791327365126,22.506185876904055
1649,C,1164782769255661.0,0.9720459,10.581986201707826,8.766912904206917,250,1970-01-14 11:33:02.769255661,-1.2602079,1.3262542,0.27803403,9.365047248279245,1.8505072483181715,-105.95016479492188,6.065304756164551,-164.7511749267578,22545314.0,39129.0,-0.023490940590449996,-0.19076220158437446,0.07823463232581246,-0.0014034234329645492,-0.007785584630923194,0.00301238182084837,22.545314263086766
1649,C,1164782809321233.0,1.7256209,4.079933201707826,8.668152304206917,250,1970-01-14 11:33:02.809321233,0.9214538,0.10865697,0.02876214,15.463113033101497,0.9282837407610889,-105.90469360351562,6.0651984214782715,-164.7568359375,22585379.0,40065.0,0.054041010171000006,-0.09892209955107599,0.3492679437875501,0.0006119942688723681,-0.005803100762495912,0.008563945355990936,22.58537983498536
1649,C,1164782849222900.0,-0.5494693,12.317782601707826,2.280422004206917,250,1970-01-14 11:33:02.849222900,1.0535465,0.3270362,-0.16298546,6.962106302554533,1.1151130722685039,-105.9304428100586,6.014632225036621,-164.7785186767578,22625281.0,39902.0,0.023465400571599997,-0.06388877200605435,0.2184350060271644,0.0015463304007256127,-0.0032482396984363075,0.011326241551753368,22.625281502027065
1649,C,1164782889220609.0,-2.0620062,14.692830801707826,2.591668304206917,250,1970-01-14 11:33:02.889220609,0.5773733,-0.9779128,0.47297743,5.057486740270503,1.2301955215518119,-105.89729309082031,6.050780773162842,-164.73776245117188,22665279.0,39998.0,-0.0522268985245,0.14820485745490955,0.09743693407796826,-0.0005752011975600471,0.0016862373928916551,0.006317122930162547,22.665279211010784
1649,C,1164782929061754.0,-0.5835867,9.310665201707826,-6.396763795793084,250,1970-01-14 11:33:02.929061754,-0.51452273,-0.44847634,0.5028048,14.542664289401243,0.8477483908150393,-105.92144012451172,6.081103801727295,-164.72299194335938,22705120.0,39841.0,-0.05270153336445,0.08771984213604146,-0.07579940474014224,-0.0020902268274438284,0.0046997379782015404,0.0004310304031741632,22.705120356054977
1649,C,1164782968999983.0,-1.5807717,14.018264501707826,3.176452004206917,250,1970-01-14 11:33:02.968999983,-0.38562572,2.4053671,0.24927188,5.291176778135113,2.4488026771968916,-105.9533920288086,6.060064315795898,-164.84274291992188,22745058.0,39938.0,-0.043220072889599996,0.07446299724750712,-0.06430640616618417,-0.0019154585552871245,0.0032386291196500818,-0.002797772937988432,22.745058584958315
1649,C,1164783008872796.0,2.4259248,10.159410201707827,0.18370010420691685,250,1970-01-14 11:33:03.008872796,-0.7350325,1.7012273,0.3153183,10.045165415531514,1.879859764087851,-105.99928283691406,6.051808834075928,-164.92933654785156,22784931.0,39873.0,0.016849394778150006,0.09126281172464612,0.06698967250939239,-0.0005257390241689227,0.0033039925905733324,5.3494939451370585e-05,22.784931397996843
1649,C,1164783049121754.0,5.965752,8.308692201707826,-2.325423295793083,250,1970-01-14 11:33:03.049121754,-2.05383,-0.6860303,-0.43888897,13.944963461492504,2.2094068818137034,-106.09784698486328,6.040202617645264,-164.8900909423828,22825180.0,40249.0,0.16887829976160001,-0.02277887318246172,-0.043101108369075804,0.003737676988765199,0.0013782050211921901,0.0004807454090418011,22.825180355925113
1649,C,1164783089136858.0,1.6927006,8.235070201707826,3.794754604206917,250,1970-01-14 11:33:03.089136858,-3.830691,-1.5275892,-0.5837649,10.80511127589742,4.165153509765234,-106.28076171875,6.033467769622803,-164.8081512451172,22865195.0,40015.0,0.1532264903945,-0.06114767371366137,0.029397646153089783,0.006444511589048172,-0.001679160387024183,-0.0002741720202863403,22.86519545991905
1649,C,1164783128162484.0,-1.8291701,4.345091201707826,6.001610004206917,250,1970-01-14 11:33:03.128162484,-4.9247174,-3.7518613,0.11824436,14.723406965552895,6.192195605193061,-106.50806427001953,6.0920867919921875,-164.62884521484375,22904221.0,39026.0,-0.0026629293535,-0.1369781105351504,0.19115646260397912,0.0029379467665930333,-0.003866028428047064,0.004303672324176685,22.904221086064354
1649,C,1164783168149046.0,-7.855376,13.499321201707826,2.6563117042069173,250,1970-01-14 11:33:03.168149046,-2.6450517,-1.8471686,0.0777643,9.706043193000998,3.227131484593297,-106.63095092773438,6.1221513748168945,-164.54092407226562,22944207.0,39986.0,-0.1936231301773,-0.03509946281851091,0.1730978287163178,-0.003924347188199284,-0.0034403469240597505,0.007282536046366696,22.944207648048177
1649,C,1164783208007171.0,-4.0857053,9.273555201707826,1.0881095042069169,250,1970-01-14 11:33:03.208007171,-0.608266,1.0599382,-0.00958738,10.995113198963962,1.2221081917860235,-106.66679382324219,6.106508731842041,-164.5918731689453,22984065.0,39858.0,-0.2379738092277,0.06323225384367048,0.0746225702624793,-0.008601295405402245,0.0005606583923404051,0.004936819831248447,22.98406577296555
1649,C,1164783247911911.0,-3.180697,13.241944501707827,0.9121358042069172,250,1970-01-14 11:33:03.247911911,1.6128104,2.2040322,-0.330232,7.420120545442283,2.750994092834261,-106.59689331054688,6.059144496917725,-164.69329833984375,23023970.0,39905.0,-0.14498289189075,0.05817150783240079,0.039909894516127024,-0.007640943579065875,0.0024223085548418124,0.002285209003495143,23.02397051290609
1649,C,1164783287813213.0,1.6370354,13.196454701707825,1.252711104206917,250,1970-01-14 11:33:03.287813213,2.5193505,0.23329292,0.33449304,6.766304246996626,2.5521438286626434,-106.47264099121094,6.071859359741211,-164.70933532714844,23063871.0,39901.0,-0.030796820750799998,0.13642948330774396,0.0431897782463102,-0.0035068931570552435,0.003882387073741458,0.0016578800214470037,23.063871815102175
1649,C,1164783327661077.0,-3.4081461,11.972419201707826,1.598673104206917,250,1970-01-14 11:33:03.327661077,3.3928673,1.0173275,0.39947417,8.244964202438297,3.564559351471473,-106.30876922607422,6.076665878295898,-164.76406860351562,23103719.0,39848.0,-0.0352876095868,0.1109542436516534,0.05681097896843723,-0.0013166661900463426,0.004928873375939034,0.001992415086746628,23.10371967894025
1649,C,1164783367596077.0,0.33997664,8.049520201707827,1.603461504206917,250,1970-01-14 11:33:03.367596077,3.572897,0.08628642,0.6317018,11.226888511143384,3.629336782803252,-106.10259246826172,5.911123752593994,-164.77438354492188,23143654.0,39935.0,-0.06126367369255,0.008425075037702014,0.06393862279350322,-0.001927887748880421,0.0023837065459297044,0.002411067673181546,23.143654678948224
1649,C,1164783407611546.0,5.140351,6.1664802017078255,-1.379115295793083,250,1970-01-14 11:33:03.407611546,2.005893,-1.7470337,-0.017044231,14.936076289169991,2.660079694707486,-105.99356842041016,5.93445348739624,-164.68975830078125,23183670.0,40016.0,0.10965039542112,-0.10772306392845966,0.004488718937943989,0.0009681215283452285,-0.0019867541617262794,0.001369094253362796,23.18367014802061
1649,C,1164783447923056.0,0.37948096,14.243319701707826,0.5571954042069169,250,1970-01-14 11:33:03.447923056,1.6628778,-0.84581995,-1.0141318,6.12326020262171,2.123449380918246,-105.90476989746094,5.8973188400268555,-164.63487243652344,23223981.0,40311.0,0.11125497306977998,0.016321921953294127,-0.01656620637486497,0.004452458154618334,-0.001842235717080449,-0.0002434277980348608,23.223981657996774
1649,C,1164783487364201.0,-4.2437224,8.162645201707827,-0.26880429579308274,250,1970-01-14 11:33:03.487364201,1.5297197,0.12037488,-0.737163,12.489636074158076,1.7023342095111949,-105.82785034179688,5.860220909118652,-164.63055419921875,23263422.0,39441.0,-0.07620477331752,0.05533503087780834,0.0056872168534750165,0.0006912074642144429,0.001413110938305756,-0.00021453911285657055,23.263422803021967
1649,C,1164783527209930.0,0.81283146,5.552367201707826,-0.20176629579308258,250,1970-01-14 11:33:03.527209930,-1.0024139,-0.39840892,-0.23116238,14.16938036928541,1.1031769306761454,-105.96959686279297,5.627111434936523,-164.617431640625,23303268.0,39846.0,-0.06835364019762001,-0.11724660788674998,-0.009375177896171172,-0.0028800372724621342,-0.0012334643487491442,-7.347524785363551e-05,23.303268532035872
1649,C,1164783567120660.0,1.4466964,10.004984201707826,6.039917204206917,250,1970-01-14 11:33:03.567120660,-1.2271847,2.489523,-0.5592638,9.11765827214813,2.831339445109599,-106.04192352294922,5.565909385681152,-164.7299041748047,23343179.0,39911.0,0.04509000821023,-0.080673074069139,0.11650322045285229,-0.00046423740812436134,-0.003949586213270743,0.00213779365323985,23.34317926201038
1649,C,1164783607175972.0,-2.8694508,-0.7324117982921727,6.009391204206917,250,1970-01-14 11:33:03.607175972,-0.7520767,-0.05539375,0.43036684,19.87665928979719,0.8682761353357227,-106.0798568725586,5.58735466003418,-164.73321533203125,23383234.0,40055.0,-0.028494213746000002,-0.20683255619059304,0.24131752414950808,0.0003323722736323663,-0.005758019010026783,0.007166254962523772,23.383234573993832
1649,C,1164783646947900.0,-1.009156,14.134383201707827,12.188227204206918,250,1970-01-14 11:33:03.646947900,-0.850081,0.8948221,0.34194988,9.05982781007858,1.280731828932749,-106.12702941894531,5.591372013092041,-164.78115844726562,23423006.0,39772.0,-0.07712997482480001,-0.12325399667167633,0.36187783966971754,-0.0021004426139189293,-0.00656410119021909,0.01199514300490912,23.423006501980126
1649,C,1164783687101806.0,1.508347,8.233274201707825,6.567838704206917,250,1970-01-14 11:33:03.687101806,1.6990968,-0.7765778,-0.020240024,10.943895267476476,1.868264615570985,-106.03839111328125,5.601156234741211,-164.74339294433594,23463160.0,40154.0,0.010022257707000003,0.055566257688376024,0.37656553524322456,-0.0013473216365740706,-0.00135896673556772,0.01482572763812714,23.463160407962278
1649,C,1164783727309045.0,2.8939912,7.190599201707826,4.940978684206917,250,1970-01-14 11:33:03.727309045,-0.111852765,0.5230448,0.20133498,12.04992913132648,0.5715091233014444,-106.0467300415039,5.603603839874268,-164.77145385742188,23503367.0,40207.0,0.0885024060037,-0.08395476103443347,0.23136751036797754,0.0019806905769080576,-0.0005707082770174659,0.012221581982444801,23.503367647062987
1649,C,1164783767161545.0,-0.6063316,14.219976201707826,-2.369117695793083,250,1970-01-14 11:33:03.767161545,-0.721184,0.44741106,0.2066613,8.354272926782444,0.8734940820543742,-106.08516693115234,5.607341289520264,-164.79591369628906,23543220.0,39853.0,0.0455850490194,0.03607843077616197,0.05124818798562827,0.0026718936725178017,-0.0009540076948914471,0.0056315417132431255,23.54322014702484
1649,C,1164783807385295.0,-2.8413188,13.323347201707826,-0.6279342957930831,250,1970-01-14 11:33:03.807385295,-0.7861652,0.6317018,0.6178534,8.101952939261894,1.182728079359681,-106.12830352783203,5.628257751464844,-164.83502197265625,23583443.0,40223.0,-0.0693374210196,0.15975214862779386,-0.06027521112878518,-0.00047769582948202233,0.003938446697682657,-0.00018154697594360025,23.583443897077814
1649,C,1164783846640712.0,2.220622,8.527163201707825,0.35368820420691716,250,1970-01-14 11:33:03.846640712,-2.530003,0.13848437,-0.24394555,11.3857599965951,2.545506341007246,-106.255126953125,5.614614486694336,-164.83828735351562,23622699.0,39256.0,-0.012183036790399995,0.04417301819824237,-0.005382902285653266,-0.0016000835458946797,0.004002643174461439,-0.0012887374500985978,23.622699314029887
1649,C,1164783886515139.0,3.063381,7.856787201707826,5.054104704206917,250,1970-01-14 11:33:03.886515139,-3.9531963,-1.7427727,-0.5251754,11.453467984796701,4.352106027082077,-106.44384002685547,5.613946437835693,-164.74684143066406,23662573.0,39874.0,0.10534716781100001,-0.06411838080710218,0.10781516721504662,0.0018574132801577026,-0.00039765069433283807,0.0020421920658973153,23.662573741050437
1649,C,1164783926405139.0,-0.65660983,9.143071201707826,7.388451304206917,250,1970-01-14 11:33:03.926405139,-4.8064733,-3.9798281,0.39947417,10.167783540007182,6.253063001574485,-106.66585540771484,5.689792633056641,-164.56088256835938,23702463.0,39890.0,0.04800305098565001,-0.05185982414387484,0.24816677958781394,0.0030585701138991844,-0.0023131852977472367,0.007100059928983054,23.702463740948588
1649,C,1164783966251129.0,-7.9667063,13.343698201707827,2.248699004206917,250,1970-01-14 11:33:03.966251129,-1.9398465,-0.294013,0.28336033,9.968337241470845,1.9823574764277403,-106.7618408203125,5.707587718963623,-164.5508270263672,23742309.0,39846.0,-0.17180232725799002,0.05751310682425004,0.1920009455945288,-0.00246645298117383,0.00011263035084111503,0.008769461588807814,23.742309730965644
1649,C,1164784006381181.0,-3.6415808,8.904848201707827,0.8528793042069172,250,1970-01-14 11:33:04.006381181,-0.5336975,1.3070794,-0.3930826,11.24096637203606,1.465538641535381,-106.79420471191406,5.669905185699463,-164.60801696777344,23782439.0,40130.0,-0.2329202806615,0.05314308358453507,0.062233168758323576,-0.008120759127904567,0.002220316460552273,0.005101207504489983,23.782439782982692
1649,C,1164784046274723.0,-4.7016134,15.027420501707827,0.0005437042069171838,250,1970-01-14 11:33:04.046274723,1.1217234,1.9441077,-0.28868666,7.585437348376615,2.262997596766025,-106.74691009521484,5.628037452697754,-164.69735717773438,23822333.0,39894.0,-0.16642169470739998,0.086415763827032,0.017023228748830752,-0.007965674382683448,0.002783780329318528,0.0015809273610752073,23.822333324933425
1649,C,1164784086117014.0,1.1617863,14.334897701707826,3.204583904206917,250,1970-01-14 11:33:04.086117014,2.9134984,0.35792887,0.59867865,4.8777649443729025,2.995830791074132,-106.603759765625,5.651575088500977,-164.72320556640625,23862175.0,39842.0,-0.0705168956591,0.19447514093024315,0.06384934708721199,-0.004720053658691047,0.0055956277136696795,0.0016110625832298075,23.862175615970045
1649,C,1164784126020660.0,-1.6172832,8.341612201707827,0.390798704206917,250,1970-01-14 11:33:04.126020660,3.7593184,-0.113983296,0.7275756,11.440609125838852,3.8307745010716756,-106.5373764038086,5.750441551208496,-164.74002075195312,23902079.0,39904.0,-0.0090880741488,0.06138252559294908,0.07173507380307281,-0.001588278357607221,0.005104872162470732,0.0027051803656029626,23.90207926207222
1649,C,1164784166584670.0,2.918532,3.1719322017078255,-1.708317795793083,250,1970-01-14 11:33:04.166584670,3.5803537,-0.55287224,0.2790993,17.155175995103118,3.6335240125980723,-106.3560562133789,5.771650791168213,-164.71734619140625,23942643.0,40564.0,0.026391928161600003,-0.16400949240992377,-0.02672192221555062,0.0003509567670876097,-0.002081480140981881,0.0009129567404981252,23.942643271991983
1649,C,1164784205883264.0,3.0340521,14.007490801707826,-1.9058392957930828,250,1970-01-14 11:33:04.205883264,1.9803267,-0.8767126,-0.96299905,8.629763234867234,2.3701658153033414,-106.25146484375,5.737743854522705,-164.6614990234375,23981941.0,39298.0,0.11696232498089998,-0.04756191740588589,-0.07101457269257658,0.0028167677199969817,-0.004157166631470844,-0.0019204243884497912,23.98194186598994
1649,C,1164784245734358.0,-1.8986019,14.506681701707826,1.502306504206917,250,1970-01-14 11:33:04.245734358,1.7949706,0.05965481,-0.7414241,5.652531237014661,1.9429842632613643,-106.16094970703125,5.701312065124512,-164.65396118164062,24021792.0,39851.0,0.022624412960099993,0.17761934421680858,-0.008040592638750144,0.0027813355468433946,0.00259145925792104,-0.0015752136968093507,24.021792959887534
1649,C,1164784285501233.0,-2.6491842,3.5149012017078256,-4.493373295793083,250,1970-01-14 11:33:04.285501233,-0.38775626,-1.6202673,-0.18109496,18.019140157419823,1.6758330540826194,-106.17230987548828,5.715171813964844,-164.5732421875,24061559.0,39767.0,-0.09042590491934999,-0.031384456339934905,-0.05947287655050353,-0.001348130965371747,0.002907661393099817,-0.0013424040646245253,24.0615598349832
1649,C,1164784325350920.0,1.3144168,8.217113701707826,7.780501804206917,250,1970-01-14 11:33:04.325350920,-1.2282499,3.5611792,-0.37603834,11.223211550999014,3.7857627955951765,-106.25020599365234,5.647406101226807,-164.73977661132812,24101409.0,39850.0,-0.026595240444999998,-0.15676960304944318,0.06549603553014563,-0.0023316463213846734,-0.0037489696333333575,0.00012001144266936877,24.101409521885216
1649,C,1164784365302900.0,0.8146271,-0.7324117982921727,-4.343136795793083,250,1970-01-14 11:33:04.365302900,0.13848437,-1.4231933,0.43249738,21.545576192843175,1.4938912522690706,-106.23711395263672,5.688072681427002,-164.6772003173828,24141361.0,39952.0,0.0425297809464,-0.24201519477736896,0.06866480340807475,0.0003183083810559665,-0.0079661251213884,0.0026799969186298905,24.1413615019992
1649,C,1164784405484879.0,-0.36511576,12.709833201707827,7.759552704206917,250,1970-01-14 11:33:04.405484879,-1.031176,1.4434333,0.3568636,6.971118561553403,1.8094682267257003,-106.29606628417969,5.684986114501953,-164.75184631347656,24181543.0,40182.0,0.00903113233194,-0.15314522658397614,0.06863921201594234,0.001035910308675129,-0.007939168025570785,0.0027585749738839277,24.18154348107055
1649,C,1164784445390868.0,3.1465795,7.828055201707826,-0.224511595793083,250,1970-01-14 11:33:04.445390868,0.809601,0.479369,0.15339808,12.43958861238741,0.9532992123723204,-106.25809478759766,5.685630798339844,-164.77713012695312,24221449.0,39906.0,0.055498546004219995,0.018713687313352503,0.15034667523618123,0.0012875606718414003,-0.002682312503066753,0.0043694254083416215,24.22144946991466
1649,C,1164784485390400.0,3.654749,8.254224201707826,-0.495655095793083,250,1970-01-14 11:33:04.485390400,-0.29507825,0.27377295,0.25353295,12.31326069646597,0.4757118439880044,-106.27450561523438,5.693965911865234,-164.7938995361328,24261449.0,40000.0,0.13602657,-0.07035441193168698,-0.01440333383172332,0.0038305023200844003,-0.0010328144923666897,0.0027188668280891583,24.26144900196232
1649,C,1164784525849358.0,1.578976,10.966854201707825,-2.251203095793083,250,1970-01-14 11:33:04.525849358,-1.2101405,0.33768883,0.28975195,10.545726404867018,1.2893525383601732,-106.33704376220703,5.703131198883057,-164.8142852783203,24301907.0,40458.0,0.105873023025,-0.007665204977304816,-0.055566194357596556,0.004893386867302726,-0.001578258830451995,-0.0014154135857417517,24.30190796009265
1649,C,1164784565208160.0,-2.8520927,11.884432201707826,0.8714345042069169,250,1970-01-14 11:33:04.565208160,-3.4045851,-1.8588865,0.28442562,8.397932720760434,3.889415978824667,-106.49874877929688,5.7430419921875,-164.7287139892578,24341266.0,39359.0,-0.02505430009765,0.06398369077601827,-0.027153155998119956,0.0015904720578487842,0.0011083196412757814,-0.001627875455325323,24.341266761999577
1649,C,1164784604752743.0,1.5861586,9.450128201707827,7.698500404206917,250,1970-01-14 11:33:04.604752743,-3.9329565,-2.6780748,-0.1917476,10.072075490106894,4.762037232886052,-106.68217468261719,5.772087097167969,-164.59698486328125,24380811.0,39545.0,-0.025030681992249997,0.034296595576535964,0.16944903797661254,-0.0009903053083725477,0.0019432469619058783,0.0028135453264197443,24.380811345065013
1649,C,1164784644765764.0,-0.19572599,13.905737201707826,4.314894934206917,250,1970-01-14 11:33:04.644765764,-3.625095,-2.5672874,0.30999196,4.983975717683572,4.452906171085171,-106.85139465332031,5.823957920074463,-164.47793579101562,24420824.0,40013.0,0.027817690011965004,0.07514172119343522,0.24034599383797636,5.575827594642831e-05,0.0021894776844584283,0.008198564303998573,24.42082436592318
1649,C,1164784684433889.0,-2.7461493,8.950936201707826,-0.41066069579308273,250,1970-01-14 11:33:04.684433889,-1.015197,-0.67218184,0.6018744,11.429353798068526,1.3581996054373398,-106.89976501464844,5.862513065338135,-164.45440673828125,24460492.0,39668.0,-0.058349154501860005,0.06459286028334602,0.0774365818847,-0.0006055610666925775,0.0027714956890104794,0.006302899606883563,24.460492491023615
1649,C,1164784724583420.0,-4.8285065,11.118287801707826,1.384392004206917,250,1970-01-14 11:33:04.724583420,0.4527374,1.1249193,-0.38029942,9.670309266492986,1.2708431192415475,-106.88207244873047,5.827976703643799,-164.50294494628906,24500642.0,40150.0,-0.152061215185,0.009419671868569183,0.019547656016407722,-0.0042239881714637145,0.0014858015829496975,0.0019469585758647373,24.50064202188514
1649,C,1164784764501493.0,-5.719149,12.282468501707825,1.368829704206917,250,1970-01-14 11:33:04.764501493,2.0857878,2.7462518,-0.3834952,9.289167469941809,3.4697951328652126,-106.79056549072266,5.769852161407471,-164.62945556640625,24540560.0,39918.0,-0.2105206561245,0.07585929505987296,0.05495155207823172,-0.00723677156946631,0.0017020829009247768,0.0014869296943609087,24.54056009487249
1649,C,1164784804473993.0,-3.899556,14.403132701707825,1.8482687042069168,250,1970-01-14 11:33:04.804473993,3.483415,1.0727214,-0.04580637,6.518366043977989,3.645135043832469,-106.62152099609375,5.752241134643555,-164.68043518066406,24580532.0,39972.0,-0.19223943813,0.14161282565146516,0.06429692879055889,-0.008049563243770437,0.004346397804536804,0.002383300138643649,24.58053259504959
1649,C,1164784844362952.0,-0.65421563,8.550507201707827,1.192257404206917,250,1970-01-14 11:33:04.844362952,3.8168426,0.37071204,0.86179894,10.878225517596157,3.9304468273671946,-106.46685791015625,5.730716705322266,-164.7140350341797,24620421.0,39889.0,-0.090822698274535,0.06688667105367345,0.06064177296925971,-0.005645532779520248,0.004158418212035637,0.002491839937248702,24.620421553961933
1649,C,1164784885035035.0,8.535329,-0.6779437982921728,-4.189309295793083,250,1970-01-14 11:33:04.885035035,3.0466564,-1.9611518,0.5049353,23.05553996484771,3.6583044241137572,-106.30575561523438,5.7826008796691895,-164.6266326904297,24661093.0,40672.0,0.16027032149232,-0.23848915062813927,-0.060948047267296274,0.001412286865756876,-0.003489708024626337,-6.228394124871543e-06,24.66109363688156
1649,C,1164784924208993.0,2.1110873,16.249062001707827,0.060997004206917005,250,1970-01-14 11:33:04.924208993,1.4317155,1.6618125,-1.4168017,5.605602245055692,2.6112749980075614,-106.24018859863281,5.691315650939941,-164.6868438720703,24700267.0,39174.0,0.2085313560681,-0.07891370774969761,-0.08086125285529823,0.007223718458375947,-0.006216969787046691,-0.0027776187615012587,24.700267595006153
1649,C,1164784964215920.0,-2.0649989,8.159054201707827,4.520197742206917,250,1970-01-14 11:33:04.964215920,2.2807312,0.112918034,-1.2282499,10.918893995245215,2.5928908781331073,-106.125,5.630763053894043,-164.6750946044922,24740274.0,40007.0,0.0009219293093999984,0.09617915247502501,0.09163992910988912,0.004189798794048821,0.00034536932356308664,0.0002156112504587089,24.740274521987885
1649,C,1164785003799046.0,-0.61171854,2.850510201707827,-2.0506886957930828,250,1970-01-14 11:33:05.003799046,-1.5084145,-0.13528858,-0.37071204,17.342208125529893,1.5591807849924357,-106.35502624511719,5.525481700897217,-164.678466796875,24779857.0,39583.0,-0.052976253213760004,-0.1700176061097991,0.048875288292099396,-0.001030233151553141,-0.0014613737551126315,0.002781006925211456,24.7798576480709
1649,C,1164785043720816.0,-3.8989575,1.700695201707827,-2.1991292957930826,250,1970-01-14 11:33:05.043720816,-1.2261194,1.7054884,0.20772657,18.86117244217019,2.1107367892456144,-106.54877471923828,5.6715803146362305,-164.77581787109375,24819779.0,39922.0,-0.09003760443443999,-0.30038898894242017,-0.08483061693005145,-0.00285469961251572,-0.00938978604383735,-0.0007177043149421609,24.81977941794321
1649,C,1164785083678421.0,-0.97743285,9.578217701707826,9.036859004206917,250,1970-01-14 11:33:05.083678421,-0.18216023,0.8490158,0.6625945,10.379729456648677,1.092264459493919,-106.5628662109375,5.691239356994629,-164.82620239257812,24859737.0,39958.0,-0.09742540280265,-0.1662469991026587,0.1366110018444,-0.003745323421589821,-0.00932292040515263,0.0010345203102037697,24.859737023012713
1649,C,1164785123539046.0,2.5647886,5.114827201707826,11.870397104206917,250,1970-01-14 11:33:05.123539046,0.70840085,0.7765778,0.1587244,15.8067434665071,1.063060806769266,-106.53137969970703,5.6877875328063965,-164.86587524414062,24899597.0,39860.0,0.0316360000975,-0.09779561507492608,0.41668161424068767,-0.0013111827959136394,-0.005262369300559265,0.011027121838575798,24.899597648065537
1649,C,1164785163704566.0,4.546589,8.184792201707825,-7.163506295793083,250,1970-01-14 11:33:05.163704566,-1.8077538,2.4405208,-0.36218992,16.492204009894525,3.0586430185290805,-106.63285064697266,5.635606288909912,-164.97821044921875,24939763.0,40166.0,0.1428177963408,-0.12653054352120352,0.09452848810537504,0.003503555593870379,-0.0045051422430860705,0.010266632485415976,24.939763167873025
1649,C,1164785203219671.0,2.190096,10.269543201707826,-3.7876822957930836,250,1970-01-14 11:33:05.203219671,0.24181503,0.21518342,0.18109496,12.176262602082998,0.3709094195544229,-106.62201690673828,5.641202926635742,-164.9911651611328,24979278.0,39515.0,0.13310005388749999,-0.022635468267015294,-0.2163681085982637,0.005451446925885637,-0.0029471474779057334,-0.0024072463018882475,24.97927827294916
1649,C,1164785243728368.0,-1.198298,10.552657201707826,0.5715607042069171,250,1970-01-14 11:33:05.243728368,-3.255448,0.67218184,0.05219796,9.30185282759247,3.3245292499477195,-107.00749206542969,5.679569721221924,-165.0459747314453,25019786.0,40508.0,0.020087876692,0.02475444697078058,-0.06513932671598623,0.003102668345957193,4.291779466606211e-05,-0.0057016515948548185,25.0197869699914
1649,C,1164785283191754.0,-3.5631707,10.344960201707826,5.777153604206917,250,1970-01-14 11:33:05.283191754,-4.186489,-3.9425437,0.10546118,9.332462440974885,5.751648723106939,-107.19812774658203,5.742580890655518,-164.85818481445312,25059250.0,39464.0,-0.0939533003884,0.025604586604197607,0.12527283073362178,-0.0014575125403773646,0.0009936844505014696,0.0011865543012759847,25.059250355931
1649,C,1164785323104462.0,3.2082303,14.308561501707826,11.375994204206917,250,1970-01-14 11:33:05.323104462,-4.3569317,-4.273841,-0.29614353,8.829674638833145,6.110341375251202,-107.3949203491211,5.791977882385254,-164.64869689941406,25099163.0,39913.0,-0.0070833680926000045,0.10085060587421443,0.34231679423861067,-0.0020163382745410764,0.0025236030486954293,0.009331452350758357,25.099163064034656
1649,C,1164785363387691.0,-5.490503,16.505241601707827,1.842881704206917,250,1970-01-14 11:33:05.363387691,-2.0090888,1.0972224,0.78083885,6.561294683778238,2.4186864433027533,-107.50187683105469,5.812772274017334,-164.7130584716797,25139446.0,40283.0,-0.04596839558705001,0.2258628152074464,0.26624798910931724,-0.0010685420981536708,0.006580498370716271,0.012257407583802291,25.139446293003857
1649,C,1164785402760452.0,2.1841104,8.405657201707825,1.246725604206917,250,1970-01-14 11:33:05.402760452,0.060720075,-0.0127831735,-0.19707392,11.19510453233087,0.20661187520784746,-107.49848937988281,5.803569316864014,-164.70948791503906,25178819.0,39373.0,-0.06509129791990001,0.10455300929344219,0.060823554277088944,-0.0021863766562245715,0.006504731129036743,0.0064388939388764855,25.178819054039195
1649,C,1164785443126546.0,-3.0556,11.162580701707826,0.2704897042069172,250,1970-01-14 11:33:05.443126546,1.7353158,0.6530071,-0.45486793,9.333638854857854,1.9090950820015578,-107.4141845703125,5.772078514099121,-164.7339324951172,25219185.0,40366.0,-0.017589274596800007,-0.0006410543953619344,0.030621956569716415,-0.0016687419951045565,0.002097254985707954,0.0018456447454210725,25.219185147900134
1649,C,1164785482518629.0,-6.4086795,11.882037901707825,1.0492039042069172,250,1970-01-14 11:33:05.482518629,3.955327,1.7992316,-0.7488809,10.11057252266624,4.409384155384102,-107.22393035888672,5.7095513343811035,-164.8090362548828,25258577.0,39392.0,-0.18640844903200002,0.06784520801287465,0.025992685311318885,-0.004017939164592846,0.0013236530096505305,0.0011150819864888715,25.258577231084928
1649,C,1164785522585921.0,-2.2110453,6.818900201707827,-0.8074992957930833,250,1970-01-14 11:33:05.522585921,4.8064733,1.1941614,1.0428939,13.377215285096561,5.061208819987579,-107.15599822998047,5.837719917297363,-164.89822387695312,25298644.0,40067.0,-0.1726832567808,-0.018011356505222564,0.004842189272658541,-0.007193863688400729,0.000998346464178548,0.0006177304599781117,25.298644522903487
1649,C,1164785562590816.0,4.64535,-0.7324117982921727,-2.021958295793083,250,1970-01-14 11:33:05.562590816,2.0208068,-3.077549,0.15233281,21.19641567408735,3.6848572910398762,-107.04007720947266,5.89024019241333,-164.75262451171875,25338649.0,40005.0,0.04869217976174999,-0.2703040157106784,-0.05659622547570229,-0.002480131518073547,-0.00576702823274856,-0.0010352101091513825,25.338649417972192
1649,C,1164785602787431.0,0.9271546,16.741668901707826,-0.481888295793083,250,1970-01-14 11:33:05.602787431,0.88203895,-2.5182853,-0.81918836,5.534500242562977,2.79120460208002,-106.98231506347656,5.887909412384033,-164.61953735351562,25378846.0,40197.0,0.11199898370309998,-0.07216854610700052,-0.05032356072099455,0.0032296513488982866,-0.006883184783692619,-0.002148927322874311,25.378846033010632
1649,C,1164785642490087.0,-2.204461,14.887359801707825,2.598252304206917,250,1970-01-14 11:33:05.642490087,1.5606124,0.7978831,-0.67005134,4.956693964668297,1.8764587132508845,-106.90719604492188,5.844232559204102,-164.64808654785156,25418548.0,39702.0,-0.025355809346399992,0.2387882487915041,0.04201194193102302,0.0017199536541548516,0.0033075677179900806,-0.0001649939445997249,25.418548688990995
1649,C,1164785682526650.0,-6.728904,1.9042022017078253,-2.8455638957930827,250,1970-01-14 11:33:05.682526650,-0.004261058,-2.2327943,-0.3920173,19.697626040000763,2.2669508389524156,-106.89588928222656,5.857936382293701,-164.5349884033203,25458585.0,40037.0,-0.17883256725250002,-0.05622071603462383,-0.004950807096167658,-0.0040875450169450805,0.003654728154493608,0.0007419083276915521,25.458585252054036
1649,C,1164785722516858.0,4.419098,7.169052201707826,6.240431704206917,250,1970-01-14 11:33:05.722516858,-0.95234644,2.7249465,-0.8159926,12.633103985002101,2.9996901661501116,-106.95558166503906,5.779239654541016,-164.65406799316406,25498575.0,39990.0,-0.04618457097,-0.21048227820370408,0.06788038182923462,-0.0044992176787588874,-0.005332726369795366,0.0012582768467876736,25.49857545993291
1649,C,1164785762530869.0,-1.6801311,1.4169832017078257,3.565509804206917,250,1970-01-14 11:33:05.762530869,-1.1771172,0.08628642,0.6018744,17.57144534732186,1.3248785009153166,-107.01573944091797,5.806758880615234,-164.6670379638672,25538589.0,40014.0,0.0547985107683,-0.2203563896838631,0.19618747175883558,0.00017233909354458818,-0.008619789228426556,0.00528320554673652,25.538589471019804
1649,C,1164785802296650.0,-0.350152,9.548289201707826,8.749555104206916,250,1970-01-14 11:33:05.802296650,-0.6562029,0.9416938,0.30253512,10.245045117690081,1.1869780780453634,-107.05357360839844,5.807427883148193,-164.7167510986328,25578355.0,39766.0,-0.040368118877300005,-0.17168428880288664,0.24486043557399226,0.00028691948196875295,-0.007794944810352046,0.008769355541498616,25.578355252044275
1649,C,1164785842409723.0,6.4481835,7.459948201707826,-1.302500695793083,250,1970-01-14 11:33:05.842409723,1.6714,0.16724652,-0.77870834,14.356991317419302,1.8514686163253393,-106.96967315673828,5.767750263214111,-164.7133331298828,25618468.0,40113.0,0.12230516877974999,-0.051981686518394,0.14936184674235206,0.0016433704413684883,-0.004485956634031265,0.00790671920527776,25.618468324886635
1649,C,1164785882292483.0,4.296395,14.731138201707825,7.527315104206917,250,1970-01-14 11:33:05.882292483,0.89162636,-0.6689861,-0.3536678,6.679677861125741,1.1694532400215494,-106.92133331298828,5.76058292388916,-164.67599487304688,25658351.0,39883.0,0.21426301215775,0.05167014951371319,0.12413213652538448,0.006711674380165157,-6.212515178842411e-06,0.005453880267333569,25.65835108491592
1649,C,1164785922187379.0,3.5110967,11.011147201707825,-2.309262695793083,250,1970-01-14 11:33:05.922187379,0.111852765,-0.10546118,0.3930826,11.006341156188574,0.4220746757955251,-106.91580963134766,5.780921936035156,-164.67666625976562,25698245.0,39894.0,0.15573603693989999,0.12252016694193194,0.10408449139063074,0.007380371032350824,0.003474574242340753,0.0045522370770407555,25.698245981009677
1649,C,1164785962618837.0,0.17477672,10.970445801707825,2.580894404206917,250,1970-01-14 11:33:05.962618837,-0.57098174,-1.4721955,0.43569317,8.150715877055793,1.638050144537195,-106.862060546875,5.648545265197754,-164.60467529296875,25738677.0,40432.0,0.07451361705872,0.04814628415705076,0.005491306617294069,0.004654727005236102,0.003450192975417035,0.002215184332528208,25.738677439047024
1649,C,1164786002023056.0,5.04159,10.066634201707826,-1.3054932957930827,250,1970-01-14 11:33:06.002023056,-2.1933794,-0.5784386,-0.3089267,11.715371309566633,2.2893099642222348,-106.96855926513672,5.64218282699585,-164.57235717773438,25778081.0,39404.0,0.10277285711744,0.028313350227295135,0.025127952637969367,0.0034928981142187043,0.0015064077166403826,0.0006032606458472003,25.778081658063456
1649,C,1164786041921545.0,1.9740193,11.263137201707826,2.9962883042069173,250,1970-01-14 11:33:06.041921545,-3.1073763,-3.4184337,-0.56672066,8.01887695959205,4.654315066426876,-107.10692596435547,5.665170669555664,-164.39979553222656,25817980.0,39899.0,0.13995789773035,0.03450807461244052,0.03373051502035179,0.004842357193835987,0.0012532560148403064,0.0011741970005496778,25.817980146966875
1649,C,1164786081813367.0,0.15203181,2.6206672017078247,11.402929304206918,250,1970-01-14 11:33:06.081813367,-2.8091023,-4.744688,-0.03089267,17.650814579153842,5.513988965011539,-107.2247085571289,5.7337117195129395,-164.1715545654297,25857871.0,39891.0,0.042405152414504994,-0.11401237927167318,0.2871995948086182,0.0036373222166642054,-0.0015857531085807252,0.006401111505593721,25.857871968997642
1649,C,1164786121372584.0,7.9068513,-0.7324117982921727,2.855629004206917,250,1970-01-14 11:33:06.121372584,-2.0516994,-1.2058793,-2.4639566,21.21388016828804,3.425594465317284,-107.31793212890625,5.633969783782959,-164.07693481445312,25897431.0,39560.0,0.1594047079158,-0.3503383081204384,0.28203428334042563,0.003991799037333432,-0.009184856596615967,0.011259446109788086,25.897431185934693
1649,C,1164786161047690.0,-2.4103625,7.973504201707826,4.677017954206917,250,1970-01-14 11:33:06.161047690,-0.15765914,-2.7771444,-1.7726,11.171406483699236,3.298408431785988,-107.31019592285156,5.590681076049805,-163.917236328125,25937106.0,39675.0,0.10903659657,-0.24516982944724203,0.14942888403753443,0.005325204377737058,-0.011813392678998863,0.008559150582860284,25.937106291996315
1649,C,1164786201507482.0,-3.277662,5.371006201707827,7.2950776042069165,250,1970-01-14 11:33:06.201507482,1.6106799,-1.2825783,-0.8788432,14.172646431388443,2.23867420722202,-107.222412109375,5.567753791809082,-163.84259033203125,25977566.0,40460.0,-0.115068735635,-0.12654855453890138,0.24219549314671188,-0.00012203017328494996,-0.007519862908039682,0.007922561150437303,25.97756608389318
1649,C,1164786241415138.0,-2.4941597,9.887070201707827,5.701736204206917,250,1970-01-14 11:33:06.241415138,2.392584,-3.4855454,-0.72651035,9.4055787202494,4.289673906158169,-107.0854721069336,5.584444522857666,-163.66452026367188,26017473.0,39907.0,-0.11516804429095,-0.08663657248444577,0.2593319243261854,-0.004594029588252443,-0.004253789432060357,0.010007227324545455,26.01747374003753
1649,C,1164786281085294.0,-0.43754035,8.702538201707826,9.683293704206918,250,1970-01-14 11:33:06.281085294,4.0799627,-5.168663,-0.3291667,11.413538883493679,6.593142161166342,-106.856689453125,5.644135475158691,-163.41131591796875,26057143.0,39670.0,-0.05815027049174999,-0.020041117318250548,0.3051620682333884,-0.003437768773714854,-0.0021159519772364814,0.011196738342419145,26.05714389588684
1649,C,1164786321403680.0,-3.2261868,10.955482201707827,11.686642204206917,250,1970-01-14 11:33:06.321403680,1.8887138,-7.5868134,0.42397526,11.150326422029648,7.829861582800942,-106.72657012939453,5.774019241333008,-163.052490234375,26097462.0,40319.0,-0.07385890748042499,0.0011696623226578357,0.43080722294566876,-0.0026612390233300615,-0.0003804390969836513,0.014836772925524204,26.0974622820504
1649,C,1164786360592273.0,-7.957728,9.757184201707826,0.8031995042069169,250,1970-01-14 11:33:06.360592273,-0.4079963,-10.418286,0.12250541,12.66936564434378,10.426991499665135,-106.6960220336914,5.929676055908203,-162.55274963378906,26136650.0,39188.0,-0.2191376265912,0.021801585508526285,0.2447259584346607,-0.005740974088599421,0.0004500986300042217,0.013236397155966176,26.13665087497793
1649,C,1164786401237950.0,-11.054029,12.220817801707826,-5.794621295793083,250,1970-01-14 11:33:06.401237950,-0.8245147,0.027696876,-0.8032094,16.531847338550104,1.1514065084515588,-106.7361831665039,5.890813827514648,-162.54246520996094,26177296.0,40646.0,-0.386375937511,0.04832813471541626,-0.10144066507040567,-0.012305852163249012,0.0014252463041111846,0.002911987017041755,26.17729655187577
1649,C,1164786440458888.0,-16.831837,8.950337201707827,9.516298304206916,250,1970-01-14 11:33:06.440458888,0.49747851,1.5137408,0.09374327,20.167162860333743,1.5961465716427028,-106.71891021728516,5.873517990112305,-162.61668395996094,26216517.0,39221.0,-0.546855775193,0.03081113519448262,0.07298394697349948,-0.01830114050198179,0.001551960652568072,-0.0005580504702393787,26.216517490101978
1649,C,1164786480508471.0,-0.50637364,7.710740201707827,11.859024704206917,250,1970-01-14 11:33:06.480508471,1.0173275,-0.8149273,0.5635249,13.365348065918516,1.4200781877986683,-106.66485595703125,5.912210464477539,-162.58558654785156,26256567.0,40050.0,-0.347197668066,-0.05885192499660157,0.428040843243487,-0.017903420201261476,-0.000561516815787432,0.010033021424095156,26.25656707305461
1649,C,1164786520724669.0,19.612701,-0.7324117982921727,-5.868243295793083,250,1970-01-14 11:33:06.520724669,-1.6916399,2.634399,-2.8314729,29.624655782536987,4.221248917785757,-106.75814819335938,5.738738059997559,-162.67147827148438,26296783.0,40216.0,0.38419003055488005,-0.2537965724641181,0.12046263256038538,0.0007438424249264,-0.006286735986940151,0.011029307891464266,26.296783271012828
1649,C,1164786560626388.0,3.3752258,17.212129601707826,10.800787504206916,250,1970-01-14 11:33:06.560626388,0.24927188,0.69348717,-3.053048,7.307870896956982,3.140726510764244,-106.74461364746094,5.582571983337402,-162.66062927246094,26336684.0,39901.0,0.4586206336234,-0.06225118996295604,0.09840672322996018,0.016814494155688774,-0.006305310884301342,0.0043665530826952886,26.336684989975765
1649,C,1164786600518732.0,1.6573862,6.364001201707826,7.346552904206916,250,1970-01-14 11:33:06.600518732,0.2790993,-3.4216294,0.5475459,12.934831056350417,3.4763847144428164,-106.71531677246094,5.658039093017578,-162.50392150878906,26376577.0,39893.0,0.100382995258,0.07930989307033026,0.3619759254564265,0.011150165883482844,0.0003402614215312399,0.00918302250202301,26.376577334012836
1649,C,1164786640454565.0,-3.8684313,9.187364201707826,3.965940064206917,250,1970-01-14 11:33:06.640454565,2.3031018,-0.87990844,-0.26631612,10.452555319216842,2.4798066536966803,-106.59561157226562,5.657891273498535,-162.4577178955078,26416513.0,39936.0,-0.0441501485568,-0.08084313562459629,0.22588785959328742,0.0011228574829295615,-3.061578732358401e-05,0.011738464059872687,26.41651316708885
1649,C,1164786680593732.0,1.9057846,9.457310201707827,2.593463904206917,250,1970-01-14 11:33:06.680593732,0.757403,-2.6525085,0.31318775,9.808941338926866,2.776246965551032,-106.54551696777344,5.710724353790283,-162.33445739746094,26456652.0,40139.0,-0.03938933794565,-0.01917290706064958,0.13164395794408146,-0.0016765957243609201,-0.002007271968671542,0.007175484812066224,26.456652333959937
1649,C,1164786720123940.0,1.0486604,10.300069201707826,3.758243004206917,250,1970-01-14 11:33:06.720123940,0.7456851,-1.8951055,0.2396845,8.6797161030572,2.0505901062944076,-106.49946594238281,5.7491607666015625,-162.24658203125,26496182.0,39530.0,0.058394605425,0.0031106039085103563,0.12554148704479945,0.00037563911172935286,-0.0003174714218020317,0.005083270320205231,26.496182542061433
1649,C,1164786760127638.0,2.0380642,10.021145201707826,5.413234954206917,250,1970-01-14 11:33:06.760127638,0.41864893,-1.0855045,0.14168017,9.133212242045577,1.1720325151981168,-106.47348022460938,5.77135705947876,-162.19630432128906,26536186.0,40004.0,0.0617406654492,0.014425730497119848,0.1834479021241935,0.0024029456880257484,0.0003507617607814153,0.006180405762158198,26.53618623991497
1649,C,1164786799562325.0,1.0785879,10.273134201707826,6.001610004206917,250,1970-01-14 11:33:06.799562325,0.56885123,-1.6255935,0.36112466,8.797740378977485,1.7597036594764692,-106.43766784667969,5.811699390411377,-162.1230926513672,26575620.0,39434.0,0.061451029455699996,0.01368910699714639,0.22506649804504555,0.002428970648439913,0.0005543402508744474,0.008054678428136886,26.5756209269166
1649,C,1164786839676857.0,2.7341783,10.484423201707827,5.494637854206917,250,1970-01-14 11:33:06.839676857,0.716923,-1.1132014,0.38136467,8.882137226718832,1.3779096328914928,-106.39691162109375,5.845720291137695,-162.07484436035156,26615735.0,40115.0,0.0764745580565,0.023217707619009435,0.23058599142013547,0.002766442471525951,0.0007402584341635454,0.009139249807447868,26.615735458908603
1649,C,1164786879667065.0,1.4718355,10.513752201707826,6.652234304206917,250,1970-01-14 11:33:06.879667065,0.8202536,-1.0173275,0.5336975,8.754834673644854,1.4115963417618578,-106.35165405273438,5.885663032531738,-162.03334045410156,26655725.0,39990.0,0.084099245931,0.027956517191295945,0.24287670880748463,0.003210673210730062,0.0010232286250820562,0.009466886691051264,26.655725667020306
1649,C,1164786919476336.0,1.0420763,8.868337201707826,4.065299434206917,250,1970-01-14 11:33:06.919476336,0.68176925,-1.2112057,0.6956177,10.077704427456533,1.5542562666791286,-106.31256103515625,5.936069965362549,-161.98475646972656,26695534.0,39809.0,0.05003815742309999,-0.00433740146971319,0.21332715029625815,0.002669937945061683,0.00047012668888024394,0.009080509713530447,26.695534938015044
1649,C,1164786959248315.0,3.0430303,7.908860201707826,5.824439104206917,250,1970-01-14 11:33:06.959248315,0.5592638,-0.4079963,0.68816084,11.458686692841273,0.9761159360002456,-106.28356170654297,5.974819183349609,-161.9747772216797,26735306.0,39772.0,0.08123642984759999,-0.05613425243567637,0.19666734057489751,0.00261052644246514,-0.0012025393095625768,0.008153150445463803,26.73530691699125
1649,C,1164786999333836.0,3.1771057,4.549795201707827,7.6081195042069165,250,1970-01-14 11:33:06.999333836,0.28229508,-0.3323625,0.56459016,14.996752623601282,0.7133844632225191,-106.26861572265625,6.006575107574463,-161.96670532226562,26775392.0,40086.0,0.12467018584799999,-0.1431339697493401,0.26922877218843844,0.00412698629838691,-0.003993932977254285,0.009337955788115542,26.775392438052222
1649,C,1164787039719982.0,1.9458874,3.5729612017078267,4.599804947206917,250,1970-01-14 11:33:07.039719982,-0.38029942,-0.60080916,0.45699844,15.431233968126524,0.8452495902126634,-106.28524780273438,6.036928176879883,-161.9441375732422,26815778.0,40386.0,0.10344859966829999,-0.23175997994582773,0.24651461844739955,0.004606402635930646,-0.007570233526194524,0.010414406287109476,26.815778583986685
1649,C,1164787079067430.0,4.2102036,3.706438201707826,1.357457404206917,250,1970-01-14 11:33:07.079067430,-1.1526161,-0.96939063,0.24501082,16.06557724931214,1.525867743098359,-106.33831024169922,6.062297821044922,-161.90081787109375,26855126.0,39348.0,0.121114934334,-0.2423954961372005,0.11720317950171577,0.004418062967961251,-0.009328534836457498,0.007155783956850894,26.855126031907275
1649,C,1164787119215555.0,4.252701,6.092259201707826,-0.2287012957930834,250,1970-01-14 11:33:07.119215555,-2.1774006,-1.0887003,-0.4101268,14.295163632679795,2.4687133710049634,-106.4410171508789,6.057985305786133,-161.8424835205078,26895274.0,40148.0,0.1698843469404,-0.19675134832383426,0.022658650120299297,0.005841519572302306,-0.008815433755710813,0.002807586367832331,26.895274156937376
1649,C,1164787159079357.0,4.572925,5.912096201707826,2.635960904206917,250,1970-01-14 11:33:07.159079357,-2.7089674,-1.7491642,-1.031176,13.882264648762321,3.3854694971008676,-106.56604766845703,6.033395290374756,-161.74343872070312,26935137.0,39863.0,0.17590796461900002,-0.15139259027682098,0.04798029488510033,0.006892159457846182,-0.006939030912218961,0.001407940132375123,26.935137958964333
