Subject-id_accel,Activity_accel,Timestamp_accel,accel_x,accel_y,accel_z,Segment_accel,DateTime,gyro_x,gyro_y,gyro_z,accel_magnitude,gyro_magnitude,Roll,Pitch,Yaw,Time_Difference,Difference_Microseconds,vx,vy,vz,dx,dy,dz,Time_diff
1601,C,258041945154977.0,3.001918014962306,8.844737375850112,2.788662610694767,8,1970-01-03 23:40:41.945154977,0.18056233,1.3283848,-0.09960223,10.655549184563311,1.344295181910224,-105.73234558105469,-10.1141996383667,168.32015991210938,15035779.0,40005.0,0.11667956772156704,-0.024626482891616303,0.10927369993309416,0.004591722025069628,-0.000625126664295494,0.004550157640512953,15.035779836995061
1601,C,258041984922685.0,2.387805214962306,8.763334375850112,4.306586490694767,8,1970-01-03 23:40:41.984922685,-0.3885552,0.33156356,-0.15153387,10.585570551174053,0.5327964447367217,-105.74929809570312,-10.12598991394043,168.30604553222656,15075547.0,39768.0,0.10716925670382098,-0.03960750128919276,0.1410819331320295,0.004451010024874415,-0.0012772285414512075,0.004978071407866919,15.07554754501325
1601,C,258042025313935.0,1.2092595149623058,9.23140037585011,5.182864310694767,8,1970-01-03 23:40:42.025313935,-0.8516789,-0.5470133,0.03488741,10.100506513904172,1.0128166815661204,-105.7964859008789,-10.116873741149902,168.33229064941406,15115938.0,40391.0,0.07264452075319251,-0.032419134322038176,0.19164420365946236,0.003631429142633116,-0.0014546139194866145,0.006719570695572575,15.115938795002876
1601,C,258042064855602.0,1.5288854649623058,9.105704375850111,4.723776110694767,8,1970-01-03 23:40:42.064855602,-0.7526093,-0.3304983,0.23009712,10.190009648797275,0.8535775122281951,-105.8364028930664,-10.101302146911621,168.34527587890625,15155480.0,39542.0,0.0541358643980895,-0.024968701954134937,0.1958641877712925,0.002506574994825997,-0.0011346149110162186,0.007661428406977455,15.155480462010019
1601,C,258042104621956.0,3.2365498149623058,9.630633375850111,2.783874210694767,8,1970-01-03 23:40:42.104621956,-0.063116916,1.3052152,0.27830034,9.940572232347177,1.3360469836949995,-105.60169982910156,-10.18249225616455,168.2378387451172,15195246.0,39766.0,0.09475114967074105,-0.0171721964829445,0.1492746113401881,0.002960320500730558,-0.0008378874836244505,0.006862394742733569,15.1952468160016
1601,C,258042144523258.0,4.733524514962306,7.921772375850111,0.5105797106947669,8,1970-01-03 23:40:42.144523258,-0.34887412,3.972371,-0.26871297,12.403645188230179,3.9967050395911126,-105.61152648925781,-10.432900428771973,168.05178833007812,15235148.0,39902.0,0.15901095295632592,-0.04085155284782889,0.06572765018564258,0.0050628077095126135,-0.00115763182289826,0.004289510119701848,15.235148118023062
1601,C,258042184447164.0,4.387562214962306,9.134434875850111,3.293839180694767,8,1970-01-03 23:40:42.184447164,-1.3731259,3.3814156,-0.7233146,10.687112850631609,3.720568532865284,-105.65188598632812,-10.513286590576172,167.8961181640625,15275072.0,39924.0,0.1820751333027551,-0.0507791908415602,0.07594380990991788,0.006808760453903775,-0.001829132905527585,0.0028280456864275784,15.27507202400011
1601,C,258042224337946.0,3.023465814962306,9.325971375850111,3.276481210694767,8,1970-01-03 23:40:42.224337946,-1.4682007,0.11744541,-0.58935755,10.148491339687853,1.5864265005201346,-105.72573852539062,-10.543245315551758,167.89846801757812,15314962.0,39890.0,0.14781295405684639,-0.022729197309839095,0.13104504020626426,0.006579617902387253,-0.001466124801679659,0.004128392615567252,15.314962806005497
1601,C,258042264241696.0,2.2357735149623057,8.94349737585011,4.335915460694767,8,1970-01-03 23:40:42.264241696,-1.6002935,0.07536746,-0.19148129,10.388992900681261,1.6134697470325143,-105.80555725097656,-10.553483963012695,167.89743041992188,15354866.0,39904.0,0.10493234311065584,-0.026546759466077204,0.151882538387564,0.005042774169086005,-0.000983153889593082,0.005644971048104061,15.354866556008346
1601,C,258042304182477.0,2.5978965149623057,9.691685875850112,4.629205210694767,8,1970-01-03 23:40:42.304182477,-1.3853765,0.84395576,0.3683152,9.718039557491704,1.6634859356605538,-105.86631774902344,-10.547280311584473,167.85101318359375,15394807.0,39941.0,0.09653080733260945,-0.019267872871920725,0.1790379423679847,0.004023319845927229,-0.0009149411151059876,0.006608647460928685,15.394807336997474
1601,C,258042344039196.0,3.180884614962306,9.935296375850111,5.497103310694767,8,1970-01-03 23:40:42.344039196,-0.76113147,0.43755737,0.91639376,9.698564935209435,1.2690764713099898,-105.89813995361328,-10.509196281433105,167.81686401367188,15434664.0,39857.0,0.11516243974770261,0.0005377158030078708,0.20180213936851132,0.004218728874439998,-0.0003732639351478298,0.00758957156888576,15.434664055996109
1601,C,258042384452112.0,4.027833414962306,10.301608375850112,4.848873160694767,8,1970-01-03 23:40:42.384452112,-0.36112466,-1.2247878,0.98856544,9.495269608670025,1.614861543368765,-105.92456817626953,-10.44487190246582,167.8629608154297,15475076.0,40412.0,0.14565935651265668,0.012869297412854676,0.2090508005808969,0.005270165215236819,0.0002709021090397186,0.008301694504617742,15.475076972012175
1601,C,258042423931487.0,4.336685614962306,10.669717375850112,3.262714510694767,8,1970-01-03 23:40:42.423931487,0.18216023,-0.39388153,0.96140116,9.230980103515376,1.0548067119231557,-105.9165267944336,-10.393245697021484,167.86883544921875,15514556.0,39480.0,0.16511560565071184,0.027069970338562396,0.1601227406332294,0.006134697753104895,0.000788401145412973,0.007287485703566853,15.51455634701415
1601,C,258042463770081.0,3.8297132149623057,9.688094375850111,2.825174210694767,8,1970-01-03 23:40:42.463770081,0.5291701,1.535845,0.76912093,10.03184192306769,1.7973279788961931,-105.87459564208984,-10.377290725708008,167.7830352783203,15554394.0,39838.0,0.16266649829326835,0.015094852282116728,0.12126465544135813,0.006529091728460142,0.0008398811017813075,0.005604955542409708,15.554394941020291
1601,C,258042503679769.0,3.437662714962306,8.676544375850112,1.131875110694767,8,1970-01-03 23:40:42.503679769,-0.056459017,1.7339842,0.43915528,11.201121529702506,1.789621799823115,-105.8321762084961,-10.435906410217285,167.68692016601562,15594304.0,39910.0,0.14502048668164563,-0.024651633709822075,0.07896291920832815,0.0061398937851744086,-0.0001907055733898602,0.0039955412521344895,15.594304629019462
1601,C,258042543602946.0,4.775423014962306,8.742385375850112,0.8391839106947669,8,1970-01-03 23:40:42.543602946,-0.7779094,0.989897,0.44394895,11.581204167335638,1.334964334888188,-105.8719253540039,-10.643218040466309,167.63436889648438,15634227.0,39923.0,0.16394551079789013,-0.043537433761436005,0.03934529465546718,0.006167424758687754,-0.0013611560703275182,0.0023616094110421506,15.634227806003764
1601,C,258042583461227.0,5.415273314962306,9.492368875850111,1.6202923106947669,8,1970-01-03 23:40:42.583461227,-1.077515,0.7821704,0.27084348,10.954279353385987,1.3587440158174278,-105.91803741455078,-10.64090347290039,167.59231567382812,15674086.0,39859.0,0.20309548250723256,-0.027208665140740416,0.049016131354182715,0.007314943476074442,-0.001409934378070925,0.0017609990396593176,15.67408608700498
1601,C,258042623547060.0,3.8536552149623056,10.065181375850111,2.528891810694767,8,1970-01-03 23:40:42.623547060,-1.0407634,0.3898868,-0.052464273,9.717796449570683,1.1126332151860372,-105.7877197265625,-10.812777519226074,167.54074096679688,15714171.0,40085.0,0.18577250006101403,-0.0008507990802983205,0.08316002275294974,0.0077938865406240836,-0.0005623818116501689,0.0026491405686922026,15.714171920000808
1601,C,258042663318258.0,1.5785651549623059,10.698447375850112,2.673740910694767,8,1970-01-03 23:40:42.663318258,-0.7171893,0.2479403,0.056991648,8.65888378714857,0.7609749879860284,-105.82115936279297,-10.813413619995117,167.52780151367188,15753943.0,39772.0,0.10802513427632082,0.0231399213563106,0.10345955429755228,0.005842459756432241,0.0004432414855807802,0.0037111169092262837,15.753943118004827
1601,C,258042703356123.0,-0.5480845850376942,10.883998375850112,2.015335510694767,8,1970-01-03 23:40:42.703356123,-0.32463935,0.23808661,0.454069,8.713153062456277,0.6068398455858964,-105.83401489257812,-10.794816017150879,167.50982666015625,15793980.0,40037.0,0.020628675289035843,0.0396855902804109,0.0938682763415864,0.0025754562867840924,0.0012576725046997096,0.003950207177649598,15.793980982998619
1601,C,258042743742737.0,-0.09917168503769414,10.929488375850111,2.282289010694767,8,1970-01-03 23:40:42.743742737,0.010120012,0.5933523,0.7880294,8.546387959805973,0.9864885715620482,-105.82603454589844,-10.765005111694336,167.46983337402344,15834367.0,40387.0,-0.013070369489767353,0.04469804472045843,0.08678408077267953,0.00015262864815752825,0.0017040009333900547,0.0036480033733869285,15.834367597009987
1601,C,258042783032581.0,1.6845085149623058,11.213200375850112,2.400203410694767,8,1970-01-03 23:40:42.783032581,0.14141385,0.7238472,0.63862604,8.205148135805242,0.9756002587564971,-105.67918395996094,-10.597550392150879,167.40118408203125,15873657.0,39290.0,0.031143942023868994,0.04995112052715086,0.09198756361819739,0.0003550553324324267,0.0018593828512892844,0.003511968954058777,15.873657440999523
1601,C,258042822903883.0,2.730774714962306,11.241931375850111,1.715461910694767,8,1970-01-03 23:40:42.822903883,0.21145499,0.84422207,0.38456047,8.48195463267602,0.9514782558511813,-105.65093231201172,-10.621440887451172,167.3528594970703,15913528.0,39871.0,0.08802087883016209,0.05691847903601977,0.08204784601456104,0.0023756102861355365,0.002130498902091588,0.0034694829087338554,15.913528742996277
1601,C,258042862792737.0,3.1802861149623056,10.670316375850112,1.647825510694767,8,1970-01-03 23:40:42.862792737,0.3334278,0.9076053,0.21411815,9.137364443331524,0.9903373468472005,-105.60348510742188,-10.704408645629883,167.30137634277344,15953417.0,39889.0,0.11789315272243142,0.046116625283785066,0.06707908597590356,0.004106852402300702,0.0020549836381063475,0.0029742620950838215,15.953417597018415
1601,C,258042902888831.0,3.041422314962306,10.193270875850112,1.572408010694767,8,1970-01-03 23:40:42.902888831,0.27696875,0.9155948,0.03701794,9.573995599844045,0.9572856700825758,-105.55282592773438,-10.756549835205078,167.25070190429688,15993513.0,40096.0,0.1247328106031286,0.025332397222086064,0.06455924163681738,0.004864165312750827,0.0014324100031977043,0.002639085191979829,15.993513691006228
1601,C,258042942594612.0,3.0055093149623056,10.241753375850111,1.4377342106947668,8,1970-01-03 23:40:42.942594612,0.24873926,1.0468886,-0.012250541,9.554417292675193,1.076102707008072,-105.52543640136719,-10.806577682495117,167.19851684570312,16033218.999999998,39705.99999999814,0.12004973364888767,0.016577736469003734,0.05976035352124361,0.004859667851035051,0.0008320418841691668,0.002468116922672869,16.033219472010387
1601,C,258042982520706.0,2.739154414962306,10.847486375850112,1.7292283106947668,8,1970-01-03 23:40:42.982520706,0.28149614,0.5182512,-0.00958738,8.853512764339508,0.5898443023303727,-105.48197937011719,-10.828575134277344,167.16859436035156,16073145.0,39926.00000000186,0.11468072204049037,0.029729693163192912,0.0632220728145022,0.004685924086927273,0.0009244352177475848,0.0024550981769406086,16.07314556601341
1601,C,258043022566019.0,2.544625614962306,11.021065875850113,2.981994410694767,8,1970-01-03 23:40:43.022566019,0.14567491,-0.09933591,-0.029028457,8.424157785341244,0.17869374285306425,-105.24995422363281,-10.826886177062988,167.13145446777344,16113190.0,40045.0,0.10579448564916555,0.045422087459667713,0.09433045693902194,0.004414464845966136,0.0015047265275212269,0.0031545955269899366,16.113190878997557
1601,C,258043062303623.0,2.3806226149623058,11.706406375850111,3.731978090694767,8,1970-01-03 23:40:43.062303623,0.3901531,0.0,-0.09054748,7.6713367479493035,0.40052251818588225,-105.23067474365234,-10.831254959106445,167.13267517089844,16152928.0,39738.0,0.09785975708037212,0.06213974616903172,0.13339991963010867,0.004046406148793184,0.0021371460723686292,0.004524774852052056,16.152928483003052
1601,C,258043102858519.0,2.583531314962306,12.497091375850111,3.426118810694767,8,1970-01-03 23:40:43.102858519,0.37310886,0.18668759,-0.21438447,6.953686552028348,0.4690662838530271,-105.2108383178711,-10.844049453735352,167.12637329101562,16193483.0,40555.0,0.10066063131404632,0.09334742566010124,0.1451483099179263,0.00402549717566782,0.003152891126765244,0.005648261724660279,16.1934833790001
1601,C,258043142659404.0,2.933683314962306,11.997900675850111,1.4604793106947667,8,1970-01-03 23:40:43.142659404,0.6740461,1.2117383,-0.23355924,7.895545471855313,1.4061286467466187,-105.2513198852539,-10.956679344177246,167.08595275878906,16233284.000000002,39801.00000000186,0.10979532974281986,0.09741278932486482,0.09724574591471698,0.004188178853012361,0.003796223658308494,0.004823762908097743,16.23328426401713
1601,C,258043182377320.0,3.9434380149623056,10.643979375850112,-1.105506389305233,8,1970-01-03 23:40:43.182377320,0.50786483,1.8849854,-0.3502057,10.38724287153623,1.9833659965010437,-105.20918273925781,-10.998334884643555,166.9980010986328,16273002.000000002,39718.0,0.13657275249097287,0.06040869594671471,0.007049407245874749,0.00489262374508089,0.003134176876008298,0.0020711974466161914,16.273002180008916
1601,C,258043222263882.0,4.970550414962306,6.695941375850111,-2.1427944893052335,8,1970-01-03 23:40:43.222263882,-0.30040458,1.0247844,-0.2615224,14.49216335528458,1.0994634800074516,-105.21524047851562,-11.024398803710938,166.9511260986328,16312888.000000002,39886.0,0.1777716712579865,-0.045072760448842474,-0.06478086442212853,0.0062689708428254965,0.000305844561634066,-0.001151338450466029,16.312888742017094
1601,C,258043262116904.0,4.904709614962306,1.1976553758501112,0.8762939106947667,8,1970-01-03 23:40:43.262116904,-1.1624699,-1.1680624,0.027164243,18.717676071041247,1.6481638070281526,-105.14301300048828,-11.035229682922363,166.98117065429688,16352741.000000002,39853.0,0.19677936898629275,-0.23326764432724553,-0.025236923779681467,0.00746349130342763,-0.005546350075770718,-0.001793739456603367,16.352741764014354
1601,C,258043302016435.0,0.7004916749623058,4.635132375850112,5.715574210694767,8,1970-01-03 23:40:43.302016435,-1.7528926,-0.5041364,-0.12037488,14.7278413038196,1.827915777237763,-105.23570251464844,-11.034433364868164,167.00755310058594,16392641.000000002,39900.0,0.11182376573399601,-0.27465588435358057,0.13150776902172118,0.006156632537669761,-0.01013307439718248,0.0021201033625786922,16.392641295009525
1601,C,258043341988831.0,-0.17159628503769409,6.343993375850111,0.7356346106947669,8,1970-01-03 23:40:43.341988831,-0.3685815,-1.0314423,0.4889564,13.339686309716443,1.1995015220801097,-105.26255798339844,-10.997282028198242,167.05169677734375,16432613.0,39971.99999999814,0.010570503263032797,-0.17229679272651133,0.1289338595042852,0.0024461718601745037,-0.0089327962041223,0.00520518638772052,16.432613690994913
1601,C,258043381671747.0,3.036035414962306,7.065844375850112,12.509121910694766,8,1970-01-03 23:40:43.381671747,-0.29188246,1.1880362,-0.03701794,15.052777643631963,1.223926350254759,-105.26612091064453,-11.014708518981934,166.9938201904297,16472296.0,39683.0,0.05683476899639919,-0.12282210424964006,0.26279583651915045,0.00133742170953552,-0.005855601594352309,0.0077725047636489995,16.47229660701123
1601,C,258043421788466.0,3.8853786149623057,8.983001875850112,5.043402010694766,8,1970-01-03 23:40:43.421788466,2.0570257,-0.4032026,0.43888897,10.726289439879583,2.1416233550965282,-105.16592407226562,-10.988241195678711,167.0077667236328,16512412.999999998,40116.99999999814,0.1388331833192364,-0.07123081746026777,0.3520773010771756,0.0039248056215229945,-0.003892410530118006,0.012333432830475336,16.512413326010574
1601,C,258043462134351.0,4.745495514962306,11.524447375850112,-0.3854500893052335,8,1970-01-03 23:40:43.462134351,2.5968485,0.6399576,0.5275722,9.601865807662623,2.7260778213328485,-105.02876281738281,-10.971107482910156,166.96929931640625,16552759.000000002,40346.000000003725,0.17411062382298528,0.01830597375455029,0.09396486411019972,0.006313015421480621,-0.0010676528720755373,0.008998008598325754,16.552759211015655
1601,C,258043501491591.0,3.9182986149623056,12.439032375850111,0.7021159106947668,8,1970-01-03 23:40:43.501491591,0.18535602,0.2908172,-0.61412495,8.075879042200917,0.7043301443063352,-105.01829528808594,-11.004531860351562,166.9630889892578,16592116.0,39356.99999999814,0.1704904727857134,0.08586673629382875,0.006231508366213635,0.006781232679613955,0.00204996267468693,0.001971714315777007,16.592116451007314
1601,C,258043541688570.0,1.419350714962306,9.429520375850112,3.468017360694767,8,1970-01-03 23:40:43.541688570,-0.28229508,0.6287723,-1.070857,9.838408880009009,1.2734911981982822,-105.0291976928711,-11.0643949508667,166.9462890625,16632313.0,40197.0,0.10727874505748979,0.045594507480046904,0.08381342355502254,0.005582744624821619,0.00264217380798924,0.0018097680642189652,16.632313430018257
1601,C,258043581623414.0,1.5252941649623057,6.587004375850112,1.2551764106947667,8,1970-01-03 23:40:43.581623414,0.4314321,1.954494,-0.50813115,12.947682131179969,2.0650369775252773,-104.90933990478516,-10.897969245910645,166.84144592285156,16672248.0,39935.0,0.05879719663989468,-0.0715530420204258,0.0943103716302205,0.0033161213658425242,-0.0005183270384350155,0.00355668688036134,16.672248274000594
1601,C,258043621544560.0,0.1869354149623058,9.316395375850112,-1.0857540893052335,8,1970-01-03 23:40:43.621544560,-0.32463935,-0.7933557,-0.1454086,11.146064631995063,0.8694524916548761,-104.93331909179688,-10.894781112670898,166.88238525390625,16712169.0,39921.0,0.03417695853008521,-0.0737859892561877,0.003381754246095777,0.0018558106242703835,-0.002901039733796844,0.0019499836785542113,16.712169420003192
1601,C,258043661055758.0,0.6214830149623058,11.657923875850113,2.872459710694767,8,1970-01-03 23:40:43.661055758,-1.303351,-0.30626354,0.27031085,7.670014723527227,1.3658657111012247,-105.00065612792969,-10.877768516540527,166.89389038085938,16751680.0,39511.0,0.015970710292375664,0.027150363976963757,0.03529726290336093,0.0009906922714221257,-0.0009213100952037087,0.000764123323296092,16.751680618006503
1601,C,258043701318726.0,1.6749317149623058,10.933677875850112,4.913516610694767,8,1970-01-03 23:40:43.701318726,-0.80134517,0.60080916,0.2974751,8.403539523681074,1.0448048446203935,-105.0344009399414,-10.871185302734375,166.86041259765625,16791943.0,40263.0,0.046230273135477326,0.06022543066435304,0.1567433823140534,0.0012521990978778224,0.001759005809821669,0.003866066249194377,16.791943585994886
1601,C,258043741354872.0,2.2662995149623058,11.536418375850111,4.5651603106947665,8,1970-01-03 23:40:43.741354872,-0.50999534,0.3536678,0.21784659,7.844664528756687,0.6577486574316848,-105.05609130859375,-10.865257263183594,166.8401641845703,16831979.0,40036.0,0.07889556676063088,0.057453586766535045,0.1897441546123757,0.0025047690630402943,0.002355698570931518,0.006935987514193258,16.831979732000036
1601,C,258043780856018.0,1.4408985449623057,12.42287137585011,1.6101169106947668,8,1970-01-03 23:40:43.780856018,-0.6215818,-1.4162691,0.21172132,7.21631015419034,1.561091930364318,-105.18965911865234,-10.655322074890137,166.92369079589844,16871480.0,39501.0,0.07321901528254104,0.08609815224095521,0.12196481276105399,0.0030043390526436667,0.002835218621267436,0.006156407960108923,16.87148087800597
1601,C,258043821458414.0,2.9947354149623058,10.800799375850112,0.5153681106947667,8,1970-01-03 23:40:43.821458414,-0.96805906,-0.05486112,0.18748654,9.321648714510415,0.9875724220617491,-105.40393829345703,-10.691224098205566,166.95462036132812,16912083.0,40603.0,0.09005002283740951,0.07356595176564204,0.04315053416173961,0.003314606377392176,0.003241420807489934,0.0033520892155530944,16.91208327401546
1601,C,258043860706279.0,3.1964468149623055,9.117676375850111,2.2050759106947666,8,1970-01-03 23:40:43.860706279,-0.8594021,0.7933557,-0.09880328,10.507291398771581,1.1737748184152095,-105.29434967041016,-10.743476867675781,166.88998413085938,16951331.0,39248.0,0.12149576008004057,0.006249768151365145,0.0533859934757482,0.00415137444397204,0.0015663036876513488,0.0018944328183580607,16.951331139018293
1601,C,258043900831747.0,1.9532577149623058,11.115039375850111,1.370098210694767,8,1970-01-03 23:40:43.900831747,-0.94755274,-1.2705942,-0.14966966,8.574621865042184,1.5920636995044082,-105.40505981445312,-10.626668930053711,166.9638214111328,16991456.0,40125.0,0.10331594713161252,0.01269385976848569,0.07172693081037752,0.00451028487593379,0.0003800565351420074,0.0025100780434903973,16.99145660700742
1601,C,258043940743466.0,0.6837322449623058,10.399771375850111,-0.6362427893052334,8,1970-01-03 23:40:43.940743466,-1.0298444,-0.984837,-0.24580978,9.952298299831385,1.4459964912557735,-105.466064453125,-10.625409126281738,167.01544189453125,17031368.0,39912.0,0.05262377164025555,0.03821196336092962,0.014644818789249534,0.0031119330278113993,0.0010158766063706121,0.0017236346350101577,17.0313683260174
1601,C,258043980791539.0,-1.9911895850376942,7.8924428758501115,-2.093114789305233,8,1970-01-03 23:40:43.980791539,-1.9622171,-0.8183894,0.31345406,13.185995921113824,2.1490255013133868,-105.5707778930664,-10.599360466003418,167.05128479003906,17071416.0,40048.0,-0.026180525777669578,-0.026187101823954766,-0.05465265615409598,0.0005294995551524215,0.0002407858274163845,-0.0008011169353936853,17.071416399005102
1601,C,258044020095029.0,-0.32721948503769405,5.851985375850111,-0.3465446893052335,8,1970-01-03 23:40:44.020095029,-2.3622239,1.0641992,0.9715212,14.117752342391553,2.767033634248288,-105.67686462402344,-10.56690788269043,166.98585510253906,17110719.0,39303.0,-0.045560215840586483,-0.1150707682117131,-0.04794296824391358,-0.0014098131839111589,-0.002775929033005927,-0.0020161579128574847,17.110719888994936
1601,C,258044060292008.0,4.881366414962306,6.236254375850111,3.371052160694767,8,1970-01-03 23:40:44.060292008,-1.4607439,0.71585774,1.5094798,13.592264302153593,2.2191787471749898,-105.73969268798828,-10.503942489624023,166.93002319335938,17150916.0,40197.0,0.0915315220710898,-0.1509751133504531,0.06078806341372253,0.000923954298273771,-0.005347123150577197,0.0002581671452704052,17.15091686800588
1601,C,258044100093883.0,5.724724014962306,5.225900375850111,-1.0648050893052328,8,1970-01-03 23:40:44.100093883,0.063116916,0.122771725,1.3435647,15.613407642728802,1.3506379028558753,-105.82373046875,-10.619678497314453,166.92225646972656,17190718.0,39802.0,0.2110718056459297,-0.1619512582864139,0.045896622967723115,0.006022108824896404,-0.006227547721945289,0.0021231319436771498,17.190718743018806
1601,C,258044139959039.0,3.771055414962306,7.944517375850111,-0.06881708930523311,8,1970-01-03 23:40:44.139959039,0.75820196,-0.42211103,1.2884374,12.301627241640524,1.5534216644280014,-105.87442016601562,-10.613472938537598,166.9412841796875,17230583.0,39865.0,0.18927462348697233,-0.12815764816423533,-0.02259592407515311,0.007979905198691569,-0.005782595777827566,0.0004644411806761516,17.230583899014164
1601,C,258044180251018.0,4.161310114962306,11.754290375850111,-0.4441083893052329,8,1970-01-03 23:40:44.180251018,0.7486146,0.6644587,0.7483483,9.228185966878774,1.249781725523197,-105.82909393310547,-10.586553573608398,166.8983612060547,17270875.0,40292.0,0.15980543596586122,0.0019905809657526532,-0.010333396692086449,0.007032566877736785,-0.0025417617357806318,-0.0006633940961768083,17.270875878020888
1601,C,258044219940914.0,3.587898914962306,11.399948775850111,-1.6035000893052334,8,1970-01-03 23:40:44.219940914,0.5305017,0.7126619,-0.54195327,9.936026098944218,1.0406884184414626,-105.79753112792969,-10.622336387634277,166.87100219726562,17310565.0,39690.0,0.15378305319885394,0.07053387596549089,-0.0406347902580247,0.006223163567473773,0.0014392478478005282,-0.0010114636700249559,17.310565774008865
1601,C,258044259584924.0,5.390134014962306,15.04751507585011,2.733595910694767,8,1970-01-03 23:40:44.259584924,0.16484967,0.108124346,-0.15899073,6.195453654462863,0.2532673293635986,-105.78874206542969,-10.631460189819336,166.867919921875,17350209.0,39644.0,0.17796256873696567,0.1357304284684018,0.022400759371583333,0.0065758617180118155,0.004088571042488621,-0.00036143496023104084,17.350209783995524
1601,C,258044299746487.0,4.550368014962306,14.812883075850111,2.6683540106947667,8,1970-01-03 23:40:44.299746487,0.8977516,0.61678815,-0.24820662,5.82099978049751,1.1171356602914468,-105.73889923095703,-10.651779174804688,166.8411407470703,17390371.0,40162.0,0.19961522126291617,0.20603905528429212,0.10847655637142324,0.007582139600987628,0.0068630730032378465,0.002628147377435315,17.390371347020846
1601,C,258044339596539.0,2.780454414962306,13.424844875850113,3.292043510694767,8,1970-01-03 23:40:44.339596539,1.5443672,-0.24820662,-0.5091964,6.12372481646591,1.6449794978724277,-105.66522979736328,-10.672929763793945,166.8603057861328,17430221.0,39850.0,0.14606663691624788,0.17210672943762695,0.11876092061368645,0.0068877110242198435,0.007534554760584237,0.00452770672892831,17.43022139900131
1601,C,258044379473674.0,2.980370214962306,9.160172375850111,1.173773610694767,8,1970-01-03 23:40:44.379473674,2.0082898,-0.34168357,-0.6426208,10.640177170041552,2.1361032454880604,-105.5570068359375,-10.701889038085938,166.88352966308594,17470098.0,39877.0,0.11486220188375187,0.05951676647302489,0.08904169467482524,0.005202529652413795,0.004618225073214532,0.00414327244492999,17.47009853401687
1601,C,258044419435966.0,0.2791121149623058,7.387865375850112,-0.05505048930523326,8,1970-01-03 23:40:44.419435966,0.23329292,0.5070659,-0.81013364,12.525662746085855,0.9837977069116323,-105.54278564453125,-10.747710227966309,166.86972045898438,17510060.0,39962.0,0.06512771643422366,-0.06098125768327787,0.02235320668848427,0.003596378557911469,-2.9261998872064793e-05,0.002225781524140287,17.510060825996334
1601,C,258044459329091.0,-0.4379512850376942,10.88639237585011,-0.9055904893052333,8,1970-01-03 23:40:44.459329091,0.45380265,1.3600764,-0.6543387,9.753991604033386,1.576040543038685,-105.5093002319336,-10.79743766784668,166.8119354248047,17549953.0,39893.0,-0.0031682855059087345,-0.02644391775571154,-0.01916142527985367,0.0012358737890116336,-0.0017438262618938022,6.366486786725024e-05,17.54995395100559
1601,C,258044498874612.0,0.7800988649623058,12.317526375850111,1.9925905106947668,8,1970-01-03 23:40:44.498874612,0.3304983,0.2727077,-0.37257624,7.194075825091158,0.5678130595140601,-105.4912109375,-10.819028854370117,166.8036346435547,17589499.0,39546.0,0.006765284097849346,0.07126028547736846,0.021493251422935244,7.11234531584417e-05,0.0008861540389603222,4.610719832715194e-05,17.58949947200017
1601,C,258044539468986.0,1.5169144649623059,12.500084075850111,2.343939610694767,8,1970-01-03 23:40:44.539468986,0.11771172,-0.2543319,-0.11984225,6.947467505510134,0.30479981835301495,-105.4260025024414,-10.660100936889648,166.8061981201172,17630093.0,40594.0,0.04662247955747984,0.10590183933815937,0.08801855187384336,0.0010836114389122164,0.0035958596473807686,0.0022227610715147153,17.630093846004456
1601,C,258044578755184.0,2.738555814962306,10.216016375850112,1.631069476681901e-05,8,1970-01-03 23:40:44.578755184,0.7305051,0.6831008,0.04873585,9.995836818361893,1.00131892380094,-105.58211517333984,-10.654596328735352,166.808837890625,17669380.0,39287.0,0.08359233044369913,0.06121111922297331,0.04604349814181531,0.002557874620258159,0.00328268340149561,0.0026334478794825915,17.669380044011632
1601,C,258044618785340.0,3.5256496149623056,10.127430375850112,-1.2246180893052334,8,1970-01-03 23:40:44.618785340,0.041012682,1.5217303,-0.20559604,10.76880175369205,1.5361037978231173,-105.5667724609375,-10.684928894042969,166.73704528808594,17709410.0,40030.0,0.1253780716799411,0.014880086735279956,-0.02451040459888849,0.00418254259850466,0.001522965487254439,0.00043098486726168036,17.709410200011916
1601,C,258044658501069.0,4.119411614962306,10.223198375850112,1.5418821106947669,8,1970-01-03 23:40:44.658501069,-0.24474451,1.9329224,-0.16724652,9.841086147797155,1.9555204621913345,-105.54051208496094,-10.914613723754883,166.6405792236328,17749125.0,39715.0,0.15181180337322797,0.014905610436887174,0.006300070304742661,0.005504297943868305,0.0005914694815963087,-0.00036161171324600074,17.749125928996364
1601,C,258044698654038.0,6.729690214962306,1.4879543758501121,2.278697710694767,8,1970-01-03 23:40:44.698654038,0.58909124,0.07563378,0.10333065,18.73592752335726,0.6028483896895209,-105.51007080078125,-10.910646438598633,166.63546752929688,17789278.0,40153.0,0.21781199288848152,-0.1583804417804905,0.07670387078412698,0.007420752145648211,-0.0028804724514698518,0.0016664286232706915,17.789278898009798
1601,C,258044738509090.0,5.244686314962306,-0.3645596241498872,0.05627991069476668,8,1970-01-03 23:40:44.738509090,-1.0575413,0.5057343,-0.38802257,20.435570942052223,1.2347964602441914,-105.44978332519531,-10.964463233947754,166.59518432617188,17829133.0,39855.0,0.2386193883000727,-0.3681925510854938,0.04653026655023993,0.009095536348634914,-0.010493283315336903,0.002455748271730597,17.829133949999232
1601,C,258044778407215.0,-0.010586185037694151,9.238582375850111,3.304014510694767,8,1970-01-03 23:40:44.778407215,-1.3190637,-3.0298784,0.040746365,10.078231742630143,3.3048074724112086,-105.54385375976562,-10.922021865844727,166.74331665039062,17869032.0,39899.0,0.10441768054193103,-0.21397788311495639,0.0670361935595105,0.0068434180048635536,-0.01161400907708188,0.002265594095959466,17.869032075017458
1601,C,258044818359611.0,0.12348905496230589,11.039621375850112,13.740938910694766,8,1970-01-03 23:40:44.818359611,-0.21252026,-3.0264163,0.6327671,12.838593249461024,3.0991538659218856,-105.58087158203125,-10.850945472717285,166.88311767578125,17908984.0,39952.0,0.002255347729614044,0.013547798143963634,0.34048998954567733,0.002130900412752384,-0.004003791377380551,0.008140743033709232,17.908984470996074
1601,C,258044858226122.0,5.591247214962306,6.6175313758501115,6.703780910694767,8,1970-01-03 23:40:44.858226122,2.2234733,-1.3345101,0.8495484,13.73056153000437,2.7288245100697592,-105.47981262207031,-10.792153358459473,166.93698120117188,17948850.0,39866.0,0.11391183806840728,-0.038726774200359464,0.40752460019975756,0.002315560514511959,-0.0005018925297321381,0.014910174817395754,17.94885098200757
1601,C,258044898860757.0,5.384148614962307,12.948398775850112,2.521110610694767,8,1970-01-03 23:40:44.898860757,2.8834045,1.3390374,0.7337009,7.805078164738408,3.262722740270742,-105.32150268554688,-10.774565696716309,166.86135864257812,17989485.0,40635.0,0.22299260477449329,-0.0006922141428307326,0.18742673348583183,0.0068450560174606314,-0.0008008952956627667,0.012087923722156961,17.989485616999445
1601,C,258044938332528.0,4.780211414962306,11.044410375850111,-2.030865589305233,8,1970-01-03 23:40:44.938332528,1.6231967,2.9707563,-0.0039947415,10.813894266376295,3.3852882416184644,-105.2130355834961,-10.813874244689941,166.7155303955078,18028957.0,39472.0,0.20060380955059215,0.08669648141795558,0.009675475742143842,0.008360098833119885,0.001697380218941864,0.0038900092013233276,18.028957388014533
1601,C,258044977763570.0,2.8792151149623058,9.941879375850112,1.800455910694767,8,1970-01-03 23:40:44.977763570,-0.33609092,0.6061355,-1.1986889,9.727556512775408,1.3846344029562123,-105.16597747802734,-10.889395713806152,166.69024658203125,18068388.0,39431.0,0.15100942375072868,0.027331395599645723,-0.004542642018644641,0.006932230701152191,0.0022481166093405187,0.00010119638327564851,18.068388430023333
1601,C,258045017871851.0,0.2527759149623059,7.787098375850112,1.506567510694767,8,1970-01-03 23:40:45.017871851,-0.37257624,-1.5433019,-0.9350359,11.733735429013587,1.8425216263167596,-105.20132446289062,-10.914305686950684,166.778564453125,18108496.0,40108.0,0.06280894811410816,-0.037521480167403726,0.06631904769254571,0.004287913629377437,-0.00020435195592181896,0.0012388640393844119,18.10849671100732
1601,C,258045057870861.0,0.36889471496230586,6.637881375850112,2.104519410694767,8,1970-01-03 23:40:45.057870861,-0.18002969,0.48522797,-0.40586576,12.754328109422088,0.6577110971332281,-105.2068099975586,-10.9402494430542,166.7601318359375,18148495.0,39999.0,0.012433101763177273,-0.10349781745587139,0.07221993288432998,0.00150480337652077,-0.0028203154428166908,0.002770710342047225,18.14849572101957
1601,C,258045097428309.0,-0.2051151850376941,10.169927375850111,0.572828910694767,8,1970-01-03 23:40:45.097428309,0.30386668,0.18881813,-0.15393071,9.745669644152342,0.38946361692977616,-105.19024658203125,-10.950152397155762,166.75291442871094,18188053.0,39558.0,0.003239395322378896,-0.05522675070012131,0.05295527244876359,0.0003099863198552155,-0.00313941323355738,0.002475840386283258,18.188053168996703
1601,C,258045137360236.0,1.3050275849623059,10.010712375850112,4.249724210694767,8,1970-01-03 23:40:45.137360236,-0.65726817,-0.09773801,0.12863068,9.24968733331554,0.6768308634593811,-105.22370910644531,-10.942665100097656,166.75599670410156,18227985.0,39932.0,0.0219608509768948,0.011593053282446628,0.09628709562166345,0.0005031481176112987,-0.0008711904026412928,0.0029797731208941465,18.22798509601853
1601,C,258045177283309.0,2.233977814962306,9.815585375850112,4.257505350694767,8,1970-01-03 23:40:45.177283309,0.05352954,0.72491246,0.170176,9.521140701010435,0.746540928075523,-105.21382904052734,-10.943967819213867,166.71810913085938,18267908.0,39923.0,0.07064385629059515,0.004517242570563996,0.16981706288967716,0.0018485288641200007,0.00032158567066987157,0.005311838160124126,18.267908169014845
1601,C,258045217231070.0,2.4314995149623058,11.350867375850111,3.175924710694767,8,1970-01-03 23:40:45.217231070,0.44101948,0.45699844,0.22210763,8.061507901320176,0.6728131651551721,-104.9397201538086,-10.926851272583008,166.64576721191406,18307855.0,39947.0,0.09318591144924923,0.031287544036084386,0.14847161533116385,0.0032722538659517818,0.0007151469052878916,0.006357338914443968,18.307855930004735
1601,C,258045257697111.0,2.2082402149623057,10.971386375850111,1.4933994106947668,8,1970-01-03 23:40:45.257697111,-0.39627838,-1.4335797,0.20106867,8.707860897770177,1.5008717202889403,-105.00567626953125,-10.826470375061035,166.7199249267578,18348321.0,40466.0,0.09387585395556468,0.05507936015815056,0.09447443494807443,0.0037848206994355997,0.001747461572561956,0.004915527435299828,18.348321971017867
1601,C,258045297021382.0,2.810381914962306,12.193028375850112,2.417561410694767,8,1970-01-03 23:40:45.297021382,-1.1832424,-1.1512846,0.1307612,7.437422634679243,1.6560849310287078,-104.99922943115234,-10.888955116271973,166.7605438232422,18387646.0,39325.0,0.09867865762964269,0.0700853050553056,0.07689926715057172,0.0037861030840441396,0.0024610502297595814,0.0033696354175146302,18.387646242015762
1601,C,258045336875653.0,3.602862714962306,11.691442675850112,1.5388892106947667,8,1970-01-03 23:40:45.336875653,-1.1057445,0.19387813,-0.09427591,8.339552608314634,1.1265645013841306,-105.11114501953125,-11.079839706420898,166.763427734375,18427500.0,39854.0,0.12779672574050774,0.08537665464723034,0.07884019153242924,0.004512974964416988,0.0030978904709924337,0.0031034201931761604,18.427500513003906
1601,C,258045377003830.0,3.9398466149623057,10.344703875850112,3.952843193694767,8,1970-01-03 23:40:45.377003830,-1.1177287,-0.624245,-0.42184472,9.3798093961437,1.3479437060280257,-105.17401123046875,-11.09204387664795,166.79974365234375,18467628.0,40128.0,0.1513369199956074,0.048878844413313256,0.1101861189616716,0.005600537468049413,0.0026937023331507466,0.003792623893753639,18.467628690006677
1601,C,258045417037215.0,1.152397234962306,11.128805375850112,2.255952810694767,8,1970-01-03 23:40:45.417037215,-0.3888215,-2.0098877,-0.5685849,8.287856343873493,2.124645738465957,-105.21392059326172,-11.093140602111816,166.9061737060547,18507662.0,40034.0,0.10193144514394095,0.03750203469128334,0.12428146961986529,0.0050696728649983385,0.0017290860570367101,0.004693337720636624,18.507662075018743
1601,C,258045456778934.0,-2.213850385037694,10.058596375850112,-0.04786788930523311,8,1970-01-03 23:40:45.456778934,-0.72464615,-2.620817,-0.11930962,10.506044362705168,2.721769383254828,-105.27522277832031,-11.064438819885254,167.03659057617188,18547403.0,39741.0,-0.021091604818572997,0.03154246650715926,0.04387575143047073,0.0016063280471852238,0.0013719487610636537,0.003341368060880702,18.547403794014826
1601,C,258045496818622.0,-4.226775385037694,8.058242375850112,-2.7748636893052328,8,1970-01-03 23:40:45.496818622,-1.7249295,-1.5318503,0.7281082,14.039595575574937,2.4191090658520507,-105.37400817871094,-11.009086608886719,167.10205078125,18587443.0,40040.0,-0.12894132791690927,-0.029692888190961556,-0.05651108620378153,-0.003003659313364355,3.702855789027797e-05,-0.00025295940216168213,18.58744348201435
1601,C,258045536422476.0,-2.5358703850376942,3.794766375850111,-0.15321308930523303,8,1970-01-03 23:40:45.536422476,-2.2133532,1.8698055,1.0343717,16.36324225977792,3.0765288572580265,-105.46448516845703,-10.984086036682129,166.99623107910156,18627047.0,39604.0,-0.13391391153903284,-0.15340592069883222,-0.057981776370044445,-0.005205059451706566,-0.003625722613635696,-0.002267187664686902,18.62704733602004
1601,C,258045576627320.0,5.342848914962306,4.040172375850112,5.785006010694767,8,1970-01-03 23:40:45.576627320,-1.0072075,0.42530683,1.2681973,15.929981216554742,1.6744184779881608,-105.50759887695312,-10.928658485412598,166.95811462402344,18667252.0,40205.0,0.0564272858978095,-0.23650714374394627,0.11321311720223311,-0.001557674891952692,-0.007838227377960954,0.0011102880290790726,18.667252180021023
1601,C,258045616686226.0,8.115334214962306,5.407262375850111,-0.8888310893052327,8,1970-01-03 23:40:45.616686226,0.5230448,-0.04181163,1.0982877,16.289714251025163,1.2171934715490331,-105.47901153564453,-10.875178337097168,166.94522094726562,18707311.0,40059.0,0.26956067900082503,-0.2033508056408204,0.09806793558797167,0.006529375942937199,-0.008810134797202183,0.004231853846861406,18.707311086007394
1601,C,258045656392945.0,3.207220914962306,8.026518375850111,-0.335172089305233,8,1970-01-03 23:40:45.656392945,0.78936094,-0.6812366,1.2450278,12.200612281239957,1.623966816640686,-105.57343292236328,-10.79696273803711,166.98635864257812,18747017.0,39706.0,0.22478668699439333,-0.1224179507364955,-0.024300135104953574,0.009814278257103069,-0.006467487120358852,0.001464512142989358,18.747017804998904
1601,C,258045696349924.0,3.100678814962306,12.589866775850112,0.24063361069476707,8,1970-01-03 23:40:45.696349924,0.34194988,0.036485307,0.20106867,7.8893255599162515,0.3983585170602827,-105.55547332763672,-10.787764549255371,166.9818115234375,18786974.0,39957.0,0.12602237475429887,0.02030585075324288,-0.0018887369949191937,0.007008638840146247,-0.0020400465895154124,-0.0005232143812473081,18.78697478401591
1601,C,258045736153413.0,4.581492614962306,10.511101375850112,-0.3543256893052331,8,1970-01-03 23:40:45.736153413,0.36938044,0.6671219,-0.28975195,10.363710766390518,0.8157510229494084,-105.53162384033203,-10.810662269592285,166.9530487060547,18826778.0,39804.0,0.15289057579835963,0.06967626815513783,-0.002262699748505495,0.00555092554189901,0.001790824130514593,-8.262189406763816e-05,18.82677827301086
1601,C,258045775831121.0,3.373617814962306,11.325728375850112,1.647226910694767,8,1970-01-03 23:40:45.775831121,0.28176245,0.61891866,-1.1555456,8.576880066442671,1.3407967853502476,-105.52438354492188,-11.007415771484375,166.9402313232422,18866455.0,39677.0,0.1578174582640594,0.04437534702910485,0.025649220880536266,0.0061639813337472996,0.002262612967832598,0.0004639534994777924,18.866455981013132
1601,C,258045816133256.0,8.145261914962306,22.198995575850113,0.7380289106947671,8,1970-01-03 23:40:45.816133256,-0.85301054,-0.2479403,-1.7185379,8.362948389860417,1.9345474632201691,-105.57388305664062,-11.086875915527344,166.9758758544922,18906758.0,40303.0,0.23212270487757583,0.28060407471268706,0.048066482684731196,0.007857879197548663,0.006548822817229719,0.0014854820003954872,18.90675811600522
1601,C,258045855939454.0,7.128324614962306,14.588426775850111,3.382424610694767,8,1970-01-03 23:40:45.855939454,1.5630093,0.34993938,0.32836777,7.724250769148179,1.6350171356704637,-105.49154663085938,-11.075740814208984,166.95420837402344,18946564.0,39806.0,0.3039901927050896,0.3420812670658896,0.08200938643621589,0.01067025500058779,0.012393306357419013,0.00258890002311421,18.946564314013813
1601,C,258045895796226.0,3.6106438149623057,11.165915375850112,1.5131517106947667,8,1970-01-03 23:40:45.895796226,1.7931064,0.948618,-1.2074772,8.827840576693266,2.360743073730134,-105.42066192626953,-11.301018714904785,166.92864990234375,18986421.0,39857.0,0.2140115323557526,0.12264680757015786,0.09756149272081131,0.010322997377874992,0.009261333435384472,0.0035785782652808158,18.986421086010523
1601,C,258045935620340.0,0.7836901649623058,7.982225375850112,0.5979679106947668,8,1970-01-03 23:40:45.935620340,0.12516858,2.194445,-1.2106731,11.744498460703777,2.5093794823636832,-105.39640045166016,-11.388531684875488,166.83717346191406,19026245.0,39824.0,0.08749997820825886,-0.008997421352145176,0.04203661390110839,0.006003697198350596,0.0022629865783730684,0.002779677499055665,19.026245200017
1601,C,258045976209195.0,-0.6169177850376942,10.135211375850112,1.016354910694767,8,1970-01-03 23:40:45.976209195,0.6287723,0.984837,-0.31158987,9.695486780603177,1.2092753073237321,-105.35621643066406,-11.416609764099121,166.79293823242188,19066834.0,40589.0,0.0033845620643800298,-0.030087879842619843,0.03276187449868989,0.00184445630256307,-0.0007932166450971587,0.001517997922829706,19.06683405500371
1601,C,258046015268517.0,0.35033971496230587,11.07732937585011,0.7829202106947668,8,1970-01-03 23:40:46.015268517,1.036236,-1.7659421,0.37736994,8.771998384087693,2.0820049519307138,-105.32057189941406,-11.375057220458984,166.87472534179688,19105893.0,39059.0,-0.005206136419537297,0.031492114610329476,0.0351389434831769,-3.557443636904386e-05,2.7424002895985274e-05,0.0013260690247768674,19.105893377010943
1601,C,258046055348986.0,1.0787755249623059,12.029025375850111,0.6961303106947669,8,1970-01-03 23:40:46.055348986,0.45992792,-1.3973607,0.3603257,7.902393584717412,1.5145907789170334,-105.31014251708984,-11.339226722717285,166.9385986328125,19145973.0,40080.0,0.028639469408089216,0.0702673492240724,0.029640172448646255,0.00046960399309058044,0.0020392596552414135,0.001298173483273736,19.145973845996195
1601,C,258046095056538.0,2.195072114962306,11.320341375850113,1.6346575106947667,8,1970-01-03 23:40:46.095056538,0.12250541,0.6764429,0.047137953,8.335327041013125,0.6890606352511427,-105.31475830078125,-11.270139694213867,166.90811157226562,19185681.0,39708.0,0.06499897104306325,0.07443992748825622,0.0462754614058678,0.001859097596717181,0.0028730182718465728,0.001507228994547522,19.18568139799754
1601,C,258046135262163.0,3.523853914962306,9.71323337585011,1.014559110694767,8,1970-01-03 23:40:46.135262163,0.44528055,1.3438311,-0.022903185,10.281733095942773,1.4158677019476986,-105.31825256347656,-11.363868713378906,166.84988403320312,19225887.0,40206.0,0.11496756997957447,0.028819153233429567,0.05325720173979379,0.0036178673741780855,0.002075817299748049,0.002000905127217235,19.225887022999814
1601,C,258046174932788.0,4.588675214962306,7.820617375850112,-1.9524554893052328,8,1970-01-03 23:40:46.174932788,0.52357745,1.1936288,-0.1504686,13.337584420859846,1.3120685416257425,-105.28087615966797,-11.386873245239258,166.79318237304688,19265557.0,39670.0,0.16091201529205465,-0.0409820703400261,-0.01860317466973859,0.005472071573862764,-0.0002412514608093422,0.0006873626269345449,19.26555764800287
1601,C,258046214814663.0,4.792781014962306,1.78124337585011,-0.605118089305233,8,1970-01-03 23:40:46.214814663,-0.597347,-0.060453758,-0.54248595,18.437364195555904,0.80917804049092,-105.29296875,-11.425107955932617,166.79954528808594,19305439.0,39882.0,0.1870756186809267,-0.1993728947503459,-0.0510005747310713,0.006939221409055222,-0.004792918358867108,-0.0013879683668015501,19.305439523013774
1601,C,258046254896590.0,2.6727153149623057,6.367935375850111,6.576888210694767,8,1970-01-03 23:40:46.254896590,-1.5757924,0.4908206,-0.3289004,13.261494480097467,1.682914740087055,-105.36784362792969,-11.447454452514648,166.7798309326172,19345521.0,40082.0,0.14961601194801916,-0.22948590863717588,0.11968024500276765,0.006747636969434704,-0.008594759278689324,0.0013764092719150667,19.34552145001362
1601,C,258046294856850.0,3.1880671149623057,-0.16105362414988988,2.0823731106947667,8,1970-01-03 23:40:46.294856850,1.6077504,-0.010386328,0.10013486,19.618890740406496,1.6108991944552904,-105.28728485107422,-11.442489624023438,166.77899169921875,19385481.0,39960.0,0.11709843294989375,-0.2675945026010296,0.17301204120136288,0.0053289546090603,-0.009931666616539346,0.005847991878358528,19.38548171002185
1601,C,258046335173256.0,2.303409714962306,10.019691375850112,4.246132910694767,8,1970-01-03 23:40:46.335173256,-0.83516735,-0.6103965,0.5747102,9.328059068494754,1.1833766111016022,-105.33346557617188,-11.406715393066406,166.80128479003906,19425798.0,40317.0,0.11069993567603527,-0.1963712508823511,0.12757318863218092,0.0045920734139457894,-0.00935285364159473,0.006059347355599492,19.425798116018996
1601,C,258046374464246.0,3.5256496149623056,9.202670375850111,9.157238910694767,8,1970-01-03 23:40:46.374464246,0.644485,-1.2455604,0.45167214,11.614820564373348,1.4733598838455388,-105.31212615966797,-11.368475914001465,166.85647583007812,19465089.0,39291.0,0.11451478506603395,-0.0074188922069732925,0.2633159411171081,0.004424455796338321,-0.004003559256061323,0.0076792123984896574,19.46508910600096
1601,C,258046414274350.0,3.4699844149623056,11.589688975850112,3.4368927406947667,8,1970-01-03 23:40:46.414274350,1.1749867,-0.7326356,0.5898902,8.064079420753536,1.5050977096588414,-105.25890350341797,-11.330368041992188,166.8845672607422,19504899.0,39810.0,0.1392480953656494,0.023733912895592926,0.2506861905209086,0.005051150134992657,0.0003247504868069738,0.010231212430254724,19.504899210005533
1601,C,258046454212423.0,4.456994214962306,12.88195957585011,2.690500310694767,8,1970-01-03 23:40:46.454212423,0.8556737,-0.25406557,0.32863408,7.350691628347809,0.9511714636534052,-105.21769714355469,-11.311175346374512,166.89266967773438,19544837.0,39938.0,0.15829383626096458,0.09728194992890174,0.12235791184319761,0.005941614832651854,0.002416565764742334,0.007449317680108838,19.54483728299965
1601,C,258046494163465.0,4.837672114962306,10.302806375850112,2.2655296106947667,8,1970-01-03 23:40:46.494163465,0.47297743,0.20106867,-0.2841593,9.875515116006127,0.5872672024908796,-105.19286346435547,-11.327522277832031,166.88658142089844,19584788.0,39951.0,0.18566560727340908,0.07160749226818779,0.09899917569471663,0.006870761864320882,0.0033736510526079615,0.004421718502113606,19.584788325009868
1601,C,258046534170809.0,2.9426616149623057,9.405578375850112,3.372249260694767,8,1970-01-03 23:40:46.534170809,-0.2647182,-0.32836777,-0.61838603,10.049110592265865,0.7485334995076531,-105.21089935302734,-11.353055000305176,166.9110107421875,19624795.0,40007.0,0.15563390576654698,0.0021680743806354106,0.11277530965384054,0.006827184809094762,0.0014757695474597347,0.004236230917669863,19.624795669020386
1601,C,258046573896173.0,1.464840534962306,7.928356375850111,2.832955310694767,8,1970-01-03 23:40:46.573896173,0.0063915867,0.19920446,-0.57577544,11.381187847510613,0.6092951883706524,-105.21016693115234,-11.38344955444336,166.90890502929688,19664521.0,39726.0,0.08754621520395255,-0.04501085402697849,0.12325397840151031,0.004830286742837032,-0.0008509861321153126,0.004688249748643433,19.66452103300253
1601,C,258046613824559.0,0.9279408249623059,8.469445375850112,2.703069910694767,8,1970-01-03 23:40:46.613824559,0.09853696,0.011451593,-0.26312032,10.84660735786342,0.28119917187854887,-105.20582580566406,-11.396293640136719,166.911865234375,19704449.0,39928.0,0.04776948706953495,-0.06392868582905677,0.11052120751982064,0.0027014426801879043,-0.002174868973685888,0.004667087811733451,19.70444941901951
1601,C,258046653687579.0,1.2559464649623058,10.132218375850112,3.201662410694767,8,1970-01-03 23:40:46.653687579,-0.05752428,-0.47058058,-0.047137953,9.147684238085116,0.47642114948403064,-105.21340942382812,-11.392395973205566,166.93565368652344,19744312.0,39863.0,0.043528149519132406,-0.019898338932987012,0.1176901722637755,0.0018196988436670234,-0.0016707983440446756,0.0045485951161567464,19.74431243899744
1601,C,258046694098933.0,1.729399814962306,9.867659375850112,3.432104310694767,8,1970-01-03 23:40:46.694098933,0.18322548,0.25379926,-0.033822145,9.42213660332688,0.31484850069545994,-105.20185089111328,-11.397355079650879,166.92361450195312,19784723.0,40411.0,0.06032041425901675,0.008079729911978839,0.13403857348903625,0.002098312155419393,-0.00023880090457398067,0.005086305172308438,19.784723793010926
1601,C,258046733676590.0,2.0532156149623058,11.182674375850112,3.500937630694767,8,1970-01-03 23:40:46.733676590,0.3520699,0.30839407,-0.023702133,8.145908940738835,0.4686383552441313,-105.18131256103516,-11.402539253234863,166.90875244140625,19824301.0,39578.0,0.07485417674277814,0.028700654612395706,0.1371979669781575,0.002674969981334519,0.0007278470293528478,0.005367499899305297,19.824301450018538
1601,C,258046773448986.0,2.503325514962306,10.369244375850112,3.673320150694767,8,1970-01-03 23:40:46.773448986,0.3190467,-0.119043306,0.066046394,9.010453326591193,0.3468778338906983,-105.16636657714844,-11.397797584533691,166.9137420654297,19864073.0,39772.0,0.09061137690968084,0.03881585629631064,0.14266729024071226,0.003290447999932799,0.0013426333359305345,0.005565400505054445,19.86407384602353
1601,C,258046813499142.0,2.639196414962306,9.534266375850112,2.892810410694767,8,1970-01-03 23:40:46.813499142,0.30706248,-1.5632756,0.03089267,9.905491690814701,1.5934466810153516,-104.93575286865234,-11.334054946899414,166.94488525390625,19904124.0,40051.0,0.10298157290770533,0.006077954558172819,0.1314900475571061,0.003876795616568067,0.0008990210092664585,0.0054901377680702124,19.90412400200148
1601,C,258046853494246.0,2.491354514962306,9.487580375850111,-0.16398658930523302,8,1970-01-03 23:40:46.853494246,-0.20959078,-2.503904,-0.038083203,10.682351132294102,2.512949236778918,-105.16437530517578,-11.224401473999023,167.1066131591797,19944119.0,39995.0,0.10259819222116742,-0.011561619582874803,0.05456965436823721,0.004111081353164634,-0.00010965959133147793,0.0037207288892520535,19.94411910601775
1601,C,258046893270444.0,1.635427454962306,13.093846375850113,-0.002377889305233083,8,1970-01-03 23:40:46.893270444,-1.5741946,-0.23622239,-0.03195793,7.320447973316973,1.5921403724220917,-105.24541473388672,-11.222843170166016,167.11866760253906,19983895.0,39776.0,0.08207343981786068,0.05929461523781403,-0.00330865675060495,0.0036727494179921907,0.0009493138175854313,0.0010194787206194702,19.983895304001635
1601,C,258046933024663.0,3.556774314962306,10.125634375850112,4.760886270694767,8,1970-01-03 23:40:46.933024663,-1.5635419,1.0402308,-0.2743056,9.515400292279306,1.8978901318347199,-105.3143539428711,-11.24978256225586,167.07119750976562,20023649.0,39754.0,0.1032053945807915,0.07194441890154533,0.09458487109687977,0.003682787391342009,0.0026086382815880458,0.0018142973125609045,20.023649523005588
1601,C,258046973135288.0,2.1705315149623057,11.304180775850112,4.524458840694767,8,1970-01-03 23:40:46.973135288,-0.34647727,-0.8343684,-0.37923414,8.055302684740692,0.9798140938396184,-105.34066772460938,-11.257040023803711,167.11732482910156,20063760.0,40111.0,0.11486398207205306,0.036697857774923806,0.18622223888147282,0.004373490383461125,0.002178875179884927,0.00563172699417085,20.06376014801208
1601,C,258047013006017.0,-0.18775718503769412,11.966776075850111,1.759754510694767,8,1970-01-03 23:40:47.013006017,-0.34993938,-3.678358,0.119043306,7.68314560180522,3.6968833433775257,-105.39307403564453,-11.202564239501953,167.29652404785156,20103630.0,39870.0,0.03952660626704713,0.07318052483864393,0.12527579315995035,0.0030777763785399623,0.002190425557401473,0.006209713268745772,20.10363087701262
1601,C,258047053277006.0,-1.286097085037694,8.63105437585011,-4.4998860893052335,8,1970-01-03 23:40:47.053277006,-1.0692592,-2.63866,0.42104578,13.733579443091466,2.878041240364781,-105.47054290771484,-11.147162437438965,167.4204559326172,20143901.0,40271.0,-0.029676792655102976,0.020091815060209794,-0.05517391940111105,0.0001983309219833016,0.0018780852000333692,0.0014115362790711088,20.143901866016677
1601,C,258047092659506.0,-1.5722041850376942,6.4433528758501115,-0.03829108930523306,8,1970-01-03 23:40:47.092659506,-2.7406592,0.8183894,0.8018778,13.642569953386975,2.970518821133749,-105.59770202636719,-11.119491577148438,167.36932373046875,20183284.0,39383.0,-0.05628423945968951,-0.0891157096031451,-0.089363515912608,-0.0016927016638884364,-0.0013591840193922108,-0.0028461589074800986,20.183284366008593
1601,C,258047132535861.0,0.8160118949623059,4.207167375850112,1.582583510694767,8,1970-01-03 23:40:47.132535861,-1.645301,0.2977414,1.284709,15.221261557830925,2.1085878062238623,-105.67376708984375,-11.0616455078125,167.3370819091797,20223160.0,39876.0,-0.015076961879523093,-0.17843472722160097,0.030790102297664528,-0.001422799632301221,-0.005334420609411788,-0.0011678367206547427,20.22316072101239
1601,C,258047172440288.0,7.096601614962307,7.612322375850111,0.998398410694767,8,1970-01-03 23:40:47.172440288,-0.6631271,-0.051132694,1.3496901,13.459297077895831,1.5046645703239367,-105.70384979248047,-10.99598503112793,167.3209991455078,20263065.0,39905.0,0.15787642105677083,-0.15524063072920136,0.05149704178652468,0.0028492062092340354,-0.006657657579513384,0.0016418342423397852,20.26306514799944
1601,C,258047212516381.0,3.222184614962306,7.421983375850111,-1.1180760893052333,8,1970-01-03 23:40:47.212516381,0.6985472,-0.058589544,0.8199873,13.042709331371647,1.0787864002921328,-105.8504638671875,-10.9292573928833,167.347412109375,20303141.0,40076.0,0.20676783847522937,-0.09148738134743098,-0.0023981013239965238,0.00730674167250222,-0.004943935905991559,0.0009838445689881392,20.303141241020057
1601,C,258047252249350.0,0.2372136449623059,6.643866375850111,-0.4644590893052327,8,1970-01-03 23:40:47.252249350,0.5613944,-0.06950851,0.6460829,13.362960066699575,0.8587305857987068,-105.82132720947266,-10.897229194641113,167.3418426513672,20342874.0,39733.0,0.06872613553079229,-0.10994419590784756,-0.03143943512586482,0.005473101034590629,-0.004001740429541991,-0.0006722334178811704,20.34287421000772
1601,C,258047292165704.0,3.079131014962306,10.412939375850112,0.499207310694767,8,1970-01-03 23:40:47.292165704,-0.0561927,0.5946839,0.1355549,9.698045836108836,0.6125207681103638,-105.94921875,-10.938386917114258,167.3356170654297,20382790.0,39916.0,0.0661876067227754,-0.05075707080756698,0.0006935050024923248,0.002692608467896704,-0.0032072758811062434,-0.0006136272734022682,20.382790564006427
1601,C,258047332287371.0,5.925238314962306,12.570114775850111,0.21908551069476667,8,1970-01-03 23:40:47.332287371,0.28229508,0.43729106,-0.17949706,9.086284667775626,0.550575315371815,-105.93152618408203,-10.953022003173828,167.3167266845703,20422912.0,40122.0,0.18063665312761765,0.06786744933725815,0.014409672289895434,0.004951541476858735,0.0003432513036841345,0.0003029848396625908,20.422912231006194
1601,C,258047372155288.0,4.074520614962306,12.853229375850113,1.7537689106947667,8,1970-01-03 23:40:47.372155288,0.3587278,-0.20692763,-0.6221144,7.419735062415234,0.7473493194200532,-105.91716003417969,-10.980094909667969,167.33555603027344,20462780.0,39868.0,0.19933519450911721,0.11608254231999224,0.03932688003597896,0.007574358810790673,0.0036668591336956294,0.00107118443406398,20.462780147994636
1601,C,258047412535704.0,2.4985371149623057,12.58028997585011,2.180535410694767,8,1970-01-03 23:40:47.412535704,0.4181163,0.2282329,-0.88044107,7.051631303534286,1.0010434429688078,-105.86178588867188,-11.059783935546875,167.33001708984375,20503160.0,40380.0,0.13271003556717792,0.11777875571082748,0.07943360424885468,0.0067039931952403995,0.00472165960724225,0.002397774177710791,20.50316056399606
1601,C,258047451835496.0,2.543428414962306,12.46117837585011,2.5031541106947666,8,1970-01-03 23:40:47.451835496,0.65034395,0.37923414,-0.90174633,7.1031785217093395,1.1746966544225836,-105.72454071044922,-11.148161888122559,167.3040313720703,20542460.0,39300.0,0.09907462266301863,0.10692485311090932,0.09203449909530434,0.004554568534223363,0.004415425913347128,0.003369348230712725,20.54246035599499
1601,C,258047491689246.0,2.4189300149623056,10.590709375850112,1.069027310694767,8,1970-01-03 23:40:47.491689246,0.7222493,1.1214571,-0.9009474,9.222829367381797,1.609663410796698,-105.7413330078125,-11.150980949401855,167.2732696533203,20582314.0,39854.0,0.09888491643310773,0.06878576722813032,0.07118285918402924,0.00394473973556851,0.003501385531496043,0.0032524322984322806,20.582314105995465
1601,C,258047531734819.0,1.4325188149623058,9.208056375850111,0.43635951069476686,8,1970-01-03 23:40:47.531734819,0.5656554,2.1590247,-0.9041432,10.633081140910466,2.4080757074613515,-105.77986145019531,-11.005877494812012,167.19622802734375,20622359.0,40045.0,0.07711563419716552,0.003979787263417693,0.03014160763127194,0.003523971024994646,0.0014569483148070199,0.002028769136809368,20.62235967902234
1601,C,258047571559975.0,0.9937813669623059,10.444662375850111,-0.7373980893052328,8,1970-01-03 23:40:47.571559975,0.28495824,1.3840449,-0.6894924,9.954450010379707,1.5723171605683337,-105.75445556640625,-11.057860374450684,167.13792419433594,20662184.0,39825.0,0.04831370237257383,0.0010497621432306462,-0.005994430696580903,0.002497611664444935,0.00010015090255988506,0.00048083066071203523,20.662184835004155
1601,C,258047611666538.0,1.9861779549623058,10.410544375850112,-1.8213730893052333,8,1970-01-03 23:40:47.611666538,0.6761766,0.79415464,-0.17443706,10.579682104308553,1.0575087113222914,-105.713623046875,-11.077022552490234,167.1013946533203,20702291.0,40107.0,0.05975861426221519,0.02517128859522039,-0.05131231783026498,0.0021672282016357417,0.0005258238409835278,-0.0011492008815831038,20.702291398018133
1601,C,258047651597736.0,2.106486614962306,11.72137037585011,0.977448910694767,8,1970-01-03 23:40:47.651597736,-0.15393071,-0.7187872,-0.07803062,8.154380968357623,0.7392147725948991,-105.86827087402344,-10.991959571838379,167.1645050048828,20742222.0,39931.0,0.08171209447082983,0.05055094397507076,-0.016849368188047265,0.0028245334352096103,0.0015118322343821479,-0.001360882142198613,20.74222259601811
1601,C,258047691401329.0,2.253730014962306,12.590465375850112,0.764365010694767,8,1970-01-03 23:40:47.691401329,-0.057790596,-0.21731395,0.12037488,7.470594725542979,0.2550592432860494,-106.10784149169922,-10.955232620239258,167.21820068359375,20782026.0,39804.0,0.08677703136875961,0.09377495513033779,0.034665580663494504,0.0033532705824595092,0.002872374043995841,0.00035457826068635096,20.782026189001044
1601,C,258047731101746.0,2.426112614962306,12.01286437585011,0.12451461069476677,8,1970-01-03 23:40:47.731101746,-0.15472966,0.7323693,0.07163903,8.290503861369544,0.7519562553004971,-106.10858917236328,-10.96195125579834,167.1813507080078,20821726.0,39700.0,0.09289487620400354,0.09931609557124939,0.017644260484582244,0.0035664873653193483,0.003832857356426505,0.0010383503467893233,20.82172660602373
1601,C,258047771537267.0,2.038850414962306,11.744115075850111,2.521110610694767,8,1970-01-03 23:40:47.771537267,-0.023702133,1.073254,0.2031992,7.703321570686571,1.0925776194419277,-105.95728302001953,-10.88975715637207,167.09906005859375,20862162.0,40436.0,0.09027262253901579,0.08404581055447505,0.053489250726053594,0.0037032804895863647,0.003707211018049897,0.0014381773296566354,20.862162127014017
1601,C,258047811065131.0,4.553360814962306,5.912438375850112,-0.03649538930523333,8,1970-01-03 23:40:47.811065131,0.8737832,1.7302558,0.6154565,14.356445807298341,2.0337327546725823,-105.90869903564453,-10.970832824707031,167.00811767578125,20901689.0,39527.0,0.13028516664261505,-0.038409305857322676,0.04910469292793205,0.004358993866491161,0.0009019370605821709,0.002027615405405545,20.901689991005696
1601,C,258047850980861.0,5.290775014962306,1.8686323758501118,0.427979810694767,8,1970-01-03 23:40:47.850980861,-0.8918927,-0.8546084,0.022903185,18.23919523851388,1.2354564587823376,-105.84783172607422,-11.02548885345459,167.02806091308594,20941605.0,39916.0,0.19646926289363542,-0.23588218993756696,0.007813246082092313,0.006521364904684486,-0.005474309673074408,0.0011359682267620662,20.941605721018277
1601,C,258047890719819.0,8.285322614962306,-0.3645596241498872,-6.660054589305233,8,1970-01-03 23:40:47.890719819,0.727043,1.4072144,0.10013486,23.443005877045678,1.5870951079262956,-105.79801177978516,-11.039855003356934,166.9576873779297,20981344.0,39739.0,0.26975027185778705,-0.3595570264600924,-0.12382820981360064,0.009263549045743388,-0.011831079510213293,-0.0023051593218632043,20.981344679021277
1601,C,258047930896642.0,1.0566291649623059,15.997414575850112,13.849873910694766,8,1970-01-03 23:40:47.930896642,-2.5555694,-6.4443173,-0.09933591,10.460270909008711,6.933255227114547,-105.98628234863281,-10.956400871276855,167.2747802734375,21021521.0,40177.0,0.18766579833101554,-0.07969399330277006,0.14443268543773363,0.00918880272598776,-0.008823894110506263,0.00041391300857539557,21.021521501999814
1601,C,258047970710392.0,0.5005758149623059,6.895857375850111,4.842887660694767,8,1970-01-03 23:40:47.970710392,2.1907163,-1.4674017,0.18535602,12.397908366236658,2.643267392905761,-105.88990020751953,-10.927342414855957,167.3440399169922,21061335.0,39814.0,0.030999279535359248,0.06555916474249632,0.3721168046016514,0.004352965705085923,-0.0002813820321493695,0.010282950698214038,21.06133525201585
1601,C,258048010478829.0,2.550012514962306,8.787874375850112,3.282466710694767,8,1970-01-03 23:40:48.010478829,1.0223875,2.6248116,0.14434333,10.59491049399221,2.820593400787554,-105.81398010253906,-10.956246376037598,167.21343994140625,21101103.0,39768.0,0.06065789835222097,-0.07787107784919278,0.1615645463207095,0.0018225113251166447,-0.00024481008021355247,0.010611719981740224,21.101103688997682
1601,C,258048050367423.0,3.010297614962306,12.216970375850112,1.714863110694767,8,1970-01-03 23:40:48.050367423,2.5712821,3.8346858,0.21198763,7.637659616575384,4.621822754906884,-105.68589782714844,-11.107481956481934,167.0294189453125,21140992.0,39889.0,0.11089760538628142,0.028018926150285093,0.09966924462270356,0.003421588744312561,-0.0009942762395588646,0.005210177343470902,21.1409922830062
1601,C,258048090225340.0,4.877775114962306,8.09176037585011,-0.000582389305233022,8,1970-01-03 23:40:48.090225340,0.5073322,-0.5944176,-0.09853696,12.444416705730276,0.7876723791225902,-105.75408172607422,-11.281566619873047,167.07693481445312,21180850.0,39858.0,0.1572014014346676,0.014124295150633709,0.03416390049657202,0.005342945106934692,0.0008398722573060107,0.002667160749082043,21.180850200005807
1601,C,258048130633829.0,2.1687359149623058,10.283652375850112,1.352740110694767,8,1970-01-03 23:40:48.130633829,-0.5997439,-1.7148094,-0.3637878,9.396247657026741,1.852729226666544,-105.80531311035156,-11.173843383789062,167.16680908203125,21221258.0,40408.0,0.14236770884859687,-0.024741560764648726,0.027318994602954144,0.006052494304163076,-0.0002145112344655594,0.0012422004125908265,21.22125868900912
1601,C,258048170190079.0,1.351714514962306,10.105284375850111,1.9716413106947668,8,1970-01-03 23:40:48.170190079,-0.30652985,0.39148468,-0.45460162,9.353200193992384,0.6737087178613241,-105.72030639648438,-10.97850227355957,167.13510131835938,21260814.0,39556.0,0.06962746860304897,0.015603591075126984,0.0657496157522422,0.004192840619638652,-0.000180730764519361,0.0018407109756050732,21.26081493901438
1601,C,258048210180444.0,0.8740712849623059,10.752316375850112,2.455868610694767,8,1970-01-03 23:40:48.210180444,-0.11851067,-0.2495382,-0.3089267,8.620405421616619,0.41442707215622254,-105.72938537597656,-10.989992141723633,167.151611328125,21300805.0,39991.0,0.04450569996239258,0.025146355830621792,0.08853027463314443,0.0022821497720502864,0.0008148155633538996,0.0030849035482009984,21.30080530399573
1601,C,258048250015392.0,0.6579945749623058,11.56455007585011,2.5534323106947667,8,1970-01-03 23:40:48.250015392,-0.21944448,-1.134773,-0.073236935,7.809753887700801,1.1581145409585638,-105.75114440917969,-10.978121757507324,167.20823669433594,21340640.0,39835.0,0.030514921765048456,0.05411318755173917,0.09977275110177604,0.0014942232332563069,0.0015786519553181745,0.0037505255150752786,21.34064025201951
1601,C,258048289945757.0,1.341539154962306,10.657147375850112,2.796443810694767,8,1970-01-03 23:40:48.289945757,-0.74461985,-1.5952336,0.07563378,8.670291025987819,1.762086668770884,-105.80305480957031,-10.952799797058105,167.28538513183594,21380570.0,39930.0,0.039920690917944875,0.052342189623194924,0.10681027676354203,0.001406247007215962,0.002125381605297559,0.004124430151331075,21.380570617009653
1601,C,258048329653934.0,2.404564814962306,9.087149375850112,2.1817325106947667,8,1970-01-03 23:40:48.329653934,-0.46232477,-0.540888,0.0,10.403678590378684,0.7115504349654723,-105.67606353759766,-10.868461608886719,167.28250122070312,21420278.0,39708.0,0.07437514821888323,0.0028648677082562216,0.0988367126848678,0.0022692295902225854,0.0010960809162586312,0.004082915328508728,21.420278794015758
1601,C,258048369824350.0,2.3345343149623057,11.471774775850111,1.747783510694767,8,1970-01-03 23:40:48.369824350,-0.5605954,-0.68176925,0.0015978967,8.182491916660254,0.8826545564492297,-105.70654296875,-10.823759078979492,167.31515502929688,21460449.0,40171.0,0.09518717557410077,0.019260471048974805,0.07892629404761947,0.00340574405454398,0.00044439849160836375,0.0035704588717253728,21.46044921001885
1601,C,258048409492839.0,2.159757614962306,11.563352775850111,2.460058410694767,8,1970-01-03 23:40:48.409492839,-0.76725674,-1.0990866,0.01917476,7.907469043413133,1.3405379259073744,-105.62832641601562,-10.750962257385254,167.3450164794922,21500117.0,39668.0,0.08913978613812475,0.06813231986042219,0.08345833666884002,0.003655940958600281,0.0017333486148969801,0.0032207367656302576,21.500117699004477
1601,C,258048449527265.0,0.7238351149623059,10.273476375850112,1.161802610694767,8,1970-01-03 23:40:48.449527265,-0.24820662,-1.155013,-0.15393071,9.389779764123796,1.191367374012705,-105.65167999267578,-10.742804527282715,167.4037322998047,21540152.0,40035.0,0.05772231747126591,0.044775727544159205,0.072500602995665,0.0029398121590009777,0.002260136838921208,0.0031219080747342293,21.54015212500235
1601,C,258048489931954.0,-1.2902870850376944,9.525288375850112,-0.7715150893052329,8,1970-01-03 23:40:48.489931954,-0.6628608,-1.449026,0.09134643,11.029335272332757,1.596059196623479,-105.69781494140625,-10.718833923339844,167.47348022460938,21580556.0,40404.0,-0.011443462699463,0.0040154455138478986,0.007884588507111366,0.0009349254240999624,0.0009856792781178596,0.0016239416387390884,21.58055681400583
1601,C,258048529512110.0,-1.7523680850376944,7.203511375850111,-2.500727589305233,8,1970-01-03 23:40:48.529512110,-1.6767262,-0.67298084,0.6282397,13.917026380549697,1.9128510348246242,-105.7861557006836,-10.679471969604492,167.49777221679688,21620136.0,39580.0,-0.06021414581579194,-0.05682105291385262,-0.06475768260970112,-0.001418104072516895,-0.0010450229704460933,-0.0011255185322902512,21.620136970013846
1601,C,258048569256850.0,0.6980974449623059,5.626331375850112,1.1115244106947668,8,1970-01-03 23:40:48.569256850,-1.639442,0.8527442,1.1230551,13.909554336751166,2.1624512710425754,-105.85752868652344,-10.637073516845703,167.44046020507812,21659881.0,39745.0,-0.02095099329489816,-0.13453994991683735,-0.02760694016693649,-0.001612954226977189,-0.0038028215287528866,-0.001835515966128731,21.659881710016634
1601,C,258048609275495.0,4.873585114962306,6.923389375850112,2.5372714106947667,8,1970-01-03 23:40:48.609275495,-1.1664646,0.3502057,1.0080065,12.994966370356387,1.5809366841869095,-105.91011047363281,-10.593389511108398,167.40928649902344,21699900.0,40019.0,0.11148658218281152,-0.14107256261885437,0.07301057998809386,0.0018115718658527021,-0.005514868569582924,0.0009085041310014485,21.699900355015416
1601,C,258048649198881.0,4.905906814962306,6.6516473758501125,0.8529506106947671,8,1970-01-03 23:40:48.649198881,-0.20799288,0.083090626,0.66339344,13.540603218233,0.7001827950576905,-105.86256408691406,-10.717839241027832,167.3856964111328,21739823.0,39923.0,0.19521332815919015,-0.120267303880936,0.06767391687996718,0.006122190260291867,-0.005216735745135565,0.002808273584231801,21.73982374102343
1601,C,258048689016120.0,1.354707274962306,10.190877375850112,0.6410638106947668,8,1970-01-03 23:40:48.689016120,0.34434673,-0.07962852,0.8311726,9.635864090769793,0.9031961374196876,-105.94474029541016,-10.464366912841797,167.39662170410156,21779640.0,39817.0,0.12463943560926413,-0.0548971959807761,0.029743586108233536,0.006367788747484272,-0.003487262445496895,0.001939436358240594,21.77964098000666
1601,C,258048728999975.0,1.6617636149623058,10.055006375850112,0.4998058106947667,8,1970-01-03 23:40:48.728999975,0.5406217,0.1717739,0.3587278,9.828042132201418,0.6711659479778007,-106.02660369873047,-10.286853790283203,167.40328979492188,21819624.0,39984.0,0.060305286031372834,0.012912507963990865,0.022808265470819555,0.003697414875039614,-0.0008393578828315704,0.0010506166167684294,21.81962483501411
1601,C,258048768686016.0,3.3137628149623057,10.724185375850112,0.17958121069476674,8,1970-01-03 23:40:48.768686016,0.46392268,0.43196473,0.20719394,9.589838119515319,0.6668936270163922,-106.18586730957031,-10.378244400024414,167.4127655029297,21859310.0,39686.0,0.09872937094899407,0.02339870192898753,0.013481076665432511,0.00315572469846142,0.0007205233379063704,0.0007200894160096497,21.859310875996016
1601,C,258048808622318.0,3.842881314962306,12.07750767585011,0.8164389106947669,8,1970-01-03 23:40:48.808622318,0.66365975,0.29214877,-0.17124127,8.313751489917868,0.7450629101852999,-106.15054321289062,-10.39053726196289,167.40093994140625,21899247.0,39937.0,0.1429074483083996,0.06393300770287587,0.019889027793966903,0.004825124825341265,0.0017438832437838643,0.0006663509308975172,21.89924717802205
1601,C,258048849162527.0,2.7547166149623057,12.838864075850111,1.517940110694767,8,1970-01-03 23:40:48.849162527,0.742223,0.15765914,-0.7004114,7.064708951869492,1.032631355036491,-106.21955108642578,-10.528675079345703,167.4222869873047,21939787.0,40540.0,0.13373331003957187,0.10776285540696347,0.04731786276356585,0.005607508171713382,0.0034802751452364432,0.001362283671601189,21.93978738700389
1601,C,258048888540027.0,2.717606614962306,12.126588975850112,1.821404910694767,8,1970-01-03 23:40:48.888540027,0.8860337,0.5153217,-0.93423694,7.619751922002117,1.3868708779432726,-106.17576599121094,-10.644941329956055,167.4108428955078,21979164.0,39377.0,0.10774183591237073,0.10563772240839982,0.06574669445362784,0.0047542834110748215,0.00420153727631778,0.002226071534770718,21.97916488701594
1601,C,258048928504350.0,2.574553014962306,8.990185375850112,0.9487186106947667,8,1970-01-03 23:40:48.928504350,0.5344964,1.3518206,-0.9755159,10.793670464052589,1.7506389140397085,-106.13724517822266,-10.655427932739258,167.35821533203125,22019129.0,39965.0,0.10575057980496856,0.0303089434828497,0.05535399326616636,0.004266112197071732,0.0027165542511718935,0.0024198944923607877,22.019129210006213
1601,C,258048968407631.0,1.7132390149623058,10.17651237585011,0.32323341069476674,8,1970-01-03 23:40:48.968407631,0.4079963,1.8948392,-0.8000136,9.781485684122142,2.0968782355814777,-106.23921966552734,-10.56125545501709,167.30224609375,22059032.0,39903.0,0.08554788268504089,-0.008645029806953029,0.025377350754753277,0.0038166912743694235,0.00043222757370465245,0.0016107114102333782,22.059032491000835
1601,C,258049008326693.0,0.8585089649623059,10.672709375850111,-0.8128150893052335,8,1970-01-03 23:40:49.008326693,0.6218481,1.5472966,-0.71292824,9.790375206653428,1.8135844350993606,-106.19611358642578,-10.617093086242676,167.23680114746094,22098951.0,39919.0,0.051330803805305296,0.024933841553060557,-0.009771805514225611,0.0027320301430040646,0.0003251165380464333,0.00031147888022831197,22.098951553023653
1601,C,258049048193777.0,1.1116958049623058,11.431073375850112,0.624304410694767,8,1970-01-03 23:40:49.048193777,0.101999074,0.017310547,-0.1917476,8.48014603504792,0.21787750742115783,-106.19133758544922,-10.626538276672363,167.23867797851562,22138818.0,39867.0,0.03927307678129225,0.04990915348101636,-0.0037576776120817326,0.0018060524536729421,0.0014918828415117723,-0.00026968995189824744,22.13881863700226
1601,C,258049088196798.0,1.7934447149623058,11.014481375850112,2.056036910694767,8,1970-01-03 23:40:49.088196798,-0.10279802,-0.6498113,0.060453758,8.478022603247364,0.6606639201439207,-106.11318969726562,-10.485410690307617,167.2532501220703,22178821.0,40003.0,0.05810716810927211,0.05691536336613198,0.053610846939772756,0.001947750968178623,0.0021366505737182373,0.000997138166307812,22.178821658017114
1601,C,258049128029037.0,2.512303714962306,10.903151375850111,0.20172771069476703,8,1970-01-03 23:40:49.128029037,0.18295917,-0.5139901,0.19014971,9.25742738438248,0.5777688058368875,-106.30390930175781,-10.445810317993164,167.3112335205078,22218653.0,39832.0,0.08575328573037856,0.046157973882861615,0.044965640199593954,0.0028651247986704828,0.0020528085846509563,0.0019632493178676274,22.21865389699815
1601,C,258049167989298.0,3.1395846149623057,10.264498875850112,-0.7272223893052332,8,1970-01-03 23:40:49.167989298,-0.0743022,1.1994878,-0.01784318,10.335316171812003,1.2019193726478463,-106.29704284667969,-10.46349811553955,167.25296020507812,22258614.0,39961.0,0.11292755477605872,0.03132243585409629,-0.01049964642597642,0.00396974253373887,0.0015480973267492876,0.0006886477885937652,22.258614157995908
1601,C,258049208134610.0,2.639795014962306,11.652537075850113,1.744192210694767,8,1970-01-03 23:40:49.208134610,-0.12623383,1.7941717,-0.15100123,8.068666725148335,1.804934469829548,-106.27790832519531,-10.52914047241211,167.16574096679688,22298759.0,40145.0,0.11600659762166177,0.04650870414050273,0.020413126739841417,0.0045952807740032445,0.0015622655575415888,0.00019898833360005515,22.298759469995275
1601,C,258049247706798.0,4.066739214962306,8.896211375850111,-0.8984080893052329,8,1970-01-03 23:40:49.247706798,0.3549994,1.1773835,0.27696875,11.821058549854213,1.2605428071069908,-106.45993041992188,-10.648956298828125,167.14305114746094,22338331.0,39572.0,0.1326954862732884,0.0187719368653406,0.01673468462581332,0.0049208194319454845,0.001291642762941616,0.0007350065956808447,22.338331658014795
1601,C,258049287581641.0,5.329680614962307,4.529787375850111,1.262358910694767,8,1970-01-03 23:40:49.287581641,0.14088123,-0.5360943,0.05672533,15.571535682954396,0.5571915133259047,-106.30464935302734,-10.7781982421875,167.1399688720703,22378206.0,39875.0,0.18734112035912195,-0.12309414988797686,0.007256269501453838,0.006380729844733681,-0.0020799241221388103,0.00047831964791238894,22.378206501016393
1601,C,258049327382266.0,2.8157689149623057,6.2356563758501125,1.5388892106947667,8,1970-01-03 23:40:49.327382266,-1.1616709,-1.4354439,-0.025832662,13.352279444460985,1.8467933821573075,-106.22523498535156,-10.687734603881836,167.18234252929688,22418007.0,39801.0,0.16209851837026476,-0.17581208661928974,0.05574623823971242,0.006954023530534161,-0.005948383559612859,0.0012537814053030791,22.418007126019802
1601,C,258049367344662.0,2.8762224149623057,1.6244233758501103,1.611912610694767,8,1970-01-03 23:40:49.367344662,0.024234766,0.38748994,-0.40240365,17.872974201229518,0.5591640859511642,-105.99981689453125,-10.59979248046875,167.128173828125,22457969.0,39962.0,0.11373167876322367,-0.23457534648127787,0.06295617119318427,0.005511363168924232,-0.008199951300782441,0.0023717928428787084,22.457969522016356
1601,C,258049407358412.0,-0.5534714850376942,13.077685375850113,11.608901610694767,8,1970-01-03 23:40:49.407358412,-0.9504822,-2.744654,0.24820662,9.988557721283243,2.9151584036625975,-106.07131958007812,-10.549955368041992,167.25885009765625,22497983.0,40014.0,0.04647127785500171,-0.09799211020473367,0.26450883012734044,0.003205180553060835,-0.006653677105917032,0.0065515922814197375,22.49798327201279
1601,C,258049447255443.0,2.955231114962306,7.249001375850112,4.548999410694767,8,1970-01-03 23:40:49.447255443,1.8445054,0.10626013,0.8679242,12.176358745584967,2.041270144493966,-105.97592163085938,-10.509713172912598,167.24147033691406,22537880.0,39897.0,0.04791150197755112,0.014496310666291897,0.3223258885251891,0.0018827948834896802,-0.0016656159570926058,0.011706472385039987,22.537880303018028
1601,C,258049486925704.0,3.5442046149623057,10.821150375850111,1.6843369106947668,8,1970-01-03 23:40:49.486925704,1.7664748,1.4604776,0.40879524,9.08232735290801,2.3282056583093036,-105.84422302246094,-10.6553373336792,167.15884399414062,22577550.0,39670.0,0.12891630770305465,-0.0303445400050261,0.1236382259347614,0.0035073796050148153,-0.00031434962893379297,0.008845698210313118,22.577550564019475
1601,C,258049526848777.0,7.172617614962306,10.391989875850111,-0.9851980893052334,8,1970-01-03 23:40:49.526848777,1.8120148,0.7731157,0.49614692,11.857485236212241,2.0315676920129975,-105.74536895751953,-10.641990661621094,167.11412048339844,22617473.0,39923.0,0.21392384694264013,0.03220069913431396,0.01395585958316717,0.0068436037469600365,3.7051720459279646e-05,0.002746584338066131,22.61747363701579
1601,C,258049567228412.0,2.560187814962306,9.311606375850111,2.479212010694767,8,1970-01-03 23:40:49.567228412,-0.5952165,-1.355549,-1.1653993,10.16124715203644,1.8841314449140059,-105.60081481933594,-10.638094902038574,167.16159057617188,22657853.0,40380.0,0.1965053416301779,0.0020916083218274644,0.03016414107285468,0.008286565317285197,0.0006923616875394953,0.0008907828132450811,22.657853272015927
1601,C,258049606763412.0,0.08937165496230581,10.002931375850112,1.5957516106947667,8,1970-01-03 23:40:49.606763412,-0.0892159,0.16804546,-1.0902982,9.573077186964321,1.1067741044868469,-105.60650634765625,-10.692859649658203,167.1682891845703,22697388.0,39535.0,0.05237516682173477,-0.005642874993265861,0.08055184338581761,0.004919745450823184,-7.019966392765851e-05,0.0021885782227868042,22.6973882720049
1601,C,258049646666329.0,-1.5033710850376942,9.833542375850111,1.631664610694767,8,1970-01-03 23:40:49.646666329,0.7307714,-0.484429,-0.40932786,10.002413201845311,0.9675988797384686,-105.57540130615234,-10.706061363220215,167.19761657714844,22737291.0,39903.0,-0.02821140962914911,0.004718006057046984,0.06439179474105328,0.0004821032016278728,-1.845252258097093e-05,0.0028918429960882648,22.737291188997915
1601,C,258049686440183.0,-0.950310385037694,11.39516037585011,1.100151910694767,8,1970-01-03 23:40:49.686440183,-0.3898868,-1.5851135,0.2543319,8.563312734228559,1.6520536432132282,-105.60867309570312,-10.672511100769043,167.27183532714844,22777065.0,39774.0,-0.048796363395389244,0.03239001162306229,0.05432763516087366,-0.0015314535821389942,0.0007379671476043331,0.002360973302459621,22.7770650430175
1601,C,258049726468464.0,0.5227221949623059,12.408506075850113,1.1181083106947667,8,1970-01-03 23:40:49.726468464,-0.39388153,-1.3321131,0.44048685,7.40210232061737,1.4572908549392853,-105.6393051147461,-10.633360862731934,167.3310546875,22817093.0,40028.0,-0.008557750036168819,0.08413218036432825,0.04439626007089013,-0.001147885226219203,0.0023320751504356343,0.0019758600391685203,22.81709332400351
1601,C,258049766226798.0,2.110077914962306,11.057578375850111,2.7198293106947666,8,1970-01-03 23:40:49.766226798,-1.0902982,-0.46046057,0.5520733,8.352219989917007,1.3059705318347943,-105.5109634399414,-10.529458045959473,167.31190490722656,22856851.0,39758.0,0.05233743338519136,0.07685389281534874,0.07629436197560253,0.0008702963252952192,0.0032002421487387993,0.002399208875662228,22.85685165799805
1601,C,258049806158152.0,2.807987714962306,10.333332375850112,3.247152210694767,8,1970-01-03 23:40:49.806158152,-0.9539443,0.03009372,0.011451593,9.122684288027559,0.9544875580478596,-105.55836486816406,-10.529312133789062,167.31028747558594,22896783.0,39932.0,0.09819409836707482,0.03575732406844664,0.11913675305606342,0.003005512562965747,0.0022483955563018586,0.0039019776427222422,22.89678301202366
1601,C,258049846163204.0,1.7329911149623058,10.298017375850112,2.981994410694767,8,1970-01-03 23:40:49.846163204,-0.38722363,-0.35420042,-0.18642128,9.02904779395599,0.5569137911700444,-105.58134460449219,-10.533534049987793,167.33016967773438,22936788.0,40005.0,0.09083092904556704,0.0206295734083837,0.12459850529434414,0.003780973110821369,0.0011278789167802987,0.004875314505154027,22.93678806402022
1601,C,258049885987682.0,0.6567974749623058,10.146583375850112,0.7589782106947669,8,1970-01-03 23:40:49.885987682,-0.29827404,-1.6964337,0.026631612,9.637263485945539,1.7226618774998563,-105.61136627197266,-10.50944709777832,167.41290283203125,22976612.0,39824.0,0.047585470402578864,0.016817690167854817,0.07449024683710839,0.002756147345811481,0.0007456499123300614,0.0039642552324414835,22.976612541999202
1601,C,258049926291641.0,-0.5403032850376942,9.944274375850112,-1.5550180893052334,8,1970-01-03 23:40:49.926291641,-0.87538105,-1.4048175,0.12037488,10.89776909152977,1.6596066710941986,-105.66737365722656,-10.484716415405273,167.48004150390625,23016916.0,40304.0,0.0023475909153607725,0.009891765412262877,-0.01604179563375812,0.0010062510516791194,0.0005382489488505317,0.0011778531886499147,23.016916501015658
1601,C,258049966072318.0,-2.541855885037694,8.493387375850112,-0.2824996893052334,8,1970-01-03 23:40:49.966072318,-1.7587516,-0.11824436,0.48629323,12.071332980658424,1.8285704866693553,-105.75513458251953,-10.459708213806152,167.47914123535156,23056697.0,39781.0,-0.061305686972384504,-0.023119488927806717,-0.036549147375451486,-0.0011727060096222305,-0.00026310603458592477,-0.0010460601519246837,23.05669717802084
1601,C,258050005608255.0,-1.5500579850376943,6.409834375850112,-1.9135493893052336,8,1970-01-03 23:40:50.005608255,-1.5198661,0.8226505,1.336108,14.32422026176187,2.184475084486765,-105.82050323486328,-10.4066162109375,167.42041015625,23096233.0,39536.0,-0.08088895338365028,-0.09284591241239,-0.04341149818597171,-0.002810903650558096,-0.002292404053693009,-0.0015806620414582139,23.096233115007635
1601,C,258050045825598.0,6.9493581149623065,3.730123375850111,4.308980690694767,8,1970-01-03 23:40:50.045825598,-1.3286511,0.49827746,1.3630059,16.628074096581585,1.9675820837032625,-105.87913513183594,-10.347862243652344,167.3771209716797,23136450.0,40217.0,0.10857182666258906,-0.1902272595499361,0.04816853032399144,0.0005566610573295406,-0.005692176878404435,9.565678074736973e-05,23.136450457997853
1601,C,258050085577786.0,8.137480914962305,8.006167375850112,0.8176361106947669,8,1970-01-03 23:40:50.085577786,-0.53103435,0.25193503,0.6010755,13.675551551397767,0.840690488182942,-105.9019775390625,-10.322402954101562,167.3564453125,23176202.0,39752.0,0.2998660125587816,-0.15629908501920642,0.1018966355444184,0.008118110492363963,-0.006887557624656278,0.002982695236800514,23.1762026460201
1601,C,258050125650181.0,3.7070104149623058,10.991138375850111,0.1885596106947669,8,1970-01-03 23:40:50.125650181,0.4745753,-0.054328486,0.5470133,9.455143083978081,0.7262209375513985,-105.87735748291016,-10.295354843139648,167.3514862060547,23216275.0,40073.0,0.23732215053203448,-0.012075883306058513,0.020160640571621393,0.010763370629769136,-0.0033736450528491706,0.002445600612899031,23.216275041020708
1601,C,258050165435546.0,3.2090165149623058,11.391568875850112,0.791898310694767,8,1970-01-03 23:40:50.165435546,0.47217846,-0.19680761,-0.25086978,8.73873383476254,0.5697555440354505,-105.99737548828125,-10.41606330871582,167.3899688720703,23256060.0,39785.0,0.13757706570352535,0.055355004004446665,0.019503759201241304,0.007457682658965874,0.0008609299084926863,0.0007890240724816711,23.256060406012693
1601,C,258050208859504.0,3.944036414962306,11.745910775850112,1.496392310694767,8,1970-01-03 23:40:50.208859504,0.84821683,0.2761698,-0.22743396,8.416040891012422,0.9205801188862219,-105.9531021118164,-10.43079662322998,167.37965393066406,23299484.0,43424.0,0.15530708521452316,0.07680575819771522,0.04968336597160956,0.006359100684732669,0.0028694744689333387,0.0015021908617529377,23.29948436401901
1601,C,258050245289296.0,4.432453614962306,13.94318937585011,1.561035710694767,8,1970-01-03 23:40:50.245289296,1.3169332,-0.22743396,-0.6713829,6.745512955709777,1.495591607971886,-105.8909683227539,-10.459959030151367,167.400146484375,23335914.0,36430.0,0.15257776589507677,0.11091295926321951,0.05569105140961036,0.0056081225629613625,0.0034192964385509257,0.0019193950125989206,23.335914156021317
1601,C,258050285490702.0,1.741370814962306,13.900093775850111,-1.103710589305233,8,1970-01-03 23:40:50.285490702,0.92731273,0.9962886,-1.417068,7.368049613334227,1.964836275706964,-105.83931732177734,-10.541730880737305,167.37109375,23376115.0,40201.0,0.12409695795369965,0.16569411299075032,0.009192463602490328,0.005561300286722331,0.005559940455840921,0.0013041910935007298,23.37611556201591
1601,C,258050325119139.0,-2.2168431850376944,6.736044375850112,-1.446081589305233,8,1970-01-03 23:40:50.325119139,0.10945592,2.5028389,-1.5102787,13.982923073231486,2.9252563835414405,-105.8151626586914,-10.648512840270996,167.2695770263672,23415743.0,39628.0,-0.009421009540673746,0.02053004133778819,-0.05052158222698777,0.002272189241855695,0.0036898453938656616,-0.0008188951564257923,23.415743999008555
1601,C,258050364847577.0,-1.3459523850376942,11.126410375850112,-1.1102947893052328,8,1970-01-03 23:40:50.364847577,0.6354303,2.194445,-0.42077947,9.829313458835356,2.323018701292904,-105.76458740234375,-10.698615074157715,167.16795349121094,23455472.0,39729.0,-0.07077315260176256,-0.03451546758485094,-0.0507811385729076,-0.0015930169338784262,-0.000277813499684778,-0.0020123278973295214,23.45547243699548
1601,C,258050404956483.0,1.7742911149623057,12.842455075850111,1.712468910694767,8,1970-01-03 23:40:50.404956483,0.3470099,0.9787117,0.114782244,6.817221803329517,1.0447331840965786,-105.81768035888672,-10.604410171508789,167.13319396972656,23495581.0,40109.0,0.008590119059273121,0.0876154122011221,0.012076300917406413,-0.0012470496461778544,0.0010648928393070098,-0.0007762061667622485,23.495581343013328
1601,C,258050444791691.0,3.429283014962306,11.261084775850112,1.336579410694767,8,1970-01-03 23:40:50.444791691,0.23835292,-0.37710363,0.531567,8.738469743427562,0.6939616255389799,-105.85733032226562,-10.713610649108887,167.15342712402344,23535416.0,39835.0,0.10364218773277345,0.08969925499623917,0.06072941994127605,0.0022353869705305876,0.0035316648839034434,0.0014501079452028081,23.535416551021626
1601,C,258050484761535.0,4.042797214962306,10.807982375850111,0.09997391069476702,8,1970-01-03 23:40:50.484761535,0.4463458,0.41891524,0.504669,9.749966592636202,0.793350711251271,-105.82989501953125,-10.695052146911621,167.1259002685547,23575386.0,39970.0,0.14932952339504335,0.04934430702672892,0.028709518127969836,0.0050556396468894186,0.002778785587029017,0.0017874371773138789,23.575386395008536
1601,C,258050524551691.0,4.779612614962306,9.733584375850112,-1.456855689305233,8,1970-01-03 23:40:50.524551691,0.45513424,1.8844528,0.23462449,11.561770694505654,1.9527821647987207,-105.78941345214844,-10.70943832397461,167.03038024902344,23615176.0,39790.0,0.17552184356635017,0.018732470525075914,-0.026995162985455217,0.006462917945696923,0.001354387489393157,3.4107095560328345e-05,23.615176551014883
1601,C,258050564648462.0,7.671210014962306,6.073448375850111,0.9092143106947668,8,1970-01-03 23:40:50.564648462,0.25965822,1.8724686,-0.15739283,15.073446074487935,1.8969273976973755,-105.759765625,-10.742463111877441,166.9408721923828,23655273.0,40097.0,0.2496203174960436,-0.0760433038775381,-0.01097938817907193,0.008523462616059402,-0.0011489962424668383,-0.0007613327890220226,23.655273322016
1601,C,258050604176431.0,2.233977814962306,7.845755375850112,4.762681910694766,8,1970-01-03 23:40:50.604176431,-1.3981596,-1.9550266,-0.87325054,11.502354092537825,2.5572535618100156,-105.84978485107422,-10.757850646972656,167.0487060546875,23694801.0,39528.0,0.19576613227063003,-0.11227525705139682,0.11209935691954273,0.008802617793188538,-0.00372192803819947,0.0019985350621866647,23.6948012910143
1601,C,258050644764608.0,-1.0221364850376942,4.316104375850111,-3.8534516893052335,8,1970-01-03 23:40:50.644764608,0.80374205,1.3755227,-0.299073,16.949184971814987,1.6209591729844688,-105.79779052734375,-10.79099178314209,166.98548889160156,23735389.0,40588.0,0.024593107949490073,-0.1509496181989957,0.01845191811287918,0.004471970421027117,-0.005341885618331465,0.0026494075755079706,23.735389467998175
1601,C,258050684185025.0,0.6986959949623058,7.900822375850112,3.422527510694767,8,1970-01-03 23:40:50.684185025,-1.7006947,-2.3904533,0.4426174,11.362050777984484,2.966907414273613,-105.90351867675781,-10.737052917480469,167.09637451171875,23774809.0,39420.0,-0.0063750120593859035,-0.14552037372398863,-0.008493515560412295,0.0003590786699939531,-0.00584342354080202,0.0001962801143091223,23.774809885013383
1601,C,258050724024921.0,2.4554415149623057,9.973004375850111,6.497281110694766,8,1970-01-03 23:40:50.724024921,0.009054748,-1.5078819,0.057257965,9.741104257995962,1.5089957877227145,-105.91665649414062,-10.713635444641113,167.16937255859375,23814649.0,39840.0,0.06283041919769826,-0.03438537110613158,0.1976025877380795,0.001124591710195182,-0.0035837224370159943,0.0037670527177791307,23.814649781008484
1601,C,258050763890337.0,5.1830360149623065,6.855754375850111,2.740778510694767,8,1970-01-03 23:40:50.763890337,1.9004318,1.4098775,0.32330775,13.134813816901644,2.3882888210322366,-105.80797576904297,-10.717353820800781,167.0958709716797,23854515.0,39866.0,0.1522577726039873,-0.05523915180235949,0.18414224243315758,0.004287352927182997,-0.0017864856151349525,0.007609319699803268,23.854515197017463
1601,C,258050803943566.0,2.680496514962306,10.198658375850112,-0.10473008930523298,8,1970-01-03 23:40:50.803943566,1.7449032,1.8788602,0.08149273,10.042943484216687,2.5654324963945423,-105.9059829711914,-10.715909957885742,167.0404052734375,23894568.0,40053.0,0.15747903421053525,-0.05097920302807551,0.0527908237109575,0.006202944161671035,-0.0021271818830117064,0.00474494004913512,23.894568426010665
1601,C,258050843897629.0,2.1651446149623057,9.272700375850112,0.8481622106947668,8,1970-01-03 23:40:50.843897629,0.049534798,-1.5957662,-0.21598236,10.50060946348173,1.611077850728049,-105.94745635986328,-10.597183227539062,167.12684631347656,23934522.0,39954.0,0.09680137285250398,-0.002569866217284649,0.014851543488998718,0.005079759691898335,-0.0010697497563145599,0.0013512915695535256,23.934522488998482
1601,C,258050883559243.0,0.15581074496230585,10.420720375850111,-1.6166685893052333,8,1970-01-03 23:40:50.883559243,0.41545314,-0.49881008,-0.29933932,10.44761010149259,0.7148544159082522,-105.93193817138672,-10.60472583770752,167.15542602539062,23974184.0,39662.0,0.04602686574266498,0.001852626926967105,-0.01524024999422416,0.002832426799580796,-1.4223572366287217e-05,-7.708438705125744e-06,23.97418410301907
1601,C,258050923442004.0,0.39463237496230585,11.117432375850111,-4.205399089305233,8,1970-01-03 23:40:50.923442004,-1.330249,-2.2564964,0.40772998,11.502175294376102,2.6509587212562855,-106.01765441894531,-10.55407428741455,167.26007080078125,24014066.0,39882.0,0.010976386254416682,0.0386487040216541,-0.11609785157917131,0.0011367018480738054,0.0008076370404464555,-0.002619013083475079,24.014066864008782
1601,C,258050963307108.0,4.432453614962306,9.293649875850111,-1.3946064893052328,8,1970-01-03 23:40:50.963307108,-3.2061796,-2.9150963,0.82105255,11.792625255676779,4.410385624363402,-106.20183563232422,-10.474188804626465,167.39089965820312,24053931.0,39865.0,0.09621589149417233,0.016166896982014643,-0.1116221111956531,0.0021366100762237506,0.001092611967005627,-0.004539028158009188,24.053931967995595
1601,C,258051003716014.0,2.353687914962306,13.44878687585011,7.2406808106947675,8,1970-01-03 23:40:51.003716014,-2.9856699,-0.8386294,1.011735,6.826714951204419,3.262074758882048,-106.35592651367188,-10.413877487182617,167.4174041748047,24094340.0,40409.0,0.13711059654136182,0.0634913633497271,0.11811700862651486,0.004714245027513949,0.0016094553208726764,0.0001312261551418465,24.09434087399859
1601,C,258051043179400.0,1.413365214962306,17.290881975850112,7.594424110694767,8,1970-01-03 23:40:51.043179400,-2.4197483,0.39787626,1.7012273,4.195456802148124,2.984570602262538,-106.4690170288086,-10.337902069091797,167.37356567382812,24133804.0,39464.0,0.07433149235967244,0.21980794578174878,0.2927262903088583,0.004172175298195208,0.005590061967782282,0.008106759974592783,24.133804259996396
1601,C,258051083021275.0,3.001918014962306,19.826341505850113,8.712516410694766,8,1970-01-03 23:40:51.083021275,-1.5172029,-0.30652985,0.45193845,5.240429807141957,1.6124867600379964,-106.54638671875,-10.311883926391602,167.38198852539062,24173646.0,39842.0,0.08795685722332819,0.3489606089789502,0.32485056212660096,0.003232946212042956,0.011330438379387886,0.012302748477366784,24.173646135022864
1601,C,258051123005754.0,1.3164000549623058,16.128497075850113,3.687685360694767,8,1970-01-03 23:40:51.123005754,1.6583505,-0.31372038,-0.31691617,3.1449099214608145,1.7172602355161735,-106.46702575683594,-10.322617530822754,167.40185546875,24213630.0,39984.0,0.08633181485393283,0.32696593292535087,0.24790483381361952,0.003484379132168602,0.013513123425750785,0.011450525875636889,24.213630614016438
1601,C,258051163193045.0,2.955829614962306,10.31896737585011,0.9576967106947669,8,1970-01-03 23:40:51.163193045,2.5489116,0.44448158,-1.4322481,9.607613528256486,2.957338134121201,-106.3845443725586,-10.43470287322998,167.40882873535156,24253817.0,40187.0,0.0858440468726302,0.13758952696023843,0.0933419846514656,0.003459615677602694,0.00933454513321109,0.006856842946828188,24.253817905002506
1601,C,258051202723827.0,2.841506514962306,2.615622375850112,-5.760433089305234,8,1970-01-03 23:40:51.202723827,3.0431943,2.8107002,-1.9430424,19.327789311132545,4.575639947595341,-106.21243286132812,-10.567392349243164,167.2993621826172,24293348.0,39531.0,0.11458724727602491,-0.13174516626276928,-0.09492848589142518,0.003961624744495243,0.00011551671136582665,-3.135799025842088e-05,24.293348687002435
1601,C,258051242839816.0,0.35632521496230585,-0.3645596241498872,-8.972853089305234,8,1970-01-03 23:40:51.242839816,2.0804615,1.6943032,0.026365295,23.473372534511622,2.6832216671928037,-106.09315490722656,-10.58969497680664,167.21621704101562,24333464.0,40116.0,0.06414210883882786,-0.34798498332639693,-0.29552025417056876,0.0035849534249517167,-0.009622427340459495,-0.007831620828163475,24.333464676019503
1601,C,258051282602525.0,-0.8006728850376942,13.909670375850112,-3.326727089305233,8,1970-01-03 23:40:51.282602525,0.2860235,-0.619185,-0.20639499,9.16818318991954,0.712599746473678,-106.08493041992188,-10.591028213500977,167.2493896484375,24373227.0,39763.0,-0.008834298202603834,-0.12038028059007201,-0.244534103321044,0.001099602237164088,-0.009311803994555277,-0.0107370907084695,24.373227385018254
1601,C,258051322441327.0,2.085537314962306,13.470933375850112,7.642308110694767,8,1970-01-03 23:40:51.322441327,-2.271144,1.0900319,0.18855181,6.966128384826046,2.5262257216661945,-106.18820190429688,-10.597119331359863,167.19346618652344,24413066.0,39839.0,0.0255938570118833,0.1549857364319926,0.08596421615556882,0.00033384203170144235,0.0006893233776431371,-0.003158632867392683,24.413066187000368
1601,C,258051362876900.0,12.283041614962306,-0.3645596241498872,7.613577710694766,8,1970-01-03 23:40:51.362876900,2.3845944,2.667156,0.64182186,22.93312401910465,3.6348241884334955,-106.04334259033203,-10.603307723999023,167.05406188964844,24453501.0,40435.0,0.2904967445157508,-0.1312848886750007,0.30843587159394287,0.006390561736384943,0.0004791718895269834,0.007973783774075753,24.4535017599992
1601,C,258051402419087.0,2.886996314962306,10.139401375850111,1.5795909106947668,8,1970-01-03 23:40:51.402419087,-1.9473034,-3.1965923,0.175236,9.591502781357116,3.7471189625853687,-106.1264419555664,-10.570700645446777,167.20001220703125,24493043.0,39542.0,0.2999268199125395,-0.1942532037271349,0.18175813681349248,0.011673264292311726,-0.006436213624882623,0.009691625740223404,24.49304394700448
1601,C,258051442234035.0,2.263905314962306,9.400191375850111,8.509008910694767,8,1970-01-03 23:40:51.442234035,-1.3598101,-0.46552056,-0.5435512,10.944609132101014,1.5366329447419003,-106.20001220703125,-10.590323448181152,167.23045349121094,24532858.0,39815.0,0.10254157419772421,-0.0012025572955278428,0.20083880094431217,0.008012139555750076,-0.0038910355625586587,0.007616548538413497,24.53285889502149
1601,C,258051482236587.0,3.449035314962306,10.271681375850111,5.873591510694767,8,1970-01-03 23:40:51.482236587,1.0554107,1.4554175,-0.25007084,9.512849424049035,1.8151218333762187,-106.13481903076172,-10.62259578704834,167.1628875732422,24572861.0,40003.0,0.11426738200943712,0.0014375628431319725,0.2876735823284227,0.004336504337577537,4.700463460404e-06,0.009770980434029606,24.572861446999013
1601,C,258051522225025.0,1.682712914962306,15.96030437585011,0.24542191069476704,8,1970-01-03 23:40:51.522225025,2.077532,0.6383597,-0.2724414,4.970583121116324,2.1904033039698536,-106.02587127685547,-10.644522666931152,167.13552856445312,24612849.0,39988.0,0.1026041741091127,0.13259992311949423,0.12234355434726235,0.004336129893034285,0.0026799454943367486,0.008197882630693648,24.61284988501575
1601,C,258051561896275.0,-0.16740638503769423,14.198171775850112,-0.5877603893052332,8,1970-01-03 23:40:51.561896275,0.5089301,-3.5995286,0.38376153,6.860108448537986,3.655528539187174,-106.03182983398438,-10.576384544372559,167.30612182617188,24652521.0,39672.0,0.030057620327584595,0.2094379329451256,-0.006790626061717207,0.0026314793544463273,0.006784662912897799,0.0022921078854720735,24.652521135023562
1601,C,258051601991483.0,3.157541214962306,10.177708375850111,0.371117410694767,8,1970-01-03 23:40:51.601991483,0.43036684,-1.3944311,0.3720436,9.974348933891426,1.5060113379120874,-106.15251922607422,-10.589491844177246,167.39305114746094,24692616.0,40095.0,0.05994472800291365,0.09574445734121018,-0.004343150113693322,0.0018043220781556635,0.006118143969265316,-0.00022320437787654254,24.692616343003465
1601,C,258051642035389.0,0.3760773149623059,11.209609375850112,-1.383832389305233,8,1970-01-03 23:40:51.642035389,-0.6740461,-2.7334685,0.2479403,9.64409033010554,2.826245314508553,-106.21005249023438,-10.539495468139648,167.52305603027344,24732660.0,40044.0,0.07075011020615059,0.03578567602454184,-0.020276579301738748,0.0026167720506218846,0.0026334963302490876,-0.000492936222355781,24.732660249021137
1601,C,258051682014660.0,-1.5542476850376943,12.194823375850111,-0.04307948930523331,8,1970-01-03 23:40:51.682014660,-1.7038904,0.5432849,-0.22050974,8.47617861627471,1.8019504774590887,-106.29096984863281,-10.557682991027832,167.49966430664062,24772639.0,39979.0,-0.023551036612621975,0.0760487084901116,-0.028523254997483916,0.0009434858815978402,0.002235513429255665,-0.0009754842877243114,24.772639520000666
1601,C,258051722051431.0,-3.497741085037694,7.635665375850111,-2.618043389305233,8,1970-01-03 23:40:51.722051431,-2.1528995,-0.9329054,0.4327637,14.05699201390643,2.3859113903259486,-106.40579986572266,-10.523789405822754,167.53900146484375,24812676.0,40037.0,-0.10113323719375417,0.004614039075910883,-0.05327168834546363,-0.002495992135192941,0.0016147472121504213,-0.0016374120733107956,24.812676291010575
1601,C,258051761714973.0,4.571915814962306,-0.3645596241498872,3.062798710694767,8,1970-01-03 23:40:51.761714973,-2.095908,0.32490566,1.3997575,19.955457720735197,2.54120347299666,-106.50404357910156,-10.461270332336426,167.50299072265625,24852339.0,39663.0,0.021302496156499942,-0.244500466285157,0.00882016515613654,-0.0015831633408803071,-0.0047573076812001645,-0.0008815403821291401,24.852339833014412
1601,C,258051801296223.0,8.846762614962305,6.509791375850112,3.565581070694767,8,1970-01-03 23:40:51.801296223,-1.9888487,0.13635385,0.8205199,14.97044978968098,2.1557746705529133,-106.60012817382812,-10.42388916015625,167.48446655273438,24891921.0,39582.0,0.265569064806638,-0.2662833184021009,0.13118226425348026,0.005677475063021463,-0.010108921882745522,0.0027707880804457258,24.89192108300631
1601,C,258051841537004.0,4.881964814962306,13.066312975850112,2.004561510694767,8,1970-01-03 23:40:51.841537004,-0.49960902,0.22450449,-0.16591494,7.548944018240522,0.5723104107132109,-106.62357330322266,-10.435049057006836,167.47593688964844,24932161.0,40240.0,0.27622199589008317,-0.00048078044379153053,0.11207126873755743,0.01090083614121803,-0.005367293668779355,0.004894261083779678,24.932161864009686
1601,C,258051881128462.0,2.655357414962306,11.197638375850111,2.2846832106947668,8,1970-01-03 23:40:51.881128462,0.77444726,-0.5949502,-0.12197278,8.380097492078308,0.9841807039677601,-106.46044158935547,-10.458996772766113,167.48312377929688,24971753.0,39592.0,0.1492088308635876,0.09232758095825759,0.08490988850462722,0.008421828646415667,0.0018181992629843701,0.0038994389887662875,24.971753321995493
1601,C,258051921008254.0,3.387983014962306,13.926429975850112,2.357706310694767,8,1970-01-03 23:40:51.921008254,1.6064188,-0.5238438,-0.34168357,6.039601841649736,1.7238739367482254,-106.38565826416016,-10.46798038482666,167.5135955810547,25011633.0,39880.0,0.12050420817269676,0.11014992293290243,0.0925692470565073,0.00537807799838351,0.004037401427589731,0.0035389339630890228,25.01163311401615
1601,C,258051961111431.0,1.742567914962306,14.389109375850111,-0.2016953893052329,8,1970-01-03 23:40:51.961111431,1.8562233,0.624245,-1.2833774,6.408618142974878,2.3414321067070576,-106.29063415527344,-10.538336753845215,167.50148010253906,25051736.0,40103.0,0.10287524197138334,0.174759637310617,0.04323125299024225,0.004479093044564023,0.00571286404722293,0.0027230037266873985,25.05173629100318
1601,C,258052000887056.0,-0.7898989850376942,8.270727375850111,-1.683706089305233,8,1970-01-03 23:40:52.000887056,1.442368,3.5870118,-2.8884647,12.448062377170464,4.826003255687809,-106.19378662109375,-10.727160453796387,167.3673858642578,25091511.0,39775.0,0.018946203343875714,0.06085250339943814,-0.037495921905865634,0.0024227239937072145,0.0046857364483712215,0.00011406139694053989,25.091511916019954
1601,C,258052040712889.0,0.2904846149623058,10.287243375850112,-0.5416720893052331,8,1970-01-03 23:40:52.040712889,0.056459017,3.2037828,-0.21864553,10.029855827219103,3.2117312649045573,-106.16231536865234,-10.782291412353516,167.21388244628906,25131337.0,39826.0,-0.009944838351311209,-0.020749928421393487,-0.04431395567067021,0.00017924418109693701,0.000798562575537803,-0.0016290800921815584,25.131337749015074
1601,C,258052081128775.0,2.764293514962306,10.627818375850111,-1.3395394893052335,8,1970-01-03 23:40:52.081128775,0.71292824,1.3206617,0.8412926,10.247037706258428,1.7205194680825753,-106.11238861083984,-10.760238647460938,167.1374053955078,25171753.0,40416.0,0.06173095644951655,0.02657476787835809,-0.03801552358056031,0.0010464938745285337,0.0001177083557463407,-0.0016637141167088663,25.17175363501883
1601,C,258052120722993.0,4.735320014962306,10.523072375850111,-2.3061984893052334,8,1970-01-03 23:40:52.120722993,0.8655274,1.3563479,0.69694924,11.347883619672443,1.7534410594946577,-106.05488586425781,-10.745542526245117,167.06124877929688,25211347.0,39594.0,0.14846984905191754,0.030702984211409275,-0.0721746747625514,0.004161345346511891,0.0011339276581211243,-0.0021814353565985825,25.211347853008192
1601,C,258052160740077.0,6.188600614962306,5.469511375850111,0.7571824106947669,8,1970-01-03 23:40:52.160740077,-1.5691346,-0.7185209,0.8490158,15.060270577380582,1.9233521532219755,-106.0618896484375,-10.93023681640625,167.07034301757812,25251364.0,40017.0,0.2185712659238466,-0.07217898800410613,-0.030993488208877516,0.007343942148992576,-0.000829872621886175,-0.0020642401888138354,25.251364937023027
1601,C,258052200611900.0,6.165257114962306,5.2444563758501115,4.993722410694767,8,1970-01-03 23:40:52.200611900,-0.6287723,-0.74648404,0.15978967,14.969101248532542,0.9890024094312008,-106.0998306274414,-10.912223815917969,167.10459899902344,25291236.0,39872.0,0.24628650770377708,-0.1771519389021044,0.11465003851922174,0.009267404575040305,-0.004970661358802213,0.0016677769869870224,25.29123676000745
1601,C,258052240284035.0,0.6699656149623059,2.685653375850112,-0.22803158930523315,8,1970-01-03 23:40:52.240284035,0.17390442,-0.15393071,-0.71798825,17.07469290731667,0.7546154901104952,-106.09449768066406,-10.944581985473633,167.1222686767578,25330908.0,39672.0,0.13558347807078458,-0.2314839429652744,0.09453224313308278,0.007574773037824205,-0.008105701352721324,0.004149339738855112,25.33090889500454
1601,C,258052280143983.0,0.9536784869623058,10.710418875850111,8.136710910694767,8,1970-01-03 23:40:52.280143983,-1.6378441,-0.86472845,0.41998053,9.528206225677708,1.8991240701237224,-106.18327331542969,-10.912393569946289,167.15863037109375,25370768.0,39860.0,0.03235922695135751,-0.12364428002361458,0.1576199788752934,0.0033470981110912917,-0.007077705484168557,0.005025393784626937,25.370768843014957
1601,C,258052320037785.0,4.087089914962306,6.956310375850112,4.738141380694767,8,1970-01-03 23:40:52.320037785,1.3856428,0.536627,0.23915187,12.703547992642864,1.5050475484998262,-106.1083755493164,-10.908368110656738,167.12899780273438,25410662.0,39894.0,0.10054820731319022,-0.03856295161633567,0.256814678656347,0.0026511045912749336,-0.0032355476495220872,0.008266728113783631,25.410662645008415
1601,C,258052359995754.0,5.104026914962306,8.966841375850112,0.44533761069476707,8,1970-01-03 23:40:52.359995754,2.346245,1.6327841,0.4809669,11.602839055565338,2.8986511822110335,-105.97466278076172,-10.907814025878906,167.04232788085938,25450620.0,39958.0,0.18362932314506383,-0.07345975115278124,0.1035607267689715,0.005677582881025458,-0.002238101578624187,0.007199940224992438,25.450620614021318
1601,C,258052399960285.0,4.340875314962306,10.436881375850112,-0.5344895893052333,8,1970-01-03 23:40:52.399960285,0.02743056,-1.4442323,-0.22077605,10.42147908956882,1.4612670653370676,-105.98725128173828,-10.898545265197754,167.11611938476562,25490585.0,39965.0,0.18873275880946855,-0.003922110114150302,-0.0017814794125836407,0.007440725302656443,-0.0015462830427664595,0.0020338038102990204,25.490585145016667
1601,C,258052440399712.0,2.714613814962306,12.280416375850113,2.4510802106947667,8,1970-01-03 23:40:52.440399712,-0.3901531,-0.64395237,-0.6282397,7.324724420713173,0.9806014567214945,-105.91108703613281,-10.988394737243652,167.13687133789062,25531024.0,40439.0,0.14265846246251068,0.06303020189050265,0.03875250406918567,0.006700564798508784,0.0011951360616719565,0.0007475356330441647,25.531024572002934
1601,C,258052479758827.0,1.3672768149623058,12.035010375850112,0.8361909106947669,8,1970-01-03 23:40:52.479758827,0.4564658,-0.16831179,-0.44767737,7.849545179101796,0.6611391024835552,-105.8910140991211,-11.007614135742188,167.15135192871094,25570383.0,39359.0,0.08032956665160139,0.09279724076008453,0.06469185203338532,0.004388292918951169,0.0030666061576422304,0.002035733205920546,25.57038368700887
1601,C,258052519725702.0,1.5234985149623057,12.003885875850113,2.325384610694767,8,1970-01-03 23:40:52.519725702,-0.15419704,-2.1076257,-0.15632756,7.434797631594121,2.1190330635600767,-105.82814025878906,-10.814801216125488,167.23956298828125,25610350.0,39967.0,0.05776780880554848,0.08870468324585142,0.06317934443168775,0.0027596689024479547,0.0036270436983726214,0.0025553140545597876,25.61035056199762
1601,C,258052559703879.0,1.5665941149623057,11.726757375850113,2.712646710694767,8,1970-01-03 23:40:52.559703879,0.028495824,-1.3201289,-0.19387813,7.638097586916934,1.3345939659285688,-105.66719055175781,-10.646120071411133,167.27484130859375,25650328.0,39978.0,0.06176786157956306,0.08256742795823578,0.1007052080832554,0.0023893985153279943,0.003423558230858499,0.0032758883202211988,25.65032873902237
1601,C,258052599874556.0,0.3808657149623058,10.414735375850112,1.5897661106947667,8,1970-01-03 23:40:52.599874556,0.23888555,-1.3225259,-0.1882855,9.15344938737802,1.3570528698911706,-105.66768646240234,-10.63732624053955,167.3422088623047,25690499.0,40171.0,0.039115704413950785,0.05104715266427484,0.08641611272401947,0.002026296864762722,0.002683715659093437,0.0037584252890745192,25.69049941599951
1601,C,258052639742004.0,-0.7773292850376942,9.464236375850112,0.392665210694767,8,1970-01-03 23:40:52.639742004,-0.0061252704,-1.4005564,0.014647386,10.546089323418103,1.400646384507905,-105.68061065673828,-10.617701530456543,167.4105987548828,25730366.0,39867.0,-0.007902906574097753,0.005560883412516382,0.03951679474491827,0.0006221803057407104,0.0011283962871367179,0.0025102836110320703,25.73036686400883
1601,C,258052679643722.0,0.23841074496230585,9.152990375850111,-1.7734890893052335,8,1970-01-03 23:40:52.679643722,-0.49534798,-1.6578178,0.34993938,11.609005657602495,1.7652725140786916,-105.71941375732422,-10.5784273147583,167.4869842529297,25770268.0,39902.0,-0.010751963793044073,-0.019607309076828887,-0.02754881720215742,-0.0003721833186948466,-0.0002802402384286988,0.00023877311995562167,25.77026858201134
1601,C,258052719582264.0,-0.2667657850376942,8.143834375850112,-4.800358089305234,8,1970-01-03 23:40:52.719582264,-2.0189424,-1.2175972,0.7366304,14.168099498305882,2.4700801003549984,-105.82942199707031,-10.526434898376465,167.53639221191406,25810207.0,39939.0,-0.0005662359727854678,-0.04599325812092243,-0.13127644123326174,-0.00022601879022373305,-0.001310010526655495,-0.0031716609983261034,25.810207124013687
1601,C,258052759452629.0,-0.012381885037694107,4.514823375850112,1.6873299106947668,8,1970-01-03 23:40:52.759452629,-2.669819,0.6918893,1.500425,14.934049125466384,3.1397323893670444,-105.95294189453125,-10.463750839233398,167.48165893554688,25850077.0,39870.0,-0.005564808802952867,-0.13837565771985608,-0.06205821674059968,-0.0001222223776043437,-0.0036753943372859195,-0.003854126406708927,25.85007748901262
1601,C,258052799970181.0,4.034417614962306,4.138933375850112,4.207227130694767,8,1970-01-03 23:40:52.799970181,-2.535862,0.9281117,1.3068131,15.416209350037903,2.999957981214487,-106.06819915771484,-10.413744926452637,167.41798400878906,25890595.0,40518.0,0.08148242185254272,-0.2217599419673052,0.11941783110151055,0.0015380149227716409,-0.007295987114062199,0.0011620484273376934,25.890595041011693
1601,C,258052839195025.0,8.139276214962306,13.200987075850112,2.064416610694767,8,1970-01-03 23:40:52.839195025,-0.7145261,-0.23568976,0.60906494,9.543312703006265,0.9680172062971151,-106.10444641113281,-10.381217002868652,167.4208984375,25929819.0,39224.0,0.2387504833924815,-0.04432468010125525,0.12299947705613154,0.006280407737665416,-0.005218451608008608,0.004754288247587677,25.929819885001052
1601,C,258052879306483.0,4.389357914962306,11.952410875850113,0.45790731069476687,8,1970-01-03 23:40:52.879306483,0.6213155,-0.6692524,0.13209279,8.757254432838062,0.9227026772563273,-106.07891845703125,-10.365594863891602,167.4517364501953,25969931.0,40112.0,0.25127428610976804,0.11137894931929967,0.05058772856738849,0.009827936777137117,0.001344840423437099,0.003481464995985318,25.96993134301738
1601,C,258052918794400.0,1.7659114149623059,14.793729375850113,1.395237310694767,8,1970-01-03 23:40:52.918794400,1.0250508,-0.7076019,-0.54621434,5.173168567353474,1.3600660633534996,-106.03527069091797,-10.382054328918457,167.4939727783203,26009419.0,39488.0,0.12152963765003155,0.14109339312956923,0.03658848740471496,0.007360640670713484,0.004984813929310468,0.0017212072081532108,26.009419260022696
1601,C,258052958580389.0,3.106664314962306,12.798162675850111,1.1414519106947667,8,1970-01-03 23:40:52.958580389,1.8564897,0.020772656,-0.91985583,7.330784739138626,2.071984618048207,-106.11892700195312,-10.587965965270996,167.53744506835938,26049205.0,39786.0,0.0969301489953903,0.15898270858447253,0.050462358681102,0.0043458205357373774,0.005969413891397433,0.0017317024811851567,26.049205249000806
1601,C,258052998538358.0,2.042441714962306,13.218943375850111,0.9900187106947671,8,1970-01-03 23:40:52.998538358,1.7611485,0.6450176,-1.4860439,6.780763988195641,2.392909989132316,-106.27161407470703,-10.630339622497559,167.57154846191406,26089163.0,39958.0,0.10287398937186382,0.1282073618069187,0.042584651544741496,0.003991886880439371,0.0057377704163496055,0.0018589862173021272,26.08916321801371
1601,C,258053038496848.0,-0.20870648503769418,8.323997375850112,0.31664931069476676,8,1970-01-03 23:40:53.038496848,0.46552056,1.9808593,-1.23837,11.562277131938144,2.3820313211793005,-106.23368072509766,-10.717501640319824,167.492431640625,26129121.0,39958.0,0.036636196158663814,0.03881801327821874,0.0261059203993415,0.0027872739967144114,0.0033369999688259606,0.0013723689368708343,26.12912170801428
1601,C,258053078270806.0,0.22464411496230585,8.749567375850111,0.3070725106947667,8,1970-01-03 23:40:53.078270806,1.087635,2.4964473,-0.4857606,11.125913154979848,2.766073458065539,-106.1578369140625,-10.775640487670898,167.3773193359375,26168895.0,39774.0,0.0003169516463107523,-0.05024321778293769,0.012403955861973652,0.0007348872503975291,-0.0002272130419853457,0.0007658459092087743,26.168895666021854
1601,C,258053118129608.0,2.394987814962306,10.640387375850112,0.646450610694767,8,1970-01-03 23:40:53.118129608,1.4596786,0.6532734,-0.027164243,9.311976562244523,1.5994266618208173,-106.1943588256836,-10.734333038330078,167.36732482910156,26208754.0,39859.0,0.05220795454743255,-0.0041860967759904276,0.019003239047732712,0.0010467951179882072,-0.0010847490245021578,0.000625929690952993,26.20875446801074
1601,C,258053158758618.0,3.6866596149623057,9.841922375850112,0.12391621069476688,8,1970-01-03 23:40:53.158758618,0.80400836,-0.69295454,0.33076462,10.491657233852022,1.111764665430704,-106.300048828125,-10.81380558013916,167.4227294921875,26249383.0,40629.0,0.12354562671520351,0.017923681450914185,0.015649616793117684,0.00357034612655982,0.00027907216387873865,0.0007039554399789554,26.24938347801799
1601,C,258053197981848.0,4.731130314962306,7.694322375850112,-0.24179808930523317,8,1970-01-03 23:40:53.197981848,0.691623,-0.17044231,0.39388153,12.834140267816263,0.8139629075346597,-106.35008239746094,-10.94593334197998,167.44126892089844,26288606.0,39223.0,0.16508548721071656,-0.04047333605203109,-0.00231184046236916,0.005660489090758182,-0.0004422325512098043,0.0002615738005104747,26.288606707996223
1601,C,258053237859660.0,5.114801114962306,7.446522875850112,-4.843454089305233,8,1970-01-03 23:40:53.237859660,0.3787015,1.1528825,-0.13315806,15.26063314526296,1.2207718680619501,-106.32079315185547,-10.968535423278809,167.3868408203125,26328484.0,39878.0,0.1963180267812668,-0.08891108652634926,-0.10139484318931406,0.007206024665486155,-0.0025797960017903254,-0.002067807565330912,26.328484519995982
1601,C,258053277807420.0,4.000898714962306,5.849590375850111,-0.28070408930523305,8,1970-01-03 23:40:53.277807420,-1.0996193,-0.21864553,-0.5297027,14.35767469414731,1.2399812188532378,-106.40514373779297,-11.019242286682129,167.41006469726562,26368432.0,39948.0,0.1820769884029142,-0.12591383391053976,-0.10234993545956544,0.007558062033288831,-0.0042909129608064206,-0.004069598208732719,26.36843227999634
1601,C,258053317678983.0,4.609624614962306,8.867481375850112,3.275882680694767,8,1970-01-03 23:40:53.317678983,-1.2953615,-0.6990798,-0.44501424,11.012085357982375,1.5377618984267583,-106.4776611328125,-11.03069019317627,167.45062255859375,26408303.0,39871.0,0.17165508784371206,-0.09734361609398023,0.059710382808646045,0.007051825806014617,-0.004450748894565108,-0.0008500408018724036,26.408303842996247
1601,C,258053357558462.0,0.1713731149623059,12.315132375850112,5.581498910694767,8,1970-01-03 23:40:53.357558462,-1.009338,-3.0019152,0.039947417,7.179632387560888,3.1673101935806685,-106.55601501464844,-10.986103057861328,167.59666442871094,26448183.0,39880.0,0.09533309473469677,0.03155731820890243,0.1766161889323073,0.005323744360613472,-0.0013117787798284516,0.004712351840514609,26.448183322005207
1601,C,258053397538983.0,4.483928814962306,1.2281833758501115,2.056635410694767,8,1970-01-03 23:40:53.397538983,1.3411679,0.12543489,-0.019441076,18.449115854974657,1.3471611644698491,-106.48783111572266,-10.98881721496582,167.59080505371094,26488163.0,39980.0,0.093059485579193,-0.12107311812351257,0.15268630508457678,0.003765967680474657,-0.0017894208402930568,0.006582756855397513,26.488163843023358
1601,C,258053437514556.0,4.312743614962306,10.360864375850111,3.090930610694767,8,1970-01-03 23:40:53.437514556,0.2428803,-2.092712,0.294013,9.523510309652355,2.1271760621164133,-106.49433135986328,-10.945021629333496,167.68875122070312,26528139.0,39976.0,0.17582788852933315,-0.16012291353901598,0.102889549635534,0.00537452083368122,-0.00562054628087062,0.005108450184145574,26.52813941601198
1601,C,258053477416900.0,7.1887781149623065,11.051592375850111,4.893764450694767,8,1970-01-03 23:40:53.477416900,0.5249091,-3.2328112,-0.081226416,10.323765569792618,3.2761556050902794,-106.49821472167969,-10.903014183044434,167.8477783203125,26568041.0,39902.0,0.22946686003372593,0.036160324653171115,0.1593026511697826,0.008086035528581592,-0.0024731776108614907,0.005230996598266871,26.568041760008782
1601,C,258053517710598.0,4.653318614962306,12.655109075850111,0.924177910694767,8,1970-01-03 23:40:53.517710598,1.3424995,-2.4232104,-0.16058862,8.111288862093108,2.774894998921926,-106.4538803100586,-10.876350402832031,167.96841430664062,26608335.0,40294.0,0.2385827228177912,0.08273771414740437,0.11721408475491495,0.009429794945709516,0.0023954387877151945,0.005570982678674882,26.60833545800415
1601,C,258053557343150.0,2.645181914962306,10.459626375850112,1.656205210694767,8,1970-01-03 23:40:53.557343150,0.340352,-3.3904705,-0.24820662,9.222575849351513,3.416538631639642,-106.4165267944336,-10.826903343200684,168.12770080566406,26647968.0,39633.0,0.14463073575125107,0.06964975507861745,0.0511341621250157,0.0075939495017334265,0.003019786283917461,0.003336073034296146,26.647968010016484
1601,C,258053597412473.0,1.473818814962306,12.059551375850113,6.803140210694767,8,1970-01-03 23:40:53.597412473,0.27830034,-2.7451866,-0.4993427,7.765299217949681,2.8040762614641856,-106.42912292480469,-10.812045097351074,168.26893615722656,26688037.0,40069.0,0.08252212012367464,0.05848426666643813,0.1694787558448286,0.004550893891026199,0.002567101058651316,0.004419869505066846,26.688037333020475
1601,C,258053637015962.0,-3.805994385037694,10.274673375850112,6.208181210694766,8,1970-01-03 23:40:53.637015962,1.4199976,-4.8067393,-0.056991648,10.432356421353543,5.012422960017641,-106.40217590332031,-10.74686050415039,168.50442504882812,26727640.0,39603.0,-0.0461805745508478,0.054141751420791966,0.25764368112564484,0.0007196171146603308,0.0022301640971542865,0.008457664935670831,26.727640822005924
1601,C,258053677357836.0,-4.778040385037694,8.08876737585011,3.1609610106947668,8,1970-01-03 23:40:53.677357836,0.7350325,-5.032309,0.65673554,12.585006189774116,5.127934108102047,-106.40925598144531,-10.644295692443848,168.74063110351562,26767982.0,40342.0,-0.17314856534719064,-0.024942636597454836,0.18898496774764828,-0.0044240880808833335,0.0005889753451015332,0.009008946476423196,26.767982696008403
