Subject-id_accel,Activity_accel,Timestamp_accel,accel_x,accel_y,accel_z,Segment_accel,DateTime,gyro_x,gyro_y,gyro_z,accel_magnitude,gyro_magnitude,Roll,Pitch,Yaw,Time_Difference,Difference_Microseconds,vx,vy,vz,dx,dy,dz,Time_diff
1608,C,47665319612819.0,0.8650055,11.438438953719889,1.445034300740476,43,1970-01-01 13:14:25.319612819,0.6396637,0.42538452,-0.4558258,7.631554431797492,0.8932518115844827,-98.7677993774414,-3.5951693058013916,-119.2865982055664,15005470.0,50354.0,0.05696211655280001,0.06325653794371128,0.07499183206458593,0.0029054989646213236,0.0025706250460981917,0.0038638371444693034,15.005470529999002
1608,C,47665369966823.0,0.9741211,11.01506865371989,1.288296100740476,43,1970-01-01 13:14:25.369966823,0.049743652,1.1879883,-0.4875641,8.084759063444968,1.2851106502787988,-98.78850555419922,-3.7114200592041016,-119.34001159667969,15055824.0,50354.0,0.0463036904082,0.07184276103251128,0.06881705951808594,0.0025999232218570974,0.0034013950503243556,0.0036206764633769295,15.05582453399984
1608,C,47665420320827.0,0.6842499,9.32167875371989,1.244472800740476,43,1970-01-01 13:14:25.420320827,-0.5274658,1.8525848,-0.7233887,9.72903794665818,2.0575669667469807,-98.79922485351562,-3.769371271133423,-119.42686462402344,15106178.0,50354.0,0.041752806667,0.018549089477111317,0.06376752263258594,0.0022169984268623102,0.002275795620280768,0.003338082024807466,15.106178538000677
1608,C,47665470674831.0,-0.43200684,8.200859253719889,1.522854200740476,43,1970-01-01 13:14:25.470674831,-0.9533081,2.0548248,-1.0450745,10.790760415816663,2.4946506775039468,-98.77210235595703,-3.6854982376098633,-119.52507781982422,15156532.0,50354.0,0.00635072352162,-0.05230426058668871,0.06967299191628594,0.0012111025795588858,-0.00084985394302583,0.0033596318347969474,15.156532542001514
1608,C,47665521028835.0,-1.336853,7.690209253719889,2.078945500740476,43,1970-01-01 13:14:25.521028835,-1.4412537,2.1651764,-1.1383514,11.326809942115013,2.839197946738235,-98.8377685546875,-3.7583165168762207,-119.6235580444336,15206886.0,50354.0,-0.04453458419168001,-0.09337976818818876,0.09068251108418593,-0.0009613550600901009,-0.00366788679246509,0.00403727049904288,15.206886546002352
1608,C,47665571382838.0,-0.35583496,9.349770253719889,4.867855400740476,43,1970-01-01 13:14:25.571382838,-1.8039246,2.8657532,-0.81095886,9.830790017378709,3.4820022456063837,-98.91899108886719,-3.8204946517944336,-119.75916290283203,15257240.0,50354.0,-0.042616804768920005,-0.06445363594118875,0.17489960629658594,-0.0021942105198610264,-0.003973771615765338,0.0066865609692956934,15.257240548999107
1608,C,47665621736842.0,1.0408783,11.03130395371989,7.049511200740476,43,1970-01-01 13:14:25.621736842,-0.7171631,1.9676514,-0.5159302,9.089932370400287,2.1568863936692657,-98.94860076904297,-3.861259937286377,-119.8525619506836,15307594.0,50354.0,0.017247336171180003,0.019665105320711283,0.3000435389254859,-0.0006387271108853,-0.0011276408354317614,0.011957643567256104,15.307594552999944
1608,C,47665672090846.0,-1.3517914,10.96006065371989,4.931957600740477,43,1970-01-01 13:14:25.672090846,0.07733154,0.19487,-0.26219177,8.390145232270589,0.33570672950434655,-98.94422912597656,-3.8757247924804688,-119.86016845703125,15357948.0,50354.0,-0.007827859118700002,0.06020738672151129,0.301657440014886,0.00023715417375028898,0.002010949732147038,0.015149025546781743,15.357948557000782
1608,C,47665722444850.0,-1.0543213,9.46901725371989,4.894359900740476,43,1970-01-01 13:14:25.722444850,-0.43766785,1.4891052,0.6147003,9.771297018093318,1.6693842884161672,-98.96080780029297,-3.85695219039917,-119.93867492675781,15408302.0,50354.0,-0.0605786994479,0.0208736944756113,0.24739719573478594,-0.0017222719250312886,0.0020413783812999555,0.013823548564269492,15.40830256100162
1608,C,47665772798854.0,2.245514,6.14424925371989,2.356151900740476,43,1970-01-01 13:14:25.772798854,-0.08540344,1.2311554,1.1187744,12.977935151757482,1.6657411337324757,-98.77333068847656,-3.964362859725952,-120.02110290527344,15458656.0,50354.0,0.0299906586079,-0.10037398914218869,0.18254613562588595,-0.0007701151042286801,-0.002001578918820419,0.010824683253667635,15.458656565002457
1608,C,47665823152858.0,4.724228,4.14980375371989,-0.461841299259524,43,1970-01-01 13:14:25.823152858,1.1086731,-0.27383423,0.3544159,15.821089970009668,1.1957223165752628,-98.7186508178711,-3.9447648525238037,-120.01023864746094,15509010.0,50354.0,0.17547719433400003,-0.2342958274316887,0.04769305801348593,0.005173064133518217,-0.008425981971880513,0.005796732178258467,15.509010568996018
1608,C,47665873506862.0,4.7308655,5.23532925371989,1.0869563007404761,43,1970-01-01 13:14:25.873506862,0.3151703,0.99528503,0.054107666,14.567203014151147,1.0453957377300513,-98.699462890625,-3.9496240615844727,-120.05996704101562,15559364.0,50354.0,0.23805088904950003,-0.25717970627168873,0.015738520392285932,0.010411396555346382,-0.012373879512049935,0.0015970168495221184,15.559364572996856
1608,C,47665923860866.0,3.5421753,10.08284825371989,0.5285915007404762,43,1970-01-01 13:14:25.923860866,-0.21896362,1.9726715,0.06881714,9.758864330356744,1.9859792830121703,-98.7036361694336,-3.9611449241638184,-120.1582260131836,15609718.0,50354.0,0.20829034822160003,-0.10780344489518871,0.04067464699788594,0.011237533330774487,-0.009189180796928475,0.0014203143153823574,15.609718576997693
1608,C,47665974214870.0,2.6265259,11.248482253719889,1.460659300740476,43,1970-01-01 13:14:25.974214870,-0.431015,1.2767944,-0.28955078,8.199561274696558,1.3783386827245938,-98.72096252441406,-3.9851269721984863,-120.21928405761719,15660072.0,50354.0,0.1553093901124,0.043589708185811274,0.05008336742888594,0.009154350612035119,-0.0016167092491319959,0.002285014529222836,15.66007258099853
1608,C,47666024568874.0,1.7316132,11.118996253719889,2.211239180740476,43,1970-01-01 13:14:26.024568874,-0.8763733,1.4353485,-0.6248779,8.006231009154066,1.794081343560974,-98.76013946533203,-4.026916980743408,-120.28563690185547,15710426.0,50354.0,0.10972486812070001,0.06967680638181124,0.09244738806824593,0.006672767519534759,0.0028517110372690323,0.0035884968311512893,15.710426584999368
1608,C,47666074922877.0,0.95770264,9.924568753719889,2.490368200740476,43,1970-01-01 13:14:26.074922877,-1.2073517,2.3493347,-1.046402,9.050673018443005,2.841131606547113,-98.62193298339844,-4.148436546325684,-120.40758514404297,15760780.0,50354.0,0.06770890490368,0.03634463619231125,0.11837236904354594,0.004467250103434816,0.002669301859688682,0.005307809024803584,15.760780587996123
1608,C,47666125276881.0,-0.16604614,8.715798253719889,1.075710600740476,43,1970-01-01 13:14:26.125276881,-1.017456,1.8287964,-1.3224792,10.330596303180677,2.4756139075028645,-98.67205047607422,-4.1009840965271,-120.48793029785156,15811134.0,50354.0,0.019931535700500002,-0.024160679853688746,0.08978316598488593,0.0022065233730914403,0.0003067554687374988,0.00524073190541083,15.81113459199696
1608,C,47666175630885.0,-1.9457703,7.92994025371989,1.009457000740476,43,1970-01-01 13:14:26.175630885,-1.3355408,0.037094116,-0.99632263,11.285128481844623,1.6666445286732796,-98.73924255371094,-4.150507926940918,-120.48222351074219,15861488.0,50354.0,-0.053169202509880005,-0.07437944159818873,0.052498264702485926,-0.0008368247372597605,-0.0024809446377939194,0.0035822195804159616,15.861488595997798
1608,C,47666225984889.0,-2.6924896,9.12850225371989,3.285946200740476,43,1970-01-01 13:14:26.225984889,-1.3175049,-0.012771606,-0.48719788,10.176938324577884,1.4047576480376691,-98.80542755126953,-4.174485683441162,-120.47786712646484,15911842.0,50354.0,-0.1167774695023,-0.0639887929901887,0.10814536640368592,-0.004278747361250656,-0.003483697042231579,0.004044524700360089,15.911842599998636
1608,C,47666276338893.0,-1.4292145,9.99755125371989,2.923031170740476,43,1970-01-01 13:14:26.276338893,-0.2997284,-0.05960083,0.1020813,9.04280900325867,0.3221955376986759,-98.82057189941406,-4.1689863204956055,-120.47569274902344,15962196.0,50354.0,-0.10377214412570002,-0.011932550843188703,0.15632342328177593,-0.005552777622312157,-0.0019114716736929429,0.006658530717910873,15.962196603999473
1608,C,47666326692897.0,0.94841003,10.352730253719889,2.596371014740476,43,1970-01-01 13:14:26.326692897,1.0408783,-1.3904114,0.76760864,8.622652428029228,1.8989193034101,-98.56470489501953,-4.175247669219971,-120.4278793334961,16012550.000000002,50354.00000000186,-0.01210521414119045,0.018889837512811956,0.13896198882385907,-0.0029174442490856093,0.00017516360648111112,0.007434400820583846,16.01255060800031
1608,C,47666377046901.0,2.3962402,11.17876495371989,1.164593100740476,43,1970-01-01 13:14:26.377046901,1.7689514,-1.1672516,0.7965393,8.243113720964192,2.2640981007255423,-98.48001861572266,-4.1272077560424805,-120.37593078613281,16062904.0,50353.99999999814,0.08420825884070689,0.048629254837709475,0.09468979353546042,0.0018153383563996582,0.0016999281881090152,0.005882650924460369,16.062904612001148
1608,C,47666427400905.0,0.8065033,12.43204555371989,-0.2529178992595238,43,1970-01-01 13:14:26.427400905,1.4660187,-1.3414001,0.5871582,7.160039654229115,2.0720327721483893,-98.41117095947266,-4.088320732116699,-120.31373596191406,16113257.999999998,50353.99999999814,0.08063547309949702,0.10098017614580757,0.02295324654768508,0.00415027063905836,0.003766716643871869,0.0029618988201732446,16.113258616001986
1608,C,47666477754909.0,-2.6784363,10.736443253719889,0.35015520074047624,43,1970-01-01 13:14:26.477754909,0.69625854,-0.53726196,0.8404846,8.91776891845655,1.2164870451522012,-98.37781524658203,-4.042821407318115,-120.29325866699219,16163612.0,50354.00000000186,-0.047129657141001736,0.0898438427049146,0.00244814353938603,0.0008435759283870669,0.00480437632260481,0.000639530798222213,16.163612619995547
1608,C,47666528108913.0,-2.1584778,6.871483253719889,1.417522700740476,43,1970-01-01 13:14:26.528108913,-0.30445862,1.5670013,1.5562744,12.306009456716305,2.22938963252038,-98.38681030273438,-3.9772603511810303,-120.38232421875,16213966.0,50354.0,-0.1217789862957,-0.050154434322188746,0.04450482652558594,-0.004252612915805839,0.000999260234851889,0.0011821349273257993,16.213966623996384
1608,C,47666578462917.0,1.7205048,5.099770253719889,2.174709640740476,43,1970-01-01 13:14:26.578462917,-1.6403656,2.491623,1.9547272,13.93817287240686,3.566502895304054,-98.30103302001953,-3.977034091949463,-120.53114318847656,16264320.000000002,50354.00000000186,-0.011026846221000407,-0.19206895044319586,0.09044163366146928,-0.00334365244527309,-0.006098458158238314,0.003397547028129615,16.264320627997222
1608,C,47666628816920.0,4.422409,1.6731042537198881,1.424938500740476,43,1970-01-01 13:14:26.628816920,-1.7408142,1.8619537,1.6154022,17.85038492646479,3.01775246294824,-98.38092041015625,-3.9106223583221436,-120.63521575927734,16314674.0,50353.99999999814,0.1546601407425943,-0.32294853852617683,0.09062834125806256,0.003616255456170035,-0.012966595319781418,0.0045587987585488845,16.314674631001253
1608,C,47666679170924.0,3.1730957,5.70755825371989,2.553936320740476,43,1970-01-01 13:14:26.679170924,-1.1127167,0.7318115,0.9723511,13.591290829606823,1.6489855025628182,-98.43359375,-3.8678812980651855,-120.67861938476562,16365027.999999998,50353.99999999814,0.19123202183189292,-0.30764626005017737,0.10017613138042222,0.008708526977137542,-0.01587648524375628,0.004803884207618953,16.36502863500209
1608,C,47666729524928.0,2.587387,11.72507525371989,3.107418380740476,43,1970-01-01 13:14:26.729524928,-0.48860168,0.16137695,0.1483612,7.66174670547014,0.5355232649993508,-98.4574203491211,-3.861727237701416,-120.68771362304688,16415382.000000002,50354.000000003725,0.14503167293791075,-0.054567786183192725,0.14253592731919648,0.008466111043219973,-0.009119463042018234,0.0061107615018807515,16.415382638995652
1608,C,47666779878932.0,3.5717468,13.573372253719889,3.939632700740476,43,1970-01-01 13:14:26.779878932,0.140625,0.07330322,-0.6599426,6.558305316297153,0.6787289503050009,-98.45047760009766,-3.8949074745178223,-120.68648529052734,16465736.0,50353.99999999814,0.15506851168259428,0.14346981289480595,0.17742360507843935,0.007555622348190175,0.0022382863265182035,0.00805562114717498,16.46573664299649
1608,C,47666830232936.0,2.8029785,12.667122253719889,2.772320110740476,43,1970-01-01 13:14:26.830232936,1.2053986,-0.047470093,-1.4360046,6.855885107277224,1.8754595185800595,-98.3910903930664,-3.9655866622924805,-120.67359161376953,16516089.999999998,50353.99999999814,0.16049645887809405,0.16718773021380504,0.16898683593464967,0.007944979263806155,0.00782142496284521,0.00872157567338622,16.516090646997327
1608,C,47666880586940.0,1.377182,11.13457525371989,-0.004260799259523829,43,1970-01-01 13:14:26.880586940,1.5267029,-0.32585144,-1.792099,8.34578590363568,2.376682505430518,-98.31678771972656,-4.051868438720703,-120.6443862915039,16566444.0,50354.00000000186,0.10524390090850388,0.10578613814481518,0.06969142928515851,0.006690545038347423,0.006872663083665235,0.006009202683439333,16.566444650998164
1608,C,47666930940944.0,-0.4494934,9.07593625371989,0.0042995007404762475,43,1970-01-01 13:14:26.930940944,1.1910553,-0.76161194,-1.9372253,10.20864419388194,2.398230042712488,-98.43014526367188,-3.978822708129883,-120.58067321777344,16616798.0,50354.0,0.0233564158822,0.015370848222811291,9.7438718593905e-07,0.0032377701758395517,0.003050369445777732,0.0017546456472586163,16.616798654999002
1608,C,47666981294948.0,-1.2190704,9.08741025371989,2.272228560740476,43,1970-01-01 13:14:26.981294948,0.45195007,-1.6247711,-1.5531311,9.918266668242316,2.2926744659797267,-98.41398620605469,-4.043744087219238,-120.48870849609375,16667152.000000002,50354.00000000186,-0.042009430792601554,-0.036170624982190036,0.05731614700390805,-0.0004696269563991973,-0.0005236759794708981,0.0014430731652636268,16.66715265899984
1608,C,47667031648952.0,-1.071701,10.04088625371989,2.592693650740476,43,1970-01-01 13:14:27.031648952,0.19499207,-0.30995178,-1.0239563,8.946619075127934,1.0874642603772058,-98.40585327148438,-4.092123031616211,-120.46582794189453,16717506.0,50353.99999999814,-0.05767475153779787,-0.011876078832188263,0.1224841465184514,-0.0025097486585323736,-0.0012096718619345576,0.0045268319900122755,16.717506663000677
1608,C,47667082002956.0,0.4343567,9.72957625371989,1.834270800740476,43,1970-01-01 13:14:27.082002956,-0.14959717,0.14181519,-0.538208,9.240481386246934,0.5763321200928724,-98.33123016357422,-4.08499813079834,-120.47477722167969,16767859.999999998,50353.99999999814,-0.016046417441099407,0.004291734549811128,0.1114576839949318,-0.001856077871381628,-0.00019095103599740205,0.005889953466835231,16.767860667001514
1608,C,47667132356960.0,2.2113037,5.61866025371989,2.719875653740476,43,1970-01-01 13:14:27.132356960,-1.1800995,0.20625305,-0.3675995,13.486821515945941,1.253117928582463,-98.38967895507812,-4.1046833992004395,-120.48231506347656,16818214.0,50354.00000000186,0.06660979189080246,-0.10704664945219268,0.11465974528447116,0.0012730340785202209,-0.002587060492497356,0.005692958516967739,16.81821467100235
1608,C,47667182710963.0,1.6376343,8.006203253719889,3.344189000740476,43,1970-01-01 13:14:27.182710963,-0.96635437,1.3782959,0.29187012,11.059954799688168,1.7084286708328567,-98.4329605102539,-4.100331783294678,-120.55280303955078,16868568.0,50354.0,0.09690471202600001,-0.15043601147318875,0.15267495580586693,0.004116804665113336,-0.006482640954118328,0.006730685769351442,16.868568673999107
1608,C,47667233064967.0,2.701767,6.005730253719889,3.033443770740476,43,1970-01-01 13:14:27.233064967,-0.3751831,1.088211,0.7852478,13.201909181692995,1.3934057723618953,-98.44744873046875,-4.069481372833252,-120.61254119873047,16918922.0,50354.0,0.1092531065301,-0.14069075008318874,0.16056966028757594,0.0051904353977869295,-0.007329698475704917,0.007886559699384612,16.918922677999944
1608,C,47667283418971.0,3.5648956,5.73127025371989,3.025646530740476,43,1970-01-01 13:14:27.283418971,0.79818726,-0.5128174,0.8024597,13.669651133913094,1.2425884909708271,-98.40892791748047,-4.026031970977783,-120.593017578125,16969276.0,50354.0,0.15777576428020001,-0.19796673822418873,0.15254971652038593,0.006722985880390924,-0.008526379583114843,0.007883406549894056,16.969276682000782
1608,C,47667333772975.0,4.0902557,8.02459025371989,1.565044700740476,43,1970-01-01 13:14:27.333772975,1.7552032,-1.3075714,0.43618774,11.6919145621141,2.231757375682784,-98.32548522949219,-3.9949419498443604,-120.53135681152344,17019630.0,50354.0,0.1927337442801,-0.14713790000418872,0.11557983313499594,0.008824777897022676,-0.00868869947667586,0.00675069767167355,17.01963068600162
1608,C,47667384126979.0,4.075012,8.99863525371989,4.8824275007404765,43,1970-01-01 13:14:27.384126979,2.2187042,-1.8215332,0.51145935,10.956014846702049,2.9158570253876137,-98.22055053710938,-3.9565303325653076,-120.44469451904297,17069984.0,50354.0,0.20557694488290004,-0.06487545139918872,0.16232800761668595,0.010028268221056853,-0.005337860148282835,0.006996885706605096,17.069984690002457
1608,C,47667434480983.0,-0.6901703,8.66198025371989,-3.774783799259524,43,1970-01-01 13:14:27.434480983,-0.15272522,0.32374573,-0.82489014,12.131306088704056,0.8992107837356607,-98.22748565673828,-3.999666452407837,-120.45484924316406,17120338.0,50354.0,0.0852201594809,-0.048827883369188724,0.027887145472185938,0.007321398696567394,-0.002862708859463439,0.0047890469093185275,17.12033869399602
1608,C,47667484834987.0,0.62882996,10.738411253719889,2.674496014740476,43,1970-01-01 13:14:27.484834987,-1.5596924,-2.0171661,-0.71569824,8.208552459549297,2.648362405024295,-98.1054458618164,-4.03164529800415,-120.36412811279297,17170692.0,50354.0,-0.00154436574018,-0.005025543017188742,-0.027701945550836077,0.0021067054590101076,-0.0013558677161298255,4.662778419825463e-06,17.170692697996856
1608,C,47667535188991.0,-0.49487305,10.825249253719889,3.967541100740476,43,1970-01-01 13:14:27.535188991,-1.1659546,0.83174133,-0.46359253,8.21737213961497,1.5053776280930742,-98.16107940673828,-4.060473918914795,-120.40213012695312,17221046.0,50354.0,0.003372633123070001,0.04943908059581125,0.16722656845646394,4.603028789902156e-05,0.001118199635616979,0.003512811430894993,17.221046701997693
1608,C,47667585542995.0,-0.9908142,10.74642225371989,1.796062800740476,43,1970-01-01 13:14:27.585542995,-0.9396057,1.5809479,-0.042053223,8.281415183636986,1.839571582611448,-98.20250701904297,-4.073805809020996,-120.48027038574219,17271400.0,50354.0,-0.03740514789325,0.049640773542811295,0.14511025542758593,-0.000856836624368822,0.0024945334876481,0.007863704214928725,17.27140070599853
1608,C,47667635896999.0,-0.77438354,11.30059125371989,2.888210610740476,43,1970-01-01 13:14:27.635896999,-0.60832214,0.8118439,0.54566956,7.664870132556081,1.151912154937165,-98.22980499267578,-4.052601337432861,-120.52445983886719,17321754.0,50354.0,-0.044442383499980004,0.061608459076811325,0.11793595168085592,-0.002060675297887352,0.002800921929664239,0.006622714356369241,17.321754709999368
1608,C,47667686251002.0,-0.40992737,11.83214625371989,2.310650200740476,43,1970-01-01 13:14:27.686251002,0.41770935,-0.029830933,0.89775085,7.11111200179586,0.9906197930168746,-98.07347869873047,-3.8249664306640625,-120.53865051269531,17372108.0,50354.0,-0.02981739578107,0.0889437322248113,0.13089171865065594,-0.001869638462958996,0.003790452520400953,0.006264734255936475,17.372108712996123
1608,C,47667736605006.0,-1.6609802,11.62659525371989,2.135128340740476,43,1970-01-01 13:14:27.736605006,0.8805542,-0.2217102,1.1221313,7.501295909045038,1.4435060673102036,-98.02965545654297,-3.767859935760498,-120.5355224609375,17422462.0,50354.0,-0.052139239889890006,0.09715153493281128,0.11193136633886594,-0.0020634222162877604,0.0046853205412274645,0.006113556810781192,17.42246271699696
1608,C,47667786959010.0,-3.3905182,5.793434253719889,-0.7103457992595241,43,1970-01-01 13:14:27.786959010,0.34013367,0.5757904,2.1989594,13.972697308544449,2.2984011706071223,-98.00980377197266,-3.663001298904419,-120.57945251464844,17472816.0,50354.0,-0.1271815752168,-0.054885117091188734,0.035871750046865936,-0.004514760161941135,0.001064141601998531,0.0037212390612435717,17.4728167209978
1608,C,47667837313014.0,2.381195,3.90470225371989,2.288021400740476,43,1970-01-01 13:14:27.837313014,-0.8379364,1.6290436,2.4267578,15.210280793888654,3.0405713083245987,-97.88272857666016,-3.688075304031372,-120.68766021728516,17523170.0,50354.0,-0.025411730206399998,-0.24929921715218872,0.039721138618485925,-0.003841841650639907,-0.007658448983245514,0.0019032021579275637,17.523170724998636
1608,C,47667887667018.0,7.258133,0.9857412537198904,2.773907025740476,43,1970-01-01 13:14:27.887667018,-1.1618347,0.83413696,1.4612122,19.350260500502387,2.0446969045780286,-97.93753051757812,-3.6214511394500732,-120.73912048339844,17573524.0,50354.0,0.242689361056,-0.37034250381318873,0.12744417199351094,0.0054703989119003794,-0.01560071960874531,0.004208721025278245,17.573524728999473
1608,C,47667938021022.0,1.0385132,8.493965253719889,1.864788400740476,43,1970-01-01 13:14:27.938021022,-0.9220581,-0.094329834,0.64642334,10.51057433366465,1.130023181998862,-97.89453125,-3.640174388885498,-120.74454498291016,17623878.0,50354.0,0.2088846613774,-0.2547986292621887,0.11678843475251094,0.011369279162805713,-0.01573917830743878,0.006149044340044593,17.62387873300031
1608,C,47667988375026.0,3.6881866,11.562050253719889,3.566006000740476,43,1970-01-01 13:14:27.988375026,-1.0079498,0.32255554,-0.011642456,8.282784789182175,1.0583668657353382,-97.94393157958984,-3.6429755687713623,-120.76046752929688,17674232.0,50354.0,0.1190041208646,0.011481102430811248,0.13673111064608595,0.008255255870506835,-0.006126005373033591,0.006382861594500474,17.674232737001148
1608,C,47668038729030.0,4.3378906,12.88982445371989,5.400341400740476,43,1970-01-01 13:14:28.038729030,-0.14093018,0.24476624,-1.1587067,7.919821800325019,1.1926328204872865,-97.95071411132812,-3.702044725418091,-120.76459503173828,17724586.0,50354.0,0.2020725456644,0.12215564950921126,0.22574572852708594,0.008083747233200635,0.0033645725035939466,0.009126079379862949,17.724586741001986
1608,C,47668089083034.0,2.0338898,11.91764125371989,1.712459900740476,43,1970-01-01 13:14:28.089083034,1.3825378,-0.8012085,-1.9879913,7.355767455381507,2.550579392564909,-97.88507843017578,-3.794980525970459,-120.71109771728516,17774940.0,50354.0,0.1604223151308,0.13110836411621127,0.17907899836738594,0.009126533110240751,0.006376428071047263,0.01019227214902212,17.774940744995547
1608,C,47668139437038.0,0.98498535,10.51158925371989,2.380245530740476,43,1970-01-01 13:14:28.139437038,1.1065826,-1.1649933,-2.054596,8.47333767098256,2.6082751317458155,-97.68604278564453,-3.961348533630371,-120.64926147460938,17825294.0,50354.0,0.07600621965155001,0.07123153648581129,0.10304204464839593,0.005952561220215226,0.005094311677457122,0.007102961500008341,17.825294748996384
1608,C,47668189791042.0,-0.63916016,7.70790925371989,2.400204020740476,43,1970-01-01 13:14:28.189791042,0.7427826,-0.056915283,-1.9559174,11.236123978958615,2.0929830902146556,-97.49125671386719,-3.8784241676330566,-120.6441650390625,17875648.0,50354.0,0.00870684080863,-0.03475688607818868,0.12035737835763595,0.0021328207232059523,0.0009183222733127146,0.005624527273022865,17.875648752997222
1608,C,47668240145045.0,-3.1934662,8.45725325371989,2.217342700740476,43,1970-01-01 13:14:28.240145045,0.31871033,-1.2102814,-1.5140839,10.95091352593749,1.9643847377420438,-97.48009490966797,-3.9455997943878174,-120.57412719726562,17926002.0,50354.0,-0.09649403386572,-0.08647890355018871,0.11625597380672593,-0.002210218159598355,-0.0030523534754736577,0.00595721436744214,17.926002756001253
1608,C,47668290499049.0,-1.7046356,10.542748253719889,3.121960000740476,43,1970-01-01 13:14:28.290499049,0.40194702,-0.92596436,-0.58262634,8.564163157996806,1.1655148454390813,-97.46343231201172,-3.9684605598449707,-120.52432250976562,17976356.0,50354.0,-0.1233195090186,-0.015106162047188737,0.1344276241151859,-0.005534245569198525,-0.002557607196545172,0.006311460944879975,17.97635676000209
1608,C,47668340853053.0,0.14027405,11.80109465371989,1.929272000740476,43,1970-01-01 13:14:28.340853053,0.11903381,-0.5308075,-0.22990417,7.160505106260116,0.5905773254729265,-97.41920471191406,-3.9053406715393066,-120.49919891357422,18026710.0,50354.0,-0.039385930744350005,0.06908173288061129,0.12717486810128595,-0.004096434856911793,0.0013589429468730796,0.006586365946534113,18.026710763995652
1608,C,47668391207057.0,2.2693634,7.494591253719889,3.066723200740476,43,1970-01-01 13:14:28.391207057,-0.54489136,0.17825317,0.10273743,11.658473656879258,0.5824394958626204,-97.44579315185547,-3.901397466659546,-120.50872039794922,18077064.0,50354.0,0.060667442078650005,-0.007661715908388719,0.12578417118768592,0.0005358046108636711,0.0015463717673096476,0.006368749732178446,18.07706476799649
1608,C,47668441561061.0,3.9889526,5.36049725371989,3.247097330740476,43,1970-01-01 13:14:28.441561061,-0.9835663,1.8430786,1.1908722,14.148964751570913,2.4046866716906155,-97.4882583618164,-3.8543283939361572,-120.60806274414062,18127418.0,50354.0,0.15756562193200002,-0.16981663664818872,0.15896305952109593,0.005494453852596136,-0.00446837248231695,0.007169081027555001,18.127418771997327
1608,C,47668491915065.0,4.944565,2.537148253719888,1.523434000740476,43,1970-01-01 13:14:28.491915065,-0.71273804,1.7020111,0.47824097,17.15316840309002,1.9061877461500984,-97.51799774169922,-3.8417344093322754,-120.69574737548828,18177772.0,50354.0,0.2249191726152,-0.29463017905918876,0.12010766733269594,0.009629819672314856,-0.011693377479064643,0.007026163689997918,18.177772775998164
1608,C,47668542269069.0,4.998337,8.31583425371989,2.137462930740476,43,1970-01-01 13:14:28.542269069,0.6829071,0.427948,0.4958496,11.73732612852693,0.9462390943913541,-97.48222351074219,-3.8199470043182373,-120.72026824951172,18228126.0,50354.0,0.25033244365400004,-0.22022365941018876,0.09217040204389594,0.01196540994280965,-0.012962475091143517,0.005344524952694454,18.228126779999002
1608,C,47668592623073.0,4.279663,9.05938025371989,0.688549400740476,43,1970-01-01 13:14:28.592623073,1.5735931,-1.5409851,0.007156372,10.931148171473536,2.2024716880018738,-97.40863800048828,-3.809610366821289,-120.64373016357422,18278480.0,50354.0,0.23359220600000002,-0.05601342434618868,0.07115051246969593,0.01218377090433876,-0.0069548210577343155,0.004111930664708703,18.27848078399984
1608,C,47668642977077.0,2.0700836,10.994103253719889,0.4630245007404761,43,1970-01-01 13:14:28.642977077,0.9369507,-1.3811035,-0.21673584,8.483920812643872,1.6829432302615694,-97.36643981933594,-3.811479330062866,-120.5737075805664,18328834.0,50354.0,0.1598675701482,0.01141735426681128,0.028993176117585933,0.009906136784083234,-0.0011227952563884849,0.0025213176475619957,18.328834788000677
1608,C,47668693331081.0,1.8447266,12.20220225371989,0.904583300740476,43,1970-01-01 13:14:28.693331081,-0.4393158,0.6865387,-0.2920227,7.186901012207207,0.865800794665043,-97.38626098632812,-3.830368995666504,-120.60595703125,18379188.0,50354.0,0.0985631764054,0.09054418376081126,0.034432261617885936,0.006506510905979987,0.002567085642921453,0.0015968622458659753,18.379188792001514
1608,C,47668743685085.0,2.3340454,10.65592225371989,1.220974300740476,43,1970-01-01 13:14:28.743685085,-0.75709534,0.9160614,-0.5359192,8.70979278637912,1.3036760453994372,-97.42127990722656,-3.862844944000244,-120.64800262451172,18429542.0,50354.0,0.10520894264400002,0.08202980072381129,0.05351516373248593,0.005130370641306744,0.004344895207369342,0.0022142523280463127,18.42954279600235
1608,C,47668794039088.0,1.3162537,8.96813225371989,0.4833797007404761,43,1970-01-01 13:14:28.794039088,-1.3269806,-0.1503601,-0.8882141,10.274553932751287,1.6038734238982764,-97.6104965209961,-3.993610143661499,-120.62635040283203,18479896.0,50354.0,0.0919035804407,0.0006056203338113073,0.042910520695285934,0.004962701993703493,0.002080511995967764,0.002427709456838012,18.479896798999107
1608,C,47668844393092.0,-2.121292,9.28519525371989,3.444317200740476,43,1970-01-01 13:14:28.844393092,-2.3652802,-0.33145142,-1.0481262,9.899440708482272,2.6082520966077065,-97.73041534423828,-4.043331623077393,-120.6028823852539,18530250.0,50354.0,-0.020268449279099997,-0.03390517334518871,0.09888762488858593,0.0018035576972556034,-0.0008383828461674489,0.0035700519113651425,18.530250802999944
1608,C,47668894747096.0,-2.3092957,11.49112755371989,4.3961452007404755,43,1970-01-01 13:14:28.894747096,-0.65992737,1.5410614,-0.097213745,7.973520203954924,1.6792334216725209,-97.75804901123047,-4.05853271484375,-120.67875671386719,18580604.0,50354.0,-0.11154890652290002,0.029616279322911294,0.19739932188208595,-0.0033187655670269545,-0.00010798148479887846,0.007459616458845207,18.580604807000782
1608,C,47668945101100.0,-0.0007019043,10.39695025371989,1.956020700740476,43,1970-01-01 13:14:28.945101100,0.7462311,-0.5169525,0.9065857,8.55489837700898,1.2829646812394915,-97.6460189819336,-3.9087893962860107,-120.66446685791016,18630958.0,50354.0,-0.0581588096834611,0.057606934957911304,0.15992848090158593,-0.0042727311709275535,0.0021960188659482707,0.008996442090684507,18.63095881100162
1608,C,47668995455104.0,1.1894379,10.75849225371989,2.100521400740476,43,1970-01-01 13:14:28.995455104,1.7874603,-0.7641754,1.1931458,8.269476764300716,2.2809154447499562,-97.46639251708984,-3.9537405967712402,-120.64083099365234,18681312.0,50354.0,0.0299288061637389,0.0391613760098113,0.10213156048898593,-0.0007107467986160459,0.0024363357652343524,0.006597885662090429,18.681312815002457
1608,C,47669045809108.0,-0.70521545,10.81424725371989,-0.9338717992595238,43,1970-01-01 13:14:29.045809108,1.5717163,-0.6717224,1.2326355,8.897347092821079,2.1073427310733535,-97.38954162597656,-3.8882803916931152,-120.61544036865234,18731666.0,50354.0,0.01219126862365,0.04966766257881129,0.029372737016485934,0.0010604571229220904,0.002236448704545751,0.0033108836982952655,18.73166681899602
1608,C,47669096163112.0,-2.0133667,5.120049253719889,1.768993700740476,43,1970-01-01 13:14:29.096163112,0.07897949,-0.09233093,1.8397522,13.977280940391273,1.8437599946522771,-97.3851089477539,-3.796463966369629,-120.6227035522461,18782020.0,50354.0,-0.06844574279055,-0.09229141683218872,0.021025864113585934,-0.0014163188961000416,-0.0010731382608372836,0.0012688855806518196,18.782020822996856
1608,C,47669146517116.0,3.9790497,2.583962253719889,1.102047300740476,43,1970-01-01 13:14:29.146517116,-0.6673584,2.346405,2.0874634,16.888422622357375,3.2106832768766087,-97.40995025634766,-3.708064317703247,-120.75275421142578,18832374.0,50354.0,0.049490000891,-0.29950530227718875,0.07228419929428594,-0.0004772487138049704,-0.009864265997016798,0.0023492674664199902,18.832374826997693
1608,C,47669196871120.0,6.357956,3.0695272537198903,1.8496211407404761,43,1970-01-01 13:14:29.196871120,-2.044754,1.0857849,1.2837982,17.09992987973906,2.6472789025539507,-97.50820922851562,-3.651463747024536,-120.8150405883789,18882728.0,50354.0,0.2602547925089,-0.35113129467118875,0.07431415635116594,0.007798444663429284,-0.016381077601369302,0.003690906800085542,18.88272883099853
1608,C,47669247225124.0,2.0080566,8.450432253719889,4.865902200740476,43,1970-01-01 13:14:29.247225124,-1.4108734,0.9282837,0.45057678,10.888945070652785,1.747939876880329,-97.57563018798828,-3.6352245807647705,-120.8641128540039,18933082.0,50354.0,0.2106310992302,-0.20343117948118872,0.16907673116846594,0.011855494096315321,-0.013962219411734408,0.0061278523750817725,18.933082834999368
1608,C,47669297579127.0,3.603897,12.10666725371989,4.506283100740476,43,1970-01-01 13:14:29.297579127,-0.3037262,0.09681702,-0.36346436,7.928220058808447,0.48345576935054774,-97.59066009521484,-3.653874397277832,-120.86651611328125,18983436.0,50354.0,0.1412921557872,0.02409689429881126,0.23596350933538596,0.008860371791573078,-0.0045150992980367175,0.01019769813516548,18.983436837996123
1608,C,47669347933131.0,3.8329315,13.20372825371989,3.707394000740476,43,1970-01-01 13:14:29.347933131,0.51704407,0.005279541,-1.1893005,6.963934672715496,1.2968415952519359,-97.5653076171875,-3.7128522396087646,-120.85891723632812,19033790.0,50354.0,0.1872370311445,0.14377062769081128,0.20679574838398596,0.00827137933937941,0.004226400601132727,0.011147349831600628,19.03379084199696
1608,C,47669398287135.0,2.4058685,12.56902375371989,2.4363368307404762,43,1970-01-01 13:14:29.398287135,1.3175049,-0.5894928,-1.8789673,6.797727573597989,2.3693541392635122,-97.50215148925781,-3.8021249771118164,-120.81729888916016,19084144.0,50354.0,0.15707426759999998,0.1554113772913113,0.15468071114419593,0.008668725568490276,0.0075325053394348996,0.009100892821541036,19.0841448459978
1608,C,47669448641139.0,1.1470947,9.87531325371989,1.303051300740476,43,1970-01-01 13:14:29.448641139,1.6526642,-1.5410767,-2.2328033,9.220349662009683,3.176732114884008,-97.45126342773438,-3.9863696098327637,-120.72450256347656,19134498.0,50354.0,0.0894529544864,0.07161187283631129,0.09414657498629594,0.006206815870469293,0.005715764368463154,0.006264724582907394,19.134498849998636
1608,C,47669499003730.0,-1.0510712,6.12534425371989,1.085918700740476,43,1970-01-01 13:14:29.499003730,0.96891785,-0.21429443,-1.8757019,12.936703506032774,2.122022978301898,-97.3934326171875,-3.862640857696533,-120.70236206054688,19184861.0,50363.0,0.002418015765250001,-0.09063684297640523,0.06015784809229258,0.0023134488373919245,-0.0004790772855827755,0.0038856168297534766,19.184861440997338
1608,C,47669549357734.0,-2.2264404,8.85099125371989,1.355709400740476,43,1970-01-01 13:14:29.549357734,-0.2197113,0.11021423,-0.9417267,10.397128986944395,0.9732776630207194,-97.40446472167969,-3.9100422859191895,-120.70177459716797,19235215.0,50354.0,-0.0825179095532,-0.11641000092918871,0.061472870710985936,-0.002016675025899217,-0.0052128183890111385,0.0030622966073101435,19.235215444998175
1608,C,47669599711738.0,-0.15248108,11.053322253719891,2.890117960740476,43,1970-01-01 13:14:29.599711738,-0.51856995,-0.36523438,-0.5250397,7.874345497603509,0.8233939712877894,-97.4318618774414,-3.9337148666381836,-120.68021392822266,19285569.0,50354.0,-0.05989410610196,0.007661701176811331,0.10689719548000594,-0.0035855073181499633,-0.0027379559428656053,0.004239053156490603,19.285569448999013
1608,C,47669650065742.0,1.7250977,9.93308325371989,3.609707200740476,43,1970-01-01 13:14:29.650065742,-0.7555084,-0.65960693,-0.28582764,9.202897518954414,1.0428670501854753,-97.4720230102539,-3.9436075687408447,-120.64558410644531,19335923.0,50354.0,0.03959376864174,0.034905531460811316,0.16364609809060596,-0.0005111015962359589,0.0010717152161174254,0.006811468502227296,19.33592345299985
1608,C,47669700419746.0,2.1890259,6.787972253719889,5.538097700740476,43,1970-01-01 13:14:29.700419746,-0.5461731,-0.49777222,0.25064087,12.662135795222387,0.7803224230289011,-97.50090789794922,-3.927938222885132,-120.62248992919922,19386277.0,50354.0,0.0985458898772,-0.07248318548918872,0.23031428400458595,0.003477942182531353,-0.0009460925954724581,0.009918740540010648,19.386277457000688
1608,C,47669750773750.0,2.5659027,6.462700253719889,2.2520717007404762,43,1970-01-01 13:14:29.750773750,0.59942627,0.5239563,1.255722,12.728123459277827,1.486835498217541,-97.33068084716797,-4.061480522155762,-120.66637420654297,19436631.0,50354.0,0.1197148373622,-0.15985701828018872,0.19613309502108595,0.005495150329706374,-0.005849629310301616,0.01073666566172934,19.436631461001525
1608,C,47669801127754.0,5.8166504,4.231423253719889,2.253704400740476,43,1970-01-01 13:14:29.801127754,0.91978455,0.41184998,1.0962067,15.806199985498171,1.4890578073297198,-97.28275299072266,-4.009734630584717,-120.69384765625,19486985.0,50354.0,0.21104753939870002,-0.22422325245318875,0.11344192490698594,0.008327604359709181,-0.009669988976254245,0.007794170276729067,19.486985465002363
1608,C,47669851481757.0,6.1330566,8.092156253719889,0.08010520074047589,43,1970-01-01 13:14:29.851481757,1.2946472,0.040115356,0.52098083,12.711177516409272,1.3961166281805886,-97.21766662597656,-3.9841463565826416,-120.69913482666016,19537339.0,50354.0,0.30085777313900003,-0.18319843874118877,0.05875832433648592,0.012888240053761674,-0.010257655919200845,0.004335485675202892,19.537339467999118
1608,C,47669901835761.0,4.1450195,10.18155725371989,-0.13086279925952393,43,1970-01-01 13:14:29.901835761,0.82658386,-1.0243835,-0.23721313,10.06877746338354,1.3374873837644774,-97.17996978759766,-3.9894936084747314,-120.6467056274414,19587693.0,50354.0,0.25877112196970004,-0.033391915023188744,-0.0012779240579140726,0.014089776692151742,-0.005453095336725733,0.0014471840378136034,19.587693471999955
1608,C,47669952189765.0,2.3815308,11.02228625371989,0.49412190074047624,43,1970-01-01 13:14:29.952189765,0.12402344,-0.9195404,-0.521225,8.531211033463077,1.0642423885218038,-97.17718505859375,-4.009603023529053,-120.59770965576172,19638047.0,50354.0,0.16431895690310003,0.04037996798681131,0.009145774397985936,0.010652138915780486,0.00017593820946512533,0.00019808886801198932,19.638047476000793
1608,C,47670002543769.0,1.3486633,11.099220853719888,0.917232800740476,43,1970-01-01 13:14:30.002543769,-0.51634216,-0.28451538,-0.54293823,8.12804969996887,0.8014612587302913,-97.33707427978516,-4.173479080200195,-120.57064819335938,19688401.0,50354.0,0.09391509685570001,0.0634839844440113,0.035533677319185934,0.006501558771485309,0.002614982730350821,0.0011248945558832363,19.68840148000163
1608,C,47670052897773.0,1.3693542,9.79747825371989,1.341122000740476,43,1970-01-01 13:14:30.052897773,-1.2065887,-0.0786438,-0.58410645,9.32130690469718,1.3428408257041238,-97.41998291015625,-4.3087029457092285,-120.5613021850586,19738755.0,50354.0,0.06843152659750001,0.03264699342801125,0.05685859883688593,0.0040874009386812175,0.002420289629883912,0.0023261603367814216,19.738755484002468
1608,C,47670103251777.0,0.06803894,9.89698125371989,2.746624310740476,43,1970-01-01 13:14:30.103251777,-1.7460785,0.41122437,-0.5858002,9.026519516872114,1.8870764385589118,-97.30689239501953,-4.244564533233643,-120.59284210205078,19789109.0,50354.0,0.03618924708578001,0.0023782070188112865,0.10291718888415594,0.002634037219023941,0.0008818294716496511,0.004022675007452671,19.78910948799603
1608,C,47670153605781.0,-1.5148773,10.62627425371989,4.095699600740476,43,1970-01-01 13:14:30.153605781,-1.2984924,1.2841644,-0.2267456,8.555041538042632,1.8402647326416057,-97.36719512939453,-4.264010906219482,-120.65525817871094,19839463.0,50354.0,-0.03642704938972,0.0232448039108113,0.17226918911935593,-5.9871486062972156e-06,0.0006451105461751079,0.0069283674389944185,19.839463491996867
1608,C,47670203959785.0,-1.5579224,10.92986355371989,2.598385175740476,43,1970-01-01 13:14:30.203959785,0.16690063,0.2358551,0.4696808,8.14361263923193,0.5514376686254276,-97.3577651977539,-4.2422308921813965,-120.66999816894531,19889817.0,50354.0,-0.07736387804690001,0.04924968157791132,0.16853697241746093,-0.002864914180071782,0.0018251936611495695,0.008580476729012439,19.889817495997704
1608,C,47670254313789.0,-0.771225,11.235313953719889,1.672664960740476,43,1970-01-01 13:14:30.254313789,1.0108032,-0.6529083,1.1513062,7.788942856583635,1.665388340146997,-97.30804443359375,-3.934091329574585,-120.6448745727539,19940171.0,50354.0,-0.05864094408980001,0.06458347410481129,0.10753222928618093,-0.0034241934069356964,0.002865977360623907,0.006950594291292592,19.94017149999854
1608,C,47670304667793.0,-0.9744415,9.17829225371989,0.966198300740476,43,1970-01-01 13:14:30.304667793,0.83587646,0.15655518,1.881424,9.938546629426641,2.064692531236301,-97.32858276367188,-3.603968858718872,-120.66033935546875,19990525.0,50354.0,-0.043950645470500004,0.020484163484711278,0.06643866033430594,-0.0025829484503596734,0.00214174791159141,0.004380065087974999,19.99052550399938
1608,C,47670355021797.0,2.2516937,4.39708725371989,1.3018611007404761,43,1970-01-01 13:14:30.355021797,-0.21012878,1.5424042,2.4313965,14.761843132916148,2.8870146796603198,-97.28410339355469,-3.622318983078003,-120.75562286376953,20040879.0,50354.0,0.032157378639400006,-0.1516818701411887,0.057102931551085936,-0.0002969190790066047,-0.003303164660490132,0.0031104066588985113,20.040879508000216
1608,C,47670405375800.0,6.313217,1.54180225371989,1.522182800740476,43,1970-01-01 13:14:30.405375800,-1.1949615,1.7909393,1.8529816,18.52704983846604,2.8405875048491818,-97.33756256103516,-3.5418195724487305,-120.85643768310547,20091233.0,50354.0,0.21563875669390004,-0.3439457788711887,0.07110095330758594,0.006238763299286495,-0.012478417319184627,0.0032277892090867817,20.09123351099697
1608,C,47670455729804.0,3.9430084,4.347695253719889,2.749233560740476,43,1970-01-01 13:14:30.455729804,-1.3583527,1.0559998,0.993927,15.09933104710982,1.98699484562148,-97.40186309814453,-3.499305009841919,-120.91526794433594,20141587.0,50354.0,0.25822098689580003,-0.34518932125518875,0.10754144973300594,0.011930366764357879,-0.017350354415881807,0.0044976797813529815,20.14158751499781
1608,C,47670506083808.0,2.107666,10.38178325371989,2.986202560740476,43,1970-01-01 13:14:30.506083808,-0.75819397,0.72340393,0.24969482,8.80330000217956,1.0772738023448998,-97.4374771118164,-3.4915931224823,-120.95281982421875,20191941.0,50354.0,0.1523378293688,-0.12262511961818871,0.14440107523052592,0.010336639317093835,-0.011778164177869026,0.006343156951006842,20.191941518998647
1608,C,47670556437812.0,4.0307617,13.76706755371989,2.904659590740476,43,1970-01-01 13:14:30.556437812,-0.3279419,0.378479,-0.6429901,6.548950065603217,0.8150021545459988,-97.4529800415039,-3.5259246826171875,-120.96745300292969,20242295.0,50354.0,0.15454719420290003,0.11452641677891132,0.14831423638783595,0.007726444238464691,-0.00020390104138448702,0.007369693400615497,20.242295522999484
1608,C,47670606791816.0,3.5684052,13.258705753719891,3.183102000740476,43,1970-01-01 13:14:30.606791816,0.36753845,0.15730286,-1.5016327,6.714862796297771,1.553939982014065,-97.4347152709961,-3.6013920307159424,-120.96551513671875,20292649.0,50354.0,0.1913242250413,0.18695869456141134,0.15327157358871593,0.008708004722311225,0.007590490648215304,0.007593025937779647,20.29264952700032
1608,C,47670657145820.0,2.23497,11.09336125371989,2.547069870740476,43,1970-01-01 13:14:30.657145820,1.3986359,-0.82344055,-2.1395416,8.14299865556781,2.685493432925069,-97.3682632446289,-3.7021749019622803,-120.9107894897461,20343003.0,50354.0,0.1461115774104,0.11964279104631131,0.14426853720827593,0.008495621198326453,0.007719305603145633,0.007491167369535864,20.34300353100116
1608,C,47670707499824.0,-1.1906891,8.17029625371989,0.4733089007404758,43,1970-01-01 13:14:30.707499824,1.5537262,-0.4085083,-2.151245,11.037055407603201,2.6849207038123732,-97.29281616210938,-3.806252956390381,-120.87674713134766,20393357.0,50354.0,0.026291860219300005,-0.008468094935188712,0.07604407632957594,0.004340601349202958,0.002799045323989734,0.005546810671042497,20.393357535001996
1608,C,47670757853828.0,-2.9561462,8.11704325371989,0.08773450074047595,43,1970-01-01 13:14:30.757853828,0.58914185,-0.13658142,-1.5280609,11.49437584582579,1.6433845313314377,-97.26445007324219,-3.8811728954315186,-120.8602294921875,20443711.0,50354.0,-0.10440487234810002,-0.08340285322118869,0.014125389719085923,-0.001966651306366798,-0.002313034861733114,0.0022701966467071595,20.443711538995558
1608,C,47670808207832.0,-0.97872925,9.93752325371989,1.385509800740476,43,1970-01-01 13:14:30.808207832,-0.3026886,-0.40812683,-0.8240814,9.127875773129448,0.9681415453133745,-97.28133392333984,-3.9194624423980713,-120.8347396850586,20494065.0,50354.0,-0.09906835920465,-0.03890937904218869,0.03709187177838593,-0.005122845550803588,-0.0030794550716950527,0.001289496992721849,20.494065542996395
1608,C,47670858561836.0,0.47242737,11.50379225371989,2.294628460740476,43,1970-01-01 13:14:30.858561836,-0.6914978,-0.09538269,-0.4349823,7.443039615288773,0.8224820157728473,-97.2049560546875,-3.9337234497070312,-120.83485412597656,20544419.0,50354.0,-0.01274716243276,0.04635880053081132,0.09265484100930593,-0.0028151793882650717,0.00018755408481905186,0.0032666329878557184,20.544419546997233
1608,C,47670908915839.0,1.7617798,7.764702253719889,4.6017574007404765,43,1970-01-01 13:14:30.908915839,-0.93611145,-0.55581665,-0.12722778,11.462017725728375,1.0960947510329813,-97.25371551513672,-3.936535358428955,-120.80642700195312,20594773.0,50354.0,0.05625063391909,-0.008346313786188707,0.17363030683450595,0.0010952869016113305,0.0009570403787693636,0.006704261167263651,20.594773550001264
1608,C,47670959269843.0,2.64357,6.48941825371989,3.836910600740476,43,1970-01-01 13:14:30.959269843,-0.21025085,0.17900085,0.9697113,12.765701937226222,1.008259257122956,-97.26319122314453,-3.8895692825317383,-120.82146453857422,20645127.0,50354.0,0.1109134919146,-0.13459320798418872,0.21246034427328594,0.004208691196114813,-0.003598788339612793,0.009720604322940878,20.6451275540021
1608,C,47671009623847.0,4.7238617,5.64550075371989,2.017162640740476,43,1970-01-01 13:14:31.009623847,1.1428528,0.47247314,1.392746,14.107290314446965,1.8625479352234937,-97.2038803100586,-3.8234567642211914,-120.85372924804688,20695481.0,50354.0,0.1854898279109,-0.1879483441496887,0.14738800200076593,0.007462546383246614,-0.008120628658074633,0.009059901814141805,20.695481557995663
1608,C,47671059977851.0,5.191559,6.280876753719889,0.34997220074047597,43,1970-01-01 13:14:31.059977851,1.5171051,-0.4689026,0.6939392,13.860294334921544,1.7329250260843398,-97.12928771972656,-3.7861056327819824,-120.83475494384766,20745835.0,50354.0,0.24964054696389998,-0.19319879349518873,0.059597353903965936,0.01095527744822284,-0.00959614148448508,0.005211270305613435,20.7458355619965
1608,C,47671110331855.0,2.882141,8.81037225371989,0.6308864007404762,43,1970-01-01 13:14:31.110331855,1.0898743,-1.4532471,0.17758179,10.709158402492934,1.8251817486482007,-97.0794677734375,-3.768310308456421,-120.76359558105469,20796189.0,50354.0,0.2032715449,-0.1135168237396887,0.024695077009485936,0.01140296773685741,-0.00772217909512251,0.002122230533107978,20.796189565997338
1608,C,47671160685859.0,1.4935303,8.69718225371989,-2.560428299259524,43,1970-01-01 13:14:31.160685859,0.95777893,0.22521973,-0.69932556,11.57790999901266,1.2071125235049678,-97.03113555908203,-3.804395914077759,-120.77050018310547,20846543.0,50354.0,0.1101662763201,-0.0526815001661887,-0.04858007637901408,0.007891424024858458,-0.004184375200978275,-0.0006013526291266101,20.846543569998175
1608,C,47671211039863.0,1.7796326,10.89650825371989,0.559826200740476,43,1970-01-01 13:14:31.211039863,-0.51683044,-1.2953949,-0.763855,8.485275955515457,1.590168579642298,-97.06158447265625,-3.834354877471924,-120.70137786865234,20896897.0,50354.0,0.08240842233330001,-0.0001588540941887053,-0.05036915903441408,0.004848453187996652,-0.001330361599213522,-0.0024912449000038805,20.896897573999013
1608,C,47671261393867.0,1.425354,10.31705525371989,3.423702560740476,43,1970-01-01 13:14:31.261393867,-0.839798,-0.9498291,-0.5145569,8.756376436123258,1.3682853515800057,-97.10694122314453,-3.8540327548980713,-120.65095520019531,20947251.0,50354.0,0.0806919476282,0.0406246884268113,0.10029330362780593,0.004106378014520686,0.0010188083109924392,0.0012569401884278267,20.94725157799985
1608,C,47671311747871.0,0.36976624,9.20523925371989,1.617321300740476,43,1970-01-01 13:14:31.311747871,-0.8495178,0.26649475,-0.41966248,9.780367527828172,0.9842847867432234,-97.12410736083984,-3.834341287612915,-120.66326141357422,20997605.0,50354.0,0.04519574228248001,-0.001956391186188706,0.12691785776050593,0.0031694743688811906,0.0009735517196271552,0.005720495410273529,20.997605582000688
1608,C,47671362101875.0,-0.7264862,10.53694975371989,2.598308880740476,43,1970-01-01 13:14:31.362101875,-0.65534973,-0.14257813,-0.13685608,8.41751569860942,0.6845008242495667,-97.15741729736328,-3.8402421474456787,-120.65532684326172,21047959.0,50354.0,-0.00898113843292,0.003579892640311308,0.10613692107914593,0.0009117750811203724,4.087489611044476e-05,0.005867620166845915,21.047959586001525
1608,C,47671412455879.0,-0.43756104,11.85508025371989,2.631435712740476,43,1970-01-01 13:14:31.412455879,0.0012512207,0.18647766,0.47758484,7.081338504074644,0.5127014361498721,-97.1565170288086,-3.81771183013916,-120.6675796508789,21098313.0,50354.0,-0.02930721736148,0.07029493949731132,0.13166927963006994,-0.0009639859338356089,0.0018599466487289249,0.005987246715255928,21.098313590002363
1608,C,47671462809882.0,0.82699585,11.52069925371989,1.637234100740476,43,1970-01-01 13:14:31.462809882,0.38442993,0.34428406,0.8715973,7.518086588308998,1.0129164518444642,-97.15350341796875,-3.839046001434326,-120.68895721435547,21148667.0,50354.0,0.00980480021137,0.09506280065881133,0.10747229989400993,-0.0004910123565883195,0.0041632118239107,0.00602086754767776,21.148667592999118
1608,C,47671513163886.0,-1.6659851,11.05878525371989,0.8604091007404759,43,1970-01-01 13:14:31.513163886,0.61299133,-0.07505798,0.90182495,8.237562871893143,1.093014323538055,-97.12272644042969,-3.7938339710235596,-120.69085693359375,21199021.0,50354.0,-0.021123232347250005,0.0750144814438113,0.06288316288368594,-0.0002849641658850509,0.0042820357314977305,0.004289039486354049,21.199021596999955
1608,C,47671563517890.0,-2.6325989,6.64676725371989,1.626095100740476,43,1970-01-01 13:14:31.563517890,-0.1579895,0.49395752,1.9004822,12.59767284430241,1.9699713973029254,-97.12823486328125,-3.7026095390319824,-120.72720336914062,21249375.0,50354.0,-0.108225449368,-0.0476965045201887,0.06260271628068594,-0.0032566117595448497,0.0006877847050060463,0.0031593579797213906,21.249375601000793
1608,C,47671613871894.0,3.593216,3.3047722537198894,2.0985683007404763,43,1970-01-01 13:14:31.613871894,-0.95729065,2.2739716,2.4167175,16.03590284189373,3.4536756797635517,-97.16795349121094,-3.596858024597168,-120.85533142089844,21299729.0,50354.0,0.0241854567267,-0.2429192898211887,0.09377585045908593,-0.0021158748947300104,-0.007316833854132859,0.003937143174807236,21.29972960500163
1608,C,47671664225898.0,7.814575,4.214943253719889,3.288921700740476,43,1970-01-01 13:14:31.664225898,-0.8744049,0.5966797,1.5167694,16.666882088383577,1.8496486169844424,-97.2092514038086,-3.5253496170043945,-120.89449310302734,21350083.0,50354.0,0.287213954007,-0.30414532266918876,0.13564083576728594,0.007840102964042367,-0.013773445748670236,0.005776023909121365,21.350083609002468
1608,C,47671714579902.0,2.8220215,6.965050253719889,2.160549480740476,43,1970-01-01 13:14:31.714579902,-0.8976898,0.15545654,0.588501,12.296413945444446,1.0845953807083135,-97.25341033935547,-3.4971375465393066,-120.90591430664062,21400437.0,50354.0,0.2677975900805,-0.21199050346318873,0.13720133593614595,0.013973525645490991,-0.01299475169453487,0.006869347356977305,21.40043761299603
1608,C,47671764933906.0,2.1993408,11.60598045371989,2.743374190740476,43,1970-01-01 13:14:31.764933906,-1.2480011,0.5477295,-0.06411743,7.640701366426306,1.364413938510328,-97.31417846679688,-3.5037906169891357,-120.93272399902344,21450791.0,50354.0,0.1264228386271,-0.025906359878788695,0.12346608627687593,0.009925287733571245,-0.005989529328360966,0.006562823689057252,21.450791616996867
1608,C,47671815287910.0,4.403946,13.161675253719888,5.756496700740476,43,1970-01-01 13:14:31.815287910,-0.55526733,0.6996155,-0.8024597,7.885020519205531,1.2007186288759197,-97.34011840820312,-3.5480453968048096,-120.96237182617188,21501145.0,50354.0,0.16625095176360002,0.13010606774621128,0.21400124943481597,0.007368648020666654,0.0026234360449780983,0.008496415111213268,21.501145620997704
1608,C,47671865641914.0,3.2189178,12.48250625371989,3.113369300740476,43,1970-01-01 13:14:31.865641914,1.2797394,0.113586426,-1.6493378,7.21419991274233,2.09068170379727,-97.27642822265625,-3.6305673122406006,-120.9574966430664,21551499.0,50354.0,0.1919208418926,0.15217435781281127,0.22331661631928595,0.009017691248882147,0.007106974274299511,0.011010351906091025,21.55149962499854
1608,C,47671915995918.0,2.6288605,10.29610525371989,3.108715370740476,43,1970-01-01 13:14:31.915995918,1.9168549,-1.6026764,-2.242157,9.02953847463394,3.3571077378332634,-97.18663024902344,-3.731698751449585,-120.86370086669922,21601853.0,50354.0,0.1472295142591,0.08002790192281133,0.15665342577387595,0.00853878851683135,0.00584615629336377,0.009566505749779537,21.60185362899938
1608,C,47671966349922.0,-3.920807,6.467293253719889,-1.9583927992595238,43,1970-01-01 13:14:31.966349922,1.0859375,0.7514038,-2.0761719,13.850748063865035,2.4605604408163395,-97.13069915771484,-3.8393776416778564,-120.88806915283203,21652207.0,50354.0,-0.0325273370305,-0.07141711577818871,0.02896167138217594,0.002887856716084462,0.0002167937627631636,0.004673231301097919,21.652207633000216
1608,C,47672016703925.0,-3.794693,7.93891225371989,1.009655300740476,43,1970-01-01 13:14:32.016703925,0.09490967,-0.6188965,-1.32164,11.737545197437699,1.4624544481014643,-97.12860107421875,-3.901106357574463,-120.84908294677734,21702561.0,50354.0,-0.19425314350000003,-0.13076416393918872,-0.02388636400021407,-0.0057096521583164,-0.005090318079444412,0.00012778101395565408,21.70256163599697
1608,C,47672067057929.0,-0.8122101,10.39579025371989,2.790050820740476,43,1970-01-01 13:14:32.067057929,-0.28573608,-0.760849,-0.6218567,8.566619908421918,1.0233484565628936,-97.14574432373047,-3.9272313117980957,-120.8073959350586,21752915.0,50354.0,-0.11598799934870001,-0.03185639497018872,0.09566520102052593,-0.0078109412535017205,-0.004094297811661396,0.0018071757796603919,21.75291563999781
1608,C,47672117411933.0,1.147995,11.89499725371989,1.6763881007404762,43,1970-01-01 13:14:32.117411933,-0.20349121,-0.81799316,-0.17971802,7.188597075084443,0.8618700882770964,-97.17916107177734,-4.062427043914795,-120.76414489746094,21803269.0,50354.0,0.008454056427300002,0.06774595707481128,0.11245153272612594,-0.0027073820809320882,0.0009035915051080822,0.005239755005539455,21.803269643998647
1608,C,47672167765937.0,1.6389923,4.26755625371989,5.600719800740476,43,1970-01-01 13:14:32.167765937,-0.2562561,-1.102951,0.08079529,15.03698092922054,1.1352074594867645,-97.1958236694336,-4.051515579223633,-120.70980072021484,21853623.0,50354.0,0.0701679792521,-0.0865445903431887,0.18321574563558596,0.001979466992300254,-0.0004732931897979385,0.007444015067312821,21.853623647999484
1608,C,47672218119941.0,2.9591217,9.50197625371989,2.261989900740476,43,1970-01-01 13:14:32.218119941,0.114089966,1.0322113,0.96154785,9.882678444779208,1.4152918271611667,-97.18607330322266,-4.010277271270752,-120.76716613769531,21903977.0,50354.0,0.115766716178,-0.1467936800601887,0.19795944215418596,0.004681277826843628,-0.005874757633945833,0.009596847702983087,21.90397765200032
1608,C,47672268473945.0,5.678238,4.70253825371989,2.200664840740476,43,1970-01-01 13:14:32.268473945,0.7526703,1.27034,0.84013367,15.31894604484611,1.698852812803322,-97.14366912841797,-3.9765257835388184,-120.83560180664062,21954331.0,50354.0,0.21746280516690003,-0.13584213824618868,0.11235625842626593,0.008389719658900549,-0.007115921997499664,0.007812818393514038,21.95433165600116
1608,C,47672318827949.0,6.460144,7.85498825371989,0.1965450007404761,43,1970-01-01 13:14:32.318827949,1.4092102,-1.0762787,0.5968628,13.049884174569499,1.870960830664707,-97.07665252685547,-3.9402480125427246,-120.7857666015625,22004685.0,50354.0,0.305608043614,-0.1773083551221887,0.06035455217896594,0.01316935475975672,-0.007884189971535638,0.004348340078607923,22.004685660001996
1608,C,47672369181953.0,3.8850403,9.70981625371989,1.328457200740476,43,1970-01-01 13:14:32.369181953,0.48890686,-1.182251,0.064834595,10.086937884393315,1.280996045842794,-97.05622100830078,-3.929757595062256,-120.72737121582031,22055039.0,50354.0,0.26046070512110003,-0.05124011691618871,0.03839498042668593,0.014251912886903615,-0.005754164880510228,0.002486216982412497,22.055039663995558
1608,C,47672419535957.0,3.0284424,9.590340253719889,-0.18687779925952386,43,1970-01-01 13:14:32.419535957,0.31562805,-0.45059204,-0.445755,10.216255477177524,0.708061983503679,-97.04216003417969,-3.949108839035034,-120.70222473144531,22105393.0,50354.0,0.1740607539379,-0.007549159612188733,0.028741544591085934,0.010939946774728444,-0.001480137615154959,0.0016902962903724424,22.105393667996395
1608,C,47672469889961.0,2.5046387,11.20139375371989,1.175197900740476,43,1970-01-01 13:14:32.469889961,-0.6121521,0.12644958,-0.4931183,8.252187601956516,0.7961691702216787,-97.07254028320312,-3.974355459213257,-120.70547485351562,22155747.0,50354.0,0.1393063828547,0.03000428710531127,0.024882935194985936,0.00788964440302729,0.0005653527448943462,0.0013501035275739317,22.155747671997233
1608,C,47672520243964.0,2.492218,10.30680125371989,1.381161100740476,43,1970-01-01 13:14:32.520243964,-0.73062134,0.36210632,-0.6764374,9.059948924916078,1.0594791576836695,-97.10810852050781,-4.0101542472839355,-120.71929931640625,22206101.0,50354.0,0.1258058611359,0.04804262570231129,0.06436145058028593,0.006674730966951337,0.0019649871237575134,0.00224690590066402,22.206101675001264
1608,C,47672570597968.0,0.7654724,10.958290653719889,0.950603800740476,43,1970-01-01 13:14:32.570597968,-0.75805664,-1.3526917,-0.8229675,8.18181322864721,1.7554772031425614,-97.27587127685547,-4.076827526092529,-120.6380844116211,22256455.0,50354.0,0.08201887120080001,0.041922018953611265,0.05870684492458593,0.005232403286041096,0.002265039858502162,0.003098490475926159,22.2564556790021
1608,C,47672620951972.0,-0.8251343,9.58005625371989,4.0928462007404764,43,1970-01-01 13:14:32.620951972,-1.1638489,-1.4307556,-0.45037842,9.487946395231713,1.898538008617227,-97.3393325805664,-4.090063571929932,-120.56407165527344,22306809.0,50354.0,-0.0015021076562999984,0.023624760088611283,0.12697894068728593,0.002027170555759877,0.0016502712559460372,0.004675011024350099,22.306809682995663
1608,C,47672671305976.0,-0.31040955,10.24604125371989,2.805691080740476,43,1970-01-01 13:14:32.671305976,0.3665924,0.6858063,0.13572693,8.683559877586152,0.7893934813416404,-97.31851959228516,-4.087706089019775,-120.59904479980469,22357163.0,50354.0,-0.02858958751145,0.0056924569448113015,0.17368447313584595,-0.0007576186092384418,0.0007381195732504805,0.0075698027698249916,22.3571636869965
1608,C,47672721659980.0,0.29164124,11.53200585371989,1.465526900740476,43,1970-01-01 13:14:32.721659980,0.4927063,0.02571106,0.8925171,7.4924119839163135,1.0198074967651607,-97.34001922607422,-3.9972476959228516,-120.60272216796875,22407517.0,50354.0,-0.0004725297408699989,0.05483669202401128,0.10753645511974592,-0.0007316969260616607,0.0015239423835880462,0.007080299310691037,22.407517690997338
1608,C,47672772013984.0,1.6921082,12.101128253719889,1.0609096007404761,43,1970-01-01 13:14:32.772013984,0.67430115,0.5942688,0.9611206,7.208059415244216,1.315899029291048,-97.3038330078125,-3.9533708095550537,-120.63839721679688,22457871.0,50354.0,0.049944859650880004,0.10154221742301127,0.06360809179778594,0.0012455648501443221,0.003937151803147687,0.0043089062577427,22.457871694998175
1608,C,47672822367988.0,-0.79771423,10.025597253719889,1.273617100740476,43,1970-01-01 13:14:32.822367988,0.4878235,0.2447052,0.98501587,9.039873477930612,1.1261033106296894,-97.31697082519531,-3.6816415786743164,-120.65419006347656,22508225.0,50354.0,0.022518156982690003,0.06361536810081125,0.05877637876318593,0.001824401369783392,0.00415817253073328,0.003081273815313589,22.508225698999013
1608,C,47672872721992.0,-0.2118988,3.23717525371989,1.172924400740476,43,1970-01-01 13:14:32.872721992,0.023269653,1.4305573,1.6707764,15.757417884002178,2.1996657573665575,-97.2630844116211,-3.4967150688171387,-120.7389144897461,22558579.0,50354.0,-0.025419027256309998,-0.15955237658018873,0.06159657538278593,-7.30352108789306e-05,-0.0024154060624852866,0.0030306298665331334,22.55857970299985
1608,C,47672923075996.0,4.4056854,4.345070253719889,1.609936100740476,43,1970-01-01 13:14:32.923075996,-0.89393616,2.3671265,1.6326752,15.26511984988995,3.011318321574927,-97.300048828125,-3.4307429790496826,-120.86689758300781,22608933.0,50354.0,0.1055869652282,-0.30257100485918875,0.07006407884578594,0.002018388174318275,-0.011634880374499208,0.003314820291512754,22.608933707000688
1608,C,47672973430000.0,5.3591766,6.150673253719889,3.292721100740476,43,1970-01-01 13:14:32.973430000,-1.8344116,1.2827606,1.1366272,13.865388608596284,2.510470487161074,-97.38755798339844,-3.382575035095215,-120.93790435791016,22659287.0,50354.0,0.24584993057400004,-0.22921786571318875,0.12343420036168595,0.008848126725611992,-0.013388848394400748,0.004871706175606521,22.659287711001525
1608,C,47673023784004.0,2.2124634,7.343300253719889,2.724666910740476,43,1970-01-01 13:14:33.023784004,-0.94143677,1.0410156,0.43003845,11.789175546065346,1.4679747068086002,-97.43140411376953,-3.367967367172241,-120.99238586425781,22709641.0,50354.0,0.19063118028,-0.15373142900318876,0.15149977796505593,0.01098928492797116,-0.009641514393074237,0.00692201277233238,22.709641715002363
1608,C,47673074138007.0,3.7189941,12.37508445371989,3.109600380740476,43,1970-01-01 13:14:33.074138007,-0.16596985,0.7451782,-0.14216614,7.5436042152353755,0.7765614928817692,-97.43759155273438,-3.3798348903656006,-121.02847290039062,22759995.0,50354.0,0.14933630547750001,0.0029805717792112606,0.14688934759761593,0.00855936138891658,-0.0037954543323280815,0.007512543014291389,22.759995717999118
1608,C,47673124492011.0,3.8255768,14.32296025371989,2.622112590740476,43,1970-01-01 13:14:33.124492011,0.3086853,0.34503174,-0.81648254,5.982915072676544,0.9386038856559081,-97.42145538330078,-3.4225473403930664,-121.04032897949219,22810349.0,50354.0,0.18994966154930001,0.17870747159921133,0.14430733748297594,0.008542202791833745,0.0045743598681385455,0.0073314589402740625,22.810349721999955
1608,C,47673174846015.0,2.7109375,13.770851753719889,1.378536500740476,43,1970-01-01 13:14:33.174846015,0.73565674,0.5141449,-1.4058228,5.9610703607760405,1.6678949494207593,-97.3836669921875,-3.49556565284729,-121.05677795410156,22860703.0,50354.0,0.16456982053110003,0.21384870491131122,0.10072434217621593,0.008925737000338232,0.009883386856005427,0.006169162598779474,22.860703726000793
1608,C,47673225200019.0,2.7474365,11.35794885371989,0.10187940074047619,43,1970-01-01 13:14:33.225200019,0.9148407,-0.26779175,-1.7883148,8.44512385401704,2.026503331268812,-97.33946228027344,-3.5825257301330566,-121.03199768066406,22911057.0,50354.0,0.13742548219800002,0.13919861289351126,0.03727243115158593,0.007603335736810552,0.008888672320372016,0.0034743447620740678,22.91105773000163
1608,C,47673275554023.0,-0.6037445,7.64409725371989,0.02315930074047623,43,1970-01-01 13:14:33.275554023,0.32695007,1.2103882,-1.617691,11.598601406175137,2.0466704948411323,-97.4653549194336,-3.507189989089966,-121.07278442382812,22961411.0,50354.0,0.05397173348400001,-0.015054685152988702,0.0031480993871859392,0.004818807699225715,0.0031255716687231365,0.0010176676973746594,22.961411734002468
1608,C,47673325908027.0,-2.542633,10.24781125371989,0.2678188007404758,43,1970-01-01 13:14:33.325908027,0.58891296,-0.8923645,-1.2800293,9.351135950961828,1.66781530277627,-97.43915557861328,-3.5648646354675293,-121.0201416015625,23011765.0,50354.0,-0.0792163463175,-0.0430046195081887,0.00732595566098593,-0.0006355836173090295,-0.0014617591134544637,0.00026370528394782314,23.01176573799603
1608,C,47673376262031.0,-0.47535706,10.49028825371989,0.5356258007404762,43,1970-01-01 13:14:33.376262031,-0.25865173,-0.38504028,-0.70739746,8.709014744501586,0.8459124665524932,-97.62074279785156,-3.4310336112976074,-120.98625183105469,23062119.0,50354.0,-0.07598393574062,0.028653931298811285,0.02022832473148593,-0.003907477501377287,-0.0003613072770474952,0.0006937341174412641,23.062119741996867
1608,C,47673426616035.0,2.072342,4.685723253719889,2.1448939607404762,43,1970-01-01 13:14:33.426616035,-1.5664368,0.29107666,0.16966248,14.396360161699528,1.6022594133007133,-97.560791015625,-3.5459325313568115,-121.01010131835938,23112473.0,50354.0,0.04020728983438,-0.11138275827718874,0.06748744603480594,-0.0009007486139814044,-0.002082863676834609,0.0022084199605829306,23.112473745997704
1608,C,47673476970039.0,4.304138,4.180107253719889,3.057140670740476,43,1970-01-01 13:14:33.476970039,-0.8762665,1.74469,1.4194489,15.363304592366303,2.4138395462071336,-97.59872436523438,-3.487088918685913,-121.10611724853516,23162827.0,50354.0,0.16054063696,-0.27025418531418877,0.13097162591679595,0.005054230552902106,-0.009608473328800111,0.004996604054525481,23.16282774999854
1608,C,47673527324043.0,6.089508,6.0386282537198905,3.346859300740476,43,1970-01-01 13:14:33.527324043,0.89753723,0.750412,1.1621094,14.267320516503041,1.6489965150200994,-97.5511245727539,-3.4344379901885986,-121.15104675292969,23213181.0,50354.0,0.26168082534200005,-0.2361920961291887,0.1612335072819759,0.010630269756377457,-0.012750798027899914,0.007356848638545479,23.21318175399938
1608,C,47673577678047.0,5.673279,9.57079375371989,-0.41768229925952394,43,1970-01-01 13:14:33.577678047,1.5992737,0.5152893,0.55281067,11.36306154418313,1.7688411650207683,-97.46941375732422,-3.4104039669036865,-121.18023681640625,23263535.0,50354.0,0.296151688299,-0.10047078211868868,0.07374788936628593,0.014044549195939459,-0.00847616128564681,0.005916126623413289,23.263535758000216
1608,C,47673628032050.0,4.577118,11.52890825371989,-1.429996199259524,43,1970-01-01 13:14:33.628032050,0.9509125,-1.5761108,0.19442749,9.609820314421064,1.8509894341677346,-97.42644500732422,-3.3905510902404785,-121.10323333740234,23313889.0,50354.0,0.258074245269,0.03775799744131133,-0.04651900155721407,0.013953746329441536,-0.0015789197798223293,0.0006855417083690023,23.31388976099697
1608,C,47673678386054.0,3.585434,10.950600253719891,1.463085500740476,43,1970-01-01 13:14:33.678386054,0.8127594,-1.2498627,0.012542725,8.822954325121913,1.4909365952615408,-97.38946533203125,-3.381868600845337,-121.04122924804688,23364243.0,50354.0,0.205508571704,0.07249738569181136,0.0008330893433859261,0.011671624582929222,0.0027758997811426303,-0.0011502342118075513,23.36424376499781
1608,C,47673728740058.0,2.5765533,12.11084825371989,-0.30609479925952376,43,1970-01-01 13:14:33.728740058,-0.15153503,0.3551941,-0.2301178,7.863828168801623,0.44953299753049375,-97.39608001708984,-3.395566701889038,-121.05738830566406,23414597.0,50354.0,0.15514035425210002,0.08714888907181134,0.029129554891185936,0.00908005800879673,0.004019414259723729,0.0007543694938938158,23.414597768998647
1608,C,47673779094062.0,0.5876465,10.19525925371989,-0.10640299925952412,43,1970-01-01 13:14:33.779094062,-1.0625916,0.013427734,-0.34042358,9.174373585359596,1.115871599356732,-97.44930267333984,-3.4125285148620605,-121.05586242675781,23464951.0,50354.0,0.0796650583646,0.0681316687148113,-0.010385457073314069,0.005911695873450656,0.0039094986033937984,0.0004719201507605601,23.464951772999484
1608,C,47673829448066.0,-1.904419,11.42423325371989,1.962581950740476,43,1970-01-01 13:14:33.829448066,-0.94932556,0.2690735,0.08534241,7.768026197365555,0.9904054191169249,-97.49594116210938,-3.4100446701049805,-121.06977844238281,23515305.0,50354.0,-0.03315238123250001,0.050844762859811314,0.046733017461435926,0.0011710496721548816,0.0029954696177542737,0.000915122527891744,23.51530577700032
1608,C,47673879802070.0,-2.2418213,11.07996425371989,2.525417650740476,43,1970-01-01 13:14:33.879802070,-1.8431549,4.669632,0.3901062,8.15808942307666,5.035361540951796,-97.57412719726562,-3.4213244915008545,-121.3042221069336,23565659.0,50354.0,-0.10438989203309999,0.07311898064481132,0.11299436596648595,-0.0034629018140080116,0.0031210351702158842,0.004021456332564789,23.56565978100116
1608,C,47673930156074.0,-1.3725739,7.42820025371989,1.353069600740476,43,1970-01-01 13:14:33.930156074,-1.1798096,2.9792175,1.0143738,11.649836136232679,3.3610477251423925,-97.6239242553711,-3.3907480239868164,-121.45885467529297,23616013.0,50354.0,-0.0909996279504,-0.027489142196188702,0.09764867353053594,-0.00491932194462458,0.0011488224426209716,0.0053033598054165205,23.616013785001996
1608,C,47673980510078.0,5.2478333,1.2236102537198903,3.388515800740476,43,1970-01-01 13:14:33.980510078,-0.89572144,2.2388458,1.6587372,18.47519292615942,2.926799704953715,-97.66155242919922,-3.3234353065490723,-121.5810317993164,23666367.0,50354.0,0.0975674059138,-0.2756425668541887,0.11937889565308595,0.00016535694578452204,-0.007631947038761352,0.0054641031093360486,23.666367788995558
1608,C,47674030864082.0,10.043793,3.8338552537198893,2.916225750740476,43,1970-01-01 13:14:34.030864082,-0.89930725,1.9404144,1.1426239,18.127893823503097,2.42477853637835,-97.70054626464844,-3.2797861099243164,-121.68500518798828,23716721.0,50354.0,0.38499727535510003,-0.36613739091918873,0.15873447804163593,0.012149530980307098,-0.016158093996860322,0.007002060409512014,23.716721792996395
1608,C,47674081218086.0,7.4373474,7.480355253719889,3.419002850740476,43,1970-01-01 13:14:34.081218086,-0.66926575,1.5390015,0.30628967,13.66822373306303,1.7059471337277778,-97.72950744628906,-3.274937391281128,-121.763427734375,23767075.0,50354.0,0.44012267185080006,-0.20861132205418875,0.15950205049948593,0.02077404491080295,-0.014470448346530726,0.008012241079079824,23.767075796997233
1608,C,47674131572089.0,4.0674133,10.69052925371989,2.992428140740476,43,1970-01-01 13:14:34.131572089,-0.61798096,1.4420624,-0.16448975,9.188312251214684,1.577498434316606,-97.75639343261719,-3.2927987575531006,-121.83390045166016,23817429.0,50354.0,0.28965536014390003,-0.035980840756188744,0.16142059807251594,0.018373621511530564,-0.006158096883076875,0.008079869523097291,23.817429800001264
1608,C,47674181926093.0,2.9305725,12.50373125371989,3.634380660740476,43,1970-01-01 13:14:34.181926093,-0.26254272,1.8217773,-0.31098938,7.123368074267603,1.8666857274573758,-97.76441192626953,-3.3205037117004395,-121.92218780517578,23867783.0,50354.0,0.1761882884866,0.09049269679581129,0.16684316519488593,0.0117285455415701,0.001372444999509577,0.008264696767783377,23.8677838040021
1608,C,47674232280097.0,2.5794525,11.49889425371989,2.608501750740476,43,1970-01-01 13:14:34.232280097,0.6977539,1.8635406,-0.23916626,7.859455735664242,2.0042067190626716,-97.7242431640625,-3.3449082374572754,-122.0130615234375,23918137.0,50354.0,0.138725899425,0.1108449024008113,0.15717705047385594,0.007928594509050353,0.005069076734973367,0.008157856969891913,23.918137807995663
1608,C,47674282634101.0,4.0148773,9.432564253719889,0.8013423007404761,43,1970-01-01 13:14:34.282634101,1.0074463,2.2882996,-0.22279358,10.470874149444139,2.510159374628047,-97.66730499267578,-3.371270179748535,-122.12515258789062,23968491.0,50354.0,0.1660254413746,0.033522130841811264,0.08584964368413593,0.007672724507311529,0.0036347287959495084,0.006118683078815762,23.9684918119965
1608,C,47674332988105.0,4.4525146,8.70635325371989,-0.747089099259524,43,1970-01-01 13:14:34.332988105,0.68873596,2.3555603,-0.49308777,11.653752240741143,2.5032293339717766,-97.62615966796875,-3.411377191543579,-122.23880767822266,24018845.0,50354.0,0.2131835258663,-0.036785673915188735,0.0013659328536859293,0.00954734416822414,-8.21662239584246e-05,0.0021958265704927413,24.018845815997338
1608,C,47674383342109.0,3.4713135,8.92841425371989,0.30793420074047617,43,1970-01-01 13:14:34.383342109,0.17684937,2.2051697,-0.7724457,10.838397023159663,2.3432288545756634,-97.6110610961914,-3.4642765522003174,-122.3431625366211,24069199.0,50354.0,0.1994982200737,-0.049478658465188716,-0.011056602880014069,0.01039008831753138,-0.002171877096340763,-0.00024398199925286358,24.069199819998175
1608,C,47674433696113.0,2.3345795,9.16379625371989,0.0808070007404762,43,1970-01-01 13:14:34.433696113,-0.26530457,2.5430603,-0.8301544,10.360576179205811,2.6882519472955533,-97.6169662475586,-3.522263526916504,-122.46392059326172,24119553.0,50354.0,0.146174968061,-0.03796161605418873,0.009787337229685939,0.008703013857667342,-0.002201483791574366,-3.195630127831134e-05,24.119553823999013
1608,C,47674484050117.0,1.4365997,10.416115253719889,-0.6419864992595241,43,1970-01-01 13:14:34.484050117,-0.8562012,2.9952698,-0.7489624,9.237506199668362,3.2040078567767654,-97.65087890625,-3.5792787075042725,-122.607666015625,24169907.0,50354.0,0.0949469787184,-0.0005057679771887385,-0.01412881623421407,0.006070727254064954,-0.0009684933277579904,-0.00010930541689700478,24.16990782799985
1608,C,47674534404121.0,1.0990906,9.96376825371989,-0.6068912992595239,43,1970-01-01 13:14:34.534404121,-1.1838379,2.7066193,-0.7913666,9.599257928922716,3.0583527108893866,-97.70194244384766,-3.636565923690796,-122.73674774169922,24220261.0,50354.0,0.06384107468309999,0.01963512706681127,-0.03144299633331407,0.003997806820489566,0.00048161987379942656,-0.001147361525012656,24.220261832000688
1608,C,47674584758125.0,0.366745,8.66371975371989,0.704571100740476,43,1970-01-01 13:14:34.584758125,-1.4398041,1.6767731,-0.8570709,10.450252205531369,2.3704797832690385,-97.84632110595703,-3.649862051010132,-122.80931091308594,24270615.0,50354.0,0.036905342901200004,-0.0244849344366887,0.0024592843618859318,0.0025364925555199213,-0.00012210360015140403,-0.0007297229163046463,24.270615836001525
1608,C,47674635112129.0,-0.46510315,6.548592253719889,2.718410810740476,43,1970-01-01 13:14:34.635112129,-1.7693939,0.8298187,-0.5978699,12.383112167355026,2.0437226488819147,-97.72999572753906,-3.541191816329956,-122.85919952392578,24320969.0,50354.0,-0.002476363142550001,-0.11046882058868872,0.08618041558535594,0.0008668184233835311,-0.0033977306902739277,0.0022316817255717087,24.320969840002363
1608,C,47674685466132.0,-0.6723938,7.69051425371989,4.5302699007404765,43,1970-01-01 13:14:34.685466132,-2.1524658,1.0346985,0.22558594,11.406782818264716,2.3988745324417393,-97.83434295654297,-3.537020683288574,-122.91207885742188,24371323.0,50354.0,-0.028638760710150004,-0.13497121546218874,0.18250003427295594,-0.0007833854732394281,-0.006179443787652942,0.0067645676860827175,24.371323842999118
1608,C,47674735820136.0,2.3760376,10.92499595371989,3.881313600740476,43,1970-01-01 13:14:34.735820136,-1.495758,1.4533539,0.9407501,8.432220917155124,2.2879117779886577,-97.90431213378906,-3.5003762245178223,-122.99063873291016,24421677.0,50354.0,0.0428926399526,-0.024786499507288708,0.21177843781678596,0.0003588699176871636,-0.004022219989786534,0.009926749091803432,24.421677846999955
1608,C,47674786174140.0,5.060547,9.217583253719889,2.6611598335404762,43,1970-01-01 13:14:34.786174140,-0.05821228,0.26211548,0.7933502,10.945361440661475,0.8375546156749831,-97.9061050415039,-3.4628875255584717,-123.00911712646484,24472031.0,50354.0,0.1872308904742,0.013660516705711273,0.16471985365489153,0.005793820125555544,-0.0002801188689953151,0.009479097484382424,24.472031851000793
1608,C,47674836528144.0,4.317383,9.96625575371989,1.616894100740476,43,1970-01-01 13:14:34.836528144,0.49302673,0.4817047,0.49253845,9.99740978594524,0.847177017644474,-97.87979888916016,-3.441800355911255,-123.0363998413086,24522385.0,50354.0,0.23610814361,-0.010477685309688713,0.10770856390339154,0.010658406861137903,8.013414605766001e-05,0.006858930268864893,24.52238585500163
1608,C,47674886882148.0,4.0740967,10.925942253719889,0.361812900740476,43,1970-01-01 13:14:34.886882148,0.23147583,1.6440582,0.2855072,9.264470349683934,1.6846432222026326,-97.86322021484375,-3.438918113708496,-123.11993408203125,24572739.0,50354.0,0.21127228440690005,0.03253366923331128,0.04981790617628593,0.011263697036181493,0.0005553035072450455,0.003966043937196039,24.572739859002468
1608,C,47674937236152.0,3.5396423,10.01174225371989,-0.411761899259524,43,1970-01-01 13:14:34.937236152,0.07583618,1.4220581,0.088912964,10.068397900918095,1.4268517376167253,-97.85514831542969,-3.4442365169525146,-123.19110107421875,24623093.0,50354.0,0.19169110680300003,0.033678882843811264,-0.0012575659357140713,0.010145409300491655,0.0016670334236457143,0.001222603686236878,24.62309386299603
1608,C,47674987590156.0,3.1575317,9.30219325371989,-0.0014987992595241195,43,1970-01-01 13:14:34.987590156,-0.2341156,1.0117645,-0.046691895,10.469505485676049,1.0395468487193356,-97.86384582519531,-3.4534671306610107,-123.2409896850586,24673447.0,50354.0,0.168614749798,-0.007202245729188699,-0.010404664606614076,0.009071420551643377,0.0006666022926348524,-0.00029361997836419577,24.673447866996867
1608,C,47675037944160.0,2.7498016,9.82740125371989,0.7279018007404761,43,1970-01-01 13:14:35.037944160,-0.45967102,1.0122986,-0.1878357,9.696466330037707,1.1275318853071477,-97.88388061523438,-3.469702959060669,-123.28994750976562,24723801.0,50354.0,0.1487289304941,-0.011843399086188696,0.018288648368285927,0.007989761838714202,-0.0004795121995167567,0.00019849505916761222,24.723801870997704
1608,C,47675088298164.0,2.0209198,9.778557253719889,1.119045600740476,43,1970-01-01 13:14:35.088298164,-0.21292114,0.57714844,-0.40596008,9.490866995562598,0.7370477055163659,-97.93406677246094,-3.713555335998535,-123.31318664550781,24774155.0,50354.0,0.1201124526878,0.0001500173418112654,0.04650059472708593,0.006768619504370696,-0.0002944042721781906,0.0016311987734121773,24.77415587499854
1608,C,47675138652168.0,1.2577667,9.322365253719889,0.915386500740476,43,1970-01-01 13:14:35.138652168,0.04449463,-0.27182007,-0.45246887,9.838433609866206,0.5297112429170432,-97.99169921875,-3.824880599975586,-123.29270935058594,24824509.0,50354.0,0.0825474900105,-0.012565274030188747,0.05122089701898594,0.0051023693773151,-0.0003125789176432799,0.0024603339976908517,24.82450987899938
1608,C,47675189006172.0,0.8503723,8.83063525371989,0.5642665007404761,43,1970-01-01 13:14:35.189006172,-0.223526,0.113723755,-0.332901,10.34252716732189,0.4167973619497849,-98.09598541259766,-3.8646347522735596,-123.2897720336914,24874863.0,50354.0,0.053076615603000005,-0.03643110622418871,0.03725322361828593,0.00341460810703109,-0.0012335818656644612,0.0022275129352845938,24.874863883000216
1608,C,47675239360175.0,1.1054535,9.38564325371989,1.468365000740476,43,1970-01-01 13:14:35.239360175,-0.785553,0.67658997,-0.23597717,9.674713642912264,1.063274530906675,-98.10885620117188,-3.94848895072937,-123.32331085205078,24925217.0,50354.0,0.0492418261666,-0.0348379560181887,0.051175563312785936,0.0025760714084332196,-0.001794341180076336,0.0022263715685635964,24.92521788599697
1608,C,47675289714179.0,1.8853607,9.65163525371989,2.590633710740476,43,1970-01-01 13:14:35.289714179,-0.6544342,0.59957886,-0.17288208,9.461207287186355,0.9042494927140772,-98.13961029052734,-3.9612836837768555,-123.3518295288086,24975571.0,50354.0,0.07529972911340001,-0.014167639018188703,0.10219341055895594,0.0031355827372845603,-0.001233813866230874,0.003861370655168845,24.97557188999781
1608,C,47675340068183.0,2.6212616,9.31002125371989,2.491955120740476,43,1970-01-01 13:14:35.340068183,-0.13157654,0.7517395,-0.16775513,9.965206955935813,0.7813875129408829,-98.14368438720703,-3.974910020828247,-123.38793182373047,25025925.0,50354.0,0.11346322964710001,-0.016071574112188684,0.12796433901019597,0.00475248501271311,-0.0007613326689835115,0.005794681660902538,25.025925893998647
1608,C,47675390422187.0,3.8883972,7.372658253719889,2.011104900740476,43,1970-01-01 13:14:35.390422187,0.27792358,1.1633606,-0.0382843,12.204393765915558,1.1967101109202958,-98.12580108642578,-3.9850330352783203,-123.44538879394531,25076279.0,50354.0,0.1638936796076,-0.07344937804118871,0.11337354216082593,0.006983014904305583,-0.002253869012365583,0.006076163834242819,25.076279897999484
1608,C,47675440776191.0,5.8758698,4.05533625371989,0.03783820074047606,43,1970-01-01 13:14:35.440776191,0.49806213,1.0570221,0.070739746,16.200131094325442,1.170626207161232,-98.09721374511719,-3.9889886379241943,-123.49835205078125,25126633.0,50354.0,0.245834950259,-0.20574658228618872,0.051586240465985936,0.01031573771415139,-0.0070293166931623815,0.004153192447195243,25.12663390200032
1608,C,47675491130195.0,6.3177032,6.058708753719889,0.33115800074047597,43,1970-01-01 13:14:35.491130195,-0.48402405,0.8939514,0.2071991,14.519736914861122,1.0374776400391348,-98.11822509765625,-3.985036611557007,-123.5441665649414,25176987.0,50354.0,0.30699758742100003,-0.2388278888476887,0.009290217364685929,0.013918664801169362,-0.011193051459737632,0.0015326865788028257,25.17698790600116
1608,C,47675541484199.0,1.7858429,9.91848025371989,7.949154200740477,43,1970-01-01 13:14:35.541484199,-1.2541046,-1.2914734,0.3992157,10.59443441340454,1.843923823202903,-98.18516540527344,-3.956117868423462,-123.48292541503906,25227341.0,50354.0,0.20402298015970002,-0.09121151235968872,0.20847342029668597,0.012865964829979286,-0.00830940200419814,0.005482635105400361,25.227341910001996
1608,C,47675591838203.0,0.17167664,9.72051325371989,6.489712100740476,43,1970-01-01 13:14:35.591838203,-0.11891174,-2.0019226,0.37672424,9.968867470703405,2.040528179492791,-98.19774627685547,-3.9232091903686523,-123.38630676269531,25277695.0,50354.0,0.049284469458580005,0.0009817395368113082,0.363527336872386,0.006377521659039436,-0.0022717149903615846,0.014401263063245726,25.277695913995558
1608,C,47675642192207.0,-1.6738586,8.02288125371989,1.042126000740476,43,1970-01-01 13:14:35.642192207,0.031219482,0.40856934,0.8958893,11.145778722318912,0.9851503436018656,-98.19438171386719,-3.8817853927612305,-123.41297149658203,25328049.0,50354.0,-0.03782043520692,-0.04674375648618871,0.18962908788098595,0.00028862999035404393,-0.001152150300734475,0.013926819306015645,25.328049917996395
1608,C,47675692546211.0,-5.8466034,4.79227525371989,0.6462215007404759,43,1970-01-01 13:14:35.692546211,-0.29310608,1.1261749,2.3227844,15.42435988950931,2.5979816104827105,-98.20419311523438,-3.7748608589172363,-123.48542785644531,25378403.0,50354.0,-0.18934267177400002,-0.17082200461218872,0.04250752504478593,-0.005719285544458623,-0.005477653167173849,0.005844503503632159,25.378403921997233
1608,C,47675742900214.0,0.9997864,6.0702142537198895,0.734569900740476,43,1970-01-01 13:14:35.742900214,0.074783325,0.6361084,2.9139404,13.03444674430893,2.983500477124275,-98.20496368408203,-3.6508049964904785,-123.53730010986328,25428757.0,50354.0,-0.12202831160900002,-0.21998430167118874,0.03476418511508593,-0.007839387248633794,-0.009839330373296594,0.0019454698466950938,25.428757925001264
1608,C,47675793254218.0,1.7485657,8.481575253719889,0.38155780074047607,43,1970-01-01 13:14:35.793254218,0.50683594,-0.02947998,2.843872,10.829074052916255,2.8888336213220183,-98.27981567382812,-3.6509041786193848,-123.54969787597656,25479111.0,50354.0,0.06919526082170001,-0.12709879557118875,0.02810074714018593,-0.0013301777196718524,-0.008738511139271338,0.0015827503993909797,25.4791119290021
1608,C,47675843608222.0,0.67967224,8.98595525371989,1.4523891007404761,43,1970-01-01 13:14:35.843608222,-0.22169495,0.15539551,2.68956,10.03303997534252,2.7031517547085038,-98.25545501708984,-3.5248024463653564,-123.57893371582031,25529465.0,50354.0,0.06113574661538,-0.05368918441418872,0.04617328113858594,0.003281343774243364,-0.004551698972091849,0.0018699972099746397,25.529465932995663
1608,C,47675893962226.0,2.6539154,12.24335525371989,0.40835220074047607,43,1970-01-01 13:14:35.893962226,-0.053863525,-0.45402527,2.093933,7.531854571598828,2.143267513310692,-98.25860595703125,-3.41792893409729,-123.57148742675781,25579819.0,50354.0,0.08392973601228,0.04102115064581133,0.04684788374738594,0.0036523136561165963,-0.0003189430861864376,0.002341993868334114,25.5798199369965
1608,C,47675944316230.0,4.404724,17.40978295371989,0.454433800740476,43,1970-01-01 13:14:35.944316230,-0.20326233,-0.8358612,0.8974457,5.153221793184382,1.2431364787950512,-98.27084350585938,-3.3675174713134766,-123.53652954101562,25630173.0,50354.0,0.1777153641738,0.2531078606487113,0.021722363159285933,0.0065874386873849364,0.007405286117362197,0.0017263931063692779,25.630173940997338
1608,C,47675994670234.0,4.2056274,17.19808255371989,-1.067935599259524,43,1970-01-01 13:14:35.994670234,-0.5663452,-0.83125305,-1.0174713,5.87877650090577,1.4307258175559119,-98.30201721191406,-3.4118716716766357,-123.48798370361328,25680527.0,50354.0,0.2167828171978,0.3778530298808113,-0.015446134781314074,0.009932280712392773,0.01588570234086179,0.0001580166018721975,25.680527944998175
1608,C,47676045024238.0,-5.8372345,8.26273425371989,1.146694500740476,43,1970-01-01 13:14:36.045024238,-1.333252,-1.6938782,-1.9696655,12.24749814393471,2.919994252362407,-98.37461853027344,-3.49703311920166,-123.38972473144531,25730881.0,50354.0,-0.0410789719567,0.14755778476091128,0.0019829128625859283,0.004423695711635175,0.01322826808023465,-0.00033896353824781856,25.730881948999013
1608,C,47676095378242.0,-2.7151794,2.230095253719888,12.204403200740476,43,1970-01-01 13:14:36.095378242,-1.4612122,0.4582672,-1.8047333,19.419424084712304,2.3668992805258044,-98.44707489013672,-3.5896501541137695,-123.39920043945312,25781235.0,50354.0,-0.2153241247603,-0.22929123149118877,0.33614058683018594,-0.006455460766043909,-0.0020578029883281967,0.008512935351764919,25.78123595299985
1608,C,47676145732246.0,1.5662231,11.508354753719889,1.7572139007404761,43,1970-01-01 13:14:36.145732246,1.0480194,-0.7369995,-1.6209717,7.631685276348937,2.0661708975729716,-98.36093139648438,-3.870084047317505,-123.35326385498047,25831589.0,50354.0,-0.028927272765099998,-0.14757624416268877,0.351511633763986,-0.006149517435496995,-0.009488392434537677,0.017313019957899467,25.831589957000688
1608,C,47676196086250.0,1.9206085,9.796974753719889,-1.420001799259524,43,1970-01-01 13:14:36.196086250,0.3214264,0.39770508,-1.5802765,10.179237272478304,1.660950955846384,-98.34429931640625,-3.95115065574646,-123.36148834228516,25881943.0,50354.0,0.0877879591932,0.04293508100881125,0.008489989078985932,0.0014819355022002738,-0.002634550564725175,0.009063760858317503,25.881943961001525
1608,C,47676246440254.0,1.8669434,8.682915253719889,0.6182063007404759,43,1970-01-01 13:14:36.246440254,-0.7600708,0.965271,-1.5697937,10.607096106798203,1.9934161595144477,-98.45204162597656,-4.190324306488037,-123.39271545410156,25932297.0,50354.0,0.09535919418630001,-0.02820100928268875,-0.020186805266214074,0.004611095880635672,0.00037095972384858624,-0.00029449074114584295,25.932297965002363
1608,C,47676296794257.0,0.7744751,10.13430125371989,1.436642000740476,43,1970-01-01 13:14:36.296794257,-0.54875183,1.6399689,-1.373642,8.907007950273348,2.208510563266465,-98.46105194091797,-4.290268898010254,-123.46488189697266,25982651.0,50354.0,0.0665029935745,-0.019708139992188716,0.051734915686385934,0.0040752043012536624,-0.00120620865129359,0.000794286776048667,25.982651967999118
1608,C,47676347148261.0,2.224762,8.97057425371989,1.228496900740476,43,1970-01-01 13:14:36.347148261,0.20285034,1.9599609,-1.0782776,10.297879484957253,2.2461695333675697,-98.4372787475586,-4.561959743499756,-123.5547103881836,26033005.0,50354.0,0.0755117924667,-0.012465749349188678,0.06710020212258593,0.0035755062681592925,-0.0008100420119478588,0.0029919117610764847,26.033005971999955
1608,C,47676397502265.0,0.72532654,9.014458253719889,-0.06213729925952416,43,1970-01-01 13:14:36.397502265,1.253952,0.5829315,-1.053833,10.30108145471492,1.7386111537331315,-98.54572296142578,-4.606089115142822,-123.56210327148438,26083359.0,50354.0,0.07427437917158002,-0.04066003656018871,0.029365435686485926,0.003771166443336976,-0.0013375479118403946,0.0024287153631190024,26.083359976000793
1608,C,47676447856269.0,0.11608887,9.52382725371989,-0.7195317992595238,43,1970-01-01 13:14:36.447856269,0.9037628,-0.37213135,-0.6620636,9.988811944740519,1.1805071582847868,-98.5024185180664,-4.636068820953369,-123.5387191772461,26133713.0,50354.0,0.02118431577757,-0.026730785779188717,-0.019680082893414073,0.0024033635627347502,-0.0016966987340385057,0.00024384812727117004,26.13371398000163
1608,C,47676498210273.0,1.1253815,9.83992825371989,0.06376300074047592,43,1970-01-01 13:14:36.498210273,0.48034668,-1.0419769,-0.2594452,9.513481930379985,1.176333543228141,-98.66780090332031,-4.6959919929504395,-123.47004699707031,26184067.0,50354.0,0.031256499505490004,-0.005947927589188689,-0.01651029104031407,0.001320302406381602,-0.000822751966475638,-0.0009111650445294737,26.184067984002468
1608,C,47676548564277.0,2.3538208,8.11390025371989,0.959392900740476,43,1970-01-01 13:14:36.548564277,0.4033203,-1.570282,-0.13995361,11.192215649824591,1.6272798889152786,-98.66092681884766,-4.876672744750977,-123.39057159423828,26234421.0,50354.0,0.0875958763071,-0.04144565966818868,0.025759996131585926,0.0029923462658335786,-0.0011932283463789901,0.0002328798250829515,26.23442198799603
1608,C,47676598918281.0,3.0071564,7.38427025371989,-1.068011899259524,43,1970-01-01 13:14:36.598918281,-0.692688,1.2754822,-0.25242615,12.4931926443758,1.473224514140551,-98.69034576416016,-4.898766994476318,-123.45193481445312,26284775.0,50354.0,0.1349733229644,-0.10327176113418868,-0.0027347005257140713,0.005603624730058556,-0.0036435505035414552,0.0005797078674690357,26.284775991996867
1608,C,47676649272285.0,4.012314,5.71198325371989,1.520336500740476,43,1970-01-01 13:14:36.649272285,-1.6759949,1.2645264,-0.1946106,13.853666953630078,2.108520620424503,-98.76890563964844,-4.917978763580322,-123.51317596435547,26335129.0,50354.0,0.1767292062608,-0.16374482544318872,0.011388176491485932,0.007847734578302863,-0.0067226766002586305,0.00021786856439023815,26.335129995997704
1608,C,47676699626289.0,2.781784,8.87278025371989,-0.39404649925952384,43,1970-01-01 13:14:36.699626289,-1.489212,-1.4845276,-0.15924072,10.865973539828646,2.1087750432447456,-98.84979248046875,-4.914475917816162,-123.43832397460938,26385484.0,50355.0,0.17105840239499998,-0.12627111679143496,0.028357166512286675,0.008756422516931402,-0.007301876385612237,0.0010006883734774848,26.38548399999854
1608,C,47676749980293.0,1.5205536,8.796242253719889,5.314495400740476,43,1970-01-01 13:14:36.749980293,1.5345001,1.5723724,0.5554962,10.57855701129278,2.2661909781384733,-98.7660140991211,-4.899066925048828,-123.52056121826172,26435838.0,50354.0,0.1083199537552,-0.04861622033018872,0.12388214199258595,0.007033908872793585,-0.00440313848671112,0.003832929070227178,26.43583800399938
1608,C,47676800334297.0,3.3132324,9.005669253719889,-1.217029299259524,43,1970-01-01 13:14:36.800334297,1.0046082,0.37742615,1.0790863,11.151654682028136,1.5218788969752988,-98.7135009765625,-4.848605632781982,-123.54753112792969,26486192.0,50354.0,0.121700230122,-0.04527047397718875,0.10316190403698594,0.0057912181694762645,-0.0023637853025768427,0.005716287946886532,26.486192008000216
1608,C,47676850688300.0,-4.518341,5.11359425371989,0.8401912007404759,43,1970-01-01 13:14:36.850688300,-0.09477234,-1.5362396,1.2389679,14.643165760668216,1.9758682552912392,-98.72383880615234,-4.775728702545166,-123.48075866699219,26536546.0,50354.0,-0.030341019222200012,-0.1379885026731887,-0.009487652806414074,0.0023001508528242643,-0.004613911255126554,0.002358436623232108,26.53654601099697
1608,C,47676901042304.0,-1.4044037,6.023629253719889,1.908001260740476,43,1970-01-01 13:14:36.901042304,-0.38754272,2.1444092,3.2055511,12.997203720259465,3.876111199589203,-98.73249053955078,-4.633577823638916,-123.61148834228516,26586900.0,50354.0,-0.14911694331190004,-0.2130673237531887,0.06919124160270593,-0.004518213122721037,-0.008838532541936905,0.00150315725512424,26.58690001499781
1608,C,47676951396308.0,4.4448853,7.45549825371989,3.253734900740476,43,1970-01-01 13:14:36.951396308,0.5845642,0.32104492,2.5475464,12.312966094966265,2.6333966288298476,-98.70044708251953,-4.510103225708008,-123.64677429199219,26637254.0,50354.0,0.07655020524320001,-0.1541052067451887,0.12995703133760594,-0.0018270127643556606,-0.009244302800357648,0.005013956067818232,26.637254018998647
1608,C,47677001750312.0,3.9021149,11.30979225371989,0.11654320074047586,43,1970-01-01 13:14:37.001750312,0.6148529,-0.06604004,2.5664063,8.924926715245062,2.63985732042497,-98.66845703125,-4.382754802703857,-123.66293334960938,26687608.0,50354.0,0.21015242403540002,-0.021015480894188712,0.08485349176098593,0.007218312097347313,-0.004409013552696606,0.005408284540053248,26.687608022999484
1608,C,47677052104316.0,2.817627,11.94440525371989,1.0132869007404761,43,1970-01-01 13:14:37.052104316,0.3468933,-0.053497314,2.2061462,7.703848975028358,2.23389300996367,-98.65006256103516,-4.273301601409912,-123.67693328857422,26737962.0,50354.0,0.1691829418163,0.09200173064481128,0.02844573246498593,0.009550526506048252,0.0017872208099714245,0.0028525345683372938,26.73796202700032
1608,C,47677102458320.0,4.4091797,15.03104455371989,-0.7125737992595238,43,1970-01-01 13:14:37.102458320,0.23501587,-0.50704956,1.1710815,6.779492652202758,1.297599165802098,-98.6395263671875,-4.211599349975586,-123.66063690185547,26788316.0,50354.0,0.1819493122859,0.18569169980191122,0.0075710537559859365,0.00884045676153109,0.006991487498357133,0.0009067946266854088,26.78831603100116
1608,C,47677152812324.0,6.4964905,17.32888085371989,0.334774300740476,43,1970-01-01 13:14:37.152812324,-0.6348572,-0.22718811,-0.32859802,7.081809054596461,0.7500898349298786,-98.67227172851562,-4.226130485534668,-123.64689636230469,26838670.0,50354.0,0.2745720586254,0.32125664198311127,-0.009511857974214067,0.0114938385554338,0.012763438401121511,-4.886362780232965e-05,26.838670035001996
1608,C,47677203166328.0,0.66264343,13.04171025371989,-2.682971799259524,43,1970-01-01 13:14:37.203166328,-1.0430298,0.7342987,-2.3193512,7.973371849260021,2.6469786046455246,-98.72301483154297,-4.346316337585449,-123.66568756103516,26889024.0,50354.0,0.18024551495561003,0.2711711723120114,-0.05912056842021408,0.01145094205004909,0.014915555080508305,-0.0017279585993325174,26.889024038995558
1608,C,47677253520332.0,-1.9840546,0.4418262537198885,2.938091600740476,43,1970-01-01 13:14:37.253520332,-2.2051544,2.3270264,-1.3660889,18.589277701005877,3.4848180263594153,-98.82524871826172,-4.431567668914795,-123.77057647705078,26939378.0,50354.0,-0.03326916902709,-0.15399420135218875,0.006423151241885927,0.0037004234614423496,0.0029501645978554547,-0.001326762872298768,26.939378042996395
1608,C,47677303874336.0,0.09609985,14.99086825371989,3.293682400740476,43,1970-01-01 13:14:37.303874336,1.0041809,-0.36672974,-1.653122,3.9838459196836995,1.9686752726158971,-98.7774429321289,-4.51044225692749,-123.73970031738281,26989732.0,50354.0,-0.04753303674075,-0.10492025038618873,0.15689737403528595,-0.002034357134616908,-0.00651868915141713,0.004111920864903356,26.989732046997233
1608,C,47677354228339.0,2.796402,11.55043855371989,-1.579333799259524,43,1970-01-01 13:14:37.354228339,1.5814972,-0.26565552,-1.5622406,8.952344874114015,2.238817085248965,-98.70037078857422,-4.585626602172852,-123.71463775634766,27040086.0,50354.0,0.07282451907745001,0.17476128149091125,0.04316215473948593,0.0006367636507910963,0.001758387640123599,0.005036898755962432,27.040086050001264
1608,C,47677404582343.0,2.4714203,9.724846253719889,-2.484851499259524,43,1970-01-01 13:14:37.404582343,0.10029602,0.25982666,-1.3085785,10.825014376810886,1.337888962334635,-98.69512176513672,-4.652266502380371,-123.71759796142578,27090440.0,50354.0,0.13262796204710003,0.042178645596911264,-0.10232399326081408,0.005172677117272797,0.005461896544290108,-0.001489517608451479,27.0904400540021
1608,C,47677454936347.0,1.8899994,9.50113725371989,1.328808200740476,43,1970-01-01 13:14:37.454936347,-0.5693817,-0.18414307,-1.6986084,9.701165518888612,1.800937169107927,-98.70936584472656,-4.89901876449585,-123.69685363769531,27140794.0,50354.0,0.1098074637869,-0.009416613233188735,-0.02910570212681407,0.006103796716222618,0.0008248496888214422,-0.0033090054407743145,27.140794057995663
1608,C,47677505290351.0,0.5861969,9.25067925371989,2.0139583007404758,43,1970-01-01 13:14:37.505290351,-0.25238037,0.088897705,-1.6223297,9.711413974569204,1.6442482503009375,-98.60039520263672,-4.944357395172119,-123.69941711425781,27191148.0,50354.0,0.0623431942451,-0.021354715792188724,0.08416083220778593,0.004334237117271664,-0.0007747297508719283,0.0013861230100486286,27.1911480619965
1608,C,47677555644355.0,-0.14596558,10.02214825371989,1.648861200740476,43,1970-01-01 13:14:37.555644355,0.04269409,0.15029907,-1.172409,8.959126835484904,1.1827744751408837,-98.54522705078125,-4.8568315505981445,-123.70259857177734,27241502.0,50354.0,0.01108370394364,-0.008237221845188731,0.09221880658878592,0.001848669015697907,-0.0007450362138962522,0.00444071016598129,27.241502065997338
1608,C,47677605998359.0,0.66516113,9.79174125371989,1.1546596007404761,43,1970-01-01 13:14:37.605998359,0.22796631,0.5171356,-0.5825348,9.278224041802904,0.8116308646752021,-98.55245971679688,-4.870849609375,-123.7221908569336,27291856.0,50354.0,0.01307178636235,0.005385096128811273,0.07058424321888593,0.0006081627794339102,-7.180796916123526e-05,0.004098892385007755,27.291856069998175
1608,C,47677656352363.0,0.531723,9.76303925371989,0.21070520074047616,43,1970-01-01 13:14:37.656352363,0.08885193,-0.20851135,-0.16992188,9.496516572278754,0.2832756499353268,-98.7094497680664,-4.836906433105469,-123.69701385498047,27342210.0,50354.0,0.03013395174101,-0.0011384911641886943,0.03437578960688594,0.0010877908682282948,0.00010691677319430268,0.0026425787464544586,27.342210073999013
1608,C,47677706706367.0,1.0269623,10.27697025371989,1.307949400740476,43,1970-01-01 13:14:37.706706367,-0.08030701,-0.86405945,0.08552551,8.811000836068597,0.8719877073962697,-98.72149658203125,-4.872535705566406,-123.6544189453125,27392564.0,50354.0,0.03924301979810001,0.011078119368811316,0.038235166901485935,0.0017467040124401726,0.00025025001930778376,0.0018281260520112788,27.39256407799985
1608,C,47677757060371.0,2.667389,9.59590925371989,1.599117600740476,43,1970-01-01 13:14:37.757060371,-0.23132324,-0.16049194,0.15533447,9.75868854334956,0.32155388621386943,-98.73363494873047,-4.863641738891602,-123.64764404296875,27442918.0,50354.0,0.0930126826801,0.00687028735881131,0.07319122589628593,0.003329801821293642,0.0004518870361813549,0.002805382291469502,27.442918082000688
1608,C,47677807414375.0,3.7174072,8.75446375371989,1.100155200740476,43,1970-01-01 13:14:37.807414375,-0.44456482,0.9410858,0.00062561035,10.938376477386306,1.0408077409068315,-98.75191497802734,-4.870762348175049,-123.69432067871094,27493272.0,50354.0,0.16075001392740002,-0.0314618587916887,0.06795959132288593,0.006388983412487028,-0.0006191419939655542,0.0035537541251270902,27.493272086001525
1608,C,47677857768379.0,4.142563,7.6435932537198905,1.100551900740476,43,1970-01-01 13:14:37.857768379,-0.14399719,-0.10974121,-0.18096924,12.116685281439452,0.25598474510473823,-98.75968170166016,-4.878866672515869,-123.68749237060547,27543626.0,50354.0,0.1978904697254,-0.0806153187236887,0.055407202693985934,0.009029491456926546,-0.002821767098304657,0.003106005772962783,27.543626090002363
1608,C,47677908122382.0,4.4549713,6.01514525371989,1.683040940740476,43,1970-01-01 13:14:37.908122382,0.38908386,-1.0393372,-0.09741211,13.689764209661544,1.1140454140612903,-98.74467468261719,-4.87576961517334,-123.63520050048828,27593980.0,50354.0,0.2164601210711,-0.1495831405981887,0.07008251696996594,0.01043210482448348,-0.005795706610346907,0.0031594546719793163,27.593980092999118
1608,C,47677958476386.0,4.957245,5.32785825371989,1.423946700740476,43,1970-01-01 13:14:37.958476386,0.341568,-0.5853424,0.07371521,14.52327420170728,0.6817098767416415,-98.73001861572266,-4.86768102645874,-123.60673522949219,27644334.0,50354.0,0.23697136978510003,-0.2078864006931887,0.07822462784956594,0.01141604464528655,-0.00900001064109301,0.003733928985121355,27.644334096999955
1608,C,47678008830390.0,1.7918549,8.67820025371989,2.639339764740476,43,1970-01-01 13:14:38.008830390,-0.6325073,-0.06602478,0.031936646,10.400172917226179,0.6367454008354263,-98.54976654052734,-4.993098258972168,-123.62189483642578,27694688.0,50354.0,0.1699220881823,-0.1408386649581887,0.10230136334141395,0.010244356591245231,-0.00877985097790473,0.004545102880215301,27.694688101000793
1608,C,47678059184394.0,-2.8101501,8.63170725371989,6.479488700740476,43,1970-01-01 13:14:38.059184394,-1.1185608,-0.24746704,0.5113373,11.331026521510319,1.2545453493414622,-98.60643005371094,-4.965973854064941,-123.61345672607422,27745042.0,50354.0,-0.025637618250400004,-0.0576576586851887,0.22958474427541395,0.0036326500994754464,-0.004997541940369312,0.008355896531468877,27.74504210500163
1608,C,47678109538398.0,-1.9372253,7.19687725371989,-2.571918199259524,43,1970-01-01 13:14:38.109538398,1.0426636,-0.103012085,1.6913757,12.985545834168406,1.9896006209718313,-98.55364227294922,-4.8815813064575195,-123.6209945678711,27795396.0,50354.0,-0.11952467044580001,-0.0949529278561887,0.09838090251578593,-0.003654750942504228,-0.0038422767373522586,0.00825719108926204,27.795396109002468
1608,C,47678159892402.0,-0.52944946,5.636849253719889,2.551235520740476,43,1970-01-01 13:14:38.159892402,0.71946716,-0.72991943,2.7550201,13.296970494053213,2.939481437263042,-98.51897430419922,-4.739943027496338,-123.60530090332031,27845750.0,50354.0,-0.06210347043252001,-0.1703544677221887,-0.0005207277970740696,-0.004572851702893463,-0.006679644298476809,0.0024638256188930087,27.84575011299603
1608,C,47678210246406.0,3.9570313,6.144036253719889,-1.224506099259524,43,1970-01-01 13:14:38.210246406,0.9260254,-0.358963,2.8243713,13.930021907888658,2.993902255765517,-98.47241973876953,-4.597619533538818,-123.60842895507812,27896104.0,50354.0,0.08629622798568001,-0.19686184557918873,0.03340306664462594,0.0006091010569159095,-0.009245405119988781,0.0008278786451648134,27.896104116996867
1608,C,47678260600410.0,5.241501,10.06780325371989,0.07703820074047618,43,1970-01-01 13:14:38.260600410,0.07307434,0.060653687,2.5148163,10.609280183509435,2.5166087800170334,-98.46707153320312,-4.47369909286499,-123.63002014160156,27946458.0,50354.0,0.23159144771710002,-0.08530371672118874,-0.02888979928101407,0.008003458011168894,-0.007104082362036604,0.000113630532413656,27.946458120997704
1608,C,47678310954414.0,3.5552673,12.403481253719889,2.567959150740476,43,1970-01-01 13:14:38.310954414,0.13842773,-0.26190186,1.8821716,7.426325249217643,1.9053411118618555,-98.46009063720703,-4.378684043884277,-123.63091278076172,27996812.0,50354.0,0.2214762354891,0.07229033004381126,0.06659309831823594,0.0114068850600825,-0.0003276380363763327,0.0009492559598601351,27.99681212499854
1608,C,47678361308418.0,5.721283,14.83029995371989,0.39655720074047585,43,1970-01-01 13:14:38.361308418,0.10882568,-0.41526794,0.9480438,7.389541636357663,1.0407101120570252,-98.45567321777344,-4.328742980957031,-123.61731719970703,28047166.0,50354.0,0.2335557069031,0.19219570945971132,0.07463762818123594,0.01145633921360842,0.006658965016580188,0.0035557660010772036,28.04716612899938
1608,C,47678411662422.0,5.7911224,16.62456575371989,2.212444620740476,43,1970-01-01 13:14:38.411662422,-0.4091034,0.021270752,-0.5919342,6.246557001253163,0.7198639690329316,-98.47637939453125,-4.358170032501221,-123.61399841308594,28097520.0,50354.0,0.2898478307558,0.2984699539162113,0.06568683885942593,0.013177730867638127,0.012353489406815604,0.0035329491066827443,28.097520133000216
1608,C,47678462016425.0,0.36758423,9.68415125371989,0.3575404007404761,43,1970-01-01 13:14:38.462016425,-0.14964294,0.054885864,-1.94281,9.52837296647551,1.949337365275408,-98.622802734375,-4.401459693908691,-123.59181213378906,28147874.0,50354.0,0.15505775682351,0.16890536809631126,0.06470451288582593,0.011201387978484289,0.01176710848230928,0.003282863062890206,28.14787413599697
1608,C,47678512370429.0,-3.1852875,4.19614425371989,-0.9718052992595241,43,1970-01-01 13:14:38.512370429,-0.5950928,0.3630829,-1.7740631,15.498766461260828,1.9061124089795596,-98.65218353271484,-4.491878986358643,-123.5964584350586,28198228.0,50354.0,-0.07094131522879,-0.14400500000918873,-0.015465347350014072,0.0021177996500302654,0.0006269165673294842,0.0012396944706951354,28.19822813999781
1608,C,47678562724433.0,1.0218201,12.549477253719889,4.1015132007404755,43,1970-01-01 13:14:38.562724433,-0.46148682,0.8478241,-1.2840118,6.613736908962437,1.6063816769727433,-98.67271423339844,-4.561733722686768,-123.62879180908203,28248582.0,50354.0,-0.0544696187298,-0.07186468730718873,0.07879665583558591,-0.003157471084275421,-0.005434951117564435,0.0015944923537412421,28.248582143998647
1608,C,47678613078437.0,1.7928467,11.03128875371989,-1.134723299259524,43,1970-01-01 13:14:38.613078437,0.7531738,-0.61976624,-1.4401245,8.93818215043089,1.7393503214563844,-98.63836669921875,-4.62825345993042,-123.5871810913086,28298936.0,50354.0,0.0708648660236,0.10022374576931128,0.07469486934958593,0.00041278314111600246,0.0007139960149008596,0.0038644561295870716,28.298936147999484
1608,C,47678663432441.0,-0.09388733,9.36898125371989,-1.193912199259524,43,1970-01-01 13:14:38.663432441,-0.4066925,0.03804016,-1.3124084,10.302326795716883,1.3745041475818236,-98.65936279296875,-4.693415641784668,-123.57917785644531,28349290.0,50354.0,0.042774700058489996,0.02014839797731129,-0.05862805594621408,0.00286110335524878,0.003030609463108717,0.00040451416105669307,28.34929015200032
1608,C,47678713786445.0,1.3199921,9.80971625371989,0.5566829007404759,43,1970-01-01 13:14:38.713786445,-1.1846466,1.1903839,-1.0754242,9.445390831921266,1.9942263177022839,-98.82202911376953,-4.839375972747803,-123.62107849121094,28399644.0,50354.0,0.03086963979429,-0.010607132855188727,-0.01604352204881408,0.001854143544473442,0.00024022043197967976,-0.0018800063191808242,28.39964415600116
1608,C,47678764140449.0,1.8686523,9.89919325371989,1.896343550740476,43,1970-01-01 13:14:38.764140449,-0.5133362,0.6468506,-1.0821381,9.246682255150375,1.3612320229932922,-98.74778747558594,-5.068160533905029,-123.65322875976562,28449998.0,50354.0,0.0802805000588,0.002742014668811288,0.061759846968935925,0.002798427071081247,-0.00019802008057842477,0.0011509999125139077,28.449998160001996
1608,C,47678814494453.0,1.2372284,10.39434125371989,1.1338313007404761,43,1970-01-01 13:14:38.814494453,0.6198578,-0.10202026,-1.0866852,8.751869479577753,1.2551958212049417,-98.75273132324219,-5.197558403015137,-123.63680267333984,28500352.0,50354.0,0.07819675838390001,0.01746111829381131,0.07629071223573594,0.003989981935811858,0.0005086542785999492,0.0034756989290960234,28.500352163995558
1608,C,47678864848457.0,0.7565918,10.008263253719889,0.5961574007404762,43,1970-01-01 13:14:38.864848457,0.78770447,-0.26637268,-0.83940125,9.181591202827411,1.1815359474895064,-98.82217407226562,-5.225587844848633,-123.60746002197266,28550706.0,50354.0,0.050198411175400005,0.020207173683811287,0.04355592553718594,0.003232605183994497,0.0009483745871206043,0.0030173787992088543,28.550706167996395
1608,C,47678915202461.0,0.9613342,9.83231425371989,0.23882710074047608,43,1970-01-01 13:14:38.915202461,0.5818634,-0.3236084,-0.4273529,9.456426437947764,0.7911497417989404,-98.94670867919922,-5.260146141052246,-123.57423400878906,28601060.0,50354.0,0.043252222902,0.006057019904811275,0.021022404793785938,0.0023528066141667,0.0006612536019807503,0.001625888622742879,28.601060171997233
1608,C,47678965556464.0,1.6491699,9.84014225371989,-0.17728009925952382,43,1970-01-01 13:14:38.965556464,0.34298706,-1.2439423,-0.07582092,9.65740493878768,1.292587088348936,-99.14246368408203,-5.369657516479492,-123.49276733398438,28651414.0,50354.0,0.0657246617257,0.001824237487811292,0.0015495688562859353,0.002743711024271603,0.00019842641737405838,0.0005682945805878596,28.651414175001264
1608,C,47679015910468.0,2.269638,9.94719725371989,0.9056209007404761,43,1970-01-01 13:14:39.015910468,0.09889221,-1.1442719,0.025405884,9.422912883855611,1.1488182229013062,-99.18965148925781,-5.572758197784424,-123.43175506591797,28701768.0,50354.0,0.09866382649830001,0.004716646778811311,0.018337436358885937,0.0041388089680156484,0.00016467984318075727,0.0005006951303023823,28.7017681790021
1608,C,47679066264472.0,3.2210083,10.19030025371989,0.7201198007404761,43,1970-01-01 13:14:39.066264472,-0.012451172,0.5057678,-0.030029297,9.507645862143995,0.5068114618665681,-99.18785095214844,-5.578280925750732,-123.45660400390625,28752122.0,50354.0,0.1382380018951,0.013532574744811322,0.040931273641185935,0.0059644773334606325,0.0004594606503002471,0.0014922083116718097,28.752122182995663
1608,C,47679116618476.0,4.6657257,9.14353225371989,0.025188800740476136,43,1970-01-01 13:14:39.116618476,0.044555664,0.5023041,-0.1962738,11.15106267071131,0.5411266216309552,-99.18335723876953,-5.591977119445801,-123.47993469238281,28802476.0,50354.0,0.19856430191800004,-0.006701298960188693,0.018764634659485937,0.00847967160310242,0.00017199103042944396,0.0015029638832860157,28.8024761869965
1608,C,47679166972480.0,4.566162,7.48813725371989,0.47401080074047597,43,1970-01-01 13:14:39.166972480,0.46420288,-0.20510864,-0.39369202,12.505232220812541,0.6422984311164277,-99.16143798828125,-5.609772682189941,-123.46660614013672,28852830.0,50354.0,0.23243123662290005,-0.07473365681118871,0.012568348366485932,0.010851174673844242,-0.002050287881455969,0.0007888705136448939,28.852830190997338
1608,C,47679217326484.0,5.3346252,4.757271253719889,-0.794696499259524,43,1970-01-01 13:14:39.217326484,0.2842102,-0.44787598,-0.14694214,15.525997882311732,0.5504183170578356,-99.1495132446289,-5.613461971282959,-123.4432144165039,28903184.0,50354.0,0.24927211933440002,-0.18516655000818874,-0.008073903831614073,0.012127845392936945,-0.006543507507091466,0.0001131566300544688,28.903184194998175
1608,C,47679267680488.0,5.1063843,7.138558253719889,5.505047200740476,43,1970-01-01 13:14:39.267680488,-0.5430603,-1.1984253,-0.11917114,13.154396563922022,1.321112958730282,-99.18257904052734,-5.609798908233643,-123.38282775878906,28953538.0,50354.0,0.2628732961815,-0.19396790049118875,0.11859249961118593,0.012894285126443814,-0.009545468060222828,0.0027825266859422804,28.953538198999013
1608,C,47679318034492.0,1.6083374,9.35854425371989,7.939236200740476,43,1970-01-01 13:14:39.318034492,0.24143982,-0.6112671,-0.14079285,11.04228171321891,0.6721333802417232,-99.17359161376953,-5.611873149871826,-123.35139465332031,29003892.0,50354.0,0.16905654824090002,-0.07812165017018873,0.33848672319908596,0.010874697693022765,-0.006850398617001501,0.011507883592694217,29.00389220299985
1608,C,47679368388496.0,1.7514343,9.24507925371989,0.22398020074047587,43,1970-01-01 13:14:39.368388496,0.6618805,1.3677063,0.42619324,10.132169452209013,1.5780833302337485,-99.25593566894531,-5.710747718811035,-123.41059875488281,29054246.0,50354.0,0.08458897209090001,-0.025085770953188702,0.20552529934008593,0.00638603326539373,-0.0025984532416232736,0.013696590691468733,29.054246207000688
1608,C,47679418742500.0,-0.48814392,9.397103253719889,2.814251260740476,43,1970-01-01 13:14:39.418742500,0.10310364,-0.078125,0.8180237,9.539471415561335,0.8281887767700911,-99.25051879882812,-5.669750690460205,-123.413330078125,29104600.0,50354.0,0.03180586189726001,-0.024114971010188717,0.07649355350570593,0.0029304727353199047,-0.0012387270804119534,0.007100388658098502,29.104600211001525
1608,C,47679469096504.0,-3.2839813,6.34685575371989,2.492184000740476,43,1970-01-01 13:14:39.469096504,-0.0048675537,0.020828247,2.0299225,12.998762456700705,2.0300351881084144,-99.2490463256836,-5.569738864898682,-123.43074798583984,29154954.0,50354.0,-0.09497079666394001,-0.09708354406968873,0.13360012057830595,-0.0015903035626207026,-0.0030514150141660746,0.005289528432413167,29.154954215002363
1608,C,47679519457062.0,2.3122559,6.16877025371989,1.345180800740476,43,1970-01-01 13:14:39.519457062,-0.45761108,1.4064331,2.8006134,13.02848643507257,3.16715919738398,-99.17990112304688,-5.559206485748291,-123.53116607666016,29205314.0,50360.0,-0.02446804557200001,-0.1783845371326664,0.09662484570129037,-0.0030074700475009697,-0.006936286284675302,0.0057970646509202355,29.205314772996644
1608,C,47679569811066.0,3.8190613,8.62836525371989,1.707073500740476,43,1970-01-01 13:14:39.569811066,0.13435364,0.25500488,2.6745148,11.021315884085936,2.6900014507104086,-99.16991424560547,-5.429226398468018,-123.56521606445312,29255668.0,50354.0,0.15436817314440002,-0.1209217193291887,0.07684660654838593,0.003270495511890315,-0.0075356336189401265,0.0043674907532901,29.25566877699748
1608,C,47679620165070.0,1.6758118,10.003319253719889,1.690075240740476,43,1970-01-01 13:14:39.620165070,0.22122192,-0.11048889,2.3513794,9.127260081301309,2.36434600163476,-99.08447265625,-5.44103479385376,-123.58548736572266,29306022.0,50354.0,0.13834442003869998,-0.024379279156188722,0.08553001386426592,0.007369624958570909,-0.0036582432388663475,0.004088156172129336,29.30602278099832
1608,C,47679670519074.0,2.4895477,11.540505253719889,0.8252681007404761,43,1970-01-01 13:14:39.670519074,0.26937866,-0.2512207,1.985611,8.003937850293372,2.0194870006744003,-99.07069396972656,-5.341014862060547,-123.5887680053711,29356376.0,50354.0,0.10487125613150002,0.04893966962381126,0.06332879930846594,0.006123441078937126,0.0006183569508033326,0.0037478183392498704,29.356376784999156
1608,C,47679720873078.0,3.8785706,15.299645053719889,0.5251125007404762,43,1970-01-01 13:14:39.720873078,0.09954834,-0.3567047,1.259491,5.7209072355655,1.312808323434859,-99.0664291381836,-5.276016712188721,-123.5810546875,29406730.0,50354.0,0.16033011443910003,0.18228526429041125,0.03399853240348594,0.006676974906855998,0.00582155016115838,0.0024504102305118124,29.406730788999994
1608,C,47679771227082.0,4.372528,16.32254845371989,0.46844130074047596,43,1970-01-01 13:14:39.771227082,-0.3401184,-0.3345337,-0.14916992,5.539283269134072,0.49984496345072477,-99.08506774902344,-5.2807393074035645,-123.56326293945312,29457084.0,50354.0,0.20773790945220003,0.30268276593681126,0.025014704059885935,0.009266848637511262,0.012210040097030781,0.0014857762544383138,29.45708479300083
1608,C,47679821581086.0,-1.5684967,10.36028325371989,-3.008350099259524,43,1970-01-01 13:14:39.821581086,-0.7703247,-0.084625244,-1.1825867,10.387890188387368,1.4138857373808675,-99.12484741210938,-5.338452339172363,-123.54969024658203,29507438.0,50354.0,0.0705970960401,0.17832445389821128,-0.06394728382031407,0.007007640433279639,0.012110318773786363,-0.0009802055606282993,29.50743879700167
1608,C,47679871935090.0,-8.960098,2.124184253719889,4.930782600740476,43,1970-01-01 13:14:39.871935090,-2.2966614,1.1688232,-1.5209198,19.173784333877517,2.9923232273837397,-99.23538970947266,-5.422849178314209,-123.59545135498047,29557792.0,50354.0,-0.2650784287619,-0.17914776156518872,0.04840108308978593,-0.004896456513936759,-2.072841713149103e-05,-0.000391406695792507,29.557792801002506
1608,C,47679922289094.0,-2.3142242,8.00537925371989,2.329403240740476,43,1970-01-01 13:14:39.922289094,0.80049133,-0.8489685,-1.6717377,11.164930937398449,2.038686052583553,-99.2006607055664,-5.498552322387695,-123.53990936279297,29608146.0,50354.0,-0.2838536100294,-0.23843717957318875,0.18278969893096594,-0.013820461940648562,-0.01051353606304093,0.005820690318936471,29.608146804996068
1608,C,47679972643098.0,1.0823517,11.06246225371989,-2.0321842992595243,43,1970-01-01 13:14:39.972643098,0.95269775,-0.9090271,-1.7267609,9.218135516982388,2.171558536433748,-99.15870666503906,-5.57653284072876,-123.48098754882812,29658500.0,50354.0,-0.0310148539325,-0.013398154367188728,0.007483081289665925,-0.007927443317168756,-0.006340458202616884,0.004790497787614849,29.658500808996905
1608,C,47680022997102.0,-0.032836914,9.752861253719889,-1.6999087992595237,43,1970-01-01 13:14:40.022997102,-0.6539612,0.29911804,-1.4896545,10.153754467429525,1.654148536960672,-99.19112396240234,-5.65244722366333,-123.48388671875,29708854.0,50354.0,0.026423633767122003,0.030598199946811268,-0.09396290794141407,-0.00011559315010372181,0.00043304554755815676,-0.0021773025956110634,29.708854812997743
1608,C,47680073351105.0,-0.38150024,9.15877625371989,0.8025783007404761,43,1970-01-01 13:14:40.073351105,-1.2970581,1.0694122,-1.3132019,9.946482601589443,2.1331904271414825,-99.29147338867188,-5.530239105224609,-123.5225830078125,29759208.0,50354.0,-0.010431766526258001,-0.017330902475188745,-0.022592089961214062,0.000402627241523233,0.00033403074844304026,-0.0029345051821944687,29.759208816001774
1608,C,47680123705109.0,1.1869202,9.71384525371989,2.386379560740476,43,1970-01-01 13:14:40.123705109,-0.7327881,0.82717896,-1.0952911,9.28919089660112,1.5559132447239794,-99.1364517211914,-5.637356281280518,-123.57303619384766,29809562.0,50354.0,0.020278058332920002,-0.018313208307188706,0.08028839207850594,0.0002479000888163292,-0.000897411777167917,0.0014526197984070575,29.80956282000261
1608,C,47680174059113.0,1.737793,10.78435575371989,0.973415700740476,43,1970-01-01 13:14:40.174059113,0.49842834,0.40060425,-0.92800903,8.491139409038194,1.1269939374259115,-99.17353057861328,-5.840497016906738,-123.57923126220703,29859916.0,50354.0,0.07363550423640002,0.02261400676431131,0.08458956529830594,0.00236446176480777,0.00010828120275497584,0.004151132332875993,29.859916823996173
1608,C,47680224413117.0,1.9214935,10.05034725371989,-0.4464145992595241,43,1970-01-01 13:14:40.224413117,0.6578827,0.4488678,-0.75645447,9.594960448425615,1.0984149097764064,-99.13898468017578,-5.881406784057617,-123.59545135498047,29910270.0,50354.0,0.0921298562105,0.031086117618311298,0.013268306731985927,0.004173474479971602,0.0013520080315812895,0.0024637676441066586,29.91027082799701
1608,C,47680274767121.0,1.7351685,10.22980525371989,0.19390520074047624,43,1970-01-01 13:14:40.274767121,0.37387085,-0.17930603,-0.77282715,9.201163046284108,0.8770358422842284,-99.286865234375,-6.043635845184326,-123.5632553100586,29960624.0,50354.0,0.09206377917400001,0.01712419967981131,-0.006357429126514068,0.004637443158075557,0.0012137911586148332,0.000173995165472965,29.960624831997848
1608,C,47680325121125.0,0.8160553,9.942955253719889,0.15844380074047582,43,1970-01-01 13:14:40.325121125,0.4934845,-1.5899353,-0.60250854,9.357466159410723,1.7704343395616997,-99.4279556274414,-6.035299301147461,-123.46295928955078,30010978.0,50354.0,0.0642321616126,0.01442039129581129,0.00887109081028593,0.003935062901184228,0.0007941981669932503,6.328646021232419e-05,30.010978835998685
1608,C,47680375475129.0,1.154602,9.608315253719889,3.446148240740476,43,1970-01-01 13:14:40.375475129,0.20762634,-1.4647827,-0.26942444,9.41866283869722,1.503757488476915,-99.42545318603516,-6.03659725189209,-123.38809967041016,30061332.0,50354.0,0.04961523884210001,-0.0012268624341887477,0.09075281382836593,0.002866336001247982,0.00033217347614907075,0.002508231047087338,30.061332839999523
1608,C,47680425829133.0,1.9575806,9.65293225371989,0.36581070074047606,43,1970-01-01 13:14:40.425829133,0.43223572,-0.32626343,-0.10202026,9.748163804166179,0.551075019257588,-99.51579284667969,-6.177867412567139,-123.35936737060547,30111686.0,50354.0,0.0783554213202,-0.00852877150518874,0.09597369026966593,0.0032219173109062278,-0.00024561759569170707,0.004701213193676149,30.11168684400036
1608,C,47680476183137.0,3.1445007,8.69158225371989,-0.07658739925952407,43,1970-01-01 13:14:40.476183137,0.36367798,-0.055862427,-0.2051239,11.04787515258891,0.4212577574815931,-99.49808502197266,-6.187519550323486,-123.35490417480469,30162040.0,50354.0,0.1284551008901,-0.03160935824618871,0.007281775061385928,0.005206868517688723,-0.0010105576927504302,0.0025996628506398927,30.162040848001197
1608,C,47680526537141.0,4.6717834,6.696114253719889,-0.3437381992595241,43,1970-01-01 13:14:40.526537141,0.20678711,-0.21936035,-0.12937927,13.429107589977114,0.3280531474014653,-99.48904418945312,-6.192090034484863,-123.34294891357422,30212394.0,50354.0,0.1967905847857,-0.10605316503218873,-0.010582537593914075,0.008188710628259618,-0.003465929348579709,-8.310329828146117e-05,30.212394852002035
1608,C,47680576891144.0,5.0338135,7.234703253719889,0.765575700740476,43,1970-01-01 13:14:40.576891144,-0.12651062,-0.572525,-0.16662598,12.866259870466184,0.6095523191726406,-99.49857330322266,-6.195585250854492,-123.31315612792969,30262748.0,50354.0,0.2443578131513,-0.14273300761518876,0.010620602774785926,0.011106793214859849,-0.006263689468743023,9.583670588105878e-07,30.26274885499879
