Subject-id_accel,Activity_accel,Timestamp_accel,accel_x,accel_y,accel_z,Segment_accel,DateTime,gyro_x,gyro_y,gyro_z,accel_magnitude,gyro_magnitude,Roll,Pitch,Yaw,Time_Difference,Difference_Microseconds,vx,vy,vz,dx,dy,dz,Time_diff
1638,C,1139048287312711.0,5.463356862884992,18.90791,-2.9324481,196,1970-01-14 04:24:08.287312711,0.790635,1.3771294,0.4249979,19.154911797446626,1.6438407169107871,-64.85369873046875,-83.42528533935547,-152.14837646484375,15033040.0,49888.0,0.2511758404323745,0.27676522907199996,-0.1140446514656,0.010614844820220877,0.007802345845726807,-0.003685823427148523,15.033040310023353
1638,C,1139048337200341.0,5.796150932884991,13.152247,-3.0210335,196,1970-01-14 04:24:08.337200341,-1.4773129,1.444241,1.7139678,13.550554148865878,2.6843939893436377,-64.67980194091797,-83.31694793701172,-152.39779663085938,15082927.0,49887.0,0.2808515327037886,0.31079992612949997,-0.1485006682896,0.013270624781821885,0.014655931448768615,-0.006548799183313831,15.082927939947695
1638,C,1139048387087971.0,6.303721632884992,13.798682,-2.2285528,196,1970-01-14 04:24:08.387087971,-3.0592306,0.22877432,2.6673796,14.084889069660155,4.06523596903845,-65.22254943847656,-83.19129943847656,-152.0053253173828,15132815.0,49888.0,0.3018192212805665,0.18336157297599995,-0.13094568066720003,0.014534139287385754,0.01232636443368759,-0.006970509728378421,15.132815569872037
1638,C,1139048436975601.0,2.4155379328849915,8.548198,-0.96441436,196,1970-01-14 04:24:08.436975601,-2.6927798,-0.20585357,1.5062413,8.867540116940969,3.0922809699953646,-65.69596099853516,-83.12704467773438,-151.6641082763672,15182703.0,49888.0,0.21749321060856647,0.06851817471999994,-0.07964537283904001,0.012953729301042532,0.006282888426529021,-0.005252983238659651,15.18270320002921
1638,C,1139048486871311.0,2.4490570328849914,6.5394626,0.08185177,196,1970-01-14 04:24:08.486871311,-1.4602687,-0.26018205,-0.8916689,6.874562229009619,1.730650976531404,-65.71498107910156,-83.17302703857422,-151.718505859375,15232598.0,49895.0,0.12135948290854666,-0.11257158718150005,-0.022017730214025002,0.008453527571518179,-0.0010990225073832741,-0.0025362402634163395,15.232598909875378
1638,C,1139048536767021.0,2.3700481328849916,5.7278285,0.7211036,196,1970-01-14 04:24:08.536767021,0.54881996,-0.5755003,-1.7918174,6.177164300342772,1.9603605634518493,-65.59746551513672,-83.26657104492188,-151.8092498779297,15282494.0,49896.0,0.12022703567562955,-0.18293642163720003,0.02003213057076,0.006027100465638029,-0.007372333804008931,-4.9536739900175255e-05,15.282494619954377
1638,C,1139048586662731.0,3.5575722328849917,7.647978,-0.48796824,196,1970-01-14 04:24:08.586662731,1.39464,-0.34646848,-2.3798432,7.72980526097766,2.7800566170169536,-66.63015747070312,-83.41494750976562,-150.71812438964844,15332390.0,49896.0,0.14788227288522957,-0.15528117943800004,0.005816260961279999,0.006688791029976314,-0.00843785271162409,0.000644865671941334,15.332390330033377
1638,C,1139048636558441.0,3.911914132884992,8.730157,-0.8231565,196,1970-01-14 04:24:08.636558441,0.8119403,1.069268,-1.5702424,8.793360341478406,2.0659724832015187,-67.35637664794922,-83.58370971679688,-149.9654083251953,15382286.0,49896.0,0.18634874585322955,-0.08037908802000003,-0.03270994001352,0.008338395455487079,-0.005879252352542186,-0.0006709435049952835,15.382286039879546
1638,C,1139048686454151.0,4.275832782884992,8.222587,-1.3738228,196,1970-01-14 04:24:08.686454151,-0.5814256,1.3867167,-0.86716783,8.34167066105304,1.7358049947448473,-66.6666259765625,-83.59661865234375,-150.6888885498047,15432181.0,49895.0,0.20426381618117168,-0.06604241906000001,-0.054809141086749995,0.009744806891353224,-0.0036528505478783013,-0.0021833822757489855,15.432181749958545
1638,C,1139048736349861.0,3.7658678328849917,9.465178,-1.3115736,196,1970-01-14 04:24:08.736349861,-1.9172672,0.89243406,-0.061827946,9.589193722702648,2.115697228468786,-66.38721466064453,-83.58167266845703,-151.06643676757812,15482077.0,49896.0,0.20062434696222955,-0.04770643878000002,-0.0669952693872,0.010101149894101576,-0.002837806505392321,-0.0030387764325041046,15.482077460037544
1638,C,1139048786245571.0,2.4155379328849915,8.790012,-1.2636896,196,1970-01-14 04:24:08.786245571,-2.6640174,0.35021448,-0.006434197,9.137434321836269,2.6869462756809015,-66.37671661376953,-83.57492065429688,-151.21107482910156,15531973.0,49896.0,0.15421371104442955,-0.03355031988000002,-0.0642476663136,0.008852499871150133,-0.002027193615049681,-0.003274248759863559,15.531973169883713
1638,C,1139048836141281.0,1.9103614328849918,8.694244,-0.5909189,196,1970-01-14 04:24:08.836141281,-2.114341,0.2660586,-0.35584092,9.110440141056813,2.160520262173305,-66.31073760986328,-83.58595275878906,-151.3839569091797,15581868.0,49895.0,0.10792037442754665,-0.052782523440000034,-0.04626784555375,0.006539590097312127,-0.002153788608725701,-0.0027570857323107145,15.581868879962713
1638,C,1139048886036991.0,1.6422108328849916,12.048521,-1.352275,196,1970-01-14 04:24:08.886036991,-0.5569245,-0.027954403,-1.3518631,12.47211131447038,1.4623543306903928,-66.10623168945312,-83.64830780029297,-151.61766052246094,15631764.0,49896.0,0.08862957288642954,0.02850970121999993,-0.0484788014172,0.004903528085589078,-0.0006055583687445626,-0.0023637393486312607,15.631764590041712
1638,C,1139048935932701.0,-1.0728138671150083,13.779529,-1.091307,196,1970-01-14 04:24:08.935932701,1.0761259,0.2117301,-1.9249754,14.929197360330193,2.215492468617752,-65.60908508300781,-83.73192596435547,-152.06381225585938,15681660.0,49896.0,0.014205315502029544,0.1553773914,-0.06096248373600001,0.0025655247955152774,0.0045876151866837585,-0.002730341182002034,15.68166029988788
1638,C,1139048985828411.0,0.5983389328849915,12.36695,-0.06419453,196,1970-01-14 04:24:08.985828411,2.7070458,-0.89401436,-2.160399,12.98848775324771,3.576965540564355,-65.43626403808594,-83.84867858886719,-152.10142517089844,15731556.0,49896.0,-0.011837200659170459,0.16332155809199997,-0.028827452170440002,5.9079729099648475e-05,0.007950901391926415,-0.0022400793209938655,15.73155600996688
1638,C,1139049035724121.0,6.1002145328849915,11.912051,0.32845455,196,1970-01-14 04:24:09.035724121,2.0061016,-1.6109374,-0.10550379,12.014727155530052,2.5750133952944174,-65.9990463256836,-83.88652801513672,-151.43443298339844,15781451.0,49895.0,0.16711216258729666,0.11672937744749995,0.006592626848950001,0.0038737221127019285,0.006986570714371674,-0.0005547033047078718,15.78145172004588
1638,C,1139049085619831.0,5.7865740328849915,11.454759,-0.39459437,196,1970-01-14 04:24:09.085619831,-0.26504204,-0.21544094,3.302277,11.526189415753633,3.31989389383523,-66.71427917480469,-83.73971557617188,-150.72850036621094,15831347.0,49896.0,0.29655160113882956,0.09397437587999995,-0.0016500562293600004,0.011567483577439398,0.005256637238014468,0.00012330725181753136,15.831347429892048
1638,C,1139049135515541.0,4.9653628928849916,10.76044,-0.52388126,196,1970-01-14 04:24:09.135515541,-1.3558729,0.98298156,4.937458,10.780524806262193,5.213744870054388,-67.6526870727539,-83.72423553466797,-149.8572998046875,15881243.0,49896.0,0.2682393224241095,0.06524398465199993,-0.022914130017240002,0.014090403961048206,0.0039721796585523335,-0.0006128273184801769,15.881243139971048
1638,C,1139049185411251.0,2.6956596328849916,7.4396825,-0.021098902,196,1970-01-14 04:24:09.185411251,-0.8147185,0.3438229,3.9957643,7.671608660613112,4.092445816618853,-69.38995361328125,-83.36190795898438,-148.1649169921875,15931138.0,49895.0,0.19112335946164666,-0.03492344393125006,-0.013595892591495,0.011459950506344904,0.0007564216896309074,-0.0009108337890314165,15.931138850050047
1638,C,1139049235306961.0,3.1553464328849916,6.398205,0.89827454,196,1970-01-14 04:24:09.235306961,0.24841541,-0.4231675,2.0985284,6.613505751284208,2.155133962098013,-69.22769165039062,-83.07889556884766,-148.3071746826172,15981034.0,49896.0,0.14597089932882956,-0.14375318265000003,0.021883777816824,0.0084098275683048,-0.004457624479949028,0.00020676616060150791,15.981034559896216
1638,C,1139049285202671.0,2.7004480328849914,6.2856774,0.55590373,196,1970-01-14 04:24:09.285202671,1.1389765,-1.1177199,0.48358744,6.5806628382723185,1.6674597609939539,-69.67164611816406,-83.07585906982422,-147.80255126953125,16030930.000000002,49896.00000000186,0.14609036033203499,-0.1725433018848065,0.03627883947996135,0.007286344306019521,-0.007890964696174648,0.001451040976320255,16.030930269975215
1638,C,1139049335098381.0,3.253508732884992,7.1475897,0.73786306,196,1970-01-14 04:24:09.335098381,1.8409858,-1.0154545,-0.5603717,7.304750848306971,2.1758660343717806,-69.50989532470703,-82.99897766113281,-147.8671875,16080825.0,49894.99999999814,0.1485363364140411,-0.1538445690227443,0.03227624699352379,0.0073501995170724595,-0.008142561409465818,0.0017102780197972066,16.080825980054215
1638,C,1139049384994091.0,3.1242218328849916,8.069358,0.5726631,196,1970-01-14 04:24:09.384994091,1.8665521,-0.6117193,-1.4104527,8.217414285012293,2.418179907067336,-69.40443420410156,-82.97858428955078,-147.8787841796875,16130721.000000002,49896.00000000186,0.15911162215483549,-0.10934838878040413,0.03269500663968122,0.00767520127037662,-0.006566137911273192,0.0016209028356412593,16.130721689900383
1638,C,1139049434889801.0,3.222384132884992,9.192238,0.43140522,196,1970-01-14 04:24:09.434889801,1.1560206,0.050875165,-1.6810299,9.30016268411748,2.0407923546338926,-69.1735610961914,-83.0136489868164,-148.0543975830078,16180617.000000002,49896.0,0.15833512563402954,-0.058338502992000066,0.02504949644736,0.007919661463836606,-0.00418345257593794,0.0014406098630155046,16.180617399979383
1638,C,1139049484785511.0,3.1888652328849916,9.000702,-0.5550059,196,1970-01-14 04:24:09.484785511,0.3496155,0.058332015,-1.5159138,9.12259007416247,1.5568006522495585,-70.22715759277344,-83.08416748046875,-146.99490356445312,16230512.999999998,49895.999999996275,0.1599478491772176,-0.035103332879997416,-0.003083589764639772,0.007940523655590401,-0.002331186921334419,0.0005480054399204634,16.230513110058382
1638,C,1139049534688211.0,3.6796766328849917,16.451458,-2.0465934,196,1970-01-14 04:24:09.534688211,0.38263872,0.15207529,-1.3326885,16.602032079996643,1.3948469170142193,-69.96089935302734,-83.1441650390625,-147.2437286376953,16280415.000000002,49902.000000003725,0.17137698809283966,0.14601724416001086,-0.06491250413430485,0.008266886014725815,0.002767413000347822,-0.001696570538872694,16.280415809946135
1638,C,1139049584590911.0,1.8768426328849914,15.321395,-2.8055556,196,1970-01-14 04:24:09.584590911,0.32298392,0.7763202,-0.8874079,15.80685303324443,1.2224910823760704,-69.51321411132812,-83.17239379882812,-147.67843627929688,16330317.999999998,49902.999999996275,0.1386434904598494,0.30373094162947734,-0.12106839577349096,0.0077354759706068435,0.011221891857725576,-0.004640502424049021,16.330318510066718
1638,C,1139049634493611.0,3.1625290328849918,13.470676,-1.946037,196,1970-01-14 04:24:09.634493611,0.28889546,0.4183914,-0.7180308,13.68285312947462,0.879818265411222,-69.22909545898438,-83.19864654541016,-147.95001220703125,16380220.999999998,49903.0,0.12573988211845974,0.22935595955649998,-0.11855936275890001,0.006596761720887681,0.013301317814941914,-0.005979072017020954,16.38022120995447
1638,C,1139049684396311.0,3.6820708328849916,9.240122,-0.73935944,196,1970-01-14 04:24:09.684396311,-0.47702968,-0.35392532,0.13524598,9.311858844814992,0.6091895623237198,-70.73512268066406,-83.27812194824219,-146.47576904296875,16430122.999999998,49902.0,0.17077961125082686,0.07761752089799993,-0.06700332657444,0.007398457879057071,0.007659295310820227,-0.004629974661556167,16.430123910075054
1638,C,1139049734299011.0,3.368430432884992,8.72058,-0.22221185,196,1970-01-14 04:24:09.734299011,-1.1587989,-0.75446475,0.52193695,8.80545081012772,1.4779885417042566,-72.0063247680664,-83.25938415527344,-145.26576232910156,16480025.999999998,49903.0,0.17592058233285976,-0.04090294404700005,-0.023992646042435,0.008650689880203358,0.0009160837642977236,-0.002270486010749957,16.480026609962806
1638,C,1139049784201711.0,2.3724423328849915,7.4013753,0.5726631,196,1970-01-14 04:24:09.784201711,-0.9595944,-0.63089406,0.29716617,7.741261607343737,1.1862362581067536,-72.34676361083984,-83.25495910644531,-144.97128295898438,16529929.0,49903.00000000186,0.1432433868151151,-0.08678243233205328,0.008744284364375327,0.007963619776195991,-0.003185941668722068,-0.00038046949641012013,16.52992931008339
1638,C,1139049834104411.0,2.075561432884992,7.3917985,0.6875848,196,1970-01-14 04:24:09.834104411,-0.004052266,-0.49347496,-0.46023685,7.830826545823843,0.6747976845726864,-72.4874267578125,-83.28437042236328,-144.82992553710938,16579832.0,49903.0,0.11098436596160975,-0.11993752392930004,0.03144507547685,0.0063433637734084496,-0.005157972988655157,0.0010027848120783339,16.579832009971142
1638,C,1139049884007111.0,3.0835203328849916,7.9400706,0.2733879,196,1970-01-14 04:24:09.884007111,0.30487442,0.17125005,-0.6551802,8.082204656060402,0.7426547556350654,-72.59954833984375,-83.21392059326172,-144.7054901123047,16629734.0,49902.0,0.12872424913772684,-0.10649413408590003,0.023977229837700002,0.005980969655343548,-0.0056496962991372576,0.0013828419399033371,16.629734709858894
1638,C,1139049933909811.0,3.7299547928849917,7.88261,-0.698658,196,1970-01-14 04:24:09.933909811,-0.3800906,0.9925689,0.05002482,7.957723084332691,1.0640321273681554,-73.63072204589844,-83.25784301757812,-143.70596313476562,16679637.0,49903.0,0.17000642460064974,-0.09424978500910004,-0.01061112690015,0.007453778405783104,-0.005008861897298894,0.0003335043174462789,16.679637409979478
1638,C,1139049983812511.0,3.4330737328849916,8.402152,-0.7992145,196,1970-01-14 04:24:09.983812511,-1.042685,0.96487206,0.54217696,8.515991498143947,1.5205676431347885,-74.9091567993164,-83.2383804321289,-142.4927520751953,16729540.0,49903.0,0.17872830626074973,-0.08272016095700006,-0.03737416568375001,0.00870145463708821,-0.004415665606773147,-0.0011973050279071812,16.72954010986723
1638,C,1139050033715211.0,3.1768942328849916,8.282441,-0.983568,196,1970-01-14 04:24:10.033715211,-1.2631948,0.66553277,0.54004645,8.455789149853643,1.5265140480351025,-76.63426971435547,-83.18302917480469,-140.8453369140625,16779442.0,49902.0,0.16492531071392685,-0.07274232005700004,-0.0444822061575,0.008574501397135155,-0.003878944363780317,-0.002042398333811029,16.779442809987813
1638,C,1139050083617911.0,2.9494450328849915,8.756494,-1.055394,196,1970-01-14 04:24:10.083617911,-1.497553,0.37365028,0.09263539,8.967081673525072,1.546240872255526,-78.4368667602539,-83.12598419189453,-139.1319122314453,16829345.0,49903.0,0.15286135418985974,-0.06390241334750003,-0.050875160343,0.007929253969346831,-0.0034094910655423833,-0.002379309330237226,16.829345509875566
1638,C,1139050133520611.0,3.085914532884992,8.581717,-0.9045593,196,1970-01-14 04:24:10.133520611,-1.1449505,0.22451326,-0.2461187,8.755544726679204,1.1924312415631215,-79.9930191040039,-83.09503936767578,-137.64535522460938,16879248.0,49903.0,0.15059127420530974,-0.05643502823350006,-0.04890377476495,0.0075715982574020724,-0.003002599673608324,-0.0024896340993460146,16.87924820999615
1638,C,1139050183423311.0,3.0164827328849917,13.334208,-2.6307788,196,1970-01-14 04:24:10.183423311,-0.5047265,0.55368,-0.8352099,13.67947900795776,1.122000873110293,-79.73184204101562,-83.13129425048828,-137.93397521972656,16929150.0,49902.0,0.15226091417822687,0.057784644674999955,-0.08821022093309999,0.007556464952357622,3.3674279831863935e-05,-0.0034211313066620456,16.9291509098839
1638,C,1139050233326011.0,-0.9147968671150082,16.53286,-1.1344028,196,1970-01-14 04:24:10.233326011,1.4638821,0.3107997,-1.8291017,17.45506492234208,2.3632943712460768,-79.39249420166016,-83.21839904785156,-138.20191955566406,16979053.0,49903.0,0.05244021487975974,0.25617874720199996,-0.09394692869240001,0.005107600221690354,0.007833857572418963,-0.0045450941188806635,16.979053610004485
1638,C,1139050283228711.0,0.7395969328849916,10.935217,1.8463784,196,1970-01-14 04:24:10.283228711,3.9150555,-2.0444999,-2.5055447,11.732088117173694,5.0779320252321565,-79.85962677001953,-83.36002349853516,-137.53443908691406,17028956.0,49903.0,-0.004371501158940258,0.19632032326549992,0.017764859183400004,0.0011993865104050275,0.011290530556769823,-0.0019008569073538136,17.028956309892237
1638,C,1139050333131411.0,7.287738432884991,11.505037,1.4872482,196,1970-01-14 04:24:10.333131411,2.1222155,-2.399233,-0.62215704,11.915401567063675,3.2630042903972423,-80.72810363769531,-83.41095733642578,-136.553466796875,17078859.0,49903.0,0.2002940583790097,0.07086859768099996,0.0831789841099,0.0048885616864765636,0.006666764360996592,0.0025187003059327752,17.07885901001282
1638,C,1139050383034111.0,6.433008532884992,11.253646,-0.18151042,196,1970-01-14 04:24:10.383034111,-1.5060751,0.49295992,2.5139813,11.408643469936044,2.971762720392748,-80.76808166503906,-83.28291320800781,-136.58897399902344,17128761.0,49902.0,0.34234635754292686,0.07881229953299995,0.03257946334878,0.01353942101766824,0.003734688066386512,0.0028882890225415247,17.128761709900573
1638,C,1139050432936811.0,3.713195392884992,9.544186,-0.15278,196,1970-01-14 04:24:10.432936811,-1.2408242,1.8394542,3.7038817,9.583573447334398,4.317635475210729,-80.68211364746094,-83.1306381225586,-136.74305725097656,17178664.0,49903.0,0.25316300725384977,0.029887705147999957,-0.00834104741463,0.014858851915726773,0.0027122281667979697,0.0006047848351809437,17.178664410021156
1638,C,1139050482839511.0,3.1314044328849917,7.5330563,0.32366616,196,1970-01-14 04:24:10.482839511,0.39329135,1.5571591,2.6737711,7.675573579456439,3.119050247093311,-80.09008026123047,-82.88163757324219,-137.3179168701172,17228567.0,49903.0,0.17078303255269975,-0.06294658875155004,0.00426386602124,0.010578089612233122,-0.0008248687342339799,-0.00010173179153717057,17.22856710990891
1638,C,1139050532742211.0,3.751502632884992,6.2353992,1.1807903,196,1970-01-14 04:24:10.532742211,0.2153922,0.1787069,0.9874575,6.39847845063082,1.0263538718369507,-78.25564575195312,-82.77704620361328,-139.12722778320312,17278469.0,49902.0,0.17173541419802688,-0.14550286681950003,0.03753769313346,0.00854617776487738,-0.005201022365953271,0.0010429907024689198,17.278469810029492
1638,C,1139050582651141.0,2.9829639328849917,7.5737576,0.5750573,196,1970-01-14 04:24:10.582651141,0.7597423,-1.0484778,-1.1505282,7.759101067130772,1.7321169702122803,-78.17765808105469,-82.71421813964844,-139.161865234375,17328378.0,49909.0,0.16805524591550705,-0.14450759663440005,0.043816298934200006,0.008479306027803182,-0.00723706611026035,0.0020301481950524215,17.328378739999607
1638,C,1139050632560071.0,3.1673174328849916,8.90254,0.050727148,196,1970-01-14 04:24:10.632560071,0.87266034,-0.9557997,-1.8205795,9.012139376998112,2.233740999164687,-78.65550994873047,-82.77454376220703,-138.64102172851562,17378287.0,49909.0,0.15347719634210705,-0.07795043154080003,0.015616138007616,0.008023681330317632,-0.0055513288640980304,0.0014831067476645476,17.378287669969723
1638,C,1139050682469001.0,4.0459894328849915,7.849091,-0.25094226,196,1970-01-14 04:24:10.682469001,0.5317757,-0.24526834,-1.2229662,7.87040700287614,1.3559455299012881,-79.14437103271484,-82.93294525146484,-138.12965393066406,17428196.0,49909.0,0.18000446618185706,-0.07107962421050004,-0.004996268012404,0.008321868147454262,-0.003718970526245818,0.00026501354579551786,17.428196599939838
1638,C,1139050732377931.0,3.921490932884992,8.22498,-0.39220017,196,1970-01-14 04:24:10.732377931,0.01618776,0.067919396,-0.35264513,8.259637260220758,0.35949085612785664,-79.81339263916016,-83.02816009521484,-137.46572875976562,17478105.0,49909.0,0.19882448878760706,-0.08798779523050004,-0.016049297769435,0.009453487156785493,-0.003969447918440437,-0.0005251815713029014,17.478105529909953
1638,C,1139050782286861.0,2.9326856328849917,7.966407,-0.19587563,196,1970-01-14 04:24:10.782286861,-0.18834302,0.18935955,-0.0841985,8.134804127366383,0.28003485454702404,-80.43067169189453,-82.9253158569336,-136.86363220214844,17528014.0,49909.0,0.17104254911050706,-0.08506023310850003,-0.014675137551100002,0.00922984699722849,-0.004318327023185578,-0.0007667129212062907,17.52801445988007
1638,C,1139050832195791.0,2.044436832884992,8.667908,-0.3060089,196,1970-01-14 04:24:10.832195791,0.09714785,-0.05884707,-0.545458,9.03287079432545,0.5571580674918092,-81.3177261352539,-82.73749542236328,-135.97882080078125,17577923.0,49909.0,0.12420160257205708,-0.07400718633250002,-0.012524277503885,0.0073676701831625465,-0.003969447918440436,-0.0006787478029896232,17.577923390083015
1638,C,1139050882104721.0,2.4275091328849916,8.112453,-0.12644377,196,1970-01-14 04:24:10.882104721,0.28676492,-0.1089145,-0.3025777,8.390946459003883,0.4308709228877558,-81.91905975341797,-82.57293701171875,-135.36782836914062,17627832.0,49909.0,0.11159517560280705,-0.07036268142550002,-0.010791640153515,0.005884190700964647,-0.003602677864967012,-0.0005818370671815884,17.62783232005313
1638,C,1139050932013651.0,3.868818532884992,9.007885,-0.93807817,196,1970-01-14 04:24:10.932013651,0.14401948,-0.59467506,0.054285876,9.08351886044573,0.6142694799015831,-83.41268920898438,-82.6679916381836,-133.87551879882812,17677741.0,49909.0,0.15712170873545706,-0.06187872537900003,-0.026564612751730002,0.006705695490219213,-0.0033000181861028966,-0.0009322066131239365,17.677741250023246
1638,C,1139050981922581.0,3.4187085328849918,17.64377,-1.7856256,196,1970-01-14 04:24:10.981922581,0.6383022,-0.014105965,0.47506532,17.771074538357695,0.7958113690065779,-84.62467956542969,-82.74944305419922,-132.64125061035156,17727650.0,49909.0,0.18185659416275707,0.17597052469750002,-0.06796866572846501,0.008459034059673484,0.0028471038060935085,-0.0023590306978340265,17.72765017999336
1638,C,1139051031831511.0,2.5400365328849914,14.660595,-2.5948658,196,1970-01-14 04:24:11.031831511,0.74056756,0.36938924,0.16933443,15.025894111834505,0.8447265064715065,-84.44960021972656,-82.73931121826172,-132.78050231933594,17777559.0,49909.0,0.14869750374375706,0.3170310763925,-0.10931297264130001,0.008248812236208108,0.012302608454400406,-0.0044239746446983015,17.777559109963477
1638,C,1139051081740441.0,4.9964875128849915,12.987048,-0.94047236,196,1970-01-14 04:24:11.081740441,0.4944915,0.19575113,0.9192806,13.028116751759766,1.0620344485961304,-84.3836669921875,-82.6926040649414,-132.82208251953125,17827468.0,49909.0,0.18807018930016706,0.20082490724349994,-0.08822259611372,0.008403869396064604,0.012922837143644561,-0.004929401350497147,17.827468039933592
1638,C,1139051131649371.0,5.674046632884991,10.3175125,-0.8183681,196,1970-01-14 04:24:11.131649371,-0.7231057,-0.32622844,1.799189,10.408888358397073,1.9663132777251755,-84.61251831054688,-82.60462951660156,-132.6277618408203,17877376.0,49908.0,0.26627250907354416,0.09244360271699995,-0.043890104838840004,0.01133766769521759,0.007318222397554315,-0.0032967403395701826,17.877376969903708
1638,C,1139051181558301.0,4.558348600884992,8.325537,0.24944589,196,1970-01-14 04:24:11.181558301,-1.6924964,-0.27829155,1.5499171,8.329278219810341,2.3117597772447667,-84.52747344970703,-82.70743560791016,-132.79315185546875,17927285.0,49909.0,0.25534430686111304,-0.023880221252250033,-0.014197169289445,0.013016686833241404,0.0017109649027621018,-0.0014495388822342882,17.927285899873823
1638,C,1139051231467231.0,2.0516194328849915,6.060622,1.4824598,196,1970-01-14 04:24:11.231467231,-1.1481463,-0.26337785,0.5208717,6.72748956148911,1.2879887988391834,-84.70628356933594,-82.68278503417969,-132.67088317871094,17977194.0,49909.0,0.16494844729871305,-0.1301087952345,0.043218840541105,0.01048819553368138,-0.0038427189119186037,0.0007242212952495496,17.97719483007677
1638,C,1139051281376161.0,2.6022857328849915,6.36708,1.0036194,196,1970-01-14 04:24:11.281376161,0.21113116,-0.10358818,-0.8714289,6.738658806790006,0.9026046784245403,-84.7045669555664,-82.72661590576172,-132.6619415283203,18027103.0,49909.0,0.11613587645920703,-0.17898111044100004,0.062038863396399996,0.007014318757217017,-0.007713184051179266,0.0026266533729084685,18.027103760046884
1638,C,1139051331285091.0,3.6437635328849916,7.578546,-0.734571,196,1970-01-14 04:24:11.331285091,-0.0008564726,0.38110715,-1.1153744,7.6699071788279,1.1786871703305322,-85.73080444335938,-82.80057525634766,-131.64698791503906,18077012.0,49909.0,0.15586703640265706,-0.14110207598300004,0.006713968297800002,0.006787696689011387,-0.007987515875617711,0.001715692538512914,18.077012690017
1638,C,1139051381194021.0,4.493705152884992,8.897752,-1.601272,196,1970-01-14 04:24:11.381194021,-0.44507173,1.6679466,0.17998707,9.04099148228623,1.7356641526124625,-85.10140228271484,-82.78497314453125,-132.3038787841797,18126921.0,49909.0,0.20306646231904704,-0.07795042155900002,-0.0582897941435,0.008957005993850766,-0.005466345549911841,-0.0012870489460665208,18.126921619987115
1638,C,1139051431102951.0,3.808963492884992,8.0933,-1.2373533,196,1970-01-14 04:24:11.431102951,-1.3313718,1.5273317,0.5475033,8.222415525887309,2.098821777848472,-86.3904800415039,-82.81421661376953,-131.10031127929688,18176830.0,49909.0,0.20718894472086707,-0.06510499286600004,-0.07083647504885002,0.010237718554977538,-0.003569876339268664,-0.0032222814845604985,18.17683054995723
1638,C,1139051481011881.0,3.1553464328849916,7.7964187,-1.0194811,196,1970-01-14 04:24:11.481011881,-1.8959619,0.7763202,-0.30683878,7.988618166491561,2.0715922900251242,-87.74664306640625,-82.76071166992188,-129.85377502441406,18226739.0,49909.0,0.17379087204262705,-0.09258821470085005,-0.056318174034799995,0.009507160837424615,-0.00393515514822696,-0.003173080690557944,18.226739479927346
1638,C,1139051530920811.0,1.9941586328849916,8.845078,-0.8997709,196,1970-01-14 04:24:11.530920811,-1.538033,0.1574016,-1.5840908,9.255686223729015,2.21351856450679,-87.73662567138672,-82.83953857421875,-129.94140625,18276648.0,49909.0,0.12850332416375704,-0.07382797059985001,-0.047893974034,0.007543600519232212,-0.00415283269608632,-0.0026005620489828697,18.27664840989746
1638,C,1139051580829741.0,2.494546832884992,14.2583685,-1.4217069,196,1970-01-14 04:24:11.580829741,-0.45359385,0.32358286,-2.571591,14.478258893091681,2.631260823127309,-88.79801940917969,-82.94425201416016,-128.91336059570312,18326557.0,49909.0,0.11201340054555707,0.08742675568424998,-0.05793131776010001,0.006001974606758579,0.0003393508823886592,-0.0026408172440758686,18.326557339867577
1638,C,1139051630744331.0,-1.1709758671150086,12.843396,0.2733879,196,1970-01-14 04:24:11.630744331,1.0739954,-0.54460764,-3.4728045,14.069794407562835,3.675654322156503,-88.93899536132812,-83.11837005615234,-128.7172088623047,18376471.0,49914.0,0.03303236059272147,0.18722153662649993,-0.028658597282999996,0.003619907060728018,0.006854397431199386,-0.0021610245097306467,18.37647192995064
1638,C,1139051680658921.0,1.4937705328849917,13.7915,0.11776479,196,1970-01-14 04:24:11.680658921,1.4628168,-1.7781838,-3.5281985,14.130390265148911,4.213069578389008,-89.52718353271484,-83.15400695800781,-128.05043029785156,18426386.0,49915.0,0.008056147870954355,0.17557341692,0.009762193260675001,0.0010254664499821896,0.009054455053136772,-0.00047160700338717604,18.426386520033702
1638,C,1139051730573511.0,5.468145262884992,12.424411,0.55350953,196,1970-01-14 04:24:11.730573511,0.96107733,-0.9952145,0.15122494,12.469294134000439,1.391758067240202,-89.89361572265625,-83.14664459228516,-127.63285827636719,18476301.0,49915.0,0.17375201347292937,0.16511659878249993,0.0167533288414,0.004537477186739978,0.008502771066895141,0.0006617611428625369,18.476301109883934
1638,C,1139051780488101.0,6.014023232884991,9.197026,0.678008,196,1970-01-14 04:24:11.780488101,-1.1556032,-0.18774407,3.7134693,9.334722634531161,3.8936513497888963,-90.02944946289062,-82.96100616455078,-127.55423736572266,18526215.0,49914.0,0.28656047914893146,0.05044900320899993,0.03073498299621,0.01148801887836378,0.005379870728901862,0.0011851657985312329,18.526215699966997
1638,C,1139051830402691.0,3.6030621328849914,8.325537,0.35718498,196,1970-01-14 04:24:11.830402691,-1.9417683,0.55687577,5.405109,8.388833718604905,5.770249392875406,-89.42559814453125,-82.70108795166016,-128.25320434570312,18576130.0,49915.0,0.24001840801620436,-0.05184763392750004,0.025835828798350006,0.013142092576423877,-3.4906326156966534e-05,0.0014118660353627313,18.57613029005006
1638,C,1139051880317281.0,1.1418227328849917,6.4413004,0.41943422,196,1970-01-14 04:24:11.880317281,-0.7454763,0.66446745,4.3355837,7.307694906288763,4.449105294964021,-89.2269058227539,-82.4839096069336,-128.4910888671875,18626044.0,49914.0,0.11841809159502145,-0.12062123900820002,0.0193820853744,0.008945499720797362,-0.004304305661856266,0.0011285034840093219,18.62604487990029
1638,C,1139051930231871.0,1.5823558328849918,5.2274404,0.5199907,196,1970-01-14 04:24:11.930231871,1.0622774,-0.2346157,1.9270208,6.042215010052253,2.212891087439662,-89.2717056274414,-82.38775634765625,-128.39244079589844,18675959.0,49915.0,0.06798868655520436,-0.19794440148400003,0.023445697440900002,0.004652247165684261,-0.007950601972584083,0.0010688743896128498,18.675959469983354
1638,C,1139051980146461.0,2.7243900328849917,5.131672,0.46971244,196,1970-01-14 04:24:11.980146461,1.1645428,-1.021846,0.2332503,5.472860916579003,1.5667593571438883,-89.5962905883789,-82.37657928466797,-128.0061492919922,18725874.0,49915.0,0.10748560994495436,-0.23062945227700002,0.02470051611655,0.0043793997549027115,-0.010696131955240159,0.0012016091248600585,18.725874060066417
1638,C,1139052030061051.0,1.9079671328849916,6.9392943,-0.8662521,196,1970-01-14 04:24:12.030061051,0.8353761,-1.2924232,-0.6147002,7.481843628347756,1.6571262149364152,-90.0375747680664,-82.40750885009766,-127.5188217163086,18775788.0,49914.0,0.11560973778612148,-0.18790209405090003,-0.00989644029462,0.005567790593324459,-0.0104452918017054,0.00036946532028790706,18.77578864991665
1638,C,1139052079975641.0,0.7635389328849915,13.044509,-3.7440825,196,1970-01-14 04:24:12.079975641,1.6918488,-1.0687177,-1.9228449,14.094270050027106,2.7752193415675706,-90.35897827148438,-82.5035171508789,-127.10933685302734,18825703.0,49915.0,0.06667411263645436,0.009578770859749963,-0.1150624257795,0.004549349196921436,-0.004450504338543128,-0.00311866090004485,18.82570323999971
1638,C,1139052129890231.0,-0.17738236711500832,17.308582,-4.507833,196,1970-01-14 04:24:12.129890231,2.3917274,0.52065676,-0.88847315,18.504666299927845,2.604002295681665,-90.04209899902344,-82.54798889160156,-127.30825805664062,18875617.0,49914.0,0.014628709411921471,0.26836489208700004,-0.20594305513349997,0.0020290745298613155,0.00693663999616204,-0.00801133378714574,18.875617830082774
1638,C,1139052179804821.0,-1.7791031671150082,16.743551,-4.895694,196,1970-01-14 04:24:12.179804821,1.5054275,0.6335748,1.2782747,18.563278068237718,2.074057664003434,-89.72663879394531,-82.4840087890625,-127.55046844482422,18925532.0,49915.0,-0.048828987720545634,0.3606891093475,-0.23468852510250002,-0.0008535534458874876,0.015699615240801535,-0.010997062663739971,18.925532419933006
1638,C,1139052229719411.0,0.2080841328849914,12.824243,-3.7991493,196,1970-01-14 04:24:12.229719411,-3.584406,0.72092646,5.5968566,14.06770593865622,6.685245330915515,-89.64900970458984,-82.2039566040039,-127.80957794189453,18975447.0,49915.0,-0.039208707546795646,0.24877121875499994,-0.21700155165974996,-0.00219720077963467,0.015210606138618143,-0.011273055090793854,18.97544701001607
1638,C,1139052279634001.0,-4.817345867115008,7.71741,-4.5748706,196,1970-01-14 04:24:12.279634001,-6.223066,-0.34433794,5.939872,12.983279922871121,8.60971535148889,-90.08846282958984,-81.90701293945312,-127.68012237548828,19025361.0,49914.0,-0.11503334510117852,0.02350083392099997,-0.20899041464430002,-0.0038494189079354914,0.00679509361863493,-0.010631481503050176,19.0253615998663
1638,C,1139052329548591.0,-5.226753867115009,4.2122984,-2.5350106,196,1970-01-14 04:24:12.329548591,-3.6983893,-1.6226553,3.5451574,10.958997040658188,5.373940326031481,-90.82776641845703,-81.7291259765625,-127.12004852294922,19075276.0,49915.0,-0.25067561911704567,-0.19143130260700003,-0.177444860049,-0.00912718147447633,-0.004191124672230847,-0.009644458368158035,19.075276189949363
1638,C,1139052379463181.0,-3.3856128671150083,2.282572,-2.858228,196,1970-01-14 04:24:12.379463181,-1.0139229,-1.7643354,2.0442,8.754062646925084,2.8843842827954758,-91.46733093261719,-81.62512969970703,-126.52483367919922,19125190.0,49914.0,-0.21493883658617854,-0.32706471942720006,-0.1345990557402,-0.011620339970985367,-0.012940105221907531,-0.007787680006351064,19.125190780032426
1638,C,1139052429377771.0,-3.936278867115008,0.9202713,-3.547758,196,1970-01-14 04:24:12.429377771,0.09608259,-1.4671266,1.4391296,9.26012345172529,2.0573736486415948,-91.94387817382812,-81.55103302001953,-126.03829193115234,19175105.0,49915.0,-0.18273611295704564,-0.40923203834025007,-0.15987739559500003,-0.009924972553225019,-0.018376126331981137,-0.0073493960341982556,19.175105369882658
1638,C,1139052479292361.0,-3.8069928671150075,0.51565117,-5.5588875,196,1970-01-14 04:24:12.479292361,1.4500337,-2.298033,1.577614,10.064858159057165,3.142040632013006,-92.61943054199219,-81.4676513671875,-125.28194427490234,19225019.0,49914.0,-0.19324883267117848,-0.45332088291621,-0.22727455174349998,-0.00938345628804359,-0.021526733255797473,-0.009662151149726945,19.22501995996572
1638,C,1139052529206951.0,-1.5468658671150086,-0.26725277,-4.191798,196,1970-01-14 04:24:12.529206951,1.326463,-1.750487,2.0995936,7.418194317618047,3.038420990037253,-93.09739685058594,-81.35845184326172,-124.73152923583984,19274934.0,49915.0,-0.13361892935954564,-0.4829675969320001,-0.24335273336625,-0.008157802170881797,-0.023367419735811704,-0.011745680468126584,19.274934550048783
1638,C,1139052579121541.0,-0.7950862671150087,-0.7365163,-3.1263785,196,1970-01-14 04:24:12.579121541,1.471339,-1.440495,1.7725574,6.251030560678911,2.7169512388412054,-93.46121978759766,-81.2658462524414,-124.28905487060547,19324849.0,49915.0,-0.05844927039004566,-0.514218566564525,-0.18264338999875,-0.004793542095250425,-0.024887273675464526,-0.010631798248881988,19.324849139899015
1638,C,1139052629036131.0,0.37567813288499163,-1.0860697,-2.491915,196,1970-01-14 04:24:12.629036131,1.5203412,-0.9653871,1.1376598,4.996160105039379,2.130182958761967,-93.6747055053711,-81.20606994628906,-123.99609375,19374763.0,49914.0,-0.010467168805978536,-0.534643478802,-0.1402157508795,-0.0017199475730151758,-0.026176450066212362,-0.008057595578898484,19.374763729982078
1638,C,1139052678955931.0,0.7515679328849916,-1.8977041,-1.6611271,196,1970-01-14 04:24:12.678955931,1.5565602,-0.40399274,-0.12254802,4.574158313755489,1.6127950295690607,-93.72978973388672,-81.21087646484375,-123.86161804199219,19424683.0,49920.0,0.02813606180161878,-0.563690994048,-0.10365993081600001,0.00044101556917118046,-0.027414428442336,-0.00608713701511968,19.424683529883623
1638,C,1139052728875731.0,1.3525125328849916,-4.4211926,0.64448917,196,1970-01-14 04:24:12.728875731,0.24628487,-0.74807316,-1.7161837,5.504476883178547,1.8882680376601708,-93.99760437011719,-81.29398345947266,-123.5782241821289,19474603.0,49920.0,0.05251784842561878,-0.646935661632,-0.025375282732800004,0.0020131215992718493,-0.0302172413257728,-0.0032207189301780483,19.474603330018
1638,C,1139052778795531.0,0.16977713288499174,-4.2176857,-0.52866966,196,1970-01-14 04:24:12.778795531,0.012991965,-0.42423278,-0.9662374,6.116325702592203,1.0553468415359235,-94.15796661376953,-81.3406753540039,-123.41533660888672,19524523.0,49920.0,0.03799635005761878,-0.7048424023680001,0.0028908549695999975,0.0022592343941416097,-0.033740380477440005,-0.0005612113169694721,19.524523129919544
1638,C,1139052828715331.0,-6.301749867115009,-0.7197569,-6.732046,196,1970-01-14 04:24:12.828715331,-0.24373676,-0.8886881,-2.1412241,12.80553895666206,2.331097336808937,-94.51638793945312,-81.44410705566406,-123.06524658203125,19574442.0,49919.0,-0.15305097346001412,-0.6124422985747,-0.18122383251577,-0.002871705872812086,-0.03287876749317933,-0.00445110195306363,19.57444293005392
1638,C,1139052878635131.0,-6.861993867115008,1.5331869,-2.798373,196,1970-01-14 04:24:12.878635131,1.9432511,0.17657636,-2.8879745,11.866666206726329,3.48536953008032,-94.43568420410156,-81.58865356445312,-123.04839324951172,19624362.0,49920.0,-0.3285670436063812,-0.4689127872,-0.23787925824,-0.012021185705977228,-0.026990622940936515,-0.010460813145264019,19.624362729955465
1638,C,1139052928554931.0,-3.534052867115009,3.2881367,0.15128362,196,1970-01-14 04:24:12.928554931,0.70647913,-1.142221,-2.9369767,8.744823172060611,3.2294912463590064,-94.86993408203125,-81.73043060302734,-122.57388305664062,19674282.0,49920.0,-0.25948532648638123,-0.36887576294400004,-0.0660713509248,-0.014677787157515351,-0.020911202211594242,-0.007586607204753407,19.67428252985701
1638,C,1139052978474731.0,-1.302656867115008,3.5323453,0.31887773,196,1970-01-14 04:24:12.978474731,-0.001921737,-1.2370296,-3.0946357,6.858525266062015,3.3327190160683737,-95.39382934570312,-81.87899017333984,-122.04463958740234,19724202.0,49920.0,-0.12072427496638123,-0.31897676928,0.011735227296000001,-0.009490031652260951,-0.017168799204311042,-0.001356229645774848,19.724202329991385
1638,C,1139053028394531.0,-1.6665758671150082,6.800431,0.6851906,196,1970-01-14 04:24:13.028394531,-0.52603185,-0.059912335,-3.313015,9.250979543858767,3.355051025740827,-95.55316162109375,-82.04360961914062,-121.91036987304688,19774122.0,49920.0,-0.0741120490463812,-0.23130990355200007,0.0250615455168,-0.00486311464735855,-0.013735155353886721,0.000918447449407488,19.77412212989293
1638,C,1139053078314331.0,-3.2132298671150084,7.1212535,0.05551555,196,1970-01-14 04:24:13.078314331,0.19089113,0.4961557,-3.715685,10.547845916597856,3.7535216692301336,-95.49423217773438,-82.23087310791016,-121.96013641357422,19824041.0,49919.0,-0.1217975112235141,-0.14172791572225005,0.018487655150924997,-0.004889804669556452,-0.009310837450175646,0.001086966274066082,19.824041930027306
1638,C,1139053128234131.0,-3.2946328671150082,9.299977,-0.124049574,196,1970-01-14 04:24:13.128234131,0.3922261,0.7539497,-4.496524,12.178673042676678,4.576134782349325,-95.3534927368164,-82.45825958251953,-122.08231353759766,19873961.0,49920.0,-0.16243625384638122,-0.07934208672000004,-0.00171060923904,-0.007094474776144586,-0.005517907260958562,0.00041875506596064947,19.87396172992885
1638,C,1139053178153931.0,-3.7710788671150075,11.445182,0.5942109,196,1970-01-14 04:24:13.178153931,1.4532294,0.40986928,-4.5316777,14.17318872674134,4.776606671308553,-95.2855224609375,-82.6858139038086,-122.07771301269531,19923881.0,49920.0,-0.17636016488638118,0.02858316863999999,0.01173522669696,-0.008456358611569749,-0.0012669425952768012,0.0002502144517496832,19.923881530063227
1638,C,1139053228073731.0,-4.956208867115008,13.772346,0.13691841,196,1970-01-14 04:24:13.228073731,3.6860237,0.21492589,-5.193207,16.745139417214116,6.371998336472082,-95.20469665527344,-82.94544219970703,-121.97352600097656,19973801.0,49920.0,-0.2178331018463812,0.14021349888,0.0182489875776,-0.009839063937649748,0.0042131648212992,0.0007484059882930177,19.973801329964772
1638,C,1139053277993531.0,-3.3353341671150085,12.44117,-1.0242695,196,1970-01-14 04:24:13.277993531,5.4170785,-0.3422074,-5.461653,14.774593750113954,7.7000973287476056,-95.27981567382812,-83.21574401855469,-121.6249008178711,20023721.0,49920.0,-0.20695691413438122,0.16507335936,-0.022148283206399996,-0.010602758798879829,0.0076199599816704,-9.732641889484788e-05,20.023721129866317
1638,C,1139053327913331.0,1.6469992328849918,9.522638,-1.4911387,196,1970-01-14 04:24:13.327913331,4.107868,-0.5978709,-3.0861137,10.071454244084382,5.172632491084061,-95.45003509521484,-83.3665771484375,-121.24665832519531,20073640.0,49919.0,-0.0421399957909141,0.05899946577599997,-0.0627833309679,-0.006217334323280408,0.005592745678981991,-0.002119850623983441,20.073640930000693
1638,C,1139053377833131.0,8.116132432884992,12.453141,-2.4057238,196,1970-01-14 04:24:13.377833131,2.3874664,-0.8055974,-0.5443927,13.170426140748338,2.5778569382006076,-95.69873046875,-83.38973236083984,-120.87603759765625,20123560.0,49920.0,0.2436877663776188,0.059299443839999987,-0.097265688,0.0050306323538441495,0.002952740784015359,-0.0039948235134387835,20.123560729902238
1638,C,1139053427752931.0,5.599826332884992,11.289558,-1.826327,196,1970-01-14 04:24:13.427752931,1.4926443,1.8820647,4.1193347,11.482814437200187,4.768550399433004,-94.66911315917969,-83.19310760498047,-121.83763122558594,20173480.0,49920.0,0.34235033079361876,0.10340176703999997,-0.105631987968,0.01462751090539409,0.004061022223564799,-0.00506432599216128,20.173480530036613
1638,C,1139053477672731.0,2.1689351328849917,9.565734,-2.3793876,196,1970-01-14 04:24:13.477672731,0.96533865,1.7606245,2.7089248,10.144874115693638,3.371935781007567,-93.80924987792969,-83.06456756591797,-122.65518951416016,20223400.0,49920.0,0.19390828618561878,0.03133208831999997,-0.10497463641600001,0.01338501507980177,0.0033629570297855982,-0.00525674134462464,20.22340032993816
1638,C,1139053527592531.0,0.6653765328849914,7.6431894,-3.0306103,196,1970-01-14 04:24:13.527592531,-0.07862051,0.8998909,-0.15876701,9.101126025687076,0.9171650778130458,-93.4478530883789,-83.07535552978516,-123.0232162475586,20273320.0,49920.0,0.07074441917761878,-0.05968127193600002,-0.13503354758400002,0.00660573152586641,-0.0007075956230553612,-0.00599060427264,20.273320130072534
1638,C,1139053577512331.0,-7.5539178671150085,12.869732,-8.537274,196,1970-01-14 04:24:13.577512331,-0.015769908,0.44395775,-2.1454852,19.632801074906148,2.190993819526297,-93.31731414794922,-83.18378448486328,-123.15558624267578,20323239.0,49919.0,-0.1719345474317141,0.022786061683299958,-0.28872860818585,-0.002525655006158092,-0.0009208860003022673,-0.01057689152693757,20.32323992997408
1638,C,1139053627432131.0,-1.0321124671150086,8.916905,-10.040833,196,1970-01-14 04:24:13.627432131,7.0575857,0.29801652,1.5797446,14.549453409020009,7.238364646815367,-92.80554962158203,-83.10567474365234,-123.3155517578125,20373159.0,49920.0,-0.21430731714238122,0.05457845951999998,-0.46370955072,-0.009640596939769418,0.0019310184492343663,-0.018780856446290014,20.373159729875624
1638,C,1139053677351931.0,-0.11034486711500868,13.959094,-6.669797,196,1970-01-14 04:24:13.677351931,3.9214475,-0.2346157,4.963024,16.162484648063426,6.329644717242725,-92.60945129394531,-82.85723876953125,-123.31558990478516,20423079.0,49920.0,-0.02851573506238123,0.08176893503999996,-0.41709732479999995,-0.006060863383030871,0.0034032309682175987,-0.021984939612979197,20.42307953001
1638,C,1139053727276501.0,-7.400688867115009,14.849737,-6.126313,196,1970-01-14 04:24:13.727276501,2.5760183,-1.1550041,6.892218,20.032148259294683,7.447991253517668,-92.80316162109375,-82.51024627685547,-122.99031829833984,20473004.0,49925.0,-0.1874941795907168,0.2298754438375,-0.31942289587499995,-0.005392147494527959,0.007779422807729593,-0.018385386008599684,20.47300409991294
1638,C,1139053777201071.0,-9.421394867115009,15.024513,-4.931607,196,1970-01-14 04:24:13.777201071,3.6391523,-0.45512545,8.153491,21.11277923505238,8.940357046836217,-92.64598846435547,-82.1019287109375,-122.96524047851562,20522928.0,49924.0,-0.4199128541738497,0.2564658285,-0.27602779904,-0.01516209437683111,0.012140050840088677,-0.014863640246468232,20.522928670048714
1638,C,1139053827125641.0,-10.34076886711501,10.267235,-1.2612954,196,1970-01-14 04:24:13.827125641,1.1975663,0.7848424,9.260301,18.145721867903497,9.370342429513153,-92.17529296875,-81.6410140991211,-123.38032531738281,20572853.0,49925.0,-0.49331301221571683,0.14208025944999997,-0.15459032615999999,-0.02279640068974955,0.009948706720451873,-0.010749304950304999,20.572853239951655
1638,C,1139053877050211.0,-8.54511686711501,5.6727614,1.7841291,196,1970-01-14 04:24:13.877050211,0.79170054,0.03063514,8.345239,14.398172367729376,8.382764593137523,-92.02408599853516,-81.22407531738281,-123.49320220947266,20622777.0,49924.0,-0.47142947969784976,-0.09136100986320006,0.013050974819399997,-0.02408190208314645,0.0012660539081856994,-0.003533105288164057,20.622777809854597
1638,C,1139053926974781.0,-4.759884867115008,3.506009,2.5287259,196,1970-01-14 04:24:13.926974781,0.7341763,-0.0077143786,7.129772,10.280516292508505,7.167476761253075,-91.91210174560547,-80.86775207519531,-123.56938171386719,20672702.0,49925.0,-0.33212610579071683,-0.26013994389000006,0.1076596429375,-0.02005875630275834,-0.008774342558064257,0.003013238795756616,20.67270237999037
1638,C,1139053976899351.0,-1.7814973671150085,0.9561843,3.9149687,196,1970-01-14 04:24:13.976899351,0.5807782,0.7241223,5.6533155,7.520148772185191,5.72901671890498,-91.6082534790039,-80.58636474609375,-123.84783935546875,20722626.0,49924.0,-0.16328598333084968,-0.37786993084540005,0.16084750460520003,-0.012366476568652545,-0.01592600249314506,0.0067024754169608776,20.72262694989331
1638,C,1139054026823921.0,0.6414345328849915,-0.82510173,4.0418615,196,1970-01-14 04:24:14.026823921,0.33044103,0.97659,4.086312,5.694946683678593,4.21436413516339,-91.26995086669922,-80.38336944580078,-124.17420196533203,20772551.0,49925.0,-0.028458818499466798,-0.485992851346375,0.1986223738675,-0.004786429615689275,-0.021564174700462183,0.008973266841374774,20.772551520029083
1638,C,1139054076748491.0,1.3573009328849914,-2.0389621,3.182343,196,1970-01-14 04:24:14.076748491,0.64682454,0.41413033,2.0665703,4.9589173520679335,2.2046765569158233,-91.10353088378906,-80.28047180175781,-124.31015014648438,20822476.0,49925.0,0.0498934340642832,-0.560759193356375,0.18033420483125,0.0005350615910367293,-0.026129547915892396,0.009459703595767546,20.822476089932024
1638,C,1139054126673061.0,2.884801632884992,-3.058892,3.0362966,196,1970-01-14 04:24:14.126673061,-0.037075195,-0.21650621,0.5091538,4.6268580709414255,0.5545151946586244,-91.16552734375,-80.2547607421875,-124.24905395507812,20872400.0,49924.0,0.10589136424675032,-0.6165078340442001,0.1552296816952,0.0038887001354400187,-0.02938693953797316,0.008376345735473245,20.872400660067797
1638,C,1139054176597631.0,4.824104982884991,-4.753987,3.4504936,196,1970-01-14 04:24:14.176597631,-0.97237736,-1.6823101,-1.9622597,5.879802707600595,2.76154814063537,-91.72067260742188,-80.35076141357422,-123.73519134521484,20922325.0,49925.0,0.1924335813961582,-0.6842939920375,0.16192650036749998,0.007446936455611103,-0.03247126558356443,0.007917011194740147,20.92232522997074
1638,C,1139054226522201.0,4.081902462884992,-1.9623476,0.79532385,196,1970-01-14 04:24:14.226522201,-1.6062098,-3.2237477,-6.2520795,2.1723893788183672,7.215327936358235,-92.83816528320312,-80.65667724609375,-122.68357849121094,20972249.0,49924.0,0.22231175786131033,-0.6569083442852001,0.10598409518690002,0.010352873158544931,-0.033479092719287236,0.006687584286228933,20.97224979987368
1638,C,1139054276446771.0,2.6166510328849917,-3.4371758,0.75462246,196,1970-01-14 04:24:14.276446771,-2.1931703,-2.7283998,-5.5830936,4.023672001799115,6.5897720430833635,-93.88896942138672,-80.92738342285156,-121.73020935058594,21022174.0,49925.0,0.16721264163815822,-0.6240506028725,0.038690534763375,0.009723502822505482,-0.03197593771842409,0.0036114404501337402,21.022174370009452
1638,C,1139054326371341.0,3.2942101328849915,0.9753379,0.47689506,196,1970-01-14 04:24:14.326371341,-1.4123316,-3.4911292,-4.4517827,1.673410059275614,5.831040460112628,-95.17357635498047,-81.13546752929688,-120.50115203857422,21072098.0,49924.0,0.14754691641995032,-0.5507075976598,0.03074114033424,0.007857028088246506,-0.029324314201687275,0.0017331534737866656,21.072098939912394
1638,C,1139054376295911.0,0.31103483288499145,9.357438,0.6205472,196,1970-01-14 04:24:14.376295911,-0.9489415,-2.7678144,-7.0819206,10.29880062174754,7.66256392521289,-96.35385131835938,-81.47390747070312,-119.3551025390625,21122023.0,49925.0,0.0899959274580332,-0.23133308159625002,0.02739490241525,0.005929663240304164,-0.019521690455929146,0.001451220967134144,21.122023510048166
1638,C,1139054426220481.0,0.2751218328849916,5.9648542,2.4305637,196,1970-01-14 04:24:14.426220481,-0.98835635,-1.3350339,-6.6078777,7.740330657829407,6.813458115149151,-97.11758422851562,-81.794189453125,-118.63316345214844,21171948.0,49925.0,0.0146319357692832,-0.10678228095750002,0.07616335584124999,0.0026117730358118855,-0.008440204737747984,0.002585073021727881,21.171948079951108
1638,C,1139054476145051.0,-1.3074453671150081,13.4611,2.2533927,196,1970-01-14 04:24:14.476145051,-0.14466691,-1.7398343,-6.3799114,14.859187629225412,6.614470604527273,-98.03147888183594,-82.09895324707031,-117.71748352050781,21221872.0,49924.0,-0.025768860061449676,-0.004344531259600045,0.1169209196568,-0.0002779999041810596,-0.002773947486563252,0.004819769684982324,21.22187265008688
1638,C,1139054526069621.0,3.4929288328849917,12.484265,2.24621,196,1970-01-14 04:24:14.526069621,-0.46318096,-1.5949584,-4.086397,12.730173064061317,4.4110168148677555,-98.84890747070312,-82.28942108154297,-116.91590881347656,21271797.0,49925.0,0.05455513101428321,0.15839617381249993,0.11232133239875,0.0007185772886601071,0.003845514127226763,0.005722459716936666,21.27179721998982
1638,C,1139054575994191.0,2.2120311328849915,18.68046,1.022773,196,1970-01-14 04:24:14.575994191,-1.4485506,-1.6311774,-3.7018366,18.856152264583407,4.29681658488359,-98.95128631591797,-82.48670196533203,-116.87139892578125,21321721.0,49924.0,0.14240721066555034,0.28867866545,0.081600353646,0.004916573973012006,0.011159882137670524,0.00484067312704905,21.321721789892763
1638,C,1139054625918761.0,-0.34737046711500863,19.329288,1.877503,196,1970-01-14 04:24:14.625918761,-1.3867652,-0.42742857,-2.9646735,20.032563083139525,3.300772919179012,-97.92327880859375,-82.48575592041016,-117.95355224609375,21371646.0,49925.0,0.04654659186928319,0.4595533344499999,0.07239813965,0.004716759295775782,0.018677741297503745,0.0038441873889014,21.371646360028535
1638,C,1139054675843331.0,-2.4662393671150085,15.271116,1.9828479,196,1970-01-14 04:24:14.675843331,-0.38009036,0.17657636,-3.5239372,16.929676120708294,3.5487717991186223,-98.06326293945312,-82.6615982055664,-117.83175659179688,21421570.0,49924.0,-0.07023332868204969,0.37444008464799994,0.09636207916580002,-0.0005912683243202774,0.020818143727524274,0.00421259258208,21.421570929931477
1638,C,1139054725767901.0,0.9454981328849916,12.599187,1.6548423,196,1970-01-14 04:24:14.725767901,-0.8360235,-0.04393337,-2.3052747,13.213547114504202,2.452581675706621,-98.24999237060547,-82.77536010742188,-117.68557739257812,21471495.0,49925.0,-0.03796150305946679,0.20644743863749995,0.0908058416175,-0.002700813487347605,0.014500404800014289,0.004672179222553126,21.47149550006725
1638,C,1139054775696901.0,3.3181521328849914,12.690166,0.16086042,196,1970-01-14 04:24:14.775696901,0.047080692,-0.2314199,0.39730102,12.752543842659573,0.4621902878341877,-98.01239776611328,-82.7979965209961,-117.9178237915039,21521424.0,49929.0,0.10643989705981474,0.14203185296849996,0.04532811055344,0.0017095288670216863,0.008699611275297984,0.0033985160489714314,21.521424500038847
1638,C,1139054825625901.0,2.2263961328849917,15.0221195,-1.5821184,196,1970-01-14 04:24:14.825625901,1.2337853,0.11692156,2.1400735,15.285566094090164,2.473016660496078,-98.69771575927734,-82.63272857666016,-117.17947387695312,21571353.0,49929.0,0.13841687518081475,0.20251915136474996,-0.03548099484171,0.006112726890601195,0.008601543547677419,0.00024582832018548356,21.571353500010446
1638,C,1139054875554901.0,0.2320261328849913,11.811495,-0.75611883,196,1970-01-14 04:24:14.875554901,2.3533783,1.0990953,2.214642,12.60478310722186,3.413361845681905,-98.03873443603516,-82.53123474121094,-117.7254638671875,21621282.0,49929.0,0.06137328265381474,0.18058356918524995,-0.058372923328335,0.004987661395262608,0.009563967867170474,-0.0023430161401560884,21.621282499982044
1638,C,1139054925483901.0,2.202454132884992,7.494749,-0.9189245,196,1970-01-14 04:24:14.925483901,2.0742788,-0.03647652,0.671074,7.912630624469036,2.180436513663434,-97.91329956054688,-82.49773406982422,-117.74732208251953,21671211.0,49929.0,0.06077558259481475,-0.007333471662000048,-0.041816619211785006,0.0030493853464994107,0.004325102059619172,-0.0025011818347428255,21.671211499953642
1638,C,1139054975412901.0,2.475393132884992,7.181109,-0.65556234,196,1970-01-14 04:24:14.975412901,1.8878577,-1.0910883,0.74990356,7.5083638282781875,2.3058264729044233,-98.68777465820312,-82.22210693359375,-116.87972259521484,21721140.0,49929.0,0.11678011806631476,-0.12292874295900004,-0.039306276717180004,0.0044325892891547685,-0.003251931056905957,-0.0020251925354186472,21.72114049992524
1638,C,1139055025341901.0,1.8457181328849916,10.786777,-2.0489876,196,1970-01-14 04:24:15.025341901,2.997863,-0.6809615,1.0630913,11.312015355061483,3.252853246518653,-98.72463989257812,-82.16438293457031,-116.69112396240234,21771069.0,49929.0,0.10787438219431476,-0.040744909953000036,-0.06751773697713,0.005608387271756486,-0.0040860309081216266,-0.002666808089871602,21.77106949989684
1638,C,1139055075270901.0,2.3077990328849918,10.643125,-2.3769934,196,1970-01-14 04:24:15.075270901,4.003473,0.75181913,1.2037061,11.137011534121843,4.247580068832153,-98.19116973876953,-82.11038208007812,-117.02764892578125,21820998.0,49929.0,0.10369047928486476,0.04568258847899997,-0.1104924026745,0.005281610984396977,0.00012326667556232531,-0.004443934131333117,21.820998499868438
1638,C,1139055125199901.0,4.362024072884991,9.199421,-2.0968719,196,1970-01-14 04:24:15.125199901,3.3739016,0.9297183,1.3879969,9.437610434179133,3.764853718040989,-97.62289428710938,-82.04804992675781,-117.43109130859375,21870927.0,49929.0,0.16650879892399476,0.006055039616999932,-0.11168781028185,0.006745389880845074,0.0012916040166025895,-0.005546617926348799,21.870927500072867
1638,C,1139055175128901.0,4.912690432884991,8.46919,-1.8670284,196,1970-01-14 04:24:15.175128901,1.1901094,0.67405486,1.9174334,8.679403416919913,2.355262444334716,-97.2373046875,-81.95740509033203,-117.7604751586914,21920856.0,49929.0,0.2315386102792947,-0.048216160690500075,-0.09895678903935,0.00993705454705552,-0.0010525313070393943,-0.005258637099754097,21.920856500044465
1638,C,1139055225057901.0,3.5743317328849917,8.531439,-1.7497126,196,1970-01-14 04:24:15.225057901,0.06519019,0.46419775,2.5288951,8.765476561966905,2.5719719552867035,-96.96244812011719,-81.83474731445312,-118.03467559814453,21970785.0,49929.0,0.2118742648573647,-0.06489199732950003,-0.09029013069450001,0.011069580721349134,-0.0028236886108902923,-0.004724454727695698,21.970785500016063
1638,C,1139055274986901.0,1.5201067328849915,12.532149,-1.6970401,196,1970-01-14 04:24:15.274986901,0.88118273,-0.35072953,1.7171637,13.008538663223682,1.9616690290316467,-97.95645904541016,-81.58984375,-117.00630950927734,22020714.0,49929.0,0.12718010907871474,0.03653774262599999,-0.08604645777915,0.008464322918127256,-0.0007078497915455267,-0.0044021547629504365,22.020714499987662
1638,C,1139055324915901.0,3.3301231328849914,13.056479,-2.3291094,196,1970-01-14 04:24:15.324915901,1.6439121,-0.6021319,0.8585605,13.320203007072314,1.9499066515308547,-99.60420227050781,-81.5803451538086,-115.29170227050781,22070643.0,49929.0,0.12108356348401474,0.14950310370599998,-0.10051080919275,0.00619777845369226,0.004644416708255213,-0.004657308891319998,22.07064349995926
1638,C,1139055374844901.0,6.231895532884992,14.346954,-1.8885763,196,1970-01-14 04:24:15.374844901,-0.04985837,-0.43168962,0.33977675,14.566111428751809,0.5516248951192865,-99.73102569580078,-81.5599594116211,-115.16602325439453,22120572.0,49929.0,0.23871101498161476,0.19480880312849996,-0.10529241465765002,0.008982091754105208,0.008595574598169875,-0.005137774581813311,22.12057249993086
1638,C,1139055424773901.0,5.618979932884992,11.682208,-1.1894693,196,1970-01-14 04:24:15.424773901,-2.4264634,-0.5467382,-0.068219535,11.789578694070492,2.488232544565402,-100.03768157958984,-81.55858612060547,-114.97850036621094,22170501.0,49929.0,0.2958511805652148,0.16050081474899996,-0.07684186938120001,0.013345077930728828,0.008870126955502848,-0.004546891333887871,22.170501499902457
1638,C,1139055474702901.0,3.3037869328849916,10.655095,-0.05701193,196,1970-01-14 04:24:15.474702901,-3.569492,-0.28787893,-0.8533194,10.729938925392071,3.6813450551148157,-100.21336364746094,-81.64124298095703,-114.97808837890625,22220430.0,49929.0,0.22275241342051474,0.06833540074349993,-0.031117780666335002,0.012946679422056745,0.005712781701662514,-0.0026951586836116877,22.220430499874055
1638,C,1139055524631901.0,2.2455498328849917,7.669526,0.22789808,196,1970-01-14 04:24:15.524631901,-2.5447078,-0.16430825,-1.6938131,8.016583121415595,3.061296752379702,-99.7237319946289,-81.52517700195312,-115.5850830078125,22270359.0,49929.0,0.13853641768906474,-0.031839199045500026,0.004266087291675,0.009019395024235098,0.0009111094272897187,-0.0006703390992516996,22.270359500078484
1638,C,1139055574560901.0,4.292592212884991,9.204209,-0.7202058,196,1970-01-14 04:24:15.574560901,-1.3303062,-0.21863674,-1.7886215,9.23643888991776,2.2397954103217814,-100.68771362304688,-81.7604751586914,-114.6932144165039,22320288.0,49929.0,0.16322144710162476,-0.06805984259250002,-0.01229021607594,0.007533234215567168,-0.002493929624971852,-0.0002003183630347836,22.320288500050083
1638,C,1139055624489901.0,2.7674857328849916,10.422858,-0.4161422,196,1970-01-14 04:24:15.624489901,-0.82643616,0.72731805,-0.8479931,10.585350663936316,1.3896332501991155,-100.60736846923828,-81.76376342773438,-114.8176040649414,22370217.0,49929.0,0.17625131587717474,0.0006757141214999711,-0.028368359646,0.008474767791384239,-0.0016822110752142806,-0.0010150210136103711,22.37021750002168
1638,C,1139055674418901.0,1.6206631328849914,8.48116,0.19677345,196,1970-01-14 04:24:15.674418901,-0.08394683,0.45034933,-1.8717122,8.980723003165942,1.9269582634108444,-100.57732391357422,-81.85989379882812,-114.85226440429688,22420146.0,49929.0,0.10954794235951475,-0.017374842639000063,-0.0054764311593750005,0.007134835582249835,-0.00041688539387513106,-0.0008449182800607843,22.42014649999328
1638,C,1139055724347901.0,2.896772632884992,7.7198043,0.70195,196,1970-01-14 04:24:15.724347901,-1.7915657,0.0348962,-2.216858,7.9296824432798525,2.8505060593436617,-99.52093505859375,-81.89447784423828,-115.98406219482422,22470075.0,49929.0,0.11277552517456475,-0.08485522673265006,0.022436181567525,0.005550194205254527,-0.0025521225668285593,0.0004233916890642607,22.470075499964878
1638,C,1139055774276901.0,2.1066860328849915,8.732552,-0.12644377,196,1970-01-14 04:24:15.774276901,-1.5646644,-0.030084932,-1.6597246,9.073570335621135,2.2811763490808783,-99.39202880859375,-81.78784942626953,-116.18702697753906,22520004.0,49929.0,0.12490884386161476,-0.07857935114865004,0.014367225278835001,0.005933671430803703,-0.004080062519517717,0.0009187786502159542,22.520004499936476
1638,C,1139055824210041.0,2.6621408328849916,9.9033165,-0.38980597,196,1970-01-14 04:24:15.824210041,-1.2078007,0.30973443,-0.9641069,10.0924972440886,1.576140876532147,-99.47412872314453,-81.76573944091797,-116.16667938232422,22569937.0,49933.0,0.11906091594424627,-0.024070989094750014,-0.01288894913371,0.006091071008193029,-0.0025628197196868475,3.690738137726334e-05,22.56993763986975
1638,C,1139055874143181.0,3.6126389328849915,11.184214,-1.2469301,196,1970-01-14 04:24:15.874143181,-1.3867652,0.9062825,-0.07354586,11.293957589093642,1.6582746103285877,-100.1944580078125,-81.83544158935547,-115.52862548828125,22619870.0,49933.0,0.15665928902209628,0.03713843022825,-0.040863571091655,0.00688376849729219,0.00032624826905952744,-0.0013420122962065752,22.619870780035853
1638,C,1139055924076321.0,2.2551266328849917,13.169007,-1.2014403,196,1970-01-14 04:24:15.924076321,-1.095948,0.8168003,0.5411117,13.424375519852434,1.4700566726017674,-100.51365661621094,-81.7525405883789,-115.273193359375,22669803.0,49933.0,0.14649756899779628,0.1186712920965,-0.0611272395916,0.007568765695753647,0.0038900234324208706,-0.002546353574923486,22.669803919969127
1638,C,1139055974009461.0,2.2934338328849915,11.25604,-0.13602059,196,1970-01-14 04:24:15.974009461,-0.6037959,-0.08441342,-0.012825783,11.484288776405933,0.6098029313167243,-100.33065032958984,-81.67469787597656,-115.4836196899414,22719737.0,49934.0,0.11356390914887916,0.120466948449,-0.03339238604063,0.006492954924888046,0.0059705644516994975,-0.0023598714931598866,22.7197370599024
1638,C,1139056023942601.0,1.9127556328849917,11.969512,-0.50472766,196,1970-01-14 04:24:16.023942601,-0.31723973,-0.586153,-0.67861605,12.270790720270773,0.9511761819016893,-100.59902954101562,-81.59290313720703,-115.2286605834961,22769670.0,49933.0,0.10501382929714627,0.09051734400799998,-0.015997241183625,0.005457121106912694,0.00526753933762769,-0.0012330861280943624,22.769670200068504
1638,C,1139056073875741.0,0.030913132884991867,10.602423,0.5774515,196,1970-01-14 04:24:16.073875741,0.7565468,-0.59041405,-0.7563804,11.546713322419945,1.2219096204432645,-100.80549621582031,-81.6246337890625,-114.98180389404297,22819603.0,49933.0,0.04852660624059629,0.07419881517749996,0.0018156597513599995,0.003833367283853049,0.004112385988304784,-0.0003540644528286441,22.819603340001777
1638,C,1139056123808881.0,1.7834688328849917,7.456442,-0.23178865,196,1970-01-14 04:24:16.123808881,1.8537692,-0.6884183,-0.5742201,7.962649379997597,2.0591524290075127,-100.97958374023438,-81.64633178710938,-114.71217346191406,22869536.0,49933.0,0.045298767348396295,-0.03847674697750001,0.008629991544524998,0.0023424911897095835,0.0008918550157152987,0.00026079135307871277,22.86953647993505
1638,C,1139056173742021.0,1.9486688328849917,8.545804,-0.6124667,196,1970-01-14 04:24:16.173742021,2.3746834,-0.2676389,0.25881666,8.959063500402717,2.4036925540763994,-101.04273986816406,-81.4044189453125,-114.53070831298828,22919469.0,49933.0,0.09317841503244628,-0.08982332524100002,-0.021078101195775002,0.003457290573911306,-0.003203203753043181,-0.0003107857296079332,22.919469619868323
1638,C,1139056223675161.0,2.209636832884992,9.917682,-1.5629648,196,1970-01-14 04:24:16.223675161,3.3675098,0.6847075,0.9256722,10.313262760061798,3.558906522445501,-101.5854263305664,-81.21199035644531,-113.83415222167969,22969402.0,49933.0,0.10381833840444629,-0.028374776781000043,-0.05431291054475,0.004918319444682178,-0.0029509929141322646,-0.0018822496946198175,22.969402760034427
1638,C,1139056273608301.0,3.4905346328849918,8.912117,-1.9891326,196,1970-01-14 04:24:16.273608301,3.2929413,1.2503629,1.4412602,9.194705216669211,3.8057983066691987,-100.93475341796875,-81.15348815917969,-114.32592010498047,23019335.0,49933.0,0.14231333090014628,-0.019229223266500048,-0.0886834397371,0.00614504632169311,-0.001188505267185911,-0.0035701183793118074,23.0193358999677
1638,C,1139056323541441.0,4.591867425884992,8.375815,-1.5509938,196,1970-01-14 04:24:16.323541441,1.6673479,1.2365144,2.1198337,8.518241973679178,2.966936432871028,-100.3380355834961,-81.06074523925781,-114.84552764892578,23069269.0,49934.0,0.20179333220131015,-0.05772540175600004,-0.0883863358288,0.008591311057654063,-0.0019213261229367596,-0.0044209010865538245,23.069269039900973
1638,C,1139056373474581.0,3.334911432884992,9.146749,-1.3810055,196,1970-01-14 04:24:16.373474581,0.38583478,0.5419621,2.2721665,9.33219047124668,2.367558235612444,-101.13330078125,-80.94969177246094,-114.04830169677734,23119202.0,49933.0,0.19790392437748078,-0.051866305894000056,-0.07320176052345,0.009979041556374383,-0.002736121369043727,-0.004034289207578449,23.119202180067077
1638,C,1139056423407721.0,2.2814628328849915,11.258434,-1.6826749,196,1970-01-14 04:24:16.423407721,0.58397394,-0.1568514,1.5797446,11.610782643117254,1.6915143882066872,-101.9887466430664,-80.7752456665039,-113.17608642578125,23169135.0,49933.0,0.14022120810634628,0.020102601369499942,-0.0764893767066,0.008441801120157468,-0.000793028529010932,-0.0037372637776540434,23.16913532000035
1638,C,1139056473340861.0,4.469763136884992,13.628694,-2.7672482,196,1970-01-14 04:24:16.473340861,0.75548154,0.056201488,1.0843966,13.907139889712237,1.322810247399734,-101.86521911621094,-80.72268676757812,-113.2628173828125,23219068.0,49933.0,0.16855448317426228,0.13200108121199994,-0.11109900507615,0.007709048296357313,0.0037974965911710163,-0.004683425333779028,23.219068459933624
1638,C,1139056523274001.0,5.444203232884991,14.801853,-2.0274398,196,1970-01-14 04:24:16.523274001,-0.28315127,0.6250527,1.3389947,14.965752630204651,1.5045837717149526,-101.6096420288086,-80.66358184814453,-113.53633117675781,23269001.0,49933.0,0.24751704137086228,0.22046785167549998,-0.11970657795199999,0.010387849717555851,0.008799915612935767,-0.005762407588672307,23.269001599866897
1638,C,1139056573207141.0,3.9837401628849918,12.307095,-1.079336,196,1970-01-14 04:24:16.573207141,-1.8235236,0.10307312,0.8266026,12.368123397099653,2.0047778545640047,-102.29716491699219,-80.76451110839844,-112.94973754882812,23318934.0,49933.0,0.23538274879049126,0.187472150242,-0.07756531801069999,0.012056317611063433,0.010184834057873264,-0.004925188790552749,23.318934740033
1638,C,1139056623140281.0,5.214359892884992,9.02225,-0.24615386,196,1970-01-14 04:24:16.623140281,-3.0038366,0.45034933,0.44736844,9.048748606388433,3.0701770892961604,-102.2829818725586,-80.74754333496094,-113.11641693115234,23368867.0,49933.0,0.2296443650423813,0.04317569194249996,-0.03309284258969,0.011610099437508412,0.005758469351899318,-0.0027627469666296365,23.368867879966274
1638,C,1139056673073421.0,2.3724423328849915,7.9520416,1.4130279,196,1970-01-14 04:24:16.673073421,-2.5404465,-0.046063896,-0.1257438,8.369614409881223,2.543973625082498,-102.43204498291016,-80.75315856933594,-113.0940170288086,23418801.0,49934.0,0.18941969117079915,-0.06555606162280003,0.029133344156679997,0.010462772291474475,-0.0005587706898080518,-9.88567973769608e-05,23.418801019899547
1638,C,1139056723006561.0,5.034794732884992,8.758887,0.46731824,196,1970-01-14 04:24:16.723006561,-1.4869001,0.33956182,-0.82562256,8.783776768397047,1.7343087235445354,-102.45909118652344,-80.79713439941406,-113.1419906616211,23468734.0,49933.0,0.18493278420254627,-0.07213000110810004,0.046945661904309995,0.009346271076408627,-0.0034375390851710164,0.0018994265048217066,23.46873416006565
1638,C,1139056772939701.0,3.909519932884992,9.991901,0.35479078,196,1970-01-14 04:24:16.772939701,-1.1726471,0.8700635,-0.53267485,10.019833624459663,1.5543018403750226,-101.84156799316406,-80.98054504394531,-113.81549835205078,23518667.0,49933.0,0.22330823210294629,-0.021201851398000033,0.02052518484783,0.01019234933359108,-0.002330169695593547,0.001684510895437303,23.518667299998924
1638,C,1139056822872841.0,3.3229405328849917,9.424476,1.1879729,196,1970-01-14 04:24:16.822872841,-0.53988,0.5856379,-0.9481279,9.580254157826804,1.2383007223913018,-100.37599182128906,-81.10697937011719,-115.2927017211914,23568600.0,49933.0,0.1805692242186463,-0.004584423629500019,0.03851740941672,0.01008340651325304,-0.00064379303547408,0.0014740869297058875,23.568600439932197
1638,C,1139056872809831.0,3.4426505328849917,8.521862,0.6827964,196,1970-01-14 04:24:16.872809831,-0.7145834,0.27777648,-1.8525374,8.622871503825875,2.0049149674725633,-99.47627258300781,-81.25694274902344,-116.21671295166016,23618537.0,49937.0,0.16892666052567784,-0.04128945964700002,0.04671030326705,0.008726387998238657,-0.0011454020545892912,0.002128008144144711,23.618537429952994
1638,C,1139056922746821.0,2.844100132884992,9.177873,-0.05940613,196,1970-01-14 04:24:16.922746821,-1.1619945,0.6090737,-2.334037,9.338491514430292,2.6774858930405103,-99.23446655273438,-81.3317642211914,-116.51480102539062,23668474.0,49937.0,0.15697073399827785,-0.04744676665250003,0.015565119956495002,0.00813716909517139,-0.0022156104663590666,0.0015549239047570834,23.66847441997379
1638,C,1139056972683811.0,2.2000601328849916,10.327089,-0.8135797,196,1970-01-14 04:24:16.972683811,-1.2621293,0.7646023,-1.8504069,10.626196304723958,2.3667684176216714,-99.52526092529297,-81.31010437011719,-116.293212890625,23718411.0,49937.0,0.12594511559587784,-0.0023729563030000156,-0.021797146696355,0.007063984390591678,-0.001243923752614403,-0.00015560435965419442,23.718411409994587
1638,C,1139057022620801.0,2.6405930328849916,11.856985,-1.2134113,196,1970-01-14 04:24:17.022620801,-1.7223235,0.8029519,-1.2890126,12.073686961392045,2.2962324523716275,-100.11353302001953,-81.34600830078125,-115.80105590820312,23768348.0,49937.0,0.12086384856952782,0.06452045166899999,-0.050610924783499996,0.0061624496217639315,0.0015517297380459704,-0.0018079209327447594,23.768348400015384
1638,C,1139057072557791.0,1.7188254328849917,12.414834,-1.8718169,196,1970-01-14 04:24:17.072557791,-2.1537557,0.54302734,-0.5806117,12.874294822746686,2.2957901152864246,-101.0611343383789,-81.24152374267578,-114.97413635253906,23818285.0,49937.0,0.10884813996257783,0.11664831270149999,-0.07703352031170001,0.005735563785663881,0.004523512293184829,-0.0031870903273595015,23.81828539003618
1638,C,1139057122494781.0,0.7898751328849918,10.834661,-0.6890812,196,1970-01-14 04:24:17.122494781,-1.2259103,-0.03434599,-0.3590367,11.495047390207464,1.2778666059577815,-101.15586853027344,-81.25885009765625,-114.94036865234375,23868222.0,49937.0,0.06263849007642784,0.0911224159075,-0.06394178420985001,0.004281763922128913,0.005187723437273816,-0.003519941890946322,23.868222380056977
1638,C,1139057172431771.0,1.0963329328849918,11.55771,-0.5717653,196,1970-01-14 04:24:17.172431771,0.17171663,-0.586153,-0.7649025,12.081285216513612,0.9788451230576812,-101.29327392578125,-81.08684539794922,-114.79058074951172,23918159.0,49937.0,0.04709578609017784,0.06972131531349998,-0.03148144583525,0.002739900274465894,0.004016026702991538,-0.0023825749193810797,23.918159370077774
1638,C,1139057222368761.0,0.8329707328849918,10.6838255,-0.4161422,196,1970-01-14 04:24:17.222368761,0.8513553,-0.5328897,-0.55078435,11.325411807162697,1.1454870926418605,-101.45213317871094,-81.10860443115234,-114.58673095703125,23968096.0,49937.0,0.048171818578777836,0.06595517913174996,-0.024666568413750003,0.00237868918717682,0.003387638551556223,-0.0014019316937761565,23.96809635986574
1638,C,1139057272305751.0,1.2040721328849915,7.765294,-0.6890812,196,1970-01-14 04:24:17.272305751,1.0782566,-0.31024948,0.048959553,8.490472267050016,1.123071268047487,-101.49227905273438,-81.1031265258789,-114.49152374267578,24018033.0,49937.0,0.05086190479397783,-0.02873575976425008,-0.027595770462899998,0.0024727235220326498,0.0009293130724774208,-0.0013049122082416356,24.018033349886537
1638,C,1139057322242741.0,1.9031788328849917,9.697414,-0.39938277,196,1970-01-14 04:24:17.322242741,2.3224854,-0.662852,0.73605514,10.064721769569498,2.5248937356327654,-101.4089584350586,-80.89555358886719,-114.45510864257812,24067970.0,49937.0,0.07758339573882783,-0.05336497530200004,-0.027177312634944998,0.0032070864863533587,-0.0020499322035016664,-0.0013676017253285429,24.067970339907333
1638,C,1139057372179731.0,3.4594099328849914,11.282376,-1.1535563,196,1970-01-14 04:24:17.372179731,2.4140983,0.09242048,2.543809,11.395211427989747,3.508187049697795,-101.82390594482422,-80.83277130126953,-113.9310073852539,24117907.0,49937.0,0.13389579759812784,0.03445128661499995,-0.038774559169295,0.005280318238833777,-0.0004722464359813617,-0.0016467193111441667,24.11790732992813
1638,C,1139057422116721.0,1.5560196328849916,10.918458,-0.6914754,196,1970-01-14 04:24:17.422116721,1.2604169,1.0128089,4.200295,11.347274432100926,4.500767791916155,-101.255615234375,-80.47176361083984,-114.44428253173828,24167844.0,49937.0,0.12522775311292783,0.06493892372899994,-0.046067674001449996,0.006469926375928993,0.0024816244669741616,-0.0021183832989237466,24.167844319948927
1638,C,1139057472053711.0,-0.6466458671150086,10.137948,-0.033069912,196,1970-01-14 04:24:17.472053711,0.12377973,1.5539633,5.14625,11.400338405493395,5.377175134009098,-100.51476287841797,-80.23375701904297,-115.1895523071289,24217781.0,49937.0,0.02270569887062782,0.03636427321099994,-0.018090809622672,0.0036936763958514093,0.0025293888727963873,-0.00160194109836889,24.217781309969723
1638,C,1139057521990701.0,-3.773473867115009,8.100482,-0.021098902,196,1970-01-14 04:24:17.521990701,-0.9414847,1.6349233,5.309235,11.627218197229706,5.63447814109186,-99.83137512207031,-79.98687744140625,-115.93095397949219,24267718.0,49937.0,-0.1103637595841222,-0.033996360545000055,-0.001352514032359,-0.0021886902889248845,5.912322740101818e-05,-0.00048547062668064157,24.26771829999052
1638,C,1139057571927691.0,-5.178869867115009,6.8076134,0.8144775,196,1970-01-14 04:24:17.571927691,-1.4773127,0.904152,5.1377277,11.916423879666324,5.42182529892218,-99.4156494140625,-79.7410888671875,-116.42820739746094,24317655.0,49937.0,-0.2235265945281222,-0.11714982000510005,0.019809473524163002,-0.008336741306651576,-0.0037738934090651745,0.00046084259307110827,24.317655290011317
1638,C,1139057621864681.0,-5.873187867115008,6.505944,0.42901102,196,1970-01-14 04:24:17.621864681,-0.11697003,0.20001219,4.4165435,12.309425444309472,4.422617251295781,-99.17263793945312,-79.52485656738281,-116.68130493164062,24367592.0,49937.0,-0.27595330353712216,-0.15696304205810002,0.031048043111620002,-0.012471263834842055,-0.0068441869964250114,0.001269835904120548,24.367592280032113
1638,C,1139057671801671.0,-9.172398867115007,5.7852893,2.7489924,196,1970-01-14 04:24:17.671801671,1.9869273,0.0828331,3.8146694,15.159644405479215,4.301911673807037,-98.89086151123047,-79.33712005615234,-116.86686706542969,24417529.0,49937.0,-0.3756657323736221,-0.18248894134895005,0.07934997839227001,-0.01626994989813742,-0.00847560684769893,0.002756472999919878,24.41752927005291
1638,C,1139057721738661.0,-8.794113867115009,4.7916956,2.6699839,196,1970-01-14 04:24:17.721738661,2.4844058,0.39921662,3.6580753,14.443865707521605,4.439950561574752,-98.51696014404297,-79.15934753417969,-117.12097930908203,24467466.0,49937.0,-0.44859687320462216,-0.22529115252435006,0.13530370974655,-0.020580600867380394,-0.010181657273875494,0.005359580612294128,24.467466260073707
1638,C,1139057771675651.0,-6.213164867115009,0.74788874,5.6675243,196,1970-01-14 04:24:17.771675651,1.9304682,0.7486234,3.188294,12.202689205424774,3.8016263752076953,-98.10887145996094,-79.00699615478516,-117.4382553100586,24517403.0,49937.0,-0.3747092390756222,-0.3510674884067101,0.2081750734917,-0.02055671866446928,-0.014390810726087175,0.008576149999284246,24.517403249861673
1638,C,1139057821612641.0,1.5033473328849918,-1.0812813,4.896591,196,1970-01-14 04:24:17.821612641,1.7983754,1.4868516,2.1326168,5.876697817238872,3.1611605741230484,-97.5669937133789,-78.91149139404297,-117.89875793457031,24567340.0,49937.0,-0.11759707910342221,-0.4977069121343601,0.26377011286805,-0.012292150305453471,-0.021192623619909715,0.01178376338562342,24.56734023988247
1638,C,1139057871549631.0,-0.6777704671150087,-1.6511014,5.7034373,196,1970-01-14 04:24:17.871549631,1.3967707,1.7691467,0.99278384,7.9227216510114005,2.4630201354159746,-97.01820373535156,-78.8735580444336,-118.386962890625,24617277.0,49937.0,0.020613415972977826,-0.5576060974449502,0.26466680660855,-0.0024215365928725004,-0.02634958287968101,0.01319427722395149,24.617277229903266
1638,C,1139057921490231.0,3.1840768328849913,0.14454992,3.1655836,196,1970-01-14 04:24:17.921490231,2.4471214,1.7062961,-0.63387495,3.4577482374359554,3.0498601573597885,-96.483154296875,-78.9150161743164,-118.80744934082031,24667217.0,49940.0,0.06258246995327646,-0.5270305904556,0.221459451873,0.0020774012715785695,-0.027083378096876734,0.012138572674284302,24.667217829963192
1638,C,1139057971430831.0,5.319704732884992,-0.82510173,2.1288943,196,1970-01-14 04:24:17.971430831,0.98238283,1.1768596,-1.7694468,2.4038731301795946,2.3411570901631547,-96.18418884277344,-79.00939178466797,-119.0619125366211,24717158.0,49941.0,0.2123436775880594,-0.5064155189716051,0.13220576040195,0.006865043367180926,-0.025805666075452025,0.00883119718311164,24.71715843002312
1638,C,1139058021371431.0,0.5001765328849919,-1.136348,2.5957634,196,1970-01-14 04:24:18.021371431,0.37837794,0.6229222,-2.5268497,4.9571585262551086,2.62986146766737,-96.07476043701172,-79.13838195800781,-119.15414428710938,24767099.0,49941.0,0.14532534514690937,-0.538400180482965,0.11797706509785,0.008931174332203537,-0.026089570423230343,0.006247190244142755,24.767099030083045
1638,C,1139058071312031.0,-2.894801467115008,-0.48991352,4.0777745,196,1970-01-14 04:24:18.071312031,0.5829087,0.056201488,-2.6909006,8.517986018723605,2.753885836208441,-96.10580444335938,-79.27245330810547,-119.09288024902344,24817039.0,49940.0,-0.059793784607723506,-0.5300197501544001,0.166638241363,0.002135723066663471,-0.026678445668015003,0.007106844202327424,24.81703962991014
1638,C,1139058121252631.0,-0.3928602671150081,-0.5018845,4.013131,196,1970-01-14 04:24:18.121252631,0.30807048,0.13396579,-2.0304365,6.40027607209925,2.058039512271328,-96.11241912841797,-79.37415313720703,-119.0705337524414,24866980.0,49941.0,-0.08209455733459062,-0.51418749245841,0.20203395578775,-0.0035430228424705545,-0.02607437695166317,0.009205929098952802,24.866980229970068
1638,C,1139058171193231.0,-2.763119867115009,-0.40611646,3.574992,196,1970-01-14 04:24:18.171193231,-0.54414105,-0.111045025,-2.1113968,8.16610894463593,2.183212524451661,-96.23001861572266,-79.47852325439453,-118.9786376953125,24916920.0,49940.0,-0.07880482395172352,-0.5120847839711999,0.18947543130999997,-0.0040176575507192645,-0.02562601874244736,0.009775989395830817,24.916920830029994
1638,C,1139058221133831.0,-9.34238586711501,-2.632724,7.839065,196,1970-01-14 04:24:18.221133831,2.182936,0.2500796,-0.15450595,16.182416679054615,2.202639660729272,-96.05835723876953,-79.48754119873047,-119.04222869873047,24966861.0,49941.0,-0.3022805309365907,-0.56530316570643,0.2850147103185,-0.009515891854238649,-0.026902915797425257,0.01184825608153446,24.96686142985709
1638,C,1139058271074431.0,-5.411106867115008,-1.6175826,6.1224227,196,1970-01-14 04:24:18.271074431,0.58716977,0.10626891,-0.32175246,11.81844936827954,0.677927773107499,-96.00957489013672,-79.50408172607422,-119.06189727783203,25016802.0,49941.0,-0.3684020903200907,-0.5955540809553,0.34862532861284995,-0.016747280394089962,-0.028987185877766733,0.01582230859213527,25.016802029917017
1638,C,1139058321015031.0,-4.8532578671150075,-2.6303298,5.38022,196,1970-01-14 04:24:18.321015031,-0.741215,-0.1355461,-0.20883444,11.163263745277366,0.7819106373367251,-96.0889663696289,-79.51372528076172,-119.01881408691406,25066742.0,49940.0,-0.2563011874137235,-0.5954823726280001,0.287220988219,-0.01559884084501334,-0.029740180245975006,0.015877082531291293,25.066742629976943
1638,C,1139058370955631.0,-6.799744867115009,-1.4428058,6.649147,196,1970-01-14 04:24:18.370955631,-1.8118057,-0.19307038,0.39090943,13.248017506622025,1.863525220824435,-96.2200698852539,-79.4932861328125,-118.9776840209961,25116683.0,49941.0,-0.2909813047750906,-0.5911300324998,0.3003793086735,-0.013665917471200781,-0.02963030506224373,0.014672673213554172,25.11668323003687
1638,C,1139058420896231.0,-9.186763867115008,-4.378097,5.8590603,196,1970-01-14 04:24:18.420896231,-0.80832666,-0.0769563,0.70196664,15.578175926999448,1.0733459018645084,-96.26054382324219,-79.45799255371094,-118.97765350341797,25166623.0,49940.0,-0.39918312309372356,-0.634759942916,0.312329936281,-0.01723340576388429,-0.03061047268613253,0.015299349846513863,25.166623829863966
1638,C,1139058470836831.0,-5.202811867115009,-5.4650645,4.0179195,196,1970-01-14 04:24:18.470836831,0.34642,-0.39333984,0.78292674,11.894203033809557,0.9421769081962543,-96.32505798339844,-79.41693115234375,-118.8944091796875,25216564.0,49941.0,-0.3593149008715907,-0.7352104642357501,0.24663312409590002,-0.01894007490742588,-0.034208846051782774,0.013957587099141381,25.216564429923892
1638,C,1139058520777431.0,-6.428642867115008,-4.3828855,2.744204,196,1970-01-14 04:24:18.520777431,-1.4741169,-0.61704534,0.8021015,12.151472043340561,1.788052684565971,-96.53846740722656,-79.37359619140625,-118.7522201538086,25266505.0,49941.0,-0.29044324044109066,-0.7353300354750001,0.16885360485675,-0.01622478566764831,-0.036720131548027286,0.010374911365312147,25.26650502998382
1638,C,1139058570718031.0,-3.9171258671150087,-3.2456396,2.567033,196,1970-01-14 04:24:18.570718031,-1.5050095,-0.85672987,1.2399251,9.440066278246206,2.1298952835410656,-96.80148315429688,-79.30704498291016,-118.5611343383789,25316445.0,49940.0,-0.2583338452937235,-0.6798962717470001,0.13262158789,-0.01370296383079831,-0.03533820089133334,0.007527835562886347,25.316445630043745
1638,C,1139058620658631.0,-3.476591867115009,-3.2983122,2.057068,196,1970-01-14 04:24:18.620658631,-0.55372846,-1.2775093,1.6148982,8.934194723466511,2.1322620419084757,-97.11202239990234,-79.21917724609375,-118.27332305908203,25366386.0,49941.0,-0.18462482868259067,-0.6528275484218999,0.11546611402049999,-0.011060899568525552,-0.03327878015152752,0.00619487396055614,25.36638622987084
1638,C,1139058670599231.0,-3.399977867115008,-3.451541,2.2869115,196,1970-01-14 04:24:18.670599231,-0.3097829,-1.4713874,1.0971798,8.979187768630815,1.8613838506711102,-97.47309112548828,-79.1553955078125,-117.92144775390625,25416326.0,49940.0,-0.17170794626372352,-0.6579558344040001,0.10846916811499999,-0.008897629390409466,-0.03273026106916273,0.005591663994923434,25.416326829930767
1638,C,1139058720539831.0,-2.803821467115008,-2.8027124,2.136077,196,1970-01-14 04:24:18.720539831,-0.612318,-1.3147936,0.54004645,8.1704505057303,1.547664599285828,-97.8244857788086,-79.11985778808594,-117.5947494506836,25466267.0,49941.0,-0.1549119712753906,-0.6455936345247,0.11044423433924999,-0.008155862650910449,-0.03255028201388411,0.005466377115983849,25.466267429990694
1638,C,1139058770480431.0,-2.8253692671150086,-3.4467525,3.7473745,196,1970-01-14 04:24:18.770480431,-0.52603155,-1.0463469,0.0894396,8.976597318802245,1.1745426636709169,-98.11700439453125,-79.10819244384766,-117.32372283935547,25516208.0,49941.0,-0.14056370722909062,-0.64547406328545,0.14691272568074998,-0.007378175430096148,-0.03223860594816835,0.0064263319701794094,25.51620803005062
1638,C,1139058820421031.0,-4.039228867115008,-1.9982606,4.022708,196,1970-01-14 04:24:18.820421031,0.36239895,-0.36351243,0.2865135,9.708407597016173,0.5878471496978253,-98.18180847167969,-79.09146881103516,-117.23932647705078,25566148.0,49940.0,-0.17140901541172351,-0.625373977107,0.19401896002499996,-0.007789958884341128,-0.03173307556859948,0.008513064192072576,25.566148629877716
1638,C,1139058870361631.0,-4.185275867115009,-3.3653498,4.1400237,196,1970-01-14 04:24:18.870361631,-0.08820789,0.21279563,1.4497823,10.250788698169803,1.467968436104346,-98.07872772216797,-79.02116394042969,-117.3487777709961,25616089.0,49941.0,-0.20536999546609064,-0.6233538334932,0.20382749191485,-0.009408360291124459,-0.031181357794592295,0.009934424828164024,25.616089229937643
1638,C,1139058920302231.0,-5.219570867115009,-4.0309377,3.4768298,196,1970-01-14 04:24:18.920302231,0.80022264,0.5430276,1.9941324,11.141186171869597,2.216257944522724,-97.82991790771484,-78.92619323730469,-117.56149291992188,25666029.0,49940.0,-0.23483902295372355,-0.674097298875,0.190192831895,-0.01099201918994276,-0.03239735477523396,0.009838687485531954,25.66602982999757
1638,C,1139058970246191.0,-2.382442367115009,-5.0005894,2.7537808,196,1970-01-14 04:24:18.970246191,0.59995294,0.39495584,1.8471259,8.994034422690035,1.9818697576318074,-97.63710021972656,-78.83731842041016,-117.7274169921875,25715973.0,49944.0,-0.189837474485192,-0.7149864947412,0.1555908079032,-0.0106050214940446,-0.03468820049418375,0.008634909053040651,25.715973790036514
1638,C,1139059020190151.0,-3.2252008671150083,-4.694132,3.5869632,196,1970-01-14 04:24:19.020190151,0.58397394,-0.016236227,0.8883879,9.779025149957803,1.0632601932418655,-97.5822525024414,-78.79319763183594,-117.75361633300781,25765917.0,49944.0,-0.14003406684519198,-0.7315477828008,0.158341059168,-0.00823755213010235,-0.036122853978778825,0.007839506584502007,25.76591775007546
1638,C,1139059070134111.0,-2.138233567115009,-4.5265374,4.9684176,196,1970-01-14 04:24:19.070134111,1.0771914,-0.30705342,-0.16302806,9.494380895965392,1.1319016137964555,-97.61070251464844,-78.79928588867188,-117.66975402832031,25815861.0,49944.0,-0.133935684691592,-0.7197097562568,0.21364496933760002,-0.00684157263537657,-0.036240803265346386,0.009289235103841845,25.815861709881574
1638,C,1139059120078071.0,-1.5085585671150081,-4.1674075,5.3419127,196,1970-01-14 04:24:19.120078071,0.5466897,-0.33901134,-1.0365449,9.100732776759882,1.2199277218141638,-97.70325469970703,-78.84829711914062,-117.54737091064453,25865805.0,49944.0,-0.09106769317599199,-0.7065563920428001,0.2574695682516,-0.005618784352109308,-0.03561671825533762,0.011764672232677504,25.86580566992052
1638,C,1139059170022031.0,-1.9969758671150082,-4.464288,5.143194,196,1970-01-14 04:24:19.170022031,0.8875743,-0.0055835834,-0.8298836,9.459191893971916,1.2151239047821563,-97.68852233886719,-78.88941192626953,-117.51719665527344,25915749.0,49944.0,-0.08754020589159198,-0.705001900026,0.2618340845124,-0.004460196455515706,-0.03524943366954208,0.01296805081682261,25.915749629959464
1638,C,1139059219965991.0,-0.5796082671150087,-3.0564978,5.131223,196,1970-01-14 04:24:19.219965991,0.44868538,-0.30066183,-1.4147137,7.884519658525636,1.5143087397266066,-97.79083251953125,-78.95745849609375,-117.39004516601562,25965693.0,49944.0,-0.06434245899999198,-0.6772602629976,0.256572741324,-0.0037928139076726353,-0.03451785073502534,0.012945655254786581,25.96569358999841
1638,C,1139059269909951.0,-0.9698632671150085,-1.8809447,4.3794436,196,1970-01-14 04:24:19.269909951,-0.26610705,-0.2985313,-1.4402801,7.306248563055559,1.4947711080949493,-97.93083190917969,-79.02680206298828,-117.26106262207031,26015637.0,49944.0,-0.03869340315279199,-0.61274901411,0.23750036633520002,-0.0025730115496793216,-0.032214111667930985,0.012337993644465542,26.015637550037354
1638,C,1139059319853911.0,-4.520463867115008,1.4206594,5.5741506,196,1970-01-14 04:24:19.319853911,0.68623936,-0.2953355,-1.8557333,10.755594260215876,2.0004733433621027,-98.03901672363281,-79.11666870117188,-117.1159896850586,26065581.0,49944.0,-0.13710444919599196,-0.5009454445116002,0.24856115436240003,-0.004390023968853833,-0.0278111780206986,0.012137928294860469,26.0655815100763
1638,C,1139059369797871.0,-1.3074453671150081,0.22355859,5.6579475,196,1970-01-14 04:24:19.369797871,0.3006136,0.11798709,-0.25890186,8.159584149086967,0.413907795315681,-98.00291442871094,-79.13024139404297,-117.13734436035156,26115525.0,49944.0,-0.14553454939719196,-0.44839178835372,0.2804879537532,-0.0070580610728689895,-0.023706849379112778,0.013211414327862764,26.115525469882414
1638,C,1139059419741831.0,-2.4303263671150086,-2.5656865,5.892579,196,1970-01-14 04:24:19.419741831,-0.8285667,0.16379346,-0.034131072,9.50139851178654,0.8452904849597745,-98.00337219238281,-79.13310241699219,-117.17911529541016,26165469.0,49944.0,-0.09333963574719198,-0.5479388181685201,0.288439747758,-0.005965166151425556,-0.024880367906073383,0.014207262562137687,26.16546942992136
1638,C,1139059469685791.0,-1.8844483671150085,-3.4994252,4.6571712,196,1970-01-14 04:24:19.469685791,-1.0661206,0.32038733,0.37386522,8.692783539813627,1.1743237959330202,-97.96052551269531,-79.11676025390625,-117.27692413330078,26215413.0,49944.0,-0.107748554663192,-0.6409091693724001,0.26344836199439997,-0.005021574290928109,-0.02968791194487186,0.013781749876736932,26.215413389960304
1638,C,1139059519629751.0,-4.891564867115009,-4.873697,3.3523314,196,1970-01-14 04:24:19.519629751,-1.1417544,0.3299747,0.85749525,11.15649329483579,1.4655321614799222,-97.90216064453125,-79.07666015625,-117.3946762084961,26265357.0,49944.0,-0.169210602485192,-0.6985448075784001,0.2000132989272,-0.006916224072309447,-0.03344884471241538,0.011573564596534195,26.26535734999925
1638,C,1139059569573711.0,-6.933819867115008,-6.7435684,4.2812815,196,1970-01-14 04:24:19.569573711,-0.7284318,0.07324599,1.9568481,14.003154863766836,2.0893138464041083,-97.85069274902344,-78.98023223876953,-117.48419189453125,26315301.0,49944.0,-0.295303507583192,-0.7795575515688001,0.19062658133880003,-0.011599846356627688,-0.03691117211262389,0.009755059090002554,26.315301310038194
1638,C,1139059619517671.0,-5.233935867115009,-8.251915,4.1711483,196,1970-01-14 04:24:19.619517671,-0.3364145,-0.18667853,2.2711012,13.474538839888433,2.303459192174815,-97.83551025390625,-78.86640167236328,-117.51667785644531,26365245.0,49944.0,-0.303853196195192,-0.8639184114648002,0.21107407696560004,-0.014962141206753807,-0.041040881748875074,0.010031268839177479,26.36524527007714
1638,C,1139059669461631.0,-2.600314467115008,-8.680477,4.7696986,196,1970-01-14 04:24:19.669461631,-0.79873925,-0.12063214,2.2466002,12.22620456754668,2.387414702420085,-97.82831573486328,-78.75433349609375,-117.56478881835938,26415189.0,49944.0,-0.195636899346392,-0.9122868930240001,0.22327082878680002,-0.012473266665864437,-0.04435539886369433,0.010846460986448933,26.415189229883254
1638,C,1139059719405591.0,-3.115067867115008,-8.340501,4.5183077,196,1970-01-14 04:24:19.719405591,-0.53029263,-0.23887649,1.7256857,12.206672294303484,1.8210610605060797,-97.8551025390625,-78.66720581054688,-117.5644760131836,26465133.0,49944.0,-0.14272452765039198,-0.9144990626160001,0.2319400933236,-0.008449561554963689,-0.04561849888424208,0.01136752714694091,26.4651331899222
1638,C,1139059769349551.0,-1.0392948671150082,-8.773851,2.3515549,196,1970-01-14 04:24:19.769349551,-0.8807646,-0.5829569,0.8542995,10.674635118736191,1.3584596657873285,-98.0135498046875,-78.62089538574219,-117.44783020019531,26515077.0,49944.0,-0.10374274619919197,-0.9168307981440001,0.17155420884720002,-0.006154780762571811,-0.04573196928289873,0.010076059713809218,26.515077149961144
1638,C,1139059819293511.0,-2.020917867115008,-7.7084317,3.8527195,196,1970-01-14 04:24:19.819293511,-1.0682511,-0.74381185,0.01700162,10.847685414833025,1.3018085634740066,-98.24919128417969,-78.61475372314453,-117.26182556152344,26565021.0,49944.0,-0.07641963239919197,-0.9010467635844003,0.1549331403168,-0.004499014918358844,-0.04539603847148162,0.008153042083323408,26.56502111000009
1638,C,1139059869237471.0,0.3852551328849918,-5.350143,4.049044,196,1970-01-14 04:24:19.869237471,-0.43867987,-0.6138496,-0.48899898,7.906390745215291,0.8990947459552955,-98.43973541259766,-78.63451385498047,-117.08989715576172,26614965.0,49944.0,-0.04084576979919197,-0.8155499274084002,0.19732283812200002,-0.0029283516236980438,-0.04286685256747221,0.008796536293573715,26.614965070039034
1638,C,1139059919181431.0,-3.993739867115008,-3.6670191,3.608511,196,1970-01-14 04:24:19.919181431,0.4540117,-0.34859872,-1.1760945,9.988261535564725,1.307993105583045,-98.5462646484375,-78.6900634765625,-116.9580078125,26664909.0,49944.0,-0.09011108078319197,-0.7146277719612001,0.19122446346000002,-0.0032702544727432918,-0.03821159750865766,0.009702803215105705,26.66490903007798
1638,C,1139059969125391.0,-0.6370688671150084,-3.343802,2.921375,196,1970-01-14 04:24:19.969125391,1.2550906,-0.256986,-0.83201414,6.8413663656358885,1.52759344969933,-98.57818603515625,-78.72927856445312,-116.86148071289062,26714852.0,49943.0,-0.11563824030682486,-0.66451211909865,0.163061048249,-0.005137869171599355,-0.03443919178960105,0.008847040655641293,26.714852989884093
1638,C,1139060019072451.0,-1.3840602671150082,-3.0325558,4.3507133,196,1970-01-14 04:24:20.019072451,0.81833214,0.1147913,-0.79366463,7.971679365281539,1.1457521890992426,-98.53845977783203,-78.76943969726562,-116.8603744506836,26764800.0,49948.0,-0.050475678998260436,-0.6487335596972,0.1816131332042,-0.0041485290207252,-0.03279699758224756,0.008607893007612217,26.76480005006306
1638,C,1139060069019511.0,-0.9243734671150081,-4.0644565,2.7944822,196,1970-01-14 04:24:20.069019511,0.62658453,0.5408971,-0.9832817,7.381801745706074,1.2853095921133635,-98.40863037109375,-78.82199096679688,-116.96070098876953,26814747.0,49947.0,-0.05764966986179331,-0.66671783667405,0.17844053981924998,-0.002700268399756552,-0.03285142544727741,0.008991800403251128,26.814747110009193
1638,C,1139060118966571.0,-2.729601267115008,-3.2552166,2.8710968,196,1970-01-14 04:24:20.118966571,0.28569993,0.40241268,-0.4229526,8.490533533011725,0.6499610118103604,-98.30912780761719,-78.84589385986328,-117.04767608642578,26864694.0,49947.0,-0.0912525380252933,-0.67227845616285,0.1414893371565,-0.0037186092886681574,-0.03343942391916232,0.007989768782653893,26.864694169955328
1638,C,1139060168913631.0,-1.9275438671150082,-4.1698017,3.740192,196,1970-01-14 04:24:20.168913631,0.13549764,0.32038733,-0.15131016,8.5769176131689,0.37934471946940834,-98.22740173339844,-78.85565185546875,-117.12399291992188,26914641.0,49947.0,-0.1163052140096933,-0.67490929451505,0.1651070208468,-0.005183443520445738,-0.033643993291554534,0.007656784146595412,26.914641229901463
1638,C,1139060218860691.0,-3.069577867115008,-4.806659,4.628441,196,1970-01-14 04:24:20.218860691,-0.11697003,0.43650115,-0.020282635,10.1416626728746,0.4523567476583793,-98.12430572509766,-78.85977935791016,-117.23505401611328,26964588.0,49947.0,-0.12479561962979331,-0.71365424129145,0.20899405622549996,-0.006021131668895719,-0.03467729146146363,0.009342613248265083,26.964588290080428
1638,C,1139060268807751.0,-3.0743664671150084,-5.704485,4.872649,196,1970-01-14 04:24:20.268807751,0.054537542,0.53557074,0.1224628,10.70905730169004,0.5520937406051525,-97.98258209228516,-78.85745239257812,-117.376708984375,27014535.0,49947.0,-0.1534357938308933,-0.751980654684,0.23727547111499997,-0.006948412204060458,-0.036602033074642895,0.011144912041037975,27.014535350026563
1638,C,1139060318754811.0,-4.441455867115008,-5.299865,6.294805,196,1970-01-14 04:24:20.318754811,0.16532505,0.35980213,-0.17048492,12.201503902756167,0.4311090962360291,-97.88977813720703,-78.86839294433594,-117.46288299560547,27064482.0,49947.0,-0.1876963890638933,-0.764297734725,0.278890412469,-0.008519264569522953,-0.03786677835790566,0.012890468693685023,27.064482409972697
1638,C,1139060368701871.0,-6.538775867115008,-3.7196915,5.674707,196,1970-01-14 04:24:20.368701871,0.3975527,0.2074693,0.2449682,13.01501324534959,0.5109805071928086,-97.80924224853516,-78.85769653320312,-117.52473449707031,27114429.0,49947.0,-0.2742148172147933,-0.71473049425275,0.298920607932,-0.011535539510000779,-0.03693651147637584,0.014429963517984373,27.114429469918832
1638,C,1139060418648931.0,-5.640950867115008,-6.6454062,7.1878424,196,1970-01-14 04:24:20.418648931,1.6385858,0.29588625,0.48039165,14.143604430807772,1.7329997790797391,-97.63655853271484,-78.83584594726562,-117.61720275878906,27164376.0,49947.0,-0.3041704055972933,-0.74833336741095,0.32122287744089995,-0.014444303361897644,-0.03653782534925841,0.015487153331960117,27.164376529864967
1638,C,1139060468595991.0,0.9071909328849919,-8.330924,6.23495,196,1970-01-14 04:24:20.468595991,1.196501,-0.05991207,-0.20137759,11.0307607194461,1.214807405676675,-97.59857940673828,-78.84547424316406,-117.59500885009766,27214323.0,49947.0,-0.11821855371749332,-0.8634919822497,0.3352141060014,-0.010548530675447823,-0.04025292036975024,0.016393529005996277,27.214323590043932
1638,C,1139060518543051.0,2.1785121328849915,-5.8696847,2.8519433,196,1970-01-14 04:24:20.518543051,0.8577469,0.01678697,-0.77981615,6.9494348524772125,1.159363952614628,-97.57754516601562,-78.88416290283203,-117.57258605957031,27264270.0,49947.0,0.07706080551300667,-0.8441195013694499,0.22693152982755,-0.0010278530247847472,-0.04264503538616284,0.014038744036374284,27.264270649990067
1638,C,1139060568490111.0,-0.8309992671150086,-0.9280524,4.2453685,196,1970-01-14 04:24:20.568490111,0.8641385,-0.48282206,-1.6927478,6.930338459805781,1.9609302902473953,-97.71415710449219,-78.96488952636719,-117.38948822021484,27314217.0,49947.0,0.03365211255330667,-0.65924388746685,0.17724471623729998,0.002764889059329076,-0.03754424559110333,0.01009369548110053,27.3142177099362
1638,C,1139060618437171.0,2.2168194328849915,-0.80355394,3.9867947,196,1970-01-14 04:24:20.618437171,0.1727819,-0.42636302,-1.7492068,4.697501788738617,1.8086910844468083,-97.87525939941406,-79.04863739013672,-117.21651458740234,27364164.0,49947.0,0.03460877990985667,-0.53272487093199,0.20558592767519995,0.0017047133979288093,-0.029767631787873425,0.009560621085748816,27.364164769882336
1638,C,1139060668384231.0,-4.228371867115009,-0.6000468,6.124817,196,1970-01-14 04:24:20.668384231,2.066822,0.047679637,-0.05969742,10.735130193047649,2.068233620610377,-97.76177978515625,-79.05191040039062,-117.226806640625,27414111.0,49947.0,-0.05023550471624334,-0.5245334230803901,0.25252233478995,-0.0003902540119522976,-0.026403440005518173,0.011440566692673423,27.4141118300613
1638,C,1139060718331291.0,-2.0735901671150083,-2.3071127,6.112846,196,1970-01-14 04:24:20.718331291,-0.38648194,0.16166294,-0.1981818,9.316405378342173,0.46344279255032894,-97.74662780761719,-79.06282806396484,-117.26197814941406,27464058.0,49947.0,-0.15738204886184334,-0.56208254777325,0.3056172769305,-0.005184936974282348,-0.027136603948113378,0.013938699593300657,27.464058890007436
1638,C,1139060768278351.0,-1.0201414671150086,-3.0205848,5.0163016,196,1970-01-14 04:24:20.768278351,-0.24480176,0.26712412,-0.39205992,8.09384710924066,0.5338484598228962,-97.70397186279297,-79.08409118652344,-117.31790161132812,27514005.0,49947.0,-0.07726130696744332,-0.62253185351625,0.2779337675886,-0.00585986584680269,-0.029583967750603325,0.014573312010297743,27.51400594995357
1638,C,1139060818225411.0,-1.9251498671150085,-3.6335003,6.5940804,196,1970-01-14 04:24:20.818225411,0.660673,0.500417,-0.096981674,9.941848969781239,0.83445277392423,-97.54562377929688,-79.09219360351562,-117.4455337524414,27563953.0,49948.0,-0.07355570578106045,-0.6556695212874,0.28995768006800005,-0.0037665040763811336,-0.03192180113434635,0.01418252101377593,27.563953009899706
1638,C,1139060868172471.0,-3.656157367115008,-3.7388453,8.159888,196,1970-01-14 04:24:20.868172471,0.4454896,0.14355344,-0.09272061,12.17346916062748,0.4771432545502092,-97.48950958251953,-79.09769439697266,-117.47992706298828,27613900.0,49947.0,-0.1393847762140433,-0.6735938728416,0.3684582298374,-0.005317869127104723,-0.03319635937328058,0.016442949726022508,27.61390007007867
1638,C,1139060918119531.0,-2.0951378671150085,-4.828207,7.7025957,196,1970-01-14 04:24:20.918119531,-1.844829,0.19788192,0.5613517,11.270935518944444,1.9384702795237219,-97.51190185546875,-79.0711669921875,-117.55106353759766,27663847.0,49947.0,-0.14362997153204332,-0.70342988061405,0.39614173668195,-0.007067868802836893,-0.034389102706924676,0.019094737263870988,27.663847130024806
1638,C,1139060968066591.0,-3.390401267115008,-6.5855513,7.173477,196,1970-01-14 04:24:20.968066591,-1.1129923,0.14142291,0.33764622,12.576106642900713,1.1716472460653191,-97.5198974609375,-79.05538177490234,-117.59967803955078,27713794.0,49947.0,-0.13699311156869332,-0.7745220929050499,0.37150760157345,-0.007008140565816246,-0.03690963361067924,0.01917089074892123,27.71379418997094
1638,C,1139061018013651.0,-3.8141748671150077,-7.11467,5.677101,196,1970-01-14 04:24:21.018013651,-0.5473369,-0.19307013,0.58478755,12.373463257176708,0.8239115461230225,-97.57682037353516,-79.02510833740234,-117.56952667236328,27763741.0,49947.0,-0.17992348208819328,-0.83162307663555,0.320923909683,-0.007914516551690258,-0.04011106639152217,0.017292438346362952,27.763741249917075
1638,C,1139061067957331.0,-3.1773168671150085,-7.3876085,3.989189,196,1970-01-14 04:24:21.067957331,-0.04027099,-0.48814836,0.42712843,11.422544825923962,0.6498840432881351,-97.68883514404297,-79.00072479248047,-117.45748901367188,27813684.0,49943.0,-0.17458803584132485,-0.85158504756275,0.241381760735,-0.008852684369976962,-0.04203223167341785,0.014041616048843089,27.813684929860756
1638,C,1139061117901011.0,-2.557218867115008,-6.518513,3.6300588,196,1970-01-14 04:24:21.117901011,-0.77849925,-1.1592649,-0.34944934,10.316576704345849,1.4394690103816086,-98.03557586669922,-79.01006317138672,-117.14387512207031,27863628.0,49944.0,-0.143202826355192,-0.836714866098,0.19026785606160002,-0.00793587341077142,-0.04216022544393625,0.010779154230644697,27.863628610037267
1638,C,1139061167844691.0,-2.0257061671150085,-3.3605614,5.2078376,196,1970-01-14 04:24:21.167844691,-0.5004652,-0.92171097,-0.4378663,9.049142291364802,1.1365489102124338,-98.3117446899414,-79.02519989013672,-116.88810729980469,27913572.0,49944.0,-0.11444480395479198,-0.7361514459168,0.2206999489008,-0.0064339766241009195,-0.03927761754363359,0.010262688025521055,27.913572289980948
1638,C,1139061217788371.0,-3.239566167115008,-2.7308862,4.9875712,196,1970-01-14 04:24:21.217788371,-0.3332187,-0.277226,-0.11083011,9.658460411556241,0.447406158192198,-98.40325927734375,-79.0286865234375,-116.81181335449219,27963515.0,49943.0,-0.13148174809422486,-0.6415539837434001,0.25459465084919997,-0.006141154894492024,-0.03440337113675969,0.011868819097657125,27.96351596992463
1638,C,1139061267732051.0,-2.044859867115008,-3.2863412,4.891803,196,1970-01-14 04:24:21.267732051,-0.0008562063,0.18722928,-0.17261545,8.857468384014838,0.2546598318487803,-98.36201477050781,-79.03857421875,-116.85388946533203,28013459.0,49944.0,-0.13196268692679197,-0.6397134026328001,0.24670773252240003,-0.006578734431344832,-0.03199580917258647,0.012518523117555594,28.01345964986831
1638,C,1139061317675731.0,-2.3273752671150083,-3.5975873,3.4816182,196,1970-01-14 04:24:21.317675731,-0.29593444,0.16272819,-0.27061978,8.520876948864741,0.4327732916043204,-98.34540557861328,-79.05315399169922,-116.88592529296875,28063403.0,49944.0,-0.10918345577199197,-0.6613566625020001,0.20910107420640003,-0.006021901475474032,-0.03249032166654623,0.011382457521631596,28.06340333004482
1638,C,1139061367619411.0,-3.5412358671150086,-3.6622307,3.8958151,196,1970-01-14 04:24:21.367619411,0.15893346,0.12863973,-0.051175304,9.713030007595698,0.2107769830449637,-98.30644989013672,-79.0566177368164,-116.91748809814453,28113347.0,49944.0,-0.14655095724399197,-0.670743375096,0.1842292643676,-0.006386199761835151,-0.03326520213889726,0.00982224521486993,28.1133470099885
1638,C,1139061417563091.0,-2.2076652671150088,-3.5113962,4.142418,196,1970-01-14 04:24:21.417563091,0.24735041,0.1563366,0.22153239,8.682977813803996,0.367014928369188,-98.24586486816406,-79.04679870605469,-116.96661376953125,28163290.0,49943.0,-0.1435586846734249,-0.66857762413335,0.20072673785665,-0.007244472923140775,-0.03344485433225571,0.009612928809542858,28.163290689932182
1638,C,1139061467506771.0,-2.3776538671150087,-3.6813843,4.664354,196,1970-01-14 04:24:21.467506771,0.16745557,0.47911173,0.49743587,9.140333849482879,0.7106559382079873,-98.09680938720703,-79.02555847167969,-117.10985565185547,28213234.0,49944.0,-0.114504589419992,-0.6690693146460001,0.21992271038400002,-0.006444356080660807,-0.03340371935519793,0.010504458021465511,28.213234369875863
1638,C,1139061517450451.0,-2.396807567115008,-4.813842,5.262904,196,1970-01-14 04:24:21.517450451,0.511536,0.52065706,0.79677516,9.968679454966725,1.0805570364478079,-97.90996551513672,-78.98975372314453,-117.27416229248047,28263178.0,49944.0,-0.11922785093559199,-0.7015939911636,0.24790348677600002,-0.005836766500559643,-0.034228204072677335,0.011682555795479522,28.263178050052375
1638,C,1139061567394131.0,-1.905996167115008,-5.4554877,6.404938,196,1970-01-14 04:24:21.567394131,0.7629384,0.4950907,0.3802568,10.615713000630365,0.9857915790709971,-97.7325668334961,-78.9742660522461,-117.41602325439453,28313121.0,49943.0,-0.10744746344932485,-0.7458819666035501,0.291363516503,-0.005660422613162951,-0.03614564587938239,0.01346630597238155,28.313121729996055
1638,C,1139061617337811.0,-2.4039901671150083,-4.9287634,6.4240923,196,1970-01-14 04:24:21.617337811,0.62019295,0.4620675,-0.38992938,10.684807174980957,0.8661354346596939,-97.59728240966797,-78.9966812133789,-117.52227783203125,28363065.0,49944.0,-0.10762897873839197,-0.7487667184692001,0.3203665446516,-0.0053708889143116645,-0.037324366963636724,0.015276123087152673,28.363065409939736
1638,C,1139061667281491.0,0.21047843288499202,-3.8872857,5.1240406,196,1970-01-14 04:24:21.667281491,0.91101015,0.6048129,-1.0024564,7.7686239620339546,1.483461145871503,-97.43091583251953,-79.05029296875,-117.645263671875,28413009.0,49944.0,-0.05477637502719197,-0.7096055781252001,0.2883799747788,-0.004055586494234163,-0.03641847299055536,0.01520161808321595,28.413009089883417
1638,C,1139061717225171.0,-2.3154042671150084,-1.4595652,5.6196404,196,1970-01-14 04:24:21.717225171,1.6119541,0.4918949,-1.8291019,9.004820724794435,2.4871611073142064,-97.2844467163086,-79.14412689208984,-117.71229553222656,28462952.0,49943.0,-0.052563155469474855,-0.62296028724935,0.2682858300915,-0.002680429085797516,-0.033276168507200575,0.013900780146318695,28.46295277005993
1638,C,1139061767168851.0,-0.8884604671150083,-0.06135142,7.5948567,196,1970-01-14 04:24:21.767168851,1.2859832,0.03915752,-1.7747734,9.351710713926648,2.1920553650403884,-97.26889038085938,-79.2324447631836,-117.6628189086914,28512896.0,49944.0,-0.08000691014319197,-0.5274315298346401,0.3299924215812,-0.003310539678479516,-0.028727584456221405,0.014940204500770665,28.51289645000361
1638,C,1139061817112531.0,0.4091971328849917,0.54917,7.195025,196,1970-01-14 04:24:21.817112531,0.4966223,0.06578913,-1.9153883,8.328415466795951,1.9798167234015216,-97.29094696044922,-79.32787322998047,-117.61512756347656,28562840.0,49944.0,-0.011968163982391974,-0.47726939442023997,0.3693329258124,-0.0022968015510640826,-0.025089391480492867,0.017463552575112982,28.56284012994729
1638,C,1139061867056211.0,-1.2140716671150082,-0.7341221,9.08405,196,1970-01-14 04:24:21.867056211,1.349899,-0.039672047,-1.8024703,10.79291105822397,2.2522656068715032,-97.29492950439453,-79.41703796386719,-117.54239654541016,28612783.0,49943.0,-0.020098924431524858,-0.49405993136515003,0.4065129213625,-0.0008007632983281242,-0.024255550258849866,0.019374034572728016,28.61278380989097
1638,C,1139061916999891.0,-4.2834388671150085,-1.9192519,7.20939,196,1970-01-14 04:24:21.916999891,0.43377167,-0.2750955,-1.0567852,11.575844835776723,1.1750022786164624,-97.38261413574219,-79.46760559082031,-117.43103790283203,28662727.0,49944.0,-0.13728383306079198,-0.555711255528,0.40687978368000005,-0.003930162220098136,-0.026214886079095744,0.02031204263032131,28.662727490067482
1638,C,1139061966943571.0,-0.6586168671150086,-2.2616227,7.053767,196,1970-01-14 04:24:21.966943571,-0.05731522,-0.23461543,-0.85438496,9.065549184825665,0.8878643445436555,-97.47789764404297,-79.50845336914062,-117.33699035644531,28712671.0,49944.0,-0.123413015795192,-0.5938560005112,0.356179556604,-0.006510121709631633,-0.028706993517810905,0.01905511784557205,28.712671170011163
1638,C,1139062016887251.0,-2.0017641671150086,-1.5792753,6.658724,196,1970-01-14 04:24:22.016887251,0.60527927,0.002938532,-0.9971304,9.48628508400945,1.1664650291655587,-97.48200225830078,-79.55792999267578,-117.3021011352539,28762614.0,49943.0,-0.06643370499627488,-0.585354384407,0.3424214690065,-0.004740757388244115,-0.029446652126984833,0.0174451155110326,28.762614849954844
1638,C,1139062066831271.0,-2.1765408671150084,-0.7413047,7.3889556,196,1970-01-14 04:24:22.066831271,0.21752301,0.09135548,-0.82029647,10.031449847400049,0.853550456797928,-97.47552490234375,-79.59918212890625,-117.2976303100586,28812558.0,49944.0,-0.10434063331479199,-0.54740072376,0.35079865497120005,-0.004264576776303962,-0.02828716056114633,0.017311092935971127,28.812558870064095
1638,C,1139062116775291.0,-0.5867908671150079,-0.7221511,8.17186,196,1970-01-14 04:24:22.116775291,0.1844998,0.32464838,-0.6413321,9.688591883277994,0.742121020674576,-97.40115356445312,-79.63311767578125,-117.36393737792969,28862502.0,49944.0,-0.06900592006719197,-0.5259966182376,0.38858468716320005,-0.004328810131054904,-0.02680487842436407,0.01846388081978024,28.862502889940515
1638,C,1139062166719311.0,-0.19174756711500862,-0.89213943,7.7504797,196,1970-01-14 04:24:22.166719311,0.09821338,0.4556759,-0.23972738,9.138790202150638,0.5241713561169656,-97.28096008300781,-79.64788818359375,-117.48106384277344,28912446.0,49944.0,-0.019441661779591973,-0.52976326311516,0.39761266698840003,-0.0022087130138778886,-0.026364435757141123,0.019632920327873758,28.912446910049766
1638,C,1139062216663331.0,-1.7503728671150087,-1.3111247,7.4105034,196,1970-01-14 04:24:22.216663331,-0.24267124,0.27245042,0.048959285,9.82607347745592,0.3681243997197486,-97.21743774414062,-79.64718627929688,-117.55801391601562,28962390.0,49944.0,-0.04849863148359199,-0.54447111185436,0.3786000699732,-0.0016966050033682299,-0.026825780811738854,0.01938358446740508,28.962390929926187
1638,C,1139062266607351.0,-3.5412358671150086,-1.208174,7.1303816,196,1970-01-14 04:24:22.266607351,-1.1374934,-0.3560556,0.15868153,10.86534256758334,1.2024336377938125,-97.36543273925781,-79.6370849609375,-117.46542358398438,29012334.0,49944.0,-0.132142053311192,-0.5523631271364,0.36311498022,-0.004510959180695346,-0.027390144616077257,0.01852210823342459,29.012334950035438
1638,C,1139062316551371.0,-4.8317108671150075,-0.65271926,6.306776,196,1970-01-14 04:24:22.316551371,-1.9385722,-0.6042622,0.0723951,11.337945227690946,2.0318553175523326,-97.62350463867188,-79.62953186035156,-117.30155181884766,29062278.0,49944.0,-0.20908922584719197,-0.53592142648872,0.33555269958719997,-0.008521227503143165,-0.0271766418731265,0.0174471293001454,29.06227896991186
1638,C,1139062366495391.0,-6.933819867115008,-3.0971992,5.248539,196,1970-01-14 04:24:22.366495391,-0.029618345,-1.674853,-0.2152263,13.016261545079587,1.6888848919275785,-98.08631134033203,-79.62875366210938,-116.83255004882812,29112222.0,49944.0,-0.29380883349519193,-0.5830941637831201,0.28855932618,-0.012558370337898013,-0.02794405732026839,0.015585325507458517,29.11222299002111
1638,C,1139062416439411.0,-4.649751867115008,-2.3909097,1.9277812,196,1970-01-14 04:24:22.416439411,2.5089068,-4.317774,0.7584254,9.715598115582567,5.051038975649208,-99.09247589111328,-79.55902099609375,-115.68209838867188,29162167.0,49945.0,-0.2892707451330591,-0.6265127995052501,0.17921065619450002,-0.014560954777294,-0.030206909890718826,0.011681385884847203,29.16216700989753
1638,C,1139062466383431.0,-2.178934867115008,-0.69102645,1.9110218,196,1970-01-14 04:24:22.466383431,-1.7383025,-3.3100338,0.84684235,7.04596389441472,3.8334268356657355,-96.99302673339844,-78.18621826171875,-117.79922485351562,29212111.0,49944.0,-0.17052596512719198,-0.5664133095378001,0.09586258851600002,-0.011482043448618992,-0.029789750795023048,0.006869129066910607,29.21211103000678
1638,C,1139062516327451.0,-4.326533867115008,0.46776715,3.1967082,196,1970-01-14 04:24:22.516327451,-4.1106462,-2.9819324,0.11820147,9.462760248900231,5.079695326223253,-94.97784423828125,-76.9178466796875,-119.93811798095703,29262055.0,49944.0,-0.16245456523119198,-0.4950264312396001,0.12755023356,-0.008315189804109564,-0.026506273206693243,0.005579064992881873,29.2620550498832
1638,C,1139062566271471.0,-7.776578867115009,1.3368623,2.124106,196,1970-01-14 04:24:22.566271471,-5.093886,-2.786989,-0.03200081,12.59676244875731,5.806548571996765,-94.3067855834961,-75.59891510009766,-120.80669403076172,29311999.0,49944.0,-0.302238931199192,-0.44438599337460005,0.1328713722024,-0.011604325992859548,-0.023459007067465808,0.006503248339098654,29.311999069992453
1638,C,1139062616215491.0,-8.25062986711501,0.9370307,1.9708769,196,1970-01-14 04:24:22.616215491,0.2984831,-3.7180302,-0.0043039345,13.002694688764791,3.729994537924932,-93.76338958740234,-74.26222229003906,-121.27082061767578,29361943.0,49944.0,-0.4002314565111921,-0.43266754400400004,0.1022599129788,-0.01754209052190371,-0.021901780935418405,0.005871698453544926,29.361943089868873
1638,C,1139062666159511.0,-4.570742867115009,2.2203228,-0.03546411,196,1970-01-14 04:24:22.666159511,2.3906624,-4.446671,0.108614095,9.404301091493133,5.04974719314219,-94.08094787597656,-72.99642944335938,-120.79100036621094,29411887.0,49944.0,-0.320175319919192,-0.41060576839800006,0.04833112819188,-0.01798999802101955,-0.021058221157302746,0.0037605594801142215,29.411887109978124
1638,C,1139062716103531.0,-3.0767608671150084,4.444536,-0.040252518,196,1970-01-14 04:24:22.716103531,2.1499126,-4.3071213,-0.2780769,8.842633834230067,4.821902616485122,-94.37872314453125,-72.02357482910156,-120.34111022949219,29461831.0,49944.0,-0.19097346325119202,-0.3230163460464,-0.0018907956344160002,-0.012764407413330832,-0.018320011441905558,0.001159707984624991,29.461831129854545
1638,C,1139062766047551.0,1.2088605328849917,7.6982565,-1.766472,196,1970-01-14 04:24:22.766047551,1.542712,-3.6668975,-2.1667907,8.582824874266025,4.5300198154154625,-95.6993637084961,-71.95613098144531,-118.95285034179688,29511775.0,49944.0,-0.046645207146391976,-0.18622138569000002,-0.045117524663496,-0.005933813437168468,-0.012716684636921383,-0.0011738917744794585,29.511775149963796
1638,C,1139062815991571.0,3.935856172884992,10.724527,-2.0849009,196,1970-01-14 04:24:22.815991571,0.588235,-2.9371912,-2.6951618,10.943556296693878,4.0295173022040345,-97.04296112060547,-72.40166473388672,-117.59637451171875,29561719.0,49944.0,0.12847386557648804,-0.029397450438000003,-0.09617648405880001,0.002043425258316359,-0.005384433575788417,-0.0035283939858131766,29.561719170073047
1638,C,1139062865935591.0,7.237460232884992,16.626234,-2.930054,196,1970-01-14 04:24:22.865935591,0.0438849,-0.08760894,-2.751621,17.09224641722658,2.7533650935640437,-98.04535675048828,-73.13939666748047,-116.6303939819336,29611663.0,49944.0,0.27902005728488805,0.193552003692,-0.1252334537628,0.010175938241694283,0.004099267503858889,-0.005529048967280996,29.611663189949468
1638,C,1139062915879611.0,2.8680422328849917,14.423569,-1.6036662,196,1970-01-14 04:24:22.915879611,-1.0341628,0.25966725,-1.9633253,14.611628020584245,2.234181284329115,-98.56566619873047,-73.46902465820312,-116.18126678466797,29661607.0,49944.0,0.25235460757520806,0.285924480516,-0.11321606083440001,0.01326948813088632,0.011973486763642177,-0.0059545612785212795,29.66160721005872
1638,C,1139062965823631.0,2.3317410328849917,12.910434,-1.2158055,196,1970-01-14 04:24:22.965823631,-1.9012879,-0.1398069,-3.0967665,13.15890083793431,3.6365374195099753,-99.10302734375,-73.7707748413086,-115.74829864501953,29711551.0,49944.0,0.12984898771280803,0.19313352291599994,-0.0704078472924,0.009544388181532337,0.011963036461703902,-0.004585456233742451,29.71155122993514
1638,C,1139063015767651.0,2.5113061328849917,10.865786,-1.079336,196,1970-01-14 04:24:23.015767651,-1.6786476,-0.31770605,-2.97,11.111198114564063,3.4263238170366157,-99.67146301269531,-74.03323364257812,-115.27174377441406,29761495.0,49944.0,0.12094057382360802,0.10428856583999997,-0.057314273538000005,0.006262716930687383,0.00742722440041483,-0.0031894768013767494,29.76149525004439
1638,C,1139063065711671.0,4.091479252884992,10.698191,-1.8406922,196,1970-01-14 04:24:23.065711671,-1.1651902,-0.12702373,-1.946281,10.865825062964872,2.2719623590896383,-100.66255187988281,-74.41527557373047,-114.36780548095703,29811439.0,49944.0,0.16488475665344804,0.049044433643999956,-0.0729189442104,0.007137630152673044,0.0038290316631144463,-0.0032521839136130455,29.81143926992081
1638,C,1139063115656451.0,4.010076432884992,10.580875,-1.5821184,196,1970-01-14 04:24:23.115656451,-1.2131271,0.49615595,-0.44212762,10.71302366585707,1.3832298868379314,-101.3857650756836,-74.71237182617188,-113.73457336425781,29861384.0,49945.0,0.20231609936289094,0.041930475684999975,-0.0854761377085,0.009169923376868026,0.002271870923218451,-0.00395552118321973,29.861384049989283
1638,C,1139063165601231.0,2.7243900328849917,8.952818,-0.6028899,196,1970-01-14 04:24:23.165601231,-1.5625339,0.34595367,-0.4123002,9.160455539600049,1.6526305047879635,-101.55226135253906,-74.81455993652344,-113.65267944335938,29911328.0,49944.0,0.16817309658320803,-0.001655818404000003,-0.0545640272676,0.009251856201165984,0.0010057387416211314,-0.0034970829997831693,29.911328830057755
1638,C,1139063215546011.0,2.8081871328849917,7.947253,-0.21024084,196,1970-01-14 04:24:23.215546011,-1.8778521,-0.19413538,-1.2378801,8.142398728356032,2.257512834341848,-101.62879180908203,-74.93964385986328,-113.66360473632812,29961273.0,49945.0,0.1381622832721909,-0.06742397695250003,-0.02030590740465,0.00764996027343895,-0.0017250951895401974,-0.0018696894436027634,29.961273609893396
1638,C,1139063265490791.0,3.7538968328849918,7.7317753,-0.34671032,196,1970-01-14 04:24:23.265490791,-2.0291197,0.09135548,-1.1089832,7.782204874543145,2.314198850258197,-101.88314819335938,-75.21048736572266,-113.51408386230469,30011218.0,49945.0,0.16387164183519093,-0.09791646577825006,-0.013908462843100001,0.0075425421947440925,-0.0041289642060936575,-0.0008544183610119369,30.01121838996187
1638,C,1139063315435571.0,4.2494965928849915,9.14196,-0.11207857,196,1970-01-14 04:24:23.315435571,-2.5479035,0.34062734,-0.9278882,9.14818018251028,2.7329134164416855,-102.01226043701172,-75.57418823242188,-113.5141830444336,30061163.0,49945.0,0.19986474232504092,-0.06808164522075007,-0.011457105555525001,0.009083406853441391,-0.004145387826922531,-0.0006334416568346629,30.06116317003034
1638,C,1139063365380351.0,5.432232232884992,10.410887,-1.5102924,196,1970-01-14 04:24:23.365380351,-3.8485913,0.5185265,-0.37927702,10.55533490555482,3.901842613886165,-103.05255126953125,-76.01814270019531,-112.69741821289062,30111107.0,49944.0,0.24177213223712804,-0.0011775047160000388,-0.04051384786284,0.011028556031566484,-0.0017295394922205237,-0.001297818648763411,30.111107949865982
1638,C,1139063415325131.0,3.2391435328849916,11.58644,0.13931261,196,1970-01-14 04:24:23.415325131,-3.947661,0.5771161,0.4494987,11.66318420910035,4.014864810314527,-102.89189910888672,-76.19599151611328,-113.05294799804688,30161052.0,49945.0,0.21654593131069094,0.05986724850749998,-0.034236792805775004,0.01144534784194791,0.0014656296268332322,-0.0018667103740969884,30.161052729934454
1638,C,1139063465269911.0,1.5248951328849918,11.907263,-0.41135377,196,1970-01-14 04:24:23.465269911,-1.9438986,0.09348601,-0.45597604,12.296761200154421,1.9988485560946738,-102.8554916381836,-76.20425415039062,-113.1824951171875,30210997.0,49945.0,0.11896995558094092,0.09723549816749998,-0.0067935478681,0.008378670485401278,0.003923248341341437,-0.0010246301824783435,30.210997510002926
1638,C,1139063515214691.0,1.8696601328849916,13.164219,-1.5725416,196,1970-01-14 04:24:23.515214691,0.6351067,0.37045476,-1.285817,13.529544319778385,1.48118959187558,-103.22515106201172,-76.29669189453125,-112.79349517822266,30260942.0,49945.0,0.08477053137444092,0.13663658424499997,-0.04954282712732501,0.005087909310493273,0.005840370578046155,-0.001406860124573251,30.260942290071398
1638,C,1139063565159471.0,1.9750051328849918,13.590386,-2.0154688,196,1970-01-14 04:24:23.565159471,2.0114284,0.4109348,-1.2772949,13.98150169911696,2.417890377941814,-103.69816589355469,-76.39576721191406,-112.2374267578125,30310887.0,49945.0,0.09601090334944092,0.17866837336250002,-0.08960158971400001,0.00451456437864214,0.007873953053853295,-0.003474783949569989,30.31088706990704
1638,C,1139063615104251.0,3.229566732884992,7.456442,-0.18390462,196,1970-01-14 04:24:23.615104251,1.5906489,-0.24526808,-0.09698194,7.577780094892547,1.6123665373680574,-103.56094360351562,-76.48221588134766,-112.29039001464844,30360831.0,49944.0,0.12996856863200804,0.036130188816000004,-0.05492275304423999,0.005643159374320744,0.005363949694721502,-0.0036090618873587696,30.36083184997551
1638,C,1139063665049031.0,2.9183204328849914,6.8914104,-0.5645827,196,1970-01-14 04:24:23.665049031,0.3964874,-0.80879295,0.6977053,7.108480865727918,1.1393598992313854,-103.80927276611328,-76.4232406616211,-112.02247619628906,30410776.0,49945.0,0.15352811224719093,-0.13115925594100006,-0.0186915995987,0.007079620863255798,-0.002373113378779064,-0.0018383344213758188,30.410776630043983
