Subject-id_accel,Activity_accel,Timestamp_accel,accel_x,accel_y,accel_z,Segment_accel,DateTime,gyro_x,gyro_y,gyro_z,accel_magnitude,gyro_magnitude,Roll,Pitch,Yaw,Time_Difference,Difference_Microseconds,vx,vy,vz,dx,dy,dz,Time_diff
1619,B,173723465209264.0,5.325251912576369,13.888470128840877,-4.3760023,95,1970-01-03 00:15:23.465209264,1.9803267,-0.15126756,1.4168017,4.803084510198021,2.4396521822924133,-110.61336517333984,19.113235473632812,-14.761613845825195,15004827.0,40416.0,0.1324558269422065,0.22543894771123288,-0.09769541292143999,0.004294339150940512,0.008373752805735641,-0.002067145442498649,15.004827338008909
1619,B,173723504843117.0,-4.008543647423632,5.460880528840876,6.5840545,95,1970-01-03 00:15:23.504843117,2.1049626,-3.2256207,2.25623,15.737695011500104,4.463862706285584,-109.51982879638672,19.90218162536621,-14.325782775878906,15044461.0,39634.0,0.0260932076905318,-0.004967118016720714,0.043756970447400005,0.003141966219316975,0.004369090249056148,-0.0010688981145080504,15.04446119099157
1619,B,173723545067805.0,18.25334335257637,-3.821439471159122,1.614889,95,1970-01-03 00:15:23.545067805,2.2732744,1.0695255,0.9800433,23.25131042327862,2.696691707021865,-108.90436553955078,18.83637237548828,-14.223129272460938,15084685.0,40224.0,0.28649141167003184,-0.3612227614479046,0.16489715167200003,0.006286701864579657,-0.007364810855792546,0.004196451704065374,15.084685879002791
1619,B,173723584599420.0,3.4104891525763685,-0.3037594711591236,-0.5267244,95,1970-01-03 00:15:23.584599420,4.3739758,2.525742,0.43782368,16.291047523217657,5.069785648754628,-108.29115295410156,18.58372688293457,-14.21682071685791,15124217.0,39532.0,0.42820731329684897,-0.46895228229386243,0.0215086614836,0.014126734997695366,-0.016409239914599767,0.00368449730283359,15.124217494012555
1619,B,173723625882128.0,-6.470381647423632,-2.550716471159122,12.852674,95,1970-01-03 00:15:23.625882128,0.5134575,-0.7584683,-0.6327671,25.572240684476085,1.1132416490832302,-107.18600463867188,18.978351593017578,-13.825645446777344,15165500.0,41283.0,-0.06316077093238978,-0.4634940651633621,0.25442608866840005,0.007535108204215985,-0.0192470912810383,0.005695707145262509,15.165500202012481
1619,B,173723664058066.0,0.5428340525763691,8.678687028840876,4.8937483,95,1970-01-03 00:15:23.664058066,-0.14807177,-1.1110709,0.13635385,10.145460471821004,1.129157281474802,-106.16081237792969,19.46367835998535,-13.437434196472168,15203676.0,38176.0,-0.11314502849044455,-0.2571540979949707,0.3387437088624,-0.003365325099383062,-0.013755732138366257,0.011322425095267914,15.203676139994059
1619,B,173723705097806.0,5.133117252576369,12.160455128840876,1.1174936,95,1970-01-03 00:15:23.705097806,0.25353295,-0.93636745,0.41758367,3.8703587275689224,1.0561434938519831,-105.31682586669922,19.360136032104492,-13.12423038482666,15244715.0,41039.0,0.11646768280608161,0.0254265775045507,0.12334767816705,6.81792052297145e-05,-0.004754932856703173,0.0094818842161508,15.244715879991418
1619,B,173723744334992.0,6.627099052576368,20.848414528840877,-3.2549171,95,1970-01-03 00:15:23.744334992,-0.015978966,-2.0548952,-0.5091964,6.060991533360833,2.1171042922138787,-108.2944107055664,19.732648849487305,-14.02054500579834,15283953.0,39238.0,0.23072368369079158,0.2630686138140583,-0.0419341116465,0.006811547419302156,0.005659987158479791,0.0015972527615666706,15.283953066013055
1619,B,173723783755097.0,7.617700052576369,20.995657828840876,-9.372103,95,1970-01-03 00:15:23.783755097,-0.15020229,-0.28655612,0.52837116,10.861326781215817,0.6195572778609287,-111.32537078857422,19.474395751953125,-15.030139923095703,15323373.0,39420.0,0.2807649903625604,0.43843066616990733,-0.24887856617099996,0.010081441765591566,0.013826550808483962,-0.005731917879782924,15.323373171006097
1619,B,173723824594524.0,7.8421564525763685,18.235741828840876,-3.9079356,95,1970-01-03 00:15:23.824594524,-2.1198764,4.0799627,1.1249193,5.013164868342858,4.733435857406409,-114.3558578491211,18.483558654785156,-16.17906379699707,15364212.0,40839.0,0.3156825399069663,0.4008633653100325,-0.2711717481927,0.0121791603443386,0.017137964475804634,-0.010619167394149571,15.364212598011363
1619,B,173723863746347.0,10.45602635257637,9.064752528840877,7.771579,95,1970-01-03 00:15:23.863746347,0.008522116,0.7233146,-0.06391586,11.25514045189708,0.7261830858632119,-113.04877471923828,17.79022979736328,-15.802295684814453,15403364.0,39152.0,0.35820522659367,0.15074487754597796,0.0756346831984,0.013192026917016457,0.010798282962149262,-0.003827833584328417,15.403364421013976
1619,B,173723903947024.0,-1.4958286474236315,-3.821439471159122,-6.6056023,95,1970-01-03 00:15:23.903947024,1.7353158,1.6138756,-0.10972224,21.967675759746758,2.372330994603329,-112.87553405761719,17.799928665161133,-15.844518661499023,15443565.0,40201.0,0.18010445397242258,-0.2885765858840679,0.023436714658349997,0.010820293734218743,-0.0027704862534497776,0.0019913846326196035,15.443565098015824
1619,B,173723944944939.0,-2.576810647423632,11.664855528840878,-2.9658175,95,1970-01-03 00:15:23.944944939,-0.737163,0.3355583,-2.8272119,9.858287405949133,2.9409413099838457,-113.07243347167969,18.611658096313477,-15.857168197631836,15484563.0,40998.0,-0.08348503290507406,-0.24099821423358173,-0.19620453448020003,0.0019806015124595776,-0.0108557538276117,-0.0035415675385281034,15.48456301301485
1619,B,173723983531451.0,-0.2358801474236314,2.4184485288408766,5.1146135,95,1970-01-03 00:15:23.983531451,-3.649596,0.43995422,-1.4892397,15.565849838137925,3.966225606665347,-112.28533172607422,18.762516021728516,-15.538257598876953,15523149.0,38586.0,-0.05426524350498826,-0.10643361481514595,0.041456721228,-0.0026576160827793327,-0.006703002277837103,-0.002985549561074695,15.523149524990004
1619,B,173724024812180.0,-3.2178576474236307,-3.5077994711591227,2.4229321,95,1970-01-03 00:15:24.024812180,-3.283145,-1.0077401,-1.8407769,21.4696597712244,3.8965421588565703,-111.74749755859375,18.905733108520508,-15.234635353088379,15564430.0,41281.0,-0.07128687495454492,-0.4270385481249198,0.15557870995679998,-0.0025914585010639946,-0.011011132179164426,0.004066909817369864,15.56443025401677
1619,B,173724064711242.0,3.1309659525763687,2.7919435288408767,7.162853,95,1970-01-03 00:15:24.064711242,-3.6261601,0.95234644,-0.29507825,15.093360251692635,3.760727587347393,-110.7919692993164,18.828054428100586,-14.903562545776367,15604329.0,39899.0,-0.0017334458663554532,-0.40529116812127786,0.19123161985245,-0.001456718890216552,-0.016604561674253518,0.0069186926745296315,15.604329316003714
1619,B,173724104401555.0,1.6501523525763684,12.040146528840877,4.570531,95,1970-01-03 00:15:24.104401555,-0.8767126,-0.36432046,-0.6412892,7.264758114582894,1.1456902804030467,-109.65399932861328,19.46832275390625,-14.489236831665039,15644019.0,39690.0,0.09488129276575608,-0.09461917280530563,0.23284900548000004,0.0018485190217186053,-0.00992072071568805,0.008415880009722472,15.644019628991373
1619,B,173724144522335.0,10.685869352576368,8.834908928840877,-0.0700304,95,1970-01-03 00:15:24.144522335,-2.4192157,-1.2175972,-1.655421,8.461179579462353,3.1742032436211973,-109.34016418457031,18.270748138427734,-14.267115592956543,15684140.0,40121.0,0.24746676341621646,0.025578250008824785,0.09028229228629998,0.006867673181038459,-0.0013849954317588038,0.006482175398840861,15.684140408993699
1619,B,173724183753431.0,0.694865952576369,14.983817468840877,-1.335366,95,1970-01-03 00:15:24.183753431,0.8681905,-1.7726,-0.8831042,5.405890146268912,2.1623456089043422,-109.54176330566406,19.460596084594727,-14.252617835998535,15723371.0,39231.0,0.22323881337822352,0.08275242765372642,-0.027567553084200003,0.009233125241611339,0.0021249604076897734,0.0012301809668187923,15.723371505009709
1619,B,173724224329575.0,4.963727452576369,15.885832943840876,-0.55605334,95,1970-01-03 00:15:24.224329575,1.8024274,-1.3017532,1.293231,1.0678574084405172,2.5721104846685727,-110.23286437988281,20.645296096801758,-14.482186317443848,15763947.0,40576.0,0.11480154300373875,0.2286386675724874,-0.038373115569920006,0.006858162750277251,0.006317502539949426,-0.0013378042856547869,15.76394764901488
1619,B,173724262756243.0,5.8980646715763685,14.531911928840877,-3.679888,95,1970-01-03 00:15:24.262756243,1.7960359,0.37390783,1.3315805,3.8897049053676445,2.266860967815267,-111.34343719482422,20.368913650512695,-14.940884590148926,15802374.0,38427.0,0.20869304297740862,0.20784674111127088,-0.08138725893609,0.006215463227748776,0.00838641239974539,-0.0023010159555712237,15.802374316990608
1619,B,173724302887909.0,-5.369048647423631,-3.821439471159122,3.714604,95,1970-01-03 00:15:24.302887909,3.5984633,-5.2240567,2.2487733,22.90868783547447,6.730281411728241,-110.37787628173828,20.85570526123047,-14.473872184753418,15842505.0,40131.0,0.010614971032636747,-0.17837281490038678,0.0006965938979999994,0.004400524955118565,0.0005914090663844949,-0.001619098539321795,15.842505982989678
1619,B,173724342938378.0,12.662283352576369,-3.821439471159122,0.28491,95,1970-01-03 00:15:24.342938378,2.6961844,1.6937705,-0.19707392,20.757904658890887,3.190157826098542,-109.75076293945312,19.929285049438477,-14.374321937561035,15882556.0,40051.0,0.14605067158803614,-0.5455522722593941,0.080092267607,0.0031373078263002853,-0.014496961832918194,0.0016178373460683777,15.88255645200843
1619,B,173724382754628.0,-2.3014771474236317,2.001857528840876,5.301361,95,1970-01-03 00:15:24.382754628,2.9188247,1.7129452,0.033023197,16.88343371818666,3.384495445272933,-108.76193237304688,20.22844123840332,-14.160882949829102,15922372.0,39816.0,0.20626292993218068,-0.4264210373076716,0.111211483068,0.007013859179064477,-0.019350044646861145,0.0038084750684379,15.9223727020144
1619,B,173724422393170.0,-5.00512964742363,-1.8641794711591242,10.865486,95,1970-01-03 00:15:24.422393170,0.588026,-0.96619487,-0.5251754,23.410991791992004,1.247043024219885,-107.6689682006836,20.55999183654785,-13.739316940307617,15962011.0,39639.0,-0.14481329337047533,-0.38573348973577654,0.3204188241165,0.0012179010718347191,-0.01609649664873762,0.008554696873243199,15.962011244002497
1619,B,173724462572909.0,1.9356608525763686,8.400361528840877,3.1160536,95,1970-01-03 00:15:24.462572909,0.21837921,-0.62104917,0.43036684,8.934609860360116,0.7865158408382495,-106.75519561767578,20.834760665893555,-13.398602485656738,16002189.999999998,40178.99999999814,-0.06166409335408121,-0.2624455705521903,0.280882139794187,-0.004148027460602786,-0.013021593231654508,0.012079835714483187,16.002190983010223
1619,B,173724502434889.0,6.770751212576369,13.090602328840877,0.7577648,95,1970-01-03 00:15:24.502434889,0.29933932,-0.69668293,0.41225734,2.946421414449179,0.86309167985523,-105.9516372680664,20.044071197509766,-13.09768009185791,16042052.000000002,39862.000000003725,0.17352749887057542,0.03768880064745853,0.07720907453040722,0.0022295495353494544,-0.004479627180971628,0.007137115992704155,16.042052962991875
1619,B,173724545010668.0,6.981440952576369,21.340423028840878,-4.0043025,95,1970-01-03 00:15:24.545010668,0.025566347,-1.8791265,-0.6103965,6.932178911950027,1.9759438069726134,-108.95812225341797,20.2340030670166,-14.040712356567383,16084627.999999998,42575.999999996275,0.2927566668117459,0.31572286781430153,-0.06911229455759395,0.009926257319044389,0.007523427598213291,0.00017236425206123388,16.084628742013592
1619,B,173724582201920.0,7.638649252576369,20.556920528840877,-9.362526,95,1970-01-03 00:15:24.582201920,-0.36751625,0.76485986,0.05539375,10.65311836095781,0.8503806600530991,-112.01734924316406,19.8817195892334,-15.118583679199219,16121818.999999998,37191.0,0.27186788740991774,0.41463025212687105,-0.24856285937175002,0.010499475898028948,0.013581281441866076,-0.005907328324893117,16.12181999400491
1619,B,173724622106763.0,6.2314572525763685,19.013258928840877,-1.9608512,95,1970-01-03 00:15:24.622106763,-2.2935145,4.120443,0.96299905,3.7884842068239917,4.813068298732125,-115.2309799194336,20.215612411499023,-16.37812614440918,16161724.0,39905.00000000186,0.2767433000440729,0.39845500562941377,-0.22592968358301058,0.010946164717676258,0.01622308360538303,-0.009467312463305302,16.16172483700211
1619,B,173724662137492.0,6.639070152576369,7.235582528840876,5.793968,95,1970-01-03 00:15:24.662137492,1.663943,1.562743,0.70840085,10.36197907184788,2.3901263053610204,-113.87279510498047,19.858932495117188,-16.021989822387695,16201754.999999998,40030.99999999814,0.2576100412778226,0.1330798861962229,0.07672174931039642,0.010695349303227901,0.010638936627335534,-0.0029864714084333692,16.20175556599861
1619,B,173724703215200.0,-5.144591647423632,-3.821439471159122,-4.4753613,95,1970-01-03 00:15:24.703215200,0.17789917,2.0112193,-0.87564737,22.935634509659128,2.200774750847323,-113.63526153564453,20.006267547607422,-16.01386070251465,16242833.000000002,41078.000000003725,0.030695094017334838,-0.3324413157383046,0.02708286301130244,0.005921499173827775,-0.004094684401365187,0.002132042932475566,16.242833274009172
1619,B,173724742713378.0,-2.6055406474236316,6.782479528840877,2.5210943,95,1970-01-03 00:15:24.742713378,-2.0421119,-0.5773733,-2.3137543,12.62413003029664,3.139592314368697,-112.99314880371094,20.532682418823242,-15.688036918640137,16282331.0,39497.99999999814,-0.1530573626909314,-0.3286028199008275,-0.038594818982998186,-0.0024165324440347446,-0.013054960634736604,-0.00022734961848500858,16.282331452006474
1619,B,173724781728430.0,2.5509705525763686,1.3129255288408768,6.415862,95,1970-01-03 00:15:24.781728430,-2.731338,-0.0127831735,-1.9643476,16.180924814180603,3.3643769368776875,-112.02330780029297,20.37833023071289,-15.264710426330566,16321345.999999998,39014.99999999814,-0.001064526125232931,-0.22442588583726247,0.17433767502224168,-0.0030065327460811818,-0.010788207477185275,0.002648003764185416,16.321346504002577
1619,B,173724821377857.0,-4.067800647423632,-1.6528914711591245,0.25498247,95,1970-01-03 00:15:24.821377857,-3.690076,0.17150758,-1.1249193,20.07871587885379,3.8615436249362696,-111.6865005493164,20.58769416809082,-15.070287704467773,16360994.999999998,39649.0,-0.03007039821529957,-0.3952998548234881,0.13224615619551497,-0.0006172343075888866,-0.01228575294572905,0.006077871161976417,16.360995930997888
1619,B,173724861275669.0,-0.2975306474236312,6.259346528840876,4.8428717,95,1970-01-03 00:15:24.861275669,-2.666357,0.19600865,-0.42077947,12.343711690520841,2.7064616022950156,-110.82368469238281,20.94367790222168,-14.718735694885254,16400893.0,39898.00000000186,-0.08708399400091212,-0.29910622805432074,0.10169709283733475,-0.002337112970321316,-0.013852706947330058,0.004666933874956537,16.400893743004417
1619,B,173724902015513.0,9.376839652576368,11.010041228840876,4.602853,95,1970-01-03 00:15:24.902015513,-2.1017668,-0.9736517,-1.0183928,7.506413887610407,2.5303251193447394,-109.68528747558594,20.090646743774414,-14.222753524780273,16441633.0,40740.0,0.18494552443496126,-0.04747457137602274,0.19240941213899998,0.001993439374941581,-0.007059850884396097,0.005990949506367938,16.441633587004617
1619,B,173724942628950.0,3.9414033525763688,10.397125528840878,2.010531,95,1970-01-03 00:15:24.942628950,-0.94488955,-1.4668691,-1.7235979,6.071814840932651,2.4526130838594216,-108.76458740234375,20.101673126220703,-13.798052787780762,16482247.000000002,40614.00000000186,0.2704535607056491,0.03669813534824503,0.13429798888800618,0.009247789221950799,-0.00021883708641609202,0.006634447192655718,16.482247023988748
1619,B,173724982523689.0,0.8720367525763688,16.281474778840877,0.0023942017,95,1970-01-03 00:15:24.982523689,1.433846,-1.4253238,0.0031957934,5.022417357431977,2.021749860803234,-108.71438598632812,21.508899688720703,-13.74154281616211,16522141.000000002,39894.0,0.09601368977748166,0.14119684033732793,0.0401518189983099,0.007309922245387008,0.003548471080000124,0.003479750317908347,16.52214176300913
1619,B,173725022377491.0,5.926196542576369,15.820590948840877,-0.5674258,95,1970-01-03 00:15:25.022377491,1.7342505,-0.7222493,1.5947009,0.5708730935302105,2.4642118026991002,-110.0966567993164,21.317672729492188,-14.269996643066406,16561995.0,39853.99999999814,0.13546839487250226,0.24912866375550263,-0.011259384659323572,0.004612743500820014,0.0077780163200574706,0.0005757395390729536,16.561995564989047
1619,B,173725060625774.0,5.710119852576368,11.748053928840877,-2.3002293,95,1970-01-03 00:15:25.060625774,2.07407,0.05006743,1.3848438,4.65501433941017,2.4944068358720566,-110.2570571899414,20.9144344329834,-14.38983154296875,16600242.999999998,38247.99999999814,0.2225329147408901,0.15239236464077838,-0.054841036132397325,0.0068464170450461825,0.007678688147050104,-0.001264104447220809,16.600243847991806
1619,B,173725101077493.0,2.401931552576369,-3.821439471159122,-8.191162,95,1970-01-03 00:15:25.101077493,3.613377,-4.8725195,2.3031018,21.536198744736826,6.488622159069866,-110.06814575195312,20.817842483520508,-14.210783958435059,16640695.0,40452.00000000186,0.16407435172062682,-0.23610589597893972,-0.21219888043380977,0.007819518571451,-0.0016931898848457291,-0.005401149352468352,16.64069556700997
1619,B,173725140934368.0,8.364691052576369,-3.821439471159122,-2.2188265,95,1970-01-03 00:15:25.140934368,4.375041,2.1038973,-0.12996227,19.895365302909276,4.8563626092222405,-109.52964782714844,20.116849899291992,-14.190495491027832,16680551.999999998,39856.99999999814,0.2145626385867763,-0.5429097130019638,-0.20745545582224031,0.00754566726134073,-0.01552461256357521,-0.008363081440078303,16.680552442005137
1619,B,173725181027336.0,-4.762117647423632,-0.4192794711591237,10.831967,95,1970-01-03 00:15:25.181027336,1.4221281,0.76485986,0.3206446,22.207786786302908,1.6462903443068568,-108.39767456054688,20.501480102539062,-13.860921859741211,16720645.000000002,40093.000000003725,0.07221898776640104,-0.47792297227722713,0.17266332103326604,0.005748967872689503,-0.0204641224254512,-0.0006974605300472377,16.72064541000873
1619,B,173725221982909.0,-2.4864296474236314,2.9056685288408772,6.1764417,95,1970-01-03 00:15:25.221982909,-0.06711166,-0.9235843,-0.21944448,16.554189001273482,0.9516658099968266,-107.4638442993164,20.86861228942871,-13.48559284210205,16761600.000000002,40955.0,-0.14843212723023483,-0.3504439680713219,0.34828968915425,-0.0015606545633706564,-0.01696288402098741,0.01066781526611486,16.761600983008975
1619,B,173725261217128.0,4.247861152576369,10.918463128840877,2.022502,95,1970-01-03 00:15:25.261217128,0.14594123,-0.7595336,0.43036684,5.520287595433666,0.8851021122528511,-106.50299835205078,20.91748809814453,-13.117709159851074,16800835.0,39234.99999999814,0.03455488255233219,-0.11330809720542284,0.16084277803474237,-0.002233986847468649,-0.009097656140566108,0.009987906175079586,16.800835202011513
1619,B,173725300571660.0,6.680968612576368,17.754507328840877,-1.1246762,95,1970-01-03 00:15:25.300571660,0.0031957934,-1.5712651,-0.007456851,2.4028498847811917,1.5712860440417276,-109.51121520996094,20.568613052368164,-14.112971305847168,16840189.0,39354.0,0.21504658328891044,0.17852883969580383,0.017666518266599998,0.004911408043358131,0.0012833485499832266,0.0035125274233215142,16.840189734008163
1619,B,173725340551920.0,7.998378052576369,23.122307528840878,-5.886145,95,1970-01-03 00:15:25.340551920,0.00958738,-1.9984361,-0.68816084,9.638977526664064,2.113623454011613,-112.52676391601562,20.454483032226562,-15.071050643920898,16880169.0,39980.0,0.2934401398364032,0.42532352900505827,-0.140146315788,0.01016464959527502,0.012071008850330234,-0.002448371152452786,16.88016999399406
1619,B,173725379821347.0,8.394019852576369,18.959987828840877,-6.6971807,95,1970-01-03 00:15:25.379821347,-1.2559468,2.7249465,0.9012137,7.826701356707692,3.1328775790573404,-115.5512924194336,19.585939407348633,-16.218889236450195,16919439.0,39270.0,0.321864732867674,0.4414398693480812,-0.2470736001195,0.012081511175544556,0.017018899326663894,-0.0076030630488437626,16.919439421006246
1619,B,173725419773430.0,8.74477055257637,14.898823268840877,3.855862,95,1970-01-03 00:15:25.419773430,-1.6905746,3.2618399,0.7041398,4.891465863073047,3.740782654651458,-113.13826751708984,18.013526916503906,-15.565688133239746,16959391.0,39952.0,0.3423644771333311,0.28483401048729073,-0.05675818235119999,0.013268642698980078,0.01450804702359139,-0.006069343686634703,16.95939150400227
1619,B,173725459671139.0,8.651396552576369,-3.821439471159122,19.612701,95,1970-01-03 00:15:25.459671139,5.252819,0.81918836,1.8631475,27.87602533837943,5.633337875778155,-111.51077270507812,17.778371810913086,-15.217395782470703,16999289.0,39898.0,0.347036137580692,-0.17001767062004672,0.4681743632870001,0.013752852862930048,0.002290471164011651,0.008207341393488277,16.999289213010343
1619,B,173725499616399.0,-4.316197647423631,-1.7384834711591228,-10.693104,95,1970-01-03 00:15:25.499616399,-0.023435818,1.0279802,-2.896454,22.92214827699605,3.073554668990511,-111.74136352539062,17.844831466674805,-15.282539367675781,17039234.0,39945.0,0.08658476013316306,-0.5025065609654512,0.17814665108250002,0.00866049337958997,-0.013431990215341357,0.01290864645949484,17.039234472991666
1619,B,173725539341972.0,-3.5907556474236317,4.065060528840876,4.032434,95,1970-01-03 00:15:25.539341972,-4.140683,-0.27483824,-2.0708742,15.5978945342224,4.637813247305344,-111.14948272705078,18.314849853515625,-14.986748695373535,17078960.0,39726.0,-0.15705581329555118,-0.34310199990326734,-0.13230088821,-0.0013997665289645152,-0.016796322844535354,0.000910634387936468,17.07896004599752
1619,B,173725579157545.0,0.354889352576369,-1.8366474711591234,6.757634,95,1970-01-03 00:15:25.579157545,-3.2405345,-0.27803403,-1.3997575,19.66855913014942,3.540859758072118,-110.32747650146484,18.313121795654297,-14.641256332397461,17118775.0,39815.0,-0.0644180082646719,-0.34582486705420057,0.21480327871000005,-0.004408990102710141,-0.013714811603955795,0.001642416338878751,17.118775618990185
1619,B,173725619570410.0,0.3070053525763683,1.0573445288408774,1.0773908,95,1970-01-03 00:15:25.619570410,-4.305799,1.3997575,0.09374327,15.786689147596991,4.52857746846375,-109.97911071777344,18.388870239257812,-14.527779579162598,17159188.0,40413.0,0.013374575359668786,-0.41179438490395365,0.1583184286212,-0.0010314091269949452,-0.015308833414692441,0.0075394837791878935,17.15918848401634
1619,B,173725659013795.0,2.1242041525763686,8.787623528840877,6.3111157,95,1970-01-03 00:15:25.659013795,-1.861017,-0.24607609,-0.58483016,10.145170517069456,1.9662054908895745,-108.8244400024414,18.666393280029297,-14.111048698425293,17198631.0,39443.0,0.0479470982558697,-0.1923838624504293,0.14571243093975,0.0012093553862088423,-0.011915301305199463,0.005995944596831275,17.19863186898874
1619,B,173725698929368.0,12.288189352576369,8.861245128840878,-1.353921,95,1970-01-03 00:15:25.698929368,-2.4138892,-1.2186625,-2.0463731,9.54216254849613,3.3911122398390914,-108.76519012451172,17.34034538269043,-13.96818733215332,17238547.0,39916.0,0.28764254957583835,-0.03894067932998757,0.09893569182260001,0.006697698191425229,-0.0046167752048535595,0.004882687234090982,17.23854744201526
1619,B,173725738807076.0,1.1300118525763683,12.094614528840877,0.9624691,95,1970-01-03 00:15:25.738807076,0.4165184,-1.087635,-1.3369069,6.0883905823173885,1.7730644461020502,-108.20089721679688,18.134267807006836,-13.732799530029297,17278425.0,39878.0,0.2675455138295404,0.027034485714516474,-0.007805159434099999,0.011069894796239845,-0.0002373975944988782,0.0018170516852943016,17.27842514999793
1619,B,173725779125462.0,0.05681135257636871,16.143209628840875,0.7835025,95,1970-01-03 00:15:25.779125462,2.0240026,-1.3464943,0.8032094,5.876790160961769,2.5602302171850897,-107.91748046875,19.583641052246094,-13.623821258544922,17318743.0,40318.0,0.023925168992674023,0.17412989719470645,0.0351970414844,0.005875757495013021,0.004055272795067025,0.0005521929502519977,17.318743536015972
1619,B,173725818763430.0,6.632486022576368,15.135849228840877,-3.9815574,95,1970-01-03 00:15:25.818763430,1.917476,-0.19813919,1.5947009,4.106546611735615,2.501808208006894,-109.15167236328125,19.19133186340332,-14.07989501953125,17358381.0,39638.0,0.1325751846781521,0.2314672675003946,-0.0633822500631,0.003101680509402103,0.008038530207092208,-0.0005586026488212554,17.35838150398922
1619,B,173725858908899.0,-2.7288426474236305,1.5385785288408762,11.37186,95,1970-01-03 00:15:25.858908899,2.7462518,-3.995807,1.6319852,20.159972242614817,5.115833091811272,-107.79352569580078,19.677413940429688,-13.520159721374512,17398526.0,40145.0,0.07835588164775334,-0.058723548833933034,0.1483418489385,0.004233913828826737,0.0034673982929325493,0.0017053515484264665,17.398526973003754
1619,B,173725899037076.0,14.331041352576367,-3.821439471159122,-1.0588357,95,1970-01-03 00:15:25.899037076,2.275405,-0.39095205,1.1206582,21.3865120903268,2.56635660434232,-107.32689666748047,18.774267196655273,-13.403403282165527,17438655.0,40129.0,0.23279231591953709,-0.4390686633771444,0.20692567606735,0.006243033010088898,-0.009987951841909162,0.007128265255479878,17.438655150006525
1619,B,173725938524055.0,2.1026563525763686,-2.4920594711591217,-0.44711718,95,1970-01-03 00:15:25.938524055,4.4517403,2.0953753,0.664725,18.673471191898845,4.964921819336048,-106.73538970947266,18.61418342590332,-13.389513969421387,17478142.0,39487.0,0.324458710641683,-0.5116231663676603,-0.02973278068628,0.011002085642911448,-0.01876998414056655,0.0034984079299561557,17.478142128995387
1619,B,173725978985983.0,-1.7807386474236315,-1.457164471159123,13.608643,95,1970-01-03 00:15:25.978985983,0.93636745,-0.37390783,0.027696876,23.265123261332057,1.008641751909453,-105.51190185546875,18.81572723388672,-12.995285987854004,17518604.0,40462.0,0.0065127170929450235,-0.47642434957704044,0.26627082886442,0.00669588295449926,-0.019989189295077238,0.004785401252691951,17.518604056996992
1619,B,173726019517024.0,-0.3358380474236311,8.317162928840876,4.020463,95,1970-01-03 00:15:26.019517024,-0.15126756,-0.69987875,0.6828345,10.514478021997625,0.9894317024434612,-104.66280364990234,19.386959075927734,-12.691701889038086,17559135.0,40531.0,-0.0428934850094272,-0.25818250125585046,0.357262647643,-0.0007372744522114694,-0.014887175135553949,0.012636217668161118,17.5591350980103
1619,B,173726059466191.0,6.039322572576369,13.912412228840877,0.021547815,95,1970-01-03 00:15:26.059466191,0.44847634,-1.1899004,0.49534798,1.88713557982813,1.3646844363258621,-104.22439575195312,18.847715377807617,-12.507186889648438,17599084.0,39949.0,0.11392425164766336,0.052524448987114135,0.0807371450242175,0.001418804048215448,-0.004107916765041873,0.008748826858631334,17.59908426500624
1619,B,173726099938691.0,7.572210252576369,21.178215928840878,-2.7593174,95,1970-01-03 00:15:26.099938691,0.1587244,-2.6695528,-0.5592638,6.286681802648925,2.732120346019487,-107.19271087646484,18.730836868286133,-13.337050437927246,17639556.0,40472.0,0.2754429782497908,0.31346835139884793,-0.05540150532206,0.007879235264204882,0.007406230308610328,0.0005126920050128592,17.639556765003363
1619,B,173726139867698.0,8.560416952576368,19.748278828840878,-8.966286,95,1970-01-03 00:15:26.139867698,-0.5422196,-0.09161274,-0.07350325,10.162825145571395,0.5547952023179635,-110.1578140258789,18.078670501708984,-14.259541511535645,17679485.0,39929.0,0.3220798358372718,0.4257728045897374,-0.2340958090793,0.01192924422184116,0.014758580058734112,-0.005779669133365951,17.679485772008775
1619,B,173726179303846.0,6.935951152576369,17.668914628840877,-3.2692823,95,1970-01-03 00:15:26.179303846,-1.9963056,3.8434741,0.535828,3.9174811041857165,4.364016596158425,-113.2496566772461,17.395305633544922,-15.350985527038574,17718921.0,39436.0,0.30555738629740165,0.3513194205985688,-0.2412609357394,0.012375750746051491,0.01532270449626302,-0.009373084294335126,17.71892191999359
1619,B,173726220435252.0,7.763746352576369,9.149746528840875,7.7829514,95,1970-01-03 00:15:26.220435252,1.0908308,1.0727214,0.22690132,10.40558859075175,1.5466503306385522,-111.8050537109375,17.006811141967773,-14.991362571716309,17760053.0,41132.0,0.3023139788909712,0.1484589853688829,0.0928281187106,0.012501482496464078,0.010278442697126612,-0.003052669315014301,17.760053325997433
1619,B,173726260319732.0,-0.8326346474236317,-3.821439471159122,-5.625177,95,1970-01-03 00:15:26.260319732,0.24927188,2.3957798,-0.5432849,21.476884960228404,2.4692216998104453,-111.67964935302734,16.96868896484375,-15.055074691772461,17799937.0,39884.0,0.1382202296241559,-0.2846061006557105,0.0430303370848,0.008785133186208665,-0.0027150457730499163,0.002709289325471867,17.79993780600489
1619,B,173726297664732.0,-8.829268647423632,5.180758528840876,3.3237505,95,1970-01-03 00:15:26.297664732,-2.0964406,0.51665324,-3.0232205,18.43168258951565,3.7150849184575994,-111.20297241210938,17.714710235595703,-14.851944923400879,17837282.0,37345.0,-0.18041188927303556,-0.34059911489543754,-0.04297338632125,-0.0007878237647937056,-0.011674144387378812,1.0634131323873948e-06,17.83728280599462
1619,B,173726338408794.0,2.4456258525763688,2.008440528840877,5.391144,95,1970-01-03 00:15:26.338408794,-2.5790052,0.037284255,-1.2697952,15.1913487949249,2.874897874228054,-110.3345718383789,17.647390365600586,-14.528735160827637,17878026.0,40744.0,-0.13004757101662845,-0.2528328367969074,0.177539830754,-0.006324680125021035,-0.012089395719876453,0.0027413876059839836,17.878026868012967
1619,B,173726377503325.0,-2.1171242474236314,-2.048532471159122,0.22685061,95,1970-01-03 00:15:26.377503325,-3.943609,-0.3323625,-1.128115,19.54824098423993,4.115235136600611,-110.02714538574219,17.787696838378906,-14.34187126159668,17917121.0,39095.0,0.0064213851267231345,-0.3839146972424659,0.10981774963897498,-0.0024165828686829242,-0.01244682242163465,0.005617122302731678,17.917121398990275
1619,B,173726417479939.0,1.0234703525763686,4.411023528840877,7.318476,95,1970-01-03 00:15:26.417479939,-2.621616,0.82344943,-0.9054748,14.372805645414745,2.8932376377785434,-109.0372085571289,17.93914031982422,-14.020230293273926,17957098.0,39977.0,-0.02186050087715451,-0.34455194749352824,0.150819760943985,-0.00030860476517749756,-0.014560955528305419,0.0052097528802874955,17.95709801299381
1619,B,173726457711762.0,6.352364452576369,12.597995528840876,6.306926,95,1970-01-03 00:15:26.457711762,-2.1241374,-0.5070659,-0.7488809,7.085919301259125,2.3086572121920526,-107.64518737792969,17.75374412536621,-13.526470184326172,17997329.0,40231.0,0.1483686050230499,-0.052118877145202726,0.27408177393100003,0.002544773768946759,-0.007979231973020393,0.008547106824777762,17.997329836012796
1619,B,173726497412075.0,5.207337452576368,10.130172228840877,2.8060043,95,1970-01-03 00:15:26.497412075,-0.8745821,-1.1909657,-1.623463,6.353597460256086,2.19520506116989,-106.62516784667969,17.521011352539062,-13.126591682434082,18037030.0,39701.0,0.2294658626682344,0.06209569407386161,0.18089622292015,0.00750020310090584,0.0001980448044423432,0.009031540726493753,18.037030148989288
1619,B,173726538953168.0,-1.839396647423631,16.62923258884088,-0.635062,95,1970-01-03 00:15:26.538953168,1.8524948,-1.3859091,-0.37603834,7.781226476327278,2.3439039764119616,-106.6734619140625,18.910585403442383,-13.10112476348877,18078571.0,41541.0,0.06995381449342493,0.14870441776565888,0.04509155704215,0.006219096404486246,0.00437842372296276,0.004693879183706953,18.078571241989266
1619,B,173726577312023.0,4.519603052576368,16.137822668840876,-0.9403227,95,1970-01-03 00:15:26.577312023,2.2178805,-1.1685951,1.1728562,1.6819345570471997,2.7677066473711953,-107.45498657226562,20.08723258972168,-13.36091423034668,18116930.0,38359.0,0.05140501874762692,0.25253753631470716,-0.030215090853649994,0.0023276017421467537,0.007695620058284379,0.0002853231832623359,18.11693009699229
1619,B,173726619792908.0,4.640510252576369,15.685318548840877,-4.4101195,95,1970-01-03 00:15:26.619792908,1.6064188,-0.6849651,1.6777915,4.579678711899754,2.421723119327166,-108.76483154296875,20.38075065612793,-13.834481239318848,18159410.0,42480.0,0.19456080660144415,0.25961951946356043,-0.11364339232800001,0.0052243141304142695,0.010878215864730402,-0.003055554182778246,18.15941098201438
1619,B,173726656768220.0,-3.1322656474236306,-3.821439471159122,-1.2000936,95,1970-01-03 00:15:26.656768220,3.2597091,-6.7942567,2.530003,21.614164692672485,7.949122134055226,-108.129638671875,20.72934341430664,-13.404845237731934,18196386.0,36976.0,0.02788442626006382,-0.14302540361181976,-0.10372161979280001,0.004112567465143559,0.002155592013866982,-0.004018644344089351,18.196386294002878
1619,B,173726699839418.0,8.01034905257637,-3.821439471159122,0.83018947,95,1970-01-03 00:15:26.699839418,3.601659,3.3736925,-0.1917476,19.747140836975163,4.9386755085693785,-107.47614288330078,20.050556182861328,-13.388039588928223,18239457.0,43071.0,0.1050519651716668,-0.5866890194622946,-0.007966070391615,0.002862851657678035,-0.01571476495811259,-0.0024052502519664692,18.239457491989015
1619,B,173726739215356.0,-2.958685647423631,-1.3123164711591233,10.864288,95,1970-01-03 00:15:26.739215356,1.7757958,0.7499462,0.58056915,22.102956757577978,2.013189152594411,-106.3326416015625,20.31147575378418,-13.065760612487793,18278833.0,39376.0,0.09945714912064711,-0.48695818699236165,0.23024087242936003,0.0040263754421870765,-0.021137966200679273,0.004376146302519124,18.278833429998485
1619,B,173726776743064.0,-3.029913647423631,2.976896528840877,5.5743003,95,1970-01-03 00:15:26.776743064,0.3387541,-1.1057445,-0.24181503,16.568465449579243,1.1814820135240995,-105.46704864501953,20.712554931640625,-12.71537971496582,18316361.0,37528.0,-0.11237007716851402,-0.3365402197976596,0.30845367086119996,-0.00024229818189017466,-0.015452124105007958,0.010108064410304067,18.316361138015054
1619,B,173726816516814.0,3.990484552576369,9.566935928840877,2.542642,95,1970-01-03 00:15:26.816516814,0.5113269,-0.43036684,0.5486112,6.982069219510746,0.8646647121287162,-104.5348129272461,20.716848373413086,-12.382113456726074,18356134.0,39773.0,0.01910239330531993,-0.14032247583031185,0.16141757304895002,-0.0018547677951454094,-0.009483129996605656,0.009344094492019199,18.356134887988446
1619,B,173726856552179.0,6.493622352576368,16.41375442884088,-1.929128,95,1970-01-03 00:15:26.856552179,0.16831179,-1.5499598,0.5187838,2.1205021239136284,1.6431192505145462,-107.44564819335938,19.99859619140625,-13.33384895324707,18396170.0,40036.0,0.2098708520273475,0.12772865958007334,0.012281323252,0.004583586425069337,-0.0002521030136972744,0.0034771045061524172,18.396170252992306
1619,B,173726896507595.0,7.475245052576369,24.351131528840877,-4.8045645,95,1970-01-03 00:15:26.896507595,-0.2545982,-1.9760655,-0.98430437,9.945856732583119,2.2222759046829865,-110.45331573486328,20.27382469177246,-14.262669563293457,18436125.0,39955.0,0.2790630485864388,0.4228215092195872,-0.13452234191874998,0.009767676999511915,0.010998615997195219,-0.0024420699504149974,18.436125668988097
1619,B,173726936689470.0,7.181955352576368,19.685430928840876,-8.606557,95,1970-01-03 00:15:26.936689470,-1.7896442,2.4501083,0.082025364,9.536904464331242,3.035224078163236,-113.61402893066406,19.899938583374023,-15.426457405090332,18476307.0,40182.0,0.2944778133399237,0.4909549763372842,-0.26944284205650004,0.011523009456962548,0.018358683371323105,-0.008116064511246749,18.476307544013252
1619,B,173726978723429.0,8.843531352576369,15.195704288840876,7.354389,95,1970-01-03 00:15:26.978723429,-2.2732744,2.957174,0.76912093,7.954946186229794,3.8084382060019597,-110.86493682861328,19.075918197631836,-14.61234188079834,18518341.0,42034.0,0.3368076540821951,0.3211636188700174,-0.026316814856000004,0.01326772666881067,0.017068296515471856,-0.006215980709330014,18.518341502989642
1619,B,173727017933064.0,7.691920352576369,-1.7043664711591244,19.612701,95,1970-01-03 00:15:27.017933064,3.9414785,1.1994878,1.7534252,26.345653486680703,4.477557780789225,-109.28700256347656,18.871742248535156,-14.246150016784668,18557551.0,39210.0,0.32417753067951943,-0.1197603220843493,0.52868979945,0.012958614547253415,0.003948511633483023,0.009849022362965372,18.557551138015697
1619,B,173727057078481.0,-8.116394647423633,-3.821439471159122,-11.921329,95,1970-01-03 00:15:27.057078481,0.16085494,2.7281423,-3.6559875,26.8781271844918,4.564523997190501,-109.5714340209961,18.97211265563965,-14.405682563781738,18596696.0,39145.0,-0.008308023135898073,-0.4917748368060239,0.15053937847,0.0061823559363975295,-0.01196927189738183,0.0132942130848392,18.59669655500329
1619,B,173727098699990.0,-1.7861256474236313,6.113899528840877,3.4979286,95,1970-01-03 00:15:27.098699990,-4.104464,-0.9086706,-1.1611383,12.826645314495446,4.361255454376326,-108.98094940185547,19.451141357421875,-14.085783004760742,18638318.0,41622.0,-0.2060813498560664,-0.360187213739585,-0.17529938572440001,-0.0044616572413357725,-0.017730182233904667,-0.0005152805109713184,18.6383180640114
1619,B,173727137308065.0,1.6633203525763687,2.0234050288408767,6.1076083,95,1970-01-03 00:15:27.137308065,-3.141465,0.67537767,-0.93636745,15.638857707653399,3.346897271321475,-108.14808654785156,19.42057228088379,-13.772090911865234,18676926.0,38608.0,-0.0023706334117315586,-0.22127587281851147,0.18542528431760003,-0.0040239570850015725,-0.011224563422917496,0.00019547034644313302,18.67692613901454
1619,B,173727178233845.0,1.809965352576369,-1.3697774711591233,-1.6514006,95,1970-01-03 00:15:27.178233845,-4.0064597,0.4165184,-0.8586032,17.71262654224608,4.1185442040013225,-108.02713012695312,19.230546951293945,-13.671507835388184,18717851.0,40925.0,0.0710721087416879,-0.3876901461009372,0.09118515006125001,0.0014058039389392317,-0.01246096716213922,0.005660141013477219,18.717851919005625
1619,B,173727218173378.0,-0.9750896474236317,8.154356928840876,8.276156,95,1970-01-03 00:15:27.218173378,-2.3105586,0.67963874,-1.3507553,13.179102634549514,2.7613637466695398,-106.96561431884766,19.686697006225586,-13.29060173034668,18757791.0,39940.0,0.016672467831900167,-0.25592394823009545,0.13229636533800002,0.001752259194174554,-0.012852973463790723,0.004462925862523024,18.7577914519934
1619,B,173727258056918.0,9.534857052576369,12.110176728840877,1.3269863,95,1970-01-03 00:15:27.258056918,-2.2423816,-0.7701862,-1.0737866,5.361247157075546,2.602783065303092,-106.39928436279297,18.44145965576172,-13.018406867980957,18797674.0,39883.0,0.17069460170985332,0.013251797934660645,0.19150106217545002,0.003736380417266877,-0.004839246685116413,0.006457006400759464,18.79767499200534
1619,B,173727295502647.0,2.692827352576369,10.702984528840876,1.7399861,95,1970-01-03 00:15:27.295502647,-0.3749731,-1.3379722,-1.5233282,6.246760222962396,2.0618688703726264,-105.63704681396484,18.757957458496094,-12.688075065612793,18835120.0,37446.0,0.2289389351176747,0.060160018227575426,0.0574229242452,0.007482338710021807,0.0013744894340055461,0.00466060379775383,18.835120720992563
1619,B,173727335729106.0,0.7056396525763686,16.158771928840878,-0.39923313,95,1970-01-03 00:15:27.335729106,1.7949706,-1.5478293,0.45699844,5.1932761663778715,2.4138232269504085,-105.66464233398438,20.171449661254883,-12.661395072937012,18875347.0,40227.0,0.06835506610813959,0.14605933851158193,0.026967234862095,0.005979622893655416,0.004147793031773042,0.001697381465204578,18.875347180000972
1619,B,173727375310303.0,5.1349128525763685,13.766964428840877,-4.7016134,95,1970-01-03 00:15:27.375310303,2.3457124,-0.41758367,1.5957662,5.171702558770857,2.8676144353847275,-106.7220458984375,20.134191513061523,-13.067501068115234,18914928.0,39581.0,0.11558745435322523,0.2043514853867007,-0.100948303251965,0.0036403144511906404,0.006934805410358962,-0.001464122333969722,18.914928376994794
1619,B,173727416149314.0,-4.180327147423632,0.28760902884087614,7.65546,95,1970-01-03 00:15:27.416149314,2.2146847,-2.8325381,2.1177456,20.000190973435092,4.172882317377889,-105.66951751708984,20.63675880432129,-12.640229225158691,18955767.0,40839.0,0.01949216280636631,-0.11323483728086747,0.06031607064869999,0.0027582582425902794,0.0018605563959970615,-0.0008296898736423698,18.95576738798991
1619,B,173727454955772.0,11.321530352576369,-3.821439471159122,2.1517887,95,1970-01-03 00:15:27.454955772,1.7960359,0.25885928,0.9331717,20.47010311643419,2.040480948848045,-105.04090881347656,19.869009017944336,-12.4777250289917,18994573.0,38806.0,0.13856076578957857,-0.44886571207230097,0.1902900465261,0.0030667009735471187,-0.010906436959099527,0.004862510491542644,18.994573845993727
1619,B,173727495239053.0,2.5665331525763686,-0.8795644711591226,1.9949685,95,1970-01-03 00:15:27.495239053,4.3153863,1.6927053,0.3387541,17.112355622538367,4.647855902579446,-104.30033111572266,19.679607391357422,-12.381511688232422,19034857.0,40284.0,0.27973337512078644,-0.4894708214061741,0.0835239835224,0.008425280586216572,-0.018899974457323443,0.005515162193236886,19.034857127000578
1619,B,173727535137856.0,-6.304583647423631,-0.9226604711591246,10.609306,95,1970-01-03 00:15:27.535137856,1.3113406,-1.252751,0.07669904,23.241471797721893,1.8151809771883027,-103.26727294921875,20.120290756225586,-11.995692253112793,19074755.0,39898.0,-0.07457036932170805,-0.42695298537430676,0.2514426720005,0.0040927968026858155,-0.018281738521463815,0.006682249811026332,19.074755929992534
1619,B,173727575197335.0,2.2433157525763687,6.780683528840877,4.63278,95,1970-01-03 00:15:27.575197335,0.36751625,-0.88949585,0.515588,10.76200048609051,1.0918342579921574,-102.30208587646484,20.253162384033203,-11.633845329284668,19114815.0,40060.0,-0.08134719593379065,-0.2752517981546345,0.30529898258,-0.003123028832067639,-0.014065161814084695,0.011151535341247413,19.114815409004223
1619,B,173727617152335.0,6.239836952576368,9.769844528840878,0.093972415,95,1970-01-03 00:15:27.617152335,0.32384038,-0.4282363,1.1174624,6.034061165187862,1.239750432857353,-101.93586730957031,19.747833251953125,-11.505735397338867,19156770.0,41955.0,0.17795533587234152,-0.06397029766998102,0.0991554487856625,0.002026597255560951,-0.007116031515160872,0.008484442833973186,19.156770408997545
1619,B,173727655042595.0,8.520314052576369,20.685010528840877,-3.9294837,95,1970-01-03 00:15:27.655042595,0.2247708,-2.1784658,0.28975195,6.812129434199337,2.2091155123331787,-104.83769226074219,19.1030330657959,-12.377337455749512,19194660.0,37890.0,0.2796310607926186,0.20564522906778082,-0.072663761294325,0.00866897428481767,0.0026840315753313172,0.0005018850195233889,19.194660668988945
1619,B,173727696920147.0,7.615305852576369,23.626286928840877,-10.53748,95,1970-01-03 00:15:27.696920147,-0.5336975,-0.25885928,-0.6348976,13.24616774102107,0.8688705949876129,-107.88727569580078,19.038759231567383,-13.345726013183594,19236538.0,41878.0,0.33786374519399315,0.5174298574663981,-0.3029237529143,0.012929723742553663,0.015140469236939173,-0.007864426960014399,19.23653822101187
1619,B,173727736782855.0,6.895249652576369,18.136981228840877,-2.4079683,95,1970-01-03 00:15:27.736782855,-2.569418,3.6826193,-0.23009712,3.5139650006407672,4.496280513056185,-111.0559310913086,18.488740921020508,-14.485617637634277,19276400.0,39862.0,0.28920988177319923,0.441736097650755,-0.2580157300673,0.012498204459083112,0.01911713665143998,-0.01118008483530627,19.276400928996736
1619,B,173727775090251.0,6.726458452576368,10.075105528840876,5.1241903,95,1970-01-03 00:15:27.775090251,1.1302456,0.49002165,0.15020229,7.724715215537302,1.2410225871068288,-109.67420959472656,18.12647247314453,-14.09373664855957,19314708.0,38308.0,0.2609101970460956,0.1649559097566363,0.05202651618800001,0.010536999989704773,0.011620578709881172,-0.003945517402644112,19.314708324993262
1619,B,173727814604678.0,4.7039565525763685,-3.821439471159122,-9.636064,95,1970-01-03 00:15:27.814604678,1.1121361,1.6426378,-0.4495416,21.883696284359527,2.034009168377225,-109.8109359741211,17.707929611206055,-14.219408988952637,19354222.0,39514.0,0.22583070925680263,-0.2636835196983816,-0.08914108869089998,0.00961654008582636,-0.0019505613896190622,-0.0007332726089397947,19.354222752008354
1619,B,173727854448272.0,-5.474393647423631,8.962400528840877,-2.0284874,95,1970-01-03 00:15:27.854448272,-1.4689997,0.07456851,-2.2125542,13.396402811172251,2.6568621848378493,-109.8276138305664,18.526823043823242,-14.169875144958496,19394066.0,39844.0,-0.015348647803547168,-0.2880529738088641,-0.23238119299079996,0.004193223628271755,-0.010991694423651348,-0.006405366895662826,19.39406634599436
1619,B,173727894038793.0,2.5958619525763686,5.101750528840876,3.8414967,95,1970-01-03 00:15:27.894038793,-3.3566482,0.47297743,-0.8990832,11.821971425591727,3.5070137422563494,-109.07272338867188,18.51392936706543,-13.883395195007324,19433656.0,39590.0,-0.05698053489950156,-0.10958212981318972,0.0358885190935,-0.0014317561716068498,-0.007871186876198555,-0.0038895724797970528,19.43365686701145
1619,B,173727934013533.0,-2.9060136474236318,-3.821439471159122,3.5936968,95,1970-01-03 00:15:27.934013533,-3.2820797,-0.58483016,-2.2178805,21.78586550305852,4.004131289740381,-108.53518676757812,18.602113723754883,-13.599637031555176,19473631.0,39975.0,-0.006199157000759671,-0.36616478273458597,0.14861093008125,-0.0012628040918564714,-0.009508991414548666,0.0036876827403803155,19.47363160699024
1619,B,173727976307492.0,0.34112235257636847,4.628894528840876,7.365163,95,1970-01-03 00:15:27.976307492,-3.315103,0.958738,-1.0482203,14.471758698340917,3.6066400223178765,-107.60968780517578,18.79317283630371,-13.277351379394531,19515925.0,42294.0,-0.054239756212135073,-0.39740594789520395,0.23174700819059996,-0.0012781016977130852,-0.016147230240628165,0.00804342932063481,19.51592556599644
1619,B,173728016215772.0,3.9785135525763686,13.531734128840878,4.7937903,95,1970-01-03 00:15:28.016215772,-1.6010925,0.0628506,-0.55606806,5.627461962542963,1.6960716608766193,-106.2725601196289,19.158775329589844,-12.811617851257324,19555833.0,39908.0,0.0861940148514177,-0.028721215764618318,0.2426197541482,0.0006376152768882455,-0.008502941423668094,0.009465514375708414,19.5558338460105
1619,B,173728056263013.0,7.283110352576369,9.659711528840877,2.4307132,95,1970-01-03 00:15:28.056263013,-1.4189322,-1.051416,-1.5595472,6.7458874471855985,2.3560627458284467,-105.41190338134766,18.449962615966797,-12.442595481872559,19595881.0,40048.0,0.22550275707677842,0.07191510784941942,0.14466345808400002,0.006241416161090199,0.0008649144951060571,0.007754959041737573,19.595881087007
1619,B,173728095233949.0,-0.0946223474236314,16.099515448840876,0.16639702,95,1970-01-03 00:15:28.095233949,1.071656,-1.3539511,-0.4293016,5.975399416163641,1.779306052170275,-105.31331634521484,19.829418182373047,-12.359907150268555,19634852.0,38971.0,0.14007128302440366,0.12001561727361776,0.05060599119181,0.007123392958391584,0.0037398661443849403,0.003804922853863796,19.634852023009444
1619,B,173728136444729.0,4.325074152576368,15.866080783840877,-2.4187422,95,1970-01-03 00:15:28.136444729,1.9473034,-1.4956313,1.3944311,2.8712820191240263,2.823710610143763,-106.44913482666016,20.542211532592773,-12.734356880187988,19676062.0,41210.0,0.08716845944517214,0.25479311037440744,-0.046409572433899995,0.0046822748935856084,0.007722933833187558,8.646720850673566e-05,19.676062803016976
1619,B,173728175865877.0,5.095408552576369,14.142854128840877,-1.1575965,95,1970-01-03 00:15:28.175865877,2.010154,0.07137272,1.5499598,2.158718860605301,2.5393283660236303,-106.81428527832031,20.65203857421875,-12.921833992004395,19715483.0,39421.0,0.185682424359913,0.2051653115964137,-0.07049142394635,0.00537802734524013,0.00906601047625587,-0.0023041770891529174,19.71548395100399
1619,B,173728215653220.0,4.389119052576369,-3.821439471159122,-6.701969,95,1970-01-03 00:15:28.215653220,3.202185,-3.4258904,2.7824707,20.77961760402612,5.4527843349426215,-106.66255187988281,20.42659568786621,-12.809288024902344,19755271.0,39788.0,0.18868519217690857,-0.1845881768000792,-0.156358196057,0.007447669363383529,0.000409361519638279,-0.004512946340346644,19.755271294008708
1619,B,173728255639054.0,9.404372952576368,-3.821439471159122,-2.0266917,95,1970-01-03 00:15:28.255639054,4.1982074,1.4966966,0.25566345,20.03190087312583,4.464348763877238,-106.20091247558594,19.697114944458008,-12.79481029510498,19795257.0,39986.0,0.2757732856590187,-0.5446668786937687,-0.17451211337510003,0.009285918347373695,-0.014579996324488502,-0.006615090096475976,19.795257127989316
1619,B,173728292926553.0,-4.225817647423631,2.686598528840877,9.772532,95,1970-01-03 00:15:28.292926553,2.2136195,1.1739215,-0.004261058,19.21422746064668,2.505637869995938,-105.0750732421875,20.138755798339844,-12.501565933227539,19832544.0,37287.0,0.09654639583161506,-0.38657000710811024,0.14440957363305,0.006941341981870631,-0.01736151488044733,-0.00056121669968091,19.832544626988238
1619,B,173728333236657.0,-3.9959746474236306,0.19782652884087604,5.1541176,95,1970-01-03 00:15:28.333236657,0.13102753,-1.3081448,0.4101268,19.159508482104172,1.3771764678003982,-104.32608032226562,20.513120651245117,-12.189360618591309,19872854.0,40310.0,-0.16571022370264657,-0.3369024129624243,0.300846622688,-0.00139399695074064,-0.014581586626521622,0.008974138636850761,19.87285473101656
1619,B,173728372910876.0,4.532172552576369,8.175306228840878,3.3381157,95,1970-01-03 00:15:28.372910876,0.36964676,-0.8309063,0.58696073,8.422951983062257,1.0823894424468121,-103.3667221069336,20.371631622314453,-11.82986068725586,19912528.0,39674.0,0.010636557844514867,-0.2227073654858671,0.1684604319721,-0.0030761963096277586,-0.011100979175078757,0.009309644043292405,19.91252894999343
1619,B,173728413246241.0,6.360744152576369,16.173137128840878,-1.5532384,95,1970-01-03 00:15:28.413246241,-0.014913702,-1.4072144,0.5933523,1.672791069508072,1.5272660992734681,-106.26947021484375,19.60987663269043,-12.764427185058594,19952864.0,40336.0,0.2196883441095204,0.09576660563772561,0.0359974053864,0.004645192622608983,-0.0025601412446173166,0.0041235056638462275,19.95286431501154
1619,B,173728452951762.0,8.488590952576368,24.295466528840876,-3.9085343,95,1970-01-03 00:15:28.452951762,-0.41545314,-1.8343854,-0.6988135,9.718137241604722,2.0064673969569675,-109.29438781738281,19.53535270690918,-13.678852081298828,19992569.0,39705.0,0.2947964251750447,0.41429395411412695,-0.10842984252674999,0.010213808882221828,0.010125977262473653,-0.0014379649583287982,19.992569836002076
1619,B,173728493386970.0,8.553234352576368,20.231308928840875,-9.792285,95,1970-01-03 00:15:28.493386970,-1.3177321,1.9707392,0.18216023,11.081265406247454,2.3776907349738954,-112.35869598388672,18.905366897583008,-14.756312370300293,20033005.0,40436.0,0.344551624019578,0.5039695462034097,-0.2770031646074,0.01292633885861688,0.018565451449419956,-0.007792684538238244,20.03300504400977
1619,B,173728533583377.0,12.10982115257637,14.121904828840876,11.900379,95,1970-01-03 00:15:28.533583377,-2.1401162,3.6336172,0.37071204,13.540181298342631,4.2332846257060535,-109.7548828125,17.720144271850586,-14.068973541259766,20073201.0,40196.0,0.41528608954255974,0.29651009010188784,0.04236847321199999,0.015271218367171845,0.016088039730463872,-0.00471568802766475,20.07320145101403
1619,B,173728572819105.0,0.28007035257636836,-3.821439471159122,13.639767,95,1970-01-03 00:15:28.572819105,4.667989,2.21575,1.8109496,24.53524067330113,5.475327188430036,-108.37094116210938,17.83016586303711,-13.845969200134277,20112437.0,39236.0,0.24306489154808641,-0.1824382706129994,0.501046584228,0.012915529547036297,0.0022378609547330135,0.01066071659685792,20.112437178991968
1619,B,173728612290563.0,-0.5387466474236309,0.6652945288408763,-9.509171,95,1970-01-03 00:15:28.612290563,-0.034088463,2.3467777,-1.892975,18.98199611581672,3.0152747714183517,-108.73612213134766,17.762252807617188,-14.034673690795898,20151908.0,39471.0,-0.005105106016958149,-0.44910389850912175,0.08151937735800001,0.004696255347349581,-0.012463800478709621,0.011497230534880502,20.15190863699536
1619,B,173728652222803.0,-5.773069647423632,4.518163528840876,2.7473464,95,1970-01-03 00:15:28.652222803,-3.50472,-1.1611383,-2.8048413,16.438296765072803,4.636640933726977,-108.30769348144531,18.35297203063965,-13.753151893615723,20191840.0,39932.0,-0.12602172414292045,-0.2878406764203262,-0.13500658996360002,-0.0026180782909721364,-0.014713835383041357,-0.0010679256868834097,20.191840876999777
1619,B,173728692081761.0,2.618606852576369,1.325495528840877,6.9240313,95,1970-01-03 00:15:28.692081761,-2.9273467,0.7701862,-1.3923006,16.36438018106109,3.3318232914474457,-107.43433380126953,18.224153518676758,-13.446943283081055,20231699.0,39859.0,-0.06286686626990852,-0.2741569968099315,0.19274572187215,-0.0037644551626324746,-0.01120033262864242,0.0011507120293714468,20.231699835014297
1619,B,173728732042594.0,-4.719022647423631,-2.939176471159124,-0.06943185,95,1970-01-03 00:15:28.732042594,-4.143879,0.60720074,-1.5947009,21.517323760079446,4.481461465388089,-107.25418090820312,18.435914993286133,-13.330310821533203,20271660.0,39961.0,-0.041967357788945725,-0.4238599520679898,0.13695832431072502,-0.0020946402138079375,-0.013946727647055308,0.006587651694756935,20.271660667989636
1619,B,173728771859938.0,-3.152017647423631,6.792056028840877,5.577293,95,1970-01-03 00:15:28.771859938,-2.7057717,-0.15339808,-0.757403,13.91075370723924,2.8139635335017363,-106.51239776611328,19.055559158325195,-13.031525611877441,20311478.0,39818.0,-0.15670454123011412,-0.313509420886114,0.10965600763535,-0.003955358837570463,-0.014680286846143252,0.004909844734714407,20.311478012008592
1619,B,173728811955615.0,11.114431652576368,10.141544528840877,2.955642,95,1970-01-03 00:15:28.811955615,-2.4426515,-1.1494204,-0.9416938,8.255930043814573,2.8591083958721906,-105.8019027709961,17.90561294555664,-12.701693534851074,20351573.0,40095.0,0.1596264947682995,-0.053454642819875074,0.1710640144125,5.8577863556771045e-05,-0.0073567120671458154,0.0056277346420042715,20.351573688996723
1619,B,173728852489938.0,3.6816325525763687,11.163269928840876,1.578976,95,1970-01-03 00:15:28.852489938,-0.47404268,-1.567004,-1.5456988,5.358012141422021,2.2515334283103643,-105.01258087158203,18.076446533203125,-12.358842849731445,20392108.0,40535.0,0.2998792312779331,0.03455232702106489,0.091905370315,0.00931303230264202,-0.0003831026854523855,0.005329732004964606,20.392108011990786
1619,B,173728891749365.0,-0.3101002474236312,16.119866168840876,0.20171149,95,1970-01-03 00:15:28.891749365,1.4913702,-1.5723304,0.10333065,6.192615134172992,2.169581799205004,-104.88526916503906,19.4871883392334,-12.270076751708984,20431367.0,39259.0,0.06618149338399566,0.15081612002944392,0.034954005084955005,0.0071855889947513305,0.003638689931377963,0.002490186109413417,20.43136743901414
1619,B,173728931927699.0,6.8880670525763685,13.944733928840877,-3.530849,95,1970-01-03 00:15:28.931927699,1.9398465,-1.0056096,1.4668691,4.112681635867655,2.6317218826671676,-105.85973358154297,18.921493530273438,-12.594930648803711,20471545.0,40178.0,0.13214477514871334,0.21022335136232867,-0.06687904343838999,0.003984176408553591,0.0072529219407893196,-0.0006413420954821554,20.471545773005346
1619,B,173728971180042.0,2.5623431525763687,5.587773528840877,3.7942111,95,1970-01-03 00:15:28.971180042,2.8453214,-2.0836573,1.6564863,11.378204539449598,3.896335262169946,-104.8331527709961,19.062162399291992,-12.2335844039917,20510798.0,39253.0,0.1854784758914302,-0.0013246423818090722,0.005168876255650003,0.006233832736539378,0.004099950511806168,-0.0012111545962120464,20.510798116010847
1619,B,173729011848480.0,13.98388235257637,-3.821439471159122,-6.882133,95,1970-01-03 00:15:29.011848480,2.630138,-0.773382,1.9185413,22.313040043187524,3.3461240767152804,-104.80791473388672,18.238086700439453,-12.25634479522705,20551466.0,40668.0,0.3364509494217758,-0.3626297632710993,-0.0627898039146,0.01061291293431873,-0.007400648884546239,-0.0011716639430170892,20.55146655399585
1619,B,173729053205303.0,4.884718812576368,-3.821439471159122,-3.196858,95,1970-01-03 00:15:29.053205303,5.3423014,1.804558,0.33449304,19.896564133693666,5.648760874529422,-104.4255142211914,17.85312843322754,-12.308390617370605,20592823.0,41357.0,0.3901743691936109,-0.5633418722087278,-0.2084184153935,0.015025521650988274,-0.019147704464269603,-0.005608179162962546,20.59282337699551
1619,B,173729092555251.0,-4.905769647423631,-2.420831471159124,12.557588,95,1970-01-03 00:15:29.092555251,1.4615428,-0.57098174,0.20879184,24.607393797539977,1.5829471046424302,-103.32097625732422,18.20534324645996,-11.96508502960205,20632173.0,39350.0,-0.00041417517561990173,-0.5084466807901116,0.18417236275,0.007668531817303974,-0.021087439780252164,-0.00047704108576086243,20.632173324993346
1619,B,173729132964313.0,-0.7566191474236312,7.776671528840877,5.185242,95,1970-01-03 00:15:29.132964313,0.0958738,-0.8926916,0.12144015,11.62106333576817,0.9060009869028965,-102.40502166748047,18.740659713745117,-11.636415481567383,20672582.0,40409.0,-0.11440573440549152,-0.28779612955456907,0.35848500873500005,-0.002319878863131566,-0.0160876878616091,0.010964120862168683,20.67258238699287
1619,B,173729172830355.0,5.631111172576369,11.533772928840877,0.91338795,95,1970-01-03 00:15:29.172830355,-0.010652645,-0.71159667,0.3717773,4.36152606080374,0.8029331606029702,-101.7697982788086,18.421602249145508,-11.404706954956055,20712448.0,39866.0,0.09716324953736952,-0.005771710625029621,0.12156399079334998,-0.00034369445087627595,-0.005851687758299941,0.0095688167075986,20.71244842899614
1619,B,173729211265303.0,7.588371052576369,19.413090628840877,-1.2605472,95,1970-01-03 00:15:29.211265303,-0.1257012,-1.5574167,-0.28868666,4.20157826482739,1.5889265422864223,-104.62864685058594,17.582290649414062,-12.211315155029297,20750883.0,38435.0,0.25404539966187273,0.21805835041974908,-0.006671532886875,0.006749352215986437,0.004079618500255021,0.0022079458098176828,20.750883377011633
1619,B,173729253275615.0,8.351522952576369,22.182583328840877,-6.3709707,95,1970-01-03 00:15:29.253275615,0.082025364,-0.88843054,-0.47297743,9.358735218285048,1.009824060930135,-107.58380889892578,17.190723419189453,-13.049118041992188,20792893.0,42010.0,0.3348174735782332,0.4620191314811052,-0.1603000334895,0.012369064652408427,0.014285027507327443,-0.003507237751735757,20.79289368900936
1619,B,173729290770147.0,6.640267252576368,17.985547728840878,-5.9771247,95,1970-01-03 00:15:29.290770147,-1.5765914,3.7678404,0.50600064,6.413328041394946,4.115616402205935,-110.69680786132812,16.83851432800293,-14.11580753326416,20830388.0,37495.0,0.28105858687110097,0.3856010370038887,-0.2314959185115,0.011546136443273894,0.015890759108672423,-0.007345194610138748,20.83038822101662
1619,B,173729330855356.0,7.271139352576369,10.723335528840877,6.415862,95,1970-01-03 00:15:29.330855356,-0.608266,1.5243934,0.38029942,8.29547669807667,1.6847523300390168,-109.34732055664062,16.470521926879883,-13.79489517211914,20870473.0,40085.0,0.2788193668837738,0.18256479269208656,0.008793392335249993,0.01122135388813208,0.011387463641681585,-0.004463515380887491,20.87047342999722
1619,B,173729370923428.0,10.587108852576367,-3.821439471159122,11.727997,95,1970-01-03 00:15:29.370923428,4.9438925,-0.9683254,2.0836573,23.333957097661663,5.451729530679663,-107.97532653808594,16.049015045166016,-13.470104217529297,20910541.0,40068.0,0.35777214454202994,-0.25439381438040376,0.36349407120599997,0.012753474339904551,-0.0014390226205037468,0.007458407044585402,20.91054150200216
1619,B,173729410739626.0,-0.9583303474236313,4.146463528840876,-12.130821,95,1970-01-03 00:15:29.410739626,-0.0628506,0.5954828,-2.9582393,18.14953006387154,3.0182328801934233,-108.6260757446289,16.09282112121582,-13.632728576660156,20950357.0,39816.0,0.19168972248058067,-0.3837262210596717,-0.00801942019199998,0.010938686848686131,-0.012703693665541022,0.007076789352386712,20.950357699999586
1619,B,173729450023323.0,-1.351577947423631,3.329441528840876,2.8383262,95,1970-01-03 00:15:29.450023323,-4.121508,1.0247844,-1.5371766,14.680832595269042,4.516627409930436,-108.16096496582031,16.38513946533203,-13.468605041503906,20989641.0,39284.0,-0.045371218727389924,-0.23814147285701506,-0.1825231828616,0.0028739880507201725,-0.01221472524391156,-0.0037426378091788104,20.989641396998195
1619,B,173729490311605.0,-3.1023386474236316,-2.908052471159122,6.5086374,95,1970-01-03 00:15:29.490311605,-3.06157,-0.19600865,-2.0793962,21.738479777784548,3.7061460862126396,-107.47596740722656,16.562484741210938,-13.191146850585938,21029929.0,40288.0,-0.08971969588660325,-0.38633393882205874,0.18828523475839995,-0.0027212713839842783,-0.012579432692863263,0.00011607077340913835,21.029929679003544
1619,B,173729529862074.0,3.051957352576369,2.222721528840877,4.2437224,95,1970-01-03 00:15:29.529862074,-4.3292346,1.3038837,-0.19707392,14.493966758726154,4.525618527329388,-106.87283325195312,16.470888137817383,-13.014741897583008,21069480.0,39551.0,-0.0009963152962520463,-0.40115256204981453,0.21263329122490002,-0.001793954479146555,-0.01557293929799173,0.007928364310582749,21.069480147998547
1619,B,173729570628324.0,-0.7308816474236313,9.981132928840877,4.258686,95,1970-01-03 00:15:29.570628324,-1.4199976,0.3685815,-0.68816084,9.77136711440967,1.620435388362497,-106.06224060058594,17.17918586730957,-12.767312049865723,21110246.0,40766.0,0.04731048609812825,-0.15075563458907285,0.17330459041719998,0.0009440217434546425,-0.01124954477209044,0.007866571841510923,21.110246397991432
1619,B,173729612061189.0,10.204036352576368,7.590522528840877,0.8858546,95,1970-01-03 00:15:29.612061189,-2.7590349,-1.2602079,-1.7278589,9.318044266240108,3.4908299742252744,-105.67533874511719,16.129735946655273,-12.534987449645996,21151679.0,41433.0,0.19625060944929668,-0.04202019971093598,0.1065768753399,0.005045733435908228,-0.003993640571276133,0.005798164385356961,21.151679263013648
1619,B,173729651937072.0,0.9259063525763684,14.788091528840877,0.4441244,95,1970-01-03 00:15:29.651937072,0.8543421,-1.3283848,-1.1973573,5.064989148918422,1.9819614286273939,-105.4012451171875,17.366472244262695,-12.390899658203125,21191555.0,39876.0,0.22190879765533525,0.05540000708205877,0.026517121302000003,0.008337262258852153,0.00026676659936544626,0.002653628105046202,21.191555146011524
1619,B,173729691825407.0,1.4011553525763691,17.005122228840875,0.26994625,95,1970-01-03 00:15:29.691825407,1.3496901,-1.6010925,0.4676511,4.638986609158508,2.1456602971872014,-105.33038330078125,18.8416748046875,-12.321285247802734,21231443.0,39888.0,0.0464109186475662,0.24318145518320483,0.0142414250436,0.005351368421945067,0.005954908683418417,0.0008128884483166464,21.23144348099595
1619,B,173729729749575.0,6.169806572576369,13.330621228840876,-4.6399627,95,1970-01-03 00:15:29.729749575,1.598962,-1.0365024,1.1515509,5.26084768897198,2.2264514766642836,-106.33679962158203,18.51457405090332,-12.636524200439453,21269367.0,37924.0,0.14356058002474623,0.20357116744456133,-0.08286425192489999,0.003602239557824388,0.008471323230267702,-0.0013012260433232104,21.269367649016203
1619,B,173729771634000.0,-8.095445647423631,-2.147295471159124,8.665813,95,1970-01-03 00:15:29.771634000,4.3484097,-3.8456047,1.7640779,24.330190022024777,6.0670679298145815,-105.23167419433594,19.152700424194336,-12.19735336303711,21311252.0,41885.0,-0.04032769632498878,-0.17626620031974993,0.08431136990775,0.0021619546668821704,0.0005718342740113627,3.0306268355836282e-05,21.311252073996002
1619,B,173729809646397.0,18.057616352576368,-3.821439471159122,-3.3602622,95,1970-01-03 00:15:29.809646397,2.812298,1.7353158,0.9289106,23.334479632937473,3.4326689134441732,-105.00035095214844,18.069263458251953,-12.260266304016113,21349264.0,38012.0,0.18934101642213289,-0.48595937631370056,0.10083729850479999,0.0028321471617663205,-0.012586259309495359,0.003518935591848925,21.34926447100588
1619,B,173729849484522.0,2.8179243525763686,2.041959528840877,2.7018566,95,1970-01-03 00:15:29.849484522,3.3364084,0.8341021,0.69774824,14.341485839801033,3.5091594337160097,-104.20184326171875,17.99125862121582,-12.111736297607422,21389102.0,39838.0,0.4158198953059373,-0.42585786097103717,-0.0131147811464,0.01205420020071143,-0.01816248754947469,0.0017473448232619693,21.389102596003795
1619,B,173729889083272.0,-4.15039964742363,-1.026209471159122,10.096349,95,1970-01-03 00:15:29.889083272,0.25885928,-1.0588728,0.1257012,22.027319395729066,1.0972786907178131,-103.21929931640625,18.349550247192383,-11.76197624206543,21428701.0,39599.0,-0.026382344600328362,-0.3679588567329301,0.2533980717772,0.007710668785195706,-0.0157171741021797,0.004757489012844524,21.42870134601253
1619,B,173729929819001.0,0.961220352576369,8.567955528840876,2.7850552,95,1970-01-03 00:15:29.929819001,0.16405073,-1.3443637,0.19281286,9.167478956114,1.3679923972276316,-102.46974182128906,18.78594398498535,-11.46585464477539,21469437.0,40736.0,-0.06495720387744902,-0.24560251629713806,0.2623684407456,-0.0018604039233953698,-0.01249701804587643,0.01050513232706439,21.46943707499304
1619,B,173729971263791.0,6.045906622576369,13.018776328840877,0.6338649,95,1970-01-03 00:15:29.971263791,0.6530071,-0.6327671,0.5592638,2.850006522285383,1.0675150928597028,-101.78413391113281,18.319229125976562,-11.234694480895996,21510881.0,41444.0,0.14520168517911503,0.04116905755488127,0.0708468623122,0.001662826141533123,-0.004236270132057045,0.006904887509963732,21.510881864989642
1619,B,173730011099730.0,8.292864852576368,20.960942228840878,-3.602675,95,1970-01-03 00:15:30.011099730,-0.070307456,-1.6511599,0.036218993,6.75028683554426,1.6530529238929816,-104.70741271972656,17.741867065429688,-12.06222915649414,21550717.0,39836.0,0.2855996502420922,0.2864152342319052,-0.05913275957180001,0.008580700998919607,0.006524823923809213,0.000233321498383287,21.55071780399885
1619,B,173730051118585.0,9.95683505257637,19.917668728840876,-6.949769,95,1970-01-03 00:15:30.051118585,-0.39521313,0.8767126,0.36432046,9.056459594410054,1.0283714303196916,-107.50383758544922,16.633203506469727,-12.927530288696289,21590736.0,40019.0,0.36516737025215373,0.42577436595773305,-0.211149128218,0.013021522696579614,0.014250557804994565,-0.005408205433730003,21.590736659010872
1619,B,173730089146135.0,7.093968452576369,17.573146628840878,-1.6053122,95,1970-01-03 00:15:30.089146135,-1.2112057,3.4898064,0.4825648,2.691989184075311,3.725404238923944,-110.37515258789062,15.519803047180176,-13.87191390991211,21628764.0,38028.0,0.3242039778469742,0.34017596321096083,-0.1626663139368,0.013107706812756819,0.014563779558813545,-0.007107726817131367,21.628764208988287
1619,B,173730128414417.0,6.144068902576369,7.715021528840877,7.0664864,95,1970-01-03 00:15:30.128414417,0.99069595,0.7850999,0.33768883,10.73524014936629,1.308393696191319,-109.03209686279297,15.300898551940918,-13.569384574890137,21668032.0,39268.0,0.25991562543106883,0.11168149360792354,0.10722469424279998,0.011468604290761096,0.008871769307181974,-0.0010885407610719963,21.668032490997575
1619,B,173730170048271.0,-4.843520647423632,-3.821439471159122,-5.117606,95,1970-01-03 00:15:30.170048271,-0.39840892,2.2221417,-0.9534117,22.927327326139434,2.4506401759767478,-108.97570037841797,15.53207778930664,-13.635449409484863,21709666.0,41634.0,0.02707351302751453,-0.32696050230523893,0.04056984328679998,0.00597425289529233,-0.004481463124052014,0.0030766388877536827,21.709666345006553
1619,B,173730209885197.0,-3.076001647423632,6.017532528840876,-0.38965634,95,1970-01-03 00:15:30.209885197,-2.582201,-1.091896,-2.9252162,13.256310672090303,4.05177599281592,-108.76091003417969,16.07146453857422,-13.446822166442871,21749503.0,39837.0,-0.15774500482991521,-0.346659720430566,-0.10969640491929,-0.002602780109466118,-0.013417504406563129,-0.0013768974178767525,21.749503271013964
1619,B,173730249752856.0,1.6717003525763685,3.9088395288408773,5.4432178,95,1970-01-03 00:15:30.249752856,-3.641074,0.69987875,-1.4029533,13.728255164850296,3.96428153643992,-107.97111511230469,16.13861846923828,-13.187493324279785,21789370.0,39867.0,-0.02799263986083792,-0.1928292625882008,0.10073516736291,-0.0037024013404431274,-0.010753903643004587,-0.0001786288288301009,21.78937092999695
1619,B,173730288936189.0,-6.324933647423632,-1.506246471159125,-0.97503865,95,1970-01-03 00:15:30.288936189,-4.398477,1.24849,0.10439592,21.187368234839074,4.573426036107028,-107.89815521240234,16.601444244384766,-13.164384841918945,21828554.0,39184.0,-0.09116614671264757,-0.3369315968138991,0.0875405659068,-0.002334558946547728,-0.01037907475740594,0.0036886981662201577,21.8285542629892
1619,B,173730328051710.0,3.6576903525763687,6.052247528840876,9.002198,95,1970-01-03 00:15:30.328051710,-2.5406556,0.34514567,-0.6263755,13.446051298141548,2.6393943771879487,-106.74229431152344,16.590877532958984,-12.804452896118164,21867669.0,39115.0,-0.052164610738975346,-0.29441858431438916,0.156991168987625,-0.0028031912888601147,-0.012347631167416495,0.004782429405197716,21.86766978399828
1619,B,173730368127908.0,9.92810465257637,9.039613228840878,2.8443117,95,1970-01-03 00:15:30.368127908,-1.8514296,-0.7520767,-1.442368,8.375371856340891,2.4645154440301345,-105.98936462402344,15.590035438537598,-12.514912605285645,21907745.0,40076.0,0.27223216031325054,-0.09033409413757304,0.23738036136860002,0.0044097135583693265,-0.007709674170820419,0.007902416725278036,21.907745981996413
1619,B,173730408122699.0,1.0288570525763685,10.868184528840876,0.9792285,95,1970-01-03 00:15:30.408122699,-0.014913702,-0.91612744,-1.2101405,6.974473731792869,1.517877443856568,-105.48126983642578,16.25506019592285,-12.316848754882812,21947740.0,39995.0,0.2191118416987919,0.006155185659240852,0.0764612451495,0.009825651680235819,-0.0016833677222954481,0.006276047526345706,21.947740773000987
1619,B,173730447670616.0,0.8714383525763685,16.361081968840878,-0.88405895,95,1970-01-03 00:15:30.447670616,1.4146712,-1.3315805,0.42717105,5.108473754212679,1.9891898697831216,-105.68775177001953,17.66352653503418,-12.340757369995117,21987288.0,39548.0,0.03757644134149022,0.15086111572515895,0.0018818826816999988,0.005075754108838539,0.003104840343575122,0.001549157009734149,21.987288689997513
1619,B,173730487831658.0,6.680968612576368,15.948082188840877,-2.1404164,95,1970-01-03 00:15:30.487831658,2.146508,-1.2644689,1.5606124,2.294034900527545,2.939709042773616,-106.94249725341797,17.188541412353516,-12.711209297180176,22027449.0,40161.0,0.15165610806374955,0.2552063708683284,-0.060732977265675,0.003799884208331917,0.008154038164540522,-0.0011817594047935102,22.027449732006062
1619,B,173730528643168.0,1.8859811525763686,9.872795528840877,2.8018146,95,1970-01-03 00:15:30.528643168,2.3883228,-1.8993665,1.2410331,7.665646471323746,3.2942134195612915,-105.9359130859375,17.716476440429688,-12.37508773803711,22068261.0,40812.0,0.17481717690770676,0.12694323070701383,0.013496491669200006,0.006662013853127538,0.007798144769746435,-0.0009639077250816688,22.068261242005974
1619,B,173730567665980.0,11.684850052576369,-3.821439471159122,-6.908469,95,1970-01-03 00:15:30.567665980,2.6599653,-0.89801794,2.6620958,21.592007381416177,3.8689282322296408,-105.88836669921875,17.07036590576172,-12.395030975341797,22107284.0,39023.0,0.26478727305933764,-0.2643543662805425,-0.0801269873256,0.008577342225531987,-0.0026810973717429046,-0.0013000609159998487,22.1072840540146
1619,B,173730609773219.0,8.73758795257637,-3.821439471159122,-4.421492,95,1970-01-03 00:15:30.609773219,5.607552,2.4160197,0.5134575,20.308893173771622,6.127432515156601,-105.5633544921875,16.453353881835938,-12.501386642456055,22149391.0,42107.0,0.42996379854148314,-0.5735579518120971,-0.23853533391350001,0.01462694168594788,-0.017640986988963388,-0.006708957180207391,22.149391293001827
1619,B,173730650047853.0,-7.719555647423632,0.7167695288408762,13.411719,95,1970-01-03 00:15:30.650047853,1.171791,-0.066046394,-0.007456851,24.327413340937238,1.1736745198172447,-104.45901489257812,17.036306381225586,-12.196651458740234,22189665.0,40274.0,0.020500116528860676,-0.45720393862846254,0.181036201099,0.009070991857771514,-0.020756452187801547,-0.0011578600374855864,22.189665926998714
1619,B,173730689487907.0,-2.291900647423632,8.061581528840875,5.1481323,95,1970-01-03 00:15:30.689487907,-0.32490566,-1.3315805,0.18748654,12.364698773151261,1.3834093821286082,-103.61469268798828,17.753440856933594,-11.880062103271484,22229105.0,39440.0,-0.19742591813438806,-0.2134029171425159,0.36600026763599997,-0.0034889768076610005,-0.013224367195803695,0.0107875591634542,22.229105981008615
1619,B,173730729354104.0,5.941160302576368,10.612603528840877,1.3730747,95,1970-01-03 00:15:30.729354104,0.15339808,-0.7041398,0.61678815,5.358640280183695,0.9485628344354151,-102.88321685791016,17.388290405273438,-11.63590145111084,22268972.0,39867.0,0.07274251733598706,-0.01845473215270082,0.1299904797345,-0.0024853765698149262,-0.004621734452226202,0.009886831562709862,22.26897217798978
1619,B,173730767204522.0,8.30483585257637,19.885945228840875,-1.8650831,95,1970-01-03 00:15:30.767204522,0.06498113,-1.5211977,0.066046394,5.1152617625493955,1.5240167702167096,-105.56803131103516,16.1966609954834,-12.34264850616455,22306822.0,37850.0,0.2696054772362656,0.2062550352391271,-0.00931125897,0.006478935797279883,0.0035541207359106176,0.0022838542529681626,22.30682259600144
1619,B,173730806881658.0,9.691677352576368,22.867325228840876,-6.153697,95,1970-01-03 00:15:30.806881658,-0.32384038,-0.7946873,-0.7435546,10.12577622911306,1.1354619939394688,-108.4273910522461,15.369379997253418,-13.069692611694336,22346499.0,39677.0,0.3570238272204226,0.45932615597471943,-0.15908056901385,0.012431385456464007,0.013204132461895893,-0.0033406412794576078,22.346499731997028
1619,B,173730846937491.0,6.784517852576369,18.384182428840877,-5.662287,95,1970-01-03 00:15:30.846937491,-1.768339,2.5704832,-0.054328486,6.294203541812965,3.120474048088574,-111.49452209472656,14.97940444946289,-13.966035842895508,22386555.0,40056.0,0.32998523756879905,0.43363639536805015,-0.236650527552,0.013759417549598531,0.01788425397829299,-0.007925702402020845,22.386555564997252
1619,B,173730886664574.0,8.528095352576369,11.193197528840876,4.185663,95,1970-01-03 00:15:30.886664574,0.13422333,0.6508766,-0.2759035,6.762405086301323,0.7195686152522905,-110.27506256103516,14.257668495178223,-13.684354782104492,22426282.0,39727.0,0.30416209240055136,0.19818568678941148,-0.029330920824000004,0.01259638548884619,0.012550197928934739,-0.005283322499816676,22.42628264799714
1619,B,173730926935719.0,8.006159352576368,-3.821439471159122,11.593922,95,1970-01-03 00:15:30.926935719,3.0562437,1.5435683,2.2668827,22.883650739916213,4.106334840963882,-109.01051330566406,13.9842529296875,-13.521697044372559,22466553.0,40271.0,0.3329254856156029,-0.24622176562954906,0.31772983376749997,0.012828076927144274,-0.0009672304654855903,0.005807056311573844,22.46655379299773
1619,B,173730966896552.0,2.3678143525763686,10.401914028840878,-9.053674,95,1970-01-03 00:15:30.966896552,0.02130529,2.0730047,-1.4807175,11.103583320407303,2.54761196346899,-109.93277740478516,14.065855979919434,-13.817155838012695,22506514.0,39961.0,0.2072771816158043,-0.26013662810023974,0.05075542516399997,0.010793519392617133,-0.010117293885918047,0.007362519716080836,22.506514626002172
1619,B,173731009222594.0,-2.5564596474236305,3.116956528840877,1.8974048,95,1970-01-03 00:15:31.009222594,-3.8008635,-0.14274544,-2.1315942,15.33843256980191,4.360118512121739,-109.52323913574219,14.475048065185547,-13.628267288208008,22548840.0,42326.0,-0.003992300374852604,-0.12869494238778106,-0.1514481250796,0.004302117941702262,-0.008228842526237986,-0.0021309596083138437,22.548840667994227
1619,B,173731048701916.0,0.24535435257636884,-0.645530471159125,5.2678423,95,1970-01-03 00:15:31.048701916,-2.5928538,-0.19281286,-2.1198764,18.154354895337907,3.3546897887036855,-108.78895568847656,14.535686492919922,-13.368844985961914,22588319.0,39479.0,-0.04562006296763752,-0.33810948533439106,0.14143839513045,-0.000979323246199084,-0.009214486001021817,-0.00019758706433124648,22.588319989998126
1619,B,173731087851761.0,3.656493252576369,-1.341646471159125,4.1419687,95,1970-01-03 00:15:31.087851761,-4.160923,2.8272119,-0.5901565,17.765554636404694,5.065046103829941,-108.24334716796875,14.33346176147461,-13.3009672164917,22627469.0,39150.0,0.07637866687086484,-0.4225689886458797,0.18419705032499997,0.0006020996714056747,-0.014890281128163799,0.006374313844790433,22.627469834988005
1619,B,173731128485979.0,-6.068753647423631,12.047329128840877,4.7141833,95,1970-01-03 00:15:31.128485979,-1.4210628,0.49641323,-0.9108011,13.371296343392059,1.759376088340433,-107.689208984375,15.46570110321045,-13.149909973144531,22668104.0,40635.0,-0.04901110057230925,-0.18071029260255103,0.17993486826,0.0005560405282709031,-0.012257126796764991,0.007398250255850736,22.6681040530093
1619,B,173731168421134.0,13.512823352576369,7.239173528840876,0.7086837,95,1970-01-03 00:15:31.168421134,-2.8943236,-1.3092101,-1.1771172,11.491532296429346,3.387734507011258,-107.39130401611328,14.247296333312988,-12.957589149475098,22708039.0,39935.0,0.1486394618376373,-0.006259758182739624,0.10828109682249999,0.0019893293035654373,-0.003733324489055291,0.005754952282784818,22.70803920799517
1619,B,173731206406918.0,1.4681928525763688,13.285131428840877,0.08319851,95,1970-01-03 00:15:31.206406918,0.26738137,-1.3560816,-1.176052,5.066675146625771,1.8148136018846774,-107.11338806152344,15.252670288085938,-12.810371398925781,22746024.0,37985.0,0.2845269502763634,0.01755486190877067,0.015039822873425,0.008226913082075156,0.00021452225751664468,0.002342172567324855,22.74602499199682
1619,B,173731248194573.0,0.42791235257636906,17.146380128840878,0.46267948,95,1970-01-03 00:15:31.248194573,1.4977618,-1.7150757,0.8021441,5.6276902213215525,2.414168640222663,-107.0064468383789,16.74837303161621,-12.732904434204102,22787812.0,41788.0,0.0396172221564613,0.22631360248620255,0.011405574723059997,0.006772668338811439,0.00509538769506857,0.0005525501373809575,22.787812647002283
1619,B,173731285800665.0,5.757405322576369,12.559688228840876,-4.9781437,95,1970-01-03 00:15:31.285800665,1.7789917,-0.777643,1.7225326,5.936467802776373,2.595507399754555,-107.874267578125,16.550186157226562,-12.99570083618164,22825418.0,37606.0,0.11630252824589693,0.19002440332949,-0.08490427372866001,0.0029317590668155417,0.007828403523352468,-0.0013819960374022969,22.82541873899754
1619,B,173731325877177.0,-8.024817647423632,-3.821439471159122,4.9643774,95,1970-01-03 00:15:31.325877177,4.0863543,-5.615009,2.0612867,24.543987118873567,7.2439989228882675,-106.94149017333984,17.2233829498291,-12.557127952575684,22865495.0,40077.0,-0.045435541871451886,-0.2176532022691942,-0.00027585600255000686,0.0014200681064643172,-0.0005536396875532629,-0.001706882029618852,22.8654952509969
1619,B,173731366391553.0,14.49085435257637,-3.821439471159122,2.1158757,95,1970-01-03 00:15:31.366391553,1.9568908,2.4991105,0.0053263223,21.528317061307405,3.1741145637869046,-106.3433837890625,16.281774520874023,-12.52794361114502,22906009.0,40514.0,0.13098250553627902,-0.5518589987345407,0.1434246870467,0.0017329248429584034,-0.01558800865573266,0.0028997658704613466,22.906009627011372
1619,B,173731405662438.0,1.8506667525763687,2.7189205288408775,1.407192,95,1970-01-03 00:15:31.405662438,4.305799,2.3297334,0.17470337,13.749227649973546,4.898783931851447,-105.61561584472656,16.3043270111084,-12.493779182434082,22945280.0,39271.0,0.32087393766022665,-0.4065043106918899,0.06917719582335001,0.008872427190384986,-0.018817942762242676,0.004174544271094867,22.94528051200905
1619,B,173731445302490.0,-5.989146647423632,-3.4144244711591245,11.542446,95,1970-01-03 00:15:31.445302490,0.5486112,-1.1472899,0.22690132,25.352739603992013,1.2917943228026638,-104.61186981201172,16.72693634033203,-12.166035652160645,22984920.0,39640.0,-0.08202467151587275,-0.4022568881367477,0.25666182516,0.004733992454981095,-0.016029646960783597,0.006458129395889998,22.98492056399118
1619,B,173731485468167.0,1.9967129525763685,9.281427528840876,2.9652188,95,1970-01-03 00:15:31.485468167,0.4857606,-1.3763217,-0.00958738,8.135399767407929,1.4595604476206234,-103.73609161376953,17.113422393798828,-11.854248046875,23025086.0,40166.0,-0.08018004589361759,-0.2757997775925774,0.2913574321784,-0.0032575573397347945,-0.013617412017842036,0.011005870745127086,23.025086240988458
1619,B,173731525404781.0,5.813669062576369,13.031346028840876,-0.48841715,95,1970-01-03 00:15:31.525404781,0.3121225,-1.3603427,0.47510794,2.803965930097657,1.4743406224819906,-103.60554504394531,16.759775161743164,-11.763050079345703,23065022.0,39936.0,0.15595770807856985,0.05416866239978918,0.0494567753472,0.0015131283585091266,-0.004425530108169595,0.006805378095871181,23.065022855007555
1619,B,173731566189156.0,8.857297952576369,21.684589528840878,-3.9312792,95,1970-01-03 00:15:31.566189156,0.14807177,-2.0730047,-0.71159667,7.687651522973008,2.1967347486777076,-106.43232727050781,15.952341079711914,-12.456915855407715,23105807.0,40785.0,0.2991776948565022,0.30825171586002514,-0.090128657817375,0.009281348704353458,0.007390657563663264,-0.0008294013632730438,23.105807229992934
1619,B,173731607326968.0,6.9161989525763685,22.91161752884088,-12.028469,95,1970-01-03 00:15:31.607326968,-0.72437984,1.4082797,-0.06178534,14.016719550333441,1.5848644403447985,-109.46563720703125,15.893412590026855,-13.343406677246094,23146945.0,41138.0,0.32444505784208666,0.514146982969456,-0.3282760607258,0.012827296400257275,0.0169159188362236,-0.008606166655714568,23.146945042011794
1619,B,173731647258738.0,8.225827352576369,16.224612478840875,0.6733692,95,1970-01-03 00:15:31.647258738,-2.9071066,4.777711,0.31851408,2.487593129382987,5.601717808176597,-108.99811553955078,13.040562629699707,-13.408490180969238,23186876.0,39931.0,0.30231812619552695,0.39005060021837,-0.2267102450569,0.012513640350902975,0.01805275684713654,-0.011080579088104498,23.18687681198935
1619,B,173731687079729.0,0.3812253525763687,4.824022528840876,1.7142484,95,1970-01-03 00:15:31.687079729,2.525742,0.28868666,0.74248934,12.384046121231242,2.6483963181970314,-108.2604751586914,13.432699203491211,-13.293152809143066,23226697.0,39821.0,0.1713707228859436,0.02884304732044748,0.0475386602248,0.00943138182963662,0.008340381969321626,-0.0035673958397995273,23.2266978030093
1619,B,173731727538322.0,-0.5513159474236309,-3.821439471159122,-5.1002483,95,1970-01-03 00:15:31.727538322,0.8064052,1.1004182,-0.3472762,21.258743903536967,1.407767850380424,-108.14112091064453,13.503310203552246,-13.320253372192383,23267156.0,40459.0,-0.0034408476884626904,-0.376216446034627,-0.06849708497705,0.00339713741030744,-0.0070271901692884955,-0.0004239784535256413,23.267156396002974
1619,B,173731766984312.0,-2.567233647423632,6.625060528840876,-3.6367924,95,1970-01-03 00:15:31.766984312,-2.066613,-0.27164245,-3.226686,12.9789198085173,3.8413775465328843,-108.29755401611328,14.006096839904785,-13.271924018859863,23306602.0,39446.0,-0.061507153659172566,-0.33127498187934284,-0.1723206537261,-0.0012809694305794103,-0.013953853432747229,-0.004749648260442227,23.306602386001032
1619,B,173731804659156.0,1.270072752576369,0.15892052884087704,9.244013,95,1970-01-03 00:15:31.804659156,-3.7689056,1.0524813,-0.96086854,18.735122329947114,4.0293466790191665,-107.41616821289062,14.062602996826172,-13.046414375305176,23344277.0,37675.0,-0.024435268356685313,-0.24142175682592,0.1056260180525,-0.0016189403747237227,-0.010788174815360388,-0.0012563601995014399,23.34427723000408
1619,B,173731844635667.0,-7.144348647423631,-0.44920747115912185,-0.004189853,95,1970-01-03 00:15:31.844635667,-3.536678,-0.77231675,-1.6650083,20.812482042031704,3.984572383215476,-107.23197174072266,14.604212760925293,-12.897934913635254,23384253.0,39976.0,-0.11741502658620706,-0.3975670554030571,0.184685585062236,-0.0028353036953185323,-0.012772108378832792,0.005802748323057343,23.38425374100916
1619,B,173731884541395.0,2.165504352576369,7.724597528840876,4.5513773,95,1970-01-03 00:15:31.884541395,-3.1286817,-0.34408042,-0.87351686,9.976121125410081,3.266507648857802,-106.38005828857422,14.85020637512207,-12.613496780395508,23424159.0,39906.0,-0.0993428802150874,-0.24591294217907597,0.090730031129991,-0.004324970514406229,-0.012839356391756299,0.005495367789883504,23.42415946899564
1619,B,173731924455510.0,9.560594852576369,14.184154128840877,2.678513,95,1970-01-03 00:15:31.924455510,-1.7917749,-0.8671253,-0.77231675,4.8348444022328385,2.1351432599478337,-104.62052917480469,12.583708763122559,-12.122458457946777,23464073.0,39914.0,0.23401776183723316,0.046075756832354715,0.1442869207171,0.0026877066125331624,-0.003988150707964516,0.004690233308012395,23.464073584007565
1619,B,173731965789416.0,3.7289178525763687,9.010284528840877,2.6611552,95,1970-01-03 00:15:31.965789416,-0.8032094,-0.6487461,-1.474326,7.593288380250371,1.7999038854309888,-103.82067108154297,12.671197891235352,-11.890058517456055,23505407.0,41334.0,0.27465435907739166,0.0742862637383088,0.11035492268940002,0.010512726722942551,0.0024875218791339027,0.005262682977682137,23.50540749001084
1619,B,173732004247854.0,-1.0157911474236316,16.453857328840876,-0.7188591,95,1970-01-03 00:15:32.004247854,1.3219932,-1.0088054,-0.10439592,6.95531708427943,1.6662091297397355,-103.92415618896484,14.083043098449707,-11.879497528076172,23543865.0,38458.0,0.05217071341338198,0.11276158378136239,0.0373484117069,0.0062845193189250866,0.0035967430599557573,0.0028401874171064528,23.543865927989827
1619,B,173732044293114.0,5.228885352576369,14.911392878840877,-3.0424318,95,1970-01-03 00:15:32.044293114,1.861017,-1.3177321,1.3933659,3.2316132394925856,2.672315605040359,-105.07278442382812,14.268735885620117,-12.137681007385254,23583911.0,40046.0,0.08435878526977325,0.23557560490841165,-0.0753123276907,0.002733730152132817,0.006974755529135345,-0.0007601514897436272,23.583911188005004
1619,B,173732084494728.0,0.0334673525763689,5.9678525288408775,6.287772,95,1970-01-03 00:15:32.084494728,2.1880531,-2.4884577,1.716141,13.04294928488737,3.731640125332278,-103.9581298828125,14.789426803588867,-11.790188789367676,23624112.0,40201.0,0.1057759205499226,0.02571347231710707,0.06523296069010001,0.0038218026543287965,0.0052520410967715385,-0.00020260031639555997,23.624112802004674
1619,B,173732125651655.0,18.51311335257637,-3.821439471159122,-3.591901,95,1970-01-03 00:15:32.125651655,2.437325,-0.053263225,1.8066885,23.60970498143772,3.034388482510875,-103.76362609863281,13.82795238494873,-11.791792869567871,23665269.0,41157.0,0.38166081104098565,-0.359168638892496,0.0554769813735,0.010030716781043506,-0.006862007145371641,0.002484029542755793,23.665269729011925
1619,B,173732165379001.0,6.654632422576369,-3.821439471159122,-4.2874165,95,1970-01-03 00:15:32.165379001,5.949502,2.3776703,0.5305017,20.09174685343331,6.428944093489147,-103.45909881591797,13.429469108581543,-11.909385681152344,23704997.0,39728.0,0.499932102077634,-0.5411525473102097,-0.15651476282,0.01751196162618826,-0.017883980042730546,-0.0020070144906532755,23.704997074994026
1619,B,173732203713010.0,-9.655866647423633,1.049563528840876,10.949882,95,1970-01-03 00:15:32.203713010,1.4349113,0.25033715,0.0777643,24.047957740825666,1.4586591150410375,-102.52552795410156,14.165247917175293,-11.716114044189453,23743331.0,38334.0,-0.057524656387647505,-0.42880174618641387,0.1276994762385,0.00847962351153997,-0.018591113943449783,-0.0005523025979076102,23.743331083998783
1619,B,173732246172281.0,-1.3833016474236315,7.4169425288408775,4.419098,95,1970-01-03 00:15:32.246172281,0.07989483,-1.3092101,0.1107875,11.928359980827917,1.3163161246292583,-101.74388885498047,14.815649032592773,-11.460709571838379,23785790.0,42459.0,-0.23435602331546,-0.23635850964844524,0.32627576091,-0.00619648088975712,-0.014121019651246139,0.00963766729704408,23.785790355002973
1619,B,173732283519416.0,6.120725422576369,10.468951528840876,1.0181342,95,1970-01-03 00:15:32.283519416,0.020240024,-0.6711166,0.48469532,5.425177835256076,0.8280922065790638,-101.1684341430664,14.443652153015137,-11.288633346557617,23823137.0,37347.0,0.08846428286531463,-0.032008357313879805,0.1015321554867,-0.0027243094152957894,-0.005011348690220976,0.007988671126833777,23.823137489991495
1619,B,173732323455354.0,7.837966552576368,19.305351528840877,-1.520318,95,1970-01-03 00:15:32.323455354,-0.13528858,-1.2676647,0.07137272,4.304275443603028,1.2768597638991939,-103.77454376220703,13.1351318359375,-11.848714828491211,23863073.0,39936.0,0.2787271613598499,0.2031604834557892,-0.010027606118400001,0.007332078758288084,0.0034175656548016465,0.0018271628417862143,23.863073428015923
1619,B,173732363392749.0,8.941693552576368,23.490416028840876,-9.050681,95,1970-01-03 00:15:32.363392749,-0.257794,-0.7520767,-0.6199839,12.272514844523519,1.0081949937279495,-106.67214965820312,12.625404357910156,-12.449087142944336,23903010.0,39937.0,0.3350646428097424,0.46318468447556804,-0.2110869935315,0.012256501641560502,0.013305913485837307,-0.004415326883109028,23.903010823007207
1619,B,173732403054156.0,7.884054952576369,17.124233828840875,-3.9875429,95,1970-01-03 00:15:32.403054156,-2.0154803,3.7156425,-0.1107875,4.661544194540073,4.228526208698557,-109.463134765625,11.35071849822998,-13.179033279418945,23942672.0,39662.0,0.333671418605684,0.4167415213276868,-0.25856101816090005,0.013261704833929322,0.01744981658728435,-0.009313589719871986,23.94267223001225
1619,B,173732443415406.0,7.390849352576369,7.030279528840877,5.0397944,95,1970-01-03 00:15:32.443415406,1.2378373,-0.7755125,-0.5273059,10.22135979383156,1.5529688764113563,-108.2974624633789,10.945792198181152,-12.921367645263672,23983033.0,40361.0,0.3082552063301348,0.09191235681469657,0.021234961395750002,0.012954400254517292,0.010264889587852368,-0.0047893584885491105,23.98303348000627
1619,B,173732482987646.0,-1.354570647423631,-3.821439471159122,-5.989694,95,1970-01-03 00:15:32.482987646,0.29827404,3.009372,1.603223,21.74304647500069,3.422807506280615,-108.28382110595703,11.185538291931152,-13.086549758911133,24022605.0,39572.0,0.11943381046015208,-0.32431549061870885,-0.018794713485600006,0.008462254886212618,-0.0045983284054461875,4.828274515022783e-05,24.02260572000523
1619,B,173732523025511.0,3.0220299525763687,12.559688228840876,-2.2691047,95,1970-01-03 00:15:32.523025511,-0.46871635,0.28868666,-1.9909793,4.869264230071248,2.065679931027014,-108.64633178710938,11.692598342895508,-13.13670825958252,24062643.0,40038.0,0.03338086782985265,-0.217441398119969,-0.16533289117529998,0.0030591970446876044,-0.010845431155659592,-0.003686050517706556,24.062643584999023
1619,B,173732563775874.0,-2.067444647423631,1.2452895288408765,3.4596214,95,1970-01-03 00:15:32.563775874,-4.192881,0.06711166,-2.9507825,16.928767558979448,5.127560084228677,-108.16101837158203,11.991302490234375,-12.951546669006348,24103393.0,40750.0,0.019449675592487028,-0.11807357818723432,0.024256777762499997,0.0010764223222301712,-0.0068361176422592675,-0.0028744258107858,24.103393947996665
1619,B,173732604825823.0,-7.268249647423631,-3.1977494711591223,0.01316811,95,1970-01-03 00:15:32.604825823,-3.4983284,-0.8905611,-1.7289242,23.091838980843036,4.0025716179008475,-107.9442138671875,12.487491607666016,-12.801502227783203,24144443.0,41050.0,-0.19161512540174006,-0.44236424031608207,0.07127900469275,-0.0035336958573349187,-0.01150298622478057,0.0019608719348940063,24.144443897006568
1619,B,173732644689104.0,4.586042152576368,2.9733045288408775,7.3071036,95,1970-01-03 00:15:32.644689104,-3.6666403,0.34301516,-0.69348717,14.81077491055703,3.7473770753059434,-107.04948425292969,12.360837936401367,-12.574858665466309,24184307.0,39864.0,-0.053461759787295636,-0.3951408365902872,0.14590765572371997,-0.004884872475587859,-0.01669315119289775,0.004328964515421079,24.184307178016752
1619,B,173732684967331.0,2.193636252576369,13.002615528840877,2.885013,95,1970-01-03 00:15:32.684967331,-1.2985574,-0.018109497,-0.72970617,5.44267813273925,1.4896477333626301,-106.14542388916016,13.167149543762207,-12.349915504455566,24224585.0,40278.0,0.13653594340137096,-0.07298534595834717,0.20525903620739996,0.0016730309838038629,-0.009427593190346948,0.007072146008800824,24.224585404997924
1619,B,173732724599992.0,10.61105085257637,7.054820028840876,3.139397,95,1970-01-03 00:15:32.724599992,-2.3776703,-0.8404937,-1.7470337,10.424212936818277,3.0678775177926303,-105.48402404785156,12.223983764648438,-12.11451530456543,24264218.0,39633.0,0.25374408201925924,0.009064771728800432,0.11938272076499999,0.007733984123747919,-0.001266682059219813,0.006433263377043564,24.264218066004105
1619,B,173732764436031.0,0.4757963525763689,16.039061848840877,1.7340006,95,1970-01-03 00:15:32.764436031,1.0237192,-0.7392935,-0.8213189,5.671951365591484,1.5063600549297966,-105.00508880615234,13.562627792358398,-11.972949028015137,24304054.0,39836.0,0.22082782263223225,0.06959113923966513,0.09706833339680002,0.009452523196848408,0.0015666684346698973,0.0043112720967947325,24.304054105014075
1619,B,173732802836760.0,2.3977418525763685,17.009910628840878,-0.66379243,95,1970-01-03 00:15:32.802836760,1.6064188,-1.2197278,1.1920309,3.73958999725178,2.3429159040906886,-105.6766128540039,16.403865814208984,-12.123188972473145,24342454.0,38400.0,0.05517193353893255,0.25822027157148963,0.020547996863999995,0.005299195318486364,0.006293979087574171,0.00225823354100736,24.34245483399718
1619,B,173732841977645.0,8.345537352576368,15.002372528840876,-3.762488,95,1970-01-03 00:15:32.841977645,1.2186625,-0.221575,1.3401027,4.5722272419821826,1.8248586290665203,-106.7265625,15.567615509033203,-12.436705589294434,24381595.0,39141.0,0.21025134568444165,0.24291458753741074,-0.086624521155315,0.005194466286041045,0.009807459760190736,-0.0012931506186431806,24.381595718994504
1619,B,173732882103583.0,-5.545620647423632,-1.2590444711591235,14.079103,95,1970-01-03 00:15:32.882103583,3.3886063,-4.2312303,1.1345067,24.885397909029663,5.5383271806911765,-105.40213012695312,16.12066650390625,-11.941108703613281,24421721.0,40126.0,0.05617472885547936,-0.11750240917873103,0.20698224674500001,0.005345306333494435,0.002516144534410191,0.0024147370485058505,24.421721657010494
1619,B,173732922049572.0,19.386398352576368,-3.821439471159122,2.9646204,95,1970-01-03 00:15:32.922049572,2.7132285,2.263687,1.4966966,24.00310754397824,3.8374455617810153,-104.80419158935547,15.08767032623291,-11.941852569580078,24461667.0,39946.0,0.2764418531050156,-0.4929433057799224,0.3404142874682,0.006643350991496967,-0.012192432264869185,0.010933150977840244,24.461667646013666
1619,B,173732961757437.0,0.3141877525763688,3.0571025288408773,3.229778,95,1970-01-03 00:15:32.961757437,3.879693,2.0271983,0.44847634,14.264588372929271,4.400304733687394,-103.97442626953125,15.321456909179688,-11.874871253967285,24501375.0,39708.0,0.39113543653170246,-0.4043135456527865,0.1229835858336,0.0132540795084474,-0.017814137528345,0.009200301376533939,24.501375510997605
1619,B,173733003946969.0,-8.77899064742363,-2.8009114711591234,12.381614,95,1970-01-03 00:15:33.003946969,0.72437984,-1.0354371,0.20559604,26.713368015236565,1.2802835124762473,-103.00468444824219,15.885842323303223,-11.577529907226562,24543565.0,42190.0,-0.17856501706680294,-0.4080576496382034,0.32932231423999997,0.004484172998612055,-0.017136970364663433,0.00954139296205259,24.543565043015406
1619,B,173733043704728.0,0.28366165257636844,9.990709528840878,2.2301989,95,1970-01-03 00:15:33.043704728,-0.17896444,-1.4413028,0.32490566,8.357048109418798,1.4882693707700865,-102.37213897705078,16.595966339111328,-11.334149360656738,24583322.0,39757.0,-0.1688743974240713,-0.2466961993103733,0.29046092273265,-0.006906574400956844,-0.013015524386324282,0.01232036107616082,24.58332280200557
1619,B,173733083805144.0,7.033514752576369,15.876256138840876,-0.55605334,95,1970-01-03 00:15:33.083805144,0.13102753,-1.6714,0.3110572,1.2918391248866816,1.7051400984346539,-103.66194152832031,14.063032150268555,-11.60206413269043,24623423.0,40101.0,0.14671304551151496,0.12565579511985298,0.033567455550779994,-0.0004443461865227107,-0.0024269206242220273,0.006496930998771913,24.623423217999516
1619,B,173733123683061.0,9.261319352576368,23.246207528840877,-3.7696705,95,1970-01-03 00:15:33.123683061,-0.793622,-1.9899141,-0.8788432,9.015273048328778,2.3155905023231225,-106.47550964355469,13.153115272521973,-12.15069580078125,24663301.0,39878.0,0.3249026972226404,0.38925840306990644,-0.08625060764576,0.009403546294376324,0.010266874197705611,-0.0010504493696218062,24.663301135005895
1619,B,173733164152957.0,8.130657752576369,21.375737528840876,-10.253767,95,1970-01-03 00:15:33.164152957,-0.84581995,0.4889564,0.24714136,11.8923333028214,1.007754236280658,-109.4303970336914,12.732608795166016,-12.829289436340332,24703771.0,40470.0,0.35192665672276563,0.5063190582421903,-0.2837642578125,0.01369564197708529,0.018122009929650275,-0.00748725080254789,24.703771030995995
1619,B,173733203518896.0,8.788464552576368,16.686693428840876,-0.55006784,95,1970-01-03 00:15:33.203518896,-2.5118935,4.615791,0.58696073,3.1012311599084184,5.287689326122081,-110.44187927246094,9.938429832458496,-13.222295761108398,24743136.0,39365.0,0.3330106247711687,0.363386797324571,-0.2126464792383,0.013481278043004362,0.01711798550219278,-0.00977060433200237,24.743136970006162
1619,B,173733242580249.0,2.3534491525763688,-2.7338734711591233,19.612701,95,1970-01-03 00:15:33.242580249,3.9990027,-1.3869743,0.26631612,27.20718155112201,4.241066443624721,-108.90274047851562,10.058161735534668,-12.930143356323242,24782198.0,39062.0,0.2176127165753381,-0.11029507340651772,0.37231228824796003,0.010754224479838625,0.004943134459843498,0.0031184329157676704,24.7821983229951
1619,B,173733283290145.0,0.5069210525763683,-3.821439471159122,1.2521675,95,1970-01-03 00:15:33.283290145,-0.05965481,3.5079157,0.59761333,20.371985072356654,3.5589567216891402,-108.3985366821289,10.178423881530762,-13.013961791992188,24822908.0,40710.0,0.05822283552588397,-0.5323913949408879,0.4247043983175,0.005614632663020376,-0.013081883063211442,0.01622327465503994,24.82290821900824
1619,B,173733320922229.0,-0.49565094742363147,9.080913028840877,-4.9057193,95,1970-01-03 00:15:33.320922229,-2.6567695,-1.7534252,-3.923369,10.470490689312609,5.052301299238426,-108.85790252685547,10.686107635498047,-12.9308443069458,24860540.0,37632.0,0.00021205829855389663,-0.2698313455386601,-0.0687452306688,0.001099510962200623,-0.015094623084863177,0.006697727698477939,24.860540302994195
1619,B,173733360968739.0,-2.2045126474236314,-3.821439471159122,3.7672763,95,1970-01-03 00:15:33.360968739,-4.1012683,0.5773733,-2.295645,21.542521746826154,4.735371956051898,-108.39055633544922,10.881397247314453,-12.795763969421387,24900586.0,40046.0,-0.05406537565962674,-0.28714036095453827,-0.02279504418900001,-0.0010783049735207614,-0.01115224447911331,-0.0018329109234777297,24.900586812989786
1619,B,173733400847124.0,-3.9732291474236314,0.6850465288408767,1.2970588,95,1970-01-03 00:15:33.400847124,-4.2280345,1.3923006,-0.66579026,18.07754993196295,4.5008947293023285,-108.12838745117188,11.385416030883789,-12.75979232788086,24940465.0,39879.0,-0.123181082518357,-0.45335230707335467,0.10098030972645,-0.0035342057528399066,-0.01476505355414217,0.001558975102183984,24.940465198014863
1619,B,173733440483479.0,2.8598227525763686,4.032140528840877,7.109582,95,1970-01-03 00:15:33.440483479,-3.2714272,-0.8362326,-0.8490158,14.067748112872861,3.4817163461218725,-107.1991195678711,11.476292610168457,-12.49142837524414,24980101.0,39636.0,-0.022065487933083053,-0.29494758689086303,0.16660280737439997,-0.0028784965332066385,-0.014829807298582865,0.005302962214704644,24.98010155299562
1619,B,173733480573218.0,9.641398952576369,10.492295228840877,1.6310499,95,1970-01-03 00:15:33.480573218,-1.7651432,-0.5635249,-1.3305153,6.705606505155507,2.281131691279646,-106.5994873046875,10.436127662658691,-12.314239501953125,25020191.0,40090.0,0.2505869890797866,-0.10173968523726927,0.17520596643550002,0.004580713490485673,-0.007951596369808413,0.006851556871019446,25.020191292016534
1619,B,173733521075354.0,1.3526728525763687,11.231504828840876,3.3584664,95,1970-01-03 00:15:33.521075354,-0.0031957934,-1.0610034,-1.2538162,7.244804075782429,1.6424961160652574,-105.67546844482422,11.145602226257324,-12.073594093322754,25060693.0,40502.0,0.2226409481261481,0.04300907496811316,0.10104269459130001,0.009583338956357384,-0.0011893535885606804,0.005594311634453728,25.060693428007653
1619,B,173733561726499.0,-1.6496560474236315,17.904743528840875,1.0181342,95,1970-01-03 00:15:33.561726499,1.4615428,-1.0929613,0.28442562,7.877441865987803,1.8470435005277797,-105.43683624267578,14.034148216247559,-11.987834930419922,25101344.0,40651.0,-0.00603633192686804,0.1938290159940604,0.0889565954953,0.004402597126558467,0.004813852617851659,0.003861830570655188,25.101344572991366
1619,B,173733601808374.0,7.406411752576369,15.839744560840877,-3.3381157,95,1970-01-03 00:15:33.601808374,1.5009576,-1.2154667,1.8354506,3.6748112754550033,2.6644158685999093,-106.6482925415039,13.475564002990723,-12.26095962524414,25141426.0,40082.0,0.115371141086966,0.28346968580531196,-0.046494749241499995,0.002191178910377523,0.009565543282761222,0.0008509778607724058,25.14142644801177
1619,B,173733640383738.0,5.826238619576369,9.056971028840877,-0.9163807,95,1970-01-03 00:15:33.640383738,1.8716697,-2.1422467,1.1110709,6.797091437573821,3.0539886925766098,-106.30652618408203,13.238374710083008,-12.119492530822754,25180001.0,38575.0,0.2552247440528959,0.10216040193598681,-0.082058599315,0.007147868134635086,0.0074378403173103,-0.0024794727102834934,25.1800018119975
1619,B,173733681816761.0,3.312925352576369,-3.821439471159122,-14.390349,95,1970-01-03 00:15:33.681816761,3.7731667,-3.4695663,2.3457124,24.460274521824914,5.637113083804364,-106.5860366821289,13.238871574401855,-12.096687316894531,25221434.0,41433.0,0.18933149042910216,-0.2975815104852859,-0.31710186583004996,0.009209649231646314,-0.004048441395261555,-0.008269207776177427,25.221434834995307
1619,B,173733722210666.0,10.004120652576368,-3.821439471159122,-6.141726,95,1970-01-03 00:15:33.722210666,5.485047,2.6727486,0.24927188,20.96399045148968,6.106673574145722,-106.36243438720703,12.616451263427734,-12.237603187561035,25261828.0,40394.0,0.26896437816606983,-0.5502244259980016,-0.41468631877499995,0.009256201658016688,-0.01712313649915296,-0.014779925964468192,25.26182874001097
1619,B,173733762045978.0,-4.015127647423632,2.2508545288408772,12.115858,95,1970-01-03 00:15:33.762045978,1.7971011,0.8873653,0.22583607,20.68523899867925,2.0169262430189026,-105.18511962890625,13.135936737060547,-12.039507865905762,25301664.0,39836.0,0.11928876267663222,-0.42167571088109485,0.118992761176,0.00773322605930494,-0.019358306926357847,-0.0058896242802568815,25.301664052007254
1619,B,173733799998689.0,-4.644203647423631,4.894053528840876,4.7925935,95,1970-01-03 00:15:33.799998689,-0.29614353,-1.2857742,0.41971418,15.883664627085157,1.3845852363215396,-104.4914779663086,13.905313491821289,-11.818900108337402,25339616.0,37952.0,-0.16431947065102165,-0.23634782469743107,0.32085477566399995,-0.0008545027145220139,-0.012486654611138107,0.008346546859075838,25.339616762998048
1619,B,173733839539468.0,4.766205852576369,12.009021928840877,1.7603368,95,1970-01-03 00:15:33.839539468,0.35260254,-0.4282363,0.4346279,4.316038499948124,0.7047100760671381,-103.56322479248047,14.028654098510742,-11.584239959716797,25379157.0,39541.0,0.0024120445969721994,-0.05331954666390293,0.12955470849615,-0.003200990766801585,-0.005726868765499255,0.008904820706588244,25.379157541989116
1619,B,173733880184416.0,7.778710152576369,18.481746128840875,-1.8974048,95,1970-01-03 00:15:33.880184416,0.50600064,-1.7757958,0.11611383,3.8048358504566053,1.850126966587785,-106.10601043701172,12.691919326782227,-12.095654487609863,25419802.0,40645.0,0.2549440555147165,0.2213276338522374,-0.0027855644299999995,0.005230119344519794,0.003414344351884927,0.0025762659302843334,25.419802490010625
1619,B,173733919727281.0,10.002324852576368,24.259553528840875,-7.243657,95,1970-01-03 00:15:33.919727281,0.20133498,-1.6053536,-0.46232477,11.884616485294773,1.6826883692948356,-108.89005279541016,11.88582706451416,-12.609061241149902,25459345.0,39543.0,0.35155773360437736,0.4575382061818548,-0.1807325033787,0.011991450123568163,0.013422195956234055,-0.0036284274776797122,25.459345354989637
1619,B,173733959352853.0,7.698504352576369,19.197013828840877,-6.0567317,95,1970-01-03 00:15:33.959352853,-2.0335898,3.1084416,0.43036684,7.184744474998035,3.7393999882663245,-111.87239074707031,11.211694717407227,-13.336043357849121,25498970.0,39625.0,0.3506976786270886,0.4726582407740697,-0.26351395111875,0.01391343535483592,0.018429517105314253,-0.008801632879730728,25.49897092700121
1619,B,173733999551708.0,9.49714835257637,11.439800228840877,5.181651,95,1970-01-03 00:15:33.999551708,-0.4708469,2.001632,0.060720075,7.677388019719082,2.057161732623766,-110.69412231445312,10.435688972473145,-13.202404975891113,25539169.0,40199.0,0.34562402154721744,0.22183444415237438,-0.017588684529650015,0.013995718012653464,0.013958955720679064,-0.005650022425215015,25.53916978201596
1619,B,173734039024364.0,-1.669408647423631,-3.821439471159122,-4.6860514,95,1970-01-03 00:15:34.039024364,2.1731396,2.2786007,1.3464943,21.52884831608607,3.4245589162782903,-110.43727111816406,10.710919380187988,-13.303170204162598,25578642.0,39473.0,0.15449218469074702,-0.2364756229060141,0.009781401505399988,0.009870543504415586,-0.00028896562447121017,-0.00015408844140811067,25.57864243799122
1619,B,173734078749729.0,1.7237743525763687,13.063667728840876,0.94570965,95,1970-01-03 00:15:34.078749729,-0.644485,0.20985709,-1.8066885,5.053018534809066,1.929643555033032,-109.93305969238281,11.659770965576172,-13.178035736083984,25618367.0,39725.0,0.0010798388185962538,-0.2057312412317962,-0.074292538009375,0.003090049316954331,-0.008783333838937257,-0.001281352448810204,25.618367802991997
1619,B,173734118661552.0,-0.14729464742363163,2.1634655288408773,1.8980033,95,1970-01-03 00:15:34.118661552,-3.8360174,0.624245,-3.0136333,15.01831537054379,4.917997252947245,-109.49372100830078,11.834546089172363,-13.028251647949219,25658279.0,39912.0,0.031460228996028024,-0.08726492870970297,0.0567491356302,0.0006493695933086421,-0.005847031567352558,-0.0003500961378788164,25.658279625989962
1619,B,173734158581708.0,-6.950419147423632,-2.435794471159122,1.5741876,95,1970-01-03 00:15:34.158581708,-4.297277,-0.12996227,-1.2602079,22.340596346616824,4.480134345929256,-109.2063217163086,12.36251449584961,-12.897372245788574,25698199.0,39920.0,-0.14167036734515137,-0.3966516856886722,0.069304930364,-0.002199794361448502,-0.009658975623391568,0.002516039157244232,25.698199781996664
1619,B,173734198885874.0,4.744059452576368,2.3723605288408773,8.015189,95,1970-01-03 00:15:34.198885874,-3.4163032,0.9938917,-0.4889564,15.67147644279921,3.591382272434959,-108.26483154296875,12.225663185119629,-12.698308944702148,25738503.0,40304.0,-0.04446256057056205,-0.3962575208055973,0.19324511724319998,-0.003750950763357457,-0.01597870632927252,0.005290908559380293,25.73850394799956
1619,B,173734241100613.0,3.265639852576369,13.695736828840877,3.1621418,95,1970-01-03 00:15:34.241100613,-1.5371766,-0.026631612,-1.3432984,4.601992509313893,2.041585593059433,-107.1683349609375,12.886237144470215,-12.421843528747559,25780718.0,42215.0,0.1690647280835114,-0.0745496350227324,0.23592550986100003,0.0026300402507795782,-0.00993756204164647,0.009058719011601902,25.78071868699044
1619,B,173734278669208.0,7.651817452576369,6.738186528840876,4.1946416,95,1970-01-03 00:15:34.278669208,-1.9590213,-0.19813919,-1.3869743,10.13592675687723,2.4084686631401366,-106.29315948486328,12.342110633850098,-12.17968463897705,25818287.0,37569.0,0.2050789767486416,0.015664833312372856,0.13819349777729997,0.007028102423419578,-0.0011061215577282488,0.007027638498981645,25.818287281988887
1619,B,173734318316031.0,-3.2136686474236305,17.348091628840876,0.12330139,95,1970-01-03 00:15:34.318316031,1.406149,-1.1696603,-0.3291667,9.21736123353008,1.858416246158535,-106.25941467285156,13.772469520568848,-12.127741813659668,25857934.0,39647.0,0.08797964283894531,0.08893373505880418,0.085596742862265,0.005809447545394529,0.002073509720106028,0.004436305835318417,25.85793410500628
1619,B,173734358375562.0,4.145509052576369,16.341928368840875,-2.8628666,95,1970-01-03 00:15:34.358375562,1.9089539,-2.2530344,1.7736653,3.3873709176137052,3.4447289583264253,-107.41070556640625,14.567903518676758,-12.351399421691895,25897993.0,40059.0,0.01866429739500677,0.2822160555435666,-0.054872121373694994,0.002136024800915943,0.007433944730870185,0.0006153988061053129,25.89799363599741
1619,B,173734398491031.0,6.0297457525763685,11.947371228840876,-4.213795,95,1970-01-03 00:15:34.398491031,0.99495703,-1.6735305,1.5158713,5.706269841587134,2.4674905519860375,-108.08988189697266,14.314630508422852,-12.477967262268066,25938109.0,40116.0,0.2040952608817536,0.17428997133030052,-0.14194367837279998,0.004468111219915259,0.009156597887036025,-0.003947731311315196,25.938109105016338
1619,B,173734438221239.0,-0.34541464742363104,-3.821439471159122,-13.4183035,95,1970-01-03 00:15:34.438221239,4.0352216,-6.7367325,1.4349113,24.56359888906811,7.982828356950341,-108.21290588378906,14.50998306274414,-12.269810676574707,25977839.0,39730.0,0.11291923740385913,-0.22793236563365202,-0.35026163670250005,0.0062974930084436975,-0.0010656061628360775,-0.009777658583970835,25.977839313010918
1619,B,173734478196500.0,11.626790752576369,-3.821439471159122,-2.3157916,95,1970-01-03 00:15:34.478196500,4.4783716,3.0956585,0.33662358,20.571313762244717,5.454560401253324,-107.74590301513672,13.752273559570312,-12.35932731628418,26017814.0,39975.0,0.22548650490174033,-0.5445170428595859,-0.31448522581125,0.006763884774333168,-0.015439332552258593,-0.013286627914493579,26.01781457400648
1619,B,173734517934207.0,-3.7852836474236318,3.7041345288408767,9.586384,95,1970-01-03 00:15:34.517934207,2.94013,2.3595607,0.0479369,18.200182454051305,3.770170959023755,-106.58629608154297,14.29468059539795,-12.22312068939209,26057552.0,39738.0,0.15580290467227975,-0.39176313189892126,0.1444594003956,0.007575839278826205,-0.018602950792276782,-0.0033782431251835497,26.05755228101043
1619,B,173734557752332.0,-5.583927647423631,1.3841535288408764,5.449203,95,1970-01-03 00:15:34.557752332,0.34194988,-1.639442,0.628506,19.19584500134701,1.7887760015809733,-105.83002471923828,14.949090957641602,-11.968988418579102,26097370.0,39818.0,-0.18653162766911416,-0.288913673059614,0.299343501583,-0.0006117781461439761,-0.013551594509919477,0.008835671975491947,26.097370406001573
1619,B,173734599910144.0,5.107379592576368,11.935998528840877,1.7256209,95,1970-01-03 00:15:34.599910144,0.36325517,-1.1792477,0.28549087,4.292765992032632,1.266524572734527,-104.86116790771484,14.943723678588867,-11.672740936279297,26139528.0,42158.0,-0.010045156448125455,-0.13237291477612637,0.1512381129881,-0.004143642032407294,-0.008880299984989572,0.009497809853544217,26.139528218016494
1619,B,173734640047956.0,7.410601652576369,17.769471128840877,-2.779668,95,1970-01-03 00:15:34.640047956,0.16618125,-1.6064188,0.12783173,3.7429018694588363,1.6200427525345729,-107.60208892822266,13.964279174804688,-12.285745620727539,26179666.0,40138.0,0.25122336560897024,0.20280667056001508,-0.0211536712499,0.004840205479648994,0.0014135350448268628,0.002610664661243936,26.17966603001696
1619,B,173734679928010.0,10.269278352576368,22.641671528840877,-4.8135424,95,1970-01-03 00:15:34.679928010,-0.3834952,-1.4689997,-0.9651296,9.457223500707158,1.799028580045156,-110.27165222167969,12.737415313720703,-12.815592765808105,26219546.0,39880.0,0.35253680730274556,0.4149741845941741,-0.151408615376,0.012038977847859613,0.012318550251774533,-0.003440891995320446,26.219546084001195
1619,B,173734719784572.0,7.114917652576368,20.137336528840876,-8.788516,95,1970-01-03 00:15:34.719784572,-1.4189322,2.49698,0.2727077,9.882796791013144,2.884899859308141,-113.28738403320312,12.399065017700195,-13.575169563293457,26259402.0,39856.0,0.3464322579906838,0.46191127257348197,-0.27106181979520005,0.013929055533167459,0.01747457339043705,-0.008418990832091676,26.25940264601377
1619,B,173734759770196.0,7.725439152576369,13.570639828840877,7.0245876,95,1970-01-03 00:15:34.759770196,-1.3305153,2.5044367,0.18322548,7.597324219400083,2.8418384409325963,-110.52567291259766,11.716428756713867,-13.09972858428955,26299388.0,39986.0,0.29670325360541866,0.2820607713191313,-0.035266220501199985,0.012858208283340875,0.014874233073545018,-0.006124416509645926,26.29938827001024
1619,B,173734797523739.0,7.3830682525763685,-3.821439471159122,19.612701,95,1970-01-03 00:15:34.797523739,4.383563,2.6013758,2.6226811,27.778181100987563,5.732472135134357,-109.01236724853516,11.595680236816406,-13.00277328491211,26337141.0,37753.0,0.2851957400333657,-0.1859486194482204,0.5028187782579,0.010984216353422513,0.0018142610347912503,0.008825755856494349,26.33714181301184
1619,B,173734837526708.0,1.256904852576369,3.974679528840877,-13.029844,95,1970-01-03 00:15:34.837526708,0.6317018,3.3641052,-2.2370553,18.185382892108684,4.0890912653116915,-109.68675994873047,11.545513153076172,-13.264477729797363,26377144.0,40003.0,0.17281242206271247,-0.38896436898627834,0.1316670142855,0.009160850254164707,-0.011499122138172627,0.012690667579556813,26.377144781989045
1619,B,173734877016656.0,-5.5809356474236305,2.853594528840876,2.5755625,95,1970-01-03 00:15:34.877016656,-4.091681,-0.6487461,-3.113768,17.469068255927425,5.1824970878766745,-109.30518341064453,12.143486022949219,-13.063899993896484,26416634.0,39490.0,-0.08537798804425917,-0.2521777287310738,-0.20641978821749998,0.0017263928996943602,-0.012659350719429117,-0.0014759935212873393,26.41663473000517
1619,B,173734917229364.0,0.4620297525763686,-0.7586574711591236,7.5950065,95,1970-01-03 00:15:34.917229364,-2.641856,0.59761333,-1.4583471,18.996201182356668,3.0762511407568955,-108.4629135131836,12.254104614257812,-12.862136840820312,26456847.0,40213.0,-0.10292328137474646,-0.3519655480497218,0.2044945455985,-0.0037860794735732365,-0.012147206794593066,-3.870989071892317e-05,26.456847438006662
1619,B,173734957693739.0,-1.7083141474236312,0.6329725288408774,-0.6805518,95,1970-01-03 00:15:34.957693739,-4.2717104,1.6064188,-0.6956177,16.96154283259331,4.616489476541118,-108.33145904541016,12.559524536132812,-12.852249145507812,26497311.0,40464.0,-0.02521482587654982,-0.39909005775298273,0.1398932474904,-0.0025924901859082266,-0.015195357016600316,0.006967653829774625,26.497311813000124
1619,B,173734998304258.0,-4.566392647423631,8.701432128840876,7.3849154,95,1970-01-03 00:15:34.998304258,-2.1763353,-0.17257284,-1.3305153,14.61986774709196,2.5566555666858695,-107.50315856933594,13.401585578918457,-12.614105224609375,26537922.0,40611.0,-0.12741105882277107,-0.20844804622344318,0.1361354550798,-0.0030991449017620607,-0.012336364970293317,0.005604900820039196,26.53792233200511
1619,B,173735036804625.0,12.465958352576369,9.864415528840876,2.6437972,95,1970-01-03 00:15:35.036804625,-2.779275,-1.3677995,-1.1430287,9.253319684042145,3.3017812778633506,-106.9415283203125,12.199109077453613,-12.377290725708008,26576422.0,38500.0,0.1520666398241902,-0.019907432589626295,0.19305271754999997,0.0004746199342773181,-0.004395842967151588,0.006336872323123649,26.576422698999522
1619,B,173735076508270.0,1.9584057525763687,12.020992928840876,0.65541273,95,1970-01-03 00:15:35.076508270,-0.101200126,-1.3486248,-1.659682,5.473000549383416,2.140928456955406,-106.4633560180664,12.95041561126709,-12.185428619384766,26616126.0,39704.0,0.28635247621549215,0.04536992870189812,0.06549591553036001,0.008703496291619773,0.0005054814728208203,0.005132707463911306,26.616126344015356
1619,B,173735116469520.0,-1.2073276474236314,17.946642128840878,0.37828386,95,1970-01-03 00:15:35.116469520,1.7374463,-2.0133498,0.34621096,7.408256910118335,2.681820107943083,-106.4520492553711,15.858088493347168,-12.112784385681152,26656087.0,39961.0,0.01500691608000427,0.2071505322700103,0.020653774716495,0.006021311337760167,0.005045485070449216,0.0017213138859772867,26.656087593990378
1619,B,173735156390406.0,6.511578852576369,17.404953928840875,-2.456451,95,1970-01-03 00:15:35.156390406,1.7353158,-0.6498113,1.7129452,3.0078503502968377,2.523441481298976,-109.30914306640625,15.542916297912598,-12.903154373168945,26696008.0,39921.0,0.1058755061804512,0.3144097331093566,-0.04148125519796999,0.0024128735895298215,0.010410603677104854,-0.0004157269241504815,26.69600848000846
1619,B,173735196745354.0,3.2458877525763685,5.796068528840877,3.7134068,95,1970-01-03 00:15:35.196745354,1.9835224,-1.8216022,1.2463595,10.981530029853364,2.9674918179477516,-108.26914978027344,15.672110557556152,-12.586956024169922,26736363.0,40355.0,0.19688128242546937,0.07265963063987353,0.0253622256545,0.006108875102095963,0.007810092087050091,-0.0003252417186133657,26.73636342800455
1619,B,173735236250198.0,14.86075935257637,-3.821439471159122,-5.6108117,95,1970-01-03 00:15:35.236250198,2.372344,-0.87032104,2.1880531,22.29320399392696,3.3426114245335623,-108.09429931640625,14.879660606384277,-12.566165924072266,26775868.0,39505.0,0.35765154694452944,-0.3481451395381412,-0.037478490287250005,0.010953409712130902,-0.005441527514513032,-0.00023932651715839444,26.77586827200139
1619,B,173735276203166.0,4.515413152576369,-3.821439471159122,-1.8231846,95,1970-01-03 00:15:35.276203166,5.4722633,1.3741912,0.30786142,19.74441400274134,5.650561541352217,-107.51253509521484,14.61005687713623,-12.556097984313965,26815821.0,39953.0,0.3870681100491837,-0.5442173711912205,-0.14850522708695002,0.014876892227934911,-0.017826279695585093,-0.003715303730125707,26.815821240015794
1619,B,173735316791708.0,-5.746733647423631,-2.642295471159125,13.086108,95,1970-01-03 00:15:35.316791708,1.1227888,0.3270362,0.00958738,25.417025319659754,1.1694867606651835,-106.40860748291016,15.04284381866455,-12.302989959716797,26856409.0,40588.0,-0.024988418122430335,-0.5289374369194065,0.2285697674796,0.0073480452679615315,-0.021778603675797065,0.0016248297827284389,26.856409781990806
1619,B,173735355686030.0,-0.9319941474236311,6.3766625288408765,5.024831,95,1970-01-03 00:15:35.355686030,-0.0958738,-0.24501082,0.84368944,12.655798399781629,0.8837612565682126,-105.53450775146484,15.604981422424316,-12.070898056030273,26895304.0,38895.0,-0.12988455879029212,-0.30854689664573415,0.35221248620249995,-0.0030118922185101695,-0.016286976577008075,0.011294762878482637,26.895304103993112
1619,B,173735395557593.0,6.952710552576368,13.315657328840876,2.818574,95,1970-01-03 00:15:35.395557593,0.3153183,0.18216023,0.7456851,3.9047475593281162,0.8298519434637439,-104.24024963378906,15.091692924499512,-11.750617980957031,26935175.0,39871.0,0.12002599189492238,0.0018404425228145513,0.15636220037749998,-0.00019653546034264336,-0.006114346516167463,0.010138690664315587,26.93517566699302
1619,B,173735435520457.0,6.475665852576369,21.543331528840877,-3.7475243,95,1970-01-03 00:15:35.435520457,0.04580637,-2.5427864,-0.17576863,6.891265834810158,2.549265680710744,-107.15267944335938,15.45187759399414,-12.397429466247559,26975138.0,39963.0,0.26831910313955937,0.30489748585976795,-0.01856182041945,0.007759717516431498,0.006129083915976572,0.0027534582921317752,26.97513853100827
1619,B,173735475404468.0,8.236002752576368,21.488863528840877,-7.5549035,95,1970-01-03 00:15:35.475404468,-0.7105314,-1.1227888,-0.8213189,9.753351476315165,1.562073716342673,-110.09779357910156,14.959385871887207,-13.097210884094238,27015022.0,39884.0,0.2933800953239559,0.46728483384028946,-0.22539301518760002,0.011201405415759424,0.015398859819458547,-0.004864947331675792,27.0150225420075
1619,B,173735515246707.0,6.7557874025763685,16.937486028840876,-3.5697548,95,1970-01-03 00:15:35.515246707,-2.251969,3.097789,0.36005938,3.8521793042945047,3.846726377402997,-113.1237564086914,14.2354097366333,-13.97745132446289,27054864.0,39842.0,0.2986514516807977,0.3750397095385782,-0.2216143179943,0.011793860447881699,0.016779947228650425,-0.008904833084316631,27.054864781006472
