Subject-id_accel,Activity_accel,Timestamp_accel,accel_x,accel_y,accel_z,Segment_accel,DateTime,gyro_x,gyro_y,gyro_z,accel_magnitude,gyro_magnitude,Roll,Pitch,Yaw,Time_Difference,Difference_Microseconds,vx,vy,vz,dx,dy,dz,Time_diff
1648,B,459856955214000.0,1.4849122,12.628939,-2.1339624,244,1970-01-06 07:44:16.955214,-0.89588743,0.1107875,-2.5800705,12.893752752090588,2.73343226408823,-97.36817169189453,-4.084481239318848,-85.19974517822266,16159953.000000002,3223842.000000002,3.069163108588651,41.946583352409014,-27.186221788256418,27.692779285080945,101.62204890461496,-58.967838501934814,16.159952999965753
1648,B,459860179081000.0,7.048543,4.629573,-12.889996,244,1970-01-06 07:44:20.179081,4.160923,-3.0945933,-0.13954964,15.403470435755509,5.187413807125669,-97.1711196899414,-4.071823596954346,-85.04498291015625,19383820.0,3223866.999999998,13.75536230762919,-3.7743229470479993,-24.217621847566384,27.120016140002967,61.53114531812496,-82.85957758534452,19.38381999998819
1648,B,459863402952000.0,0.728086,16.983084,2.8740237,244,1970-01-06 07:44:23.402952,-0.95234644,0.33449304,-2.1315942,17.239932238921757,2.358504434819395,-97.21851348876953,-4.179659843444824,-85.0482406616211,22607691.0,3223871.0,12.5354243554295,3.2442732676235013,-16.14510131738665,42.37905234511084,-0.8544058950279678,-65.06210634626015,22.60769099998288
1648,B,459866626755000.0,8.097562,11.900852,8.408914,244,1970-01-06 07:44:26.626755,1.9675435,2.4863272,2.3318639,16.670651556827167,3.9358149877725834,-97.11017608642578,-4.079482078552246,-85.18649291992188,25831494.0,3223803.0,14.226075249672,14.964790364304003,18.186984203036552,43.13690135571252,29.35121698189939,3.2913140862034043,25.83149399998365
1648,B,459869850592000.0,1.7986598,-0.6777906,-1.6238233,244,1970-01-06 07:44:29.850592,0.49641323,-2.7047064,-2.9784794,2.516223218080481,4.0537886404380234,-97.0964126586914,-4.210537910461426,-85.03347778320312,29055331.0,3223837.0,15.951902999523298,-13.502942302704101,10.93701322350795,48.64444143247551,2.3563799346820216,46.945510245799476,29.055330999952275
1648,B,459873074488000.0,8.475974,-1.4609619,-2.2297633,244,1970-01-06 07:44:33.074488,0.060720075,0.8213189,-2.4106934,8.885290614040406,2.547487847234757,-97.0914306640625,-4.335219383239746,-85.05941772460938,32279227.0,3223896.0,16.5621754046424,-35.04173861487,-6.2117812126968,52.411003655438094,-78.25150131572173,7.616828289363012,32.2792269999627
1648,B,459876298260000.0,-2.1076174,-0.57001466,0.91010743,244,1970-01-06 07:44:36.298260,-1.7779263,-1.9750003,-1.820537,2.3654309018736694,3.221180386380244,-97.1886978149414,-4.413268566131592,-84.94979858398438,35502999.0,3223772.0,10.2650648465476,-34.86666828339216,-2.12713482167082,43.24245297952964,-112.6843823616122,-13.441382010972687,35.502998999960255
1648,B,459879521930000.0,8.722662,0.9436377,-5.398374,244,1970-01-06 07:44:39.521930,1.9984361,-2.0037625,-1.0183928,10.301345849886863,3.007646072476165,-97.09696960449219,-4.451335906982422,-84.84373474121094,38726669.0,3223670.0,10.662360412840998,-30.989747307321604,-7.234345146855949,33.73155649296662,-106.14967562365811,-15.089161065070344,38.726668999996036
1648,B,459882745689000.0,-5.213958,-4.742139,-3.4751735,244,1970-01-06 07:44:42.745689,-1.2644689,-3.6762276,-2.2413163,7.858121351581894,4.487430191402943,-97.17562866210938,-4.539700031280518,-84.6468276977539,41950428.0,3223759.0,5.655608049167999,-37.715564576193344,-14.303089307526248,26.302598845558833,-110.74468376614414,-34.715749079612344,41.95042799995281
1648,B,459885969554000.0,8.358619,0.25387207,-0.99393314,244,1970-01-06 07:44:45.969554,0.72970617,-0.94488955,-0.5837649,8.421333962139094,1.3289352184012888,-97.14317321777344,-4.562771797180176,-84.59616088867188,45174293.0,3223865.0,5.068981267382499,-38.82866033314223,-7.203898238981799,17.28731406850054,-123.38412381866758,-34.667812203311584,45.17429299996002
1648,B,459889193357000.0,4.1074586,6.3084817,-4.9864306,244,1970-01-06 07:44:49.193357,-1.8716697,-1.3518206,-1.5936357,9.029543047052005,2.8053950069102465,-97.2429428100586,-4.633365154266357,-84.51885986328125,48398096.0,3223803.0,20.0940891825564,-21.01540151460635,-9.639757283051612,40.56039100286219,-96.4627330584787,-27.150313601448943,48.39809599996079
1648,B,459892416950000.0,4.806804,19.47151,-12.549903,244,1970-01-06 07:44:52.416950,5.3231263,-1.24849,1.0013486,23.6589334434992,5.558515980419023,-96.98126983642578,-4.575949668884277,-84.46293640136719,51621689.0,3223593.0,14.367977258760902,9.960888992089046,-28.265001119312398,55.54583807288269,-17.81762459299956,-61.094756926275906,51.62168899999233
1648,B,459895640733000.0,5.271438,17.945883,-4.629573,244,1970-01-06 07:44:55.640733,-1.200553,0.24074976,-1.7257284,19.268516325858148,2.1159930206207243,-97.04119873046875,-4.6630635261535645,-84.46435546875,54845472.0,3223783.0,16.245032614743,28.719704328859493,-27.691451338854,49.34485040451702,62.34891958899372,-90.19573008747253,54.845471999957226
1648,B,459898864418000.0,9.956097,2.5387208,-7.599397,244,1970-01-06 07:44:58.864418,3.4035199,1.969674,1.5456988,12.779663748994754,4.2252512536290014,-96.86235046386719,-4.598267078399658,-84.57183074951172,58069157.0,3223685.0,24.5443880832375,1.4258420005014956,-19.711173577225,65.74612183138464,48.58987275938304,-76.40556545129508,58.06915699999081
1648,B,459902088095000.0,2.3878345,11.330838,-0.46702883,244,1970-01-06 07:45:02.088095,-1.3049489,-0.5123922,-1.2303804,11.589122456410815,1.8652810316239776,-96.93025207519531,-4.65626335144043,-84.53889465332031,61292834.0,3223677.0,19.89642403306275,-9.236545748146202,-13.001775710188454,71.63141194031923,-12.589593012548024,-52.727991110000566,61.29283399996348
1648,B,459905311821000.0,7.8269243,7.199429,-9.077125,244,1970-01-06 07:45:05.311821,3.7252297,-2.0463731,0.082025364,13.981656560994356,4.2510830787582865,-96.752197265625,-4.640005588531494,-84.43745422363281,64516560.0,3223726.0,16.4647917636444,-1.724263042579002,-15.383868424885291,58.609298377727775,-17.6673221398447,-45.753769512492376,64.51655999996001
1648,B,459908535341000.0,1.3100758,5.1540823,0.17723145,244,1970-01-06 07:45:08.535341,-4.2269692,-0.036218993,-1.8397117,5.320927921311097,4.610110581354797,-96.964599609375,-4.731115341186523,-84.42462158203125,67740080.0,3223520.0,14.726651281176,-11.679600627112002,-14.344492428148001,50.27312024191973,-21.603811308261175,-47.91498288848494,67.74007999995956
1648,B,459911758974000.0,9.81958,3.6380348,-11.314073,244,1970-01-06 07:45:11.758974,2.7814054,-2.670618,-1.0215886,15.41647483803415,3.9889923249767127,-96.8370590209961,-4.765783309936523,-84.28545379638672,70963713.0,3223633.0,17.9389628577607,-17.420323988287855,-17.950544968175574,52.65097585177147,-46.90373864385764,-52.05367414351139,70.96371300000465
1648,B,459914982656000.0,-1.2549903,3.896697,-4.2367897,244,1970-01-06 07:45:14.982656,-1.2580773,-0.78723043,-3.1286817,5.8914883624538525,3.46282246478334,-96.90485382080078,-4.916385173797607,-84.22744750976562,74187395.0,3223682.0,13.804756826637702,-19.447293960756205,-25.0655180852307,51.1658288798204,-59.42473818260513,-69.33505408806542,74.18739499995718
1648,B,459918206249000.0,4.3445654,13.608501,-19.02843,244,1970-01-06 07:45:18.206249,5.7183394,-3.9926112,0.6988135,23.793858372419933,7.009186115073565,-96.63553619384766,-4.858154296875,-84.03262329101562,77410988.0,3223593.0,4.9797663326671495,-3.3763945317930024,-37.49879968419105,30.2768286823365,-36.78714122938109,-100.84094840564178,77.41098799998872
1648,B,459921429946000.0,-0.40715334,26.476942,-15.553258,244,1970-01-06 07:45:21.429946,-0.6540724,0.38775626,-1.0226538,30.70990175705877,1.2743572561355736,-96.66709899902344,-4.91119384765625,-84.04601287841797,80634685.0,3223697.0,6.3465117227929095,33.0194305713855,-55.740441930268,18.25624429427621,47.780083175863105,-150.28753173740338,80.63468499999726
1648,B,459924653378000.0,7.1395535,14.128221,-20.142115,244,1970-01-06 07:45:24.653378,5.1015515,-2.5960495,1.3560816,25.618053194523355,5.882538399318873,-96.42234802246094,-4.8290324211120605,-83.9243392944336,83858117.0,3223432.0,10.85071705627456,33.854357289708,-57.530803790068006,27.717048778883505,107.78155387633015,-182.56107906739703,83.85811699996702
1648,B,459927876916000.0,8.138277,27.906769,-9.347761,244,1970-01-06 07:45:27.876916,-2.7196202,-0.56459016,-1.3923006,30.53522464730219,3.10702382381874,-97.53883361816406,-7.5893120765686035,-83.77928924560547,87081655.0,3223538.0,24.6243335871545,36.16002139730999,-47.530867950644,57.177586900509006,112.8470051219963,-169.33514559985565,87.08165499998722
1648,B,459931100693000.0,2.9961696,27.039772,-7.197034,244,1970-01-06 07:45:31.100693,4.748949,-3.2107072,3.235208,28.141137156858182,6.582380126671266,-97.70858764648438,-8.785460472106934,-83.5870361328125,90305432.0,3223777.0,17.9474864284041,56.974682952678506,-26.6683647953575,68.62102710714873,150.12275889264643,-119.60088997210325,90.30543199996464
1648,B,459931140991000.0,7.551497,4.967271,-8.983719,244,1970-01-06 07:45:31.140991,2.4788704,-4.5348306,-0.4825648,12.743865002400607,5.190602644866159,-100.12710571289062,-10.224528312683105,-82.94336700439453,90345730.0,40298.0,0.2125249343234,0.24998950940699996,-0.32602599219700007,0.3659060689475964,1.153019925438561,-0.5439099799784356,90.34573000000091
1648,B,459931181258000.0,7.807764,1.4322218,-1.6214283,244,1970-01-06 07:45:31.181258,-0.20133498,-0.26631612,-1.2101405,8.101942217526124,1.2553485889121416,-102.3011474609375,-12.209729194641113,-82.49876403808594,90385997.0,40267.0,0.3092356813435,-0.2657724117112,-0.21351873316455,0.01050486735552953,-0.00031776506354161096,-0.010862923728066768,90.38599699997576
1648,B,459931221544000.0,5.886958,0.009580079,1.7938697,244,1970-01-06 07:45:31.221544,-1.0982877,1.2378373,-1.252751,6.154212766248477,2.075538995356045,-101.28865051269531,-14.957696914672852,-82.7943115234375,90426283.0,40286.0,0.275852785246,-0.3657605847513031,0.0034734871201999975,0.011785436982512299,-0.0127209691477442,-0.004230941391071342,90.42628299997887
1648,B,459931261870000.0,3.2236965,-1.3795313,1.0681788,244,1970-01-06 07:45:31.261870,-1.1685951,0.0628506,-1.7385116,3.6655602137410566,2.0957068709623803,-99.38518524169922,-12.906700134277344,-83.25434112548828,90466609.0,40326.0,0.1836981266835,-0.42281712646902303,0.057707483905500005,0.009265925037234508,-0.015900092391335434,0.0012335919187911892,90.46660899999551
1648,B,459931302186000.0,4.5792775,0.059875492,6.559959,244,1970-01-06 07:45:31.302186,-1.5020229,-0.34834146,-2.343582,8.000401838547205,2.805314805080411,-96.59548950195312,-13.64206600189209,-83.87643432617188,90506925.0,40316.0,0.157292349892,-0.42169842177766403,0.1537680017724,0.006873686026808928,-0.017023744421556717,0.004262922840295108,90.50692499999423
1648,B,459931342478000.0,6.0689797,9.721385,3.2404616,244,1970-01-06 07:45:31.342478,-1.0844392,-1.655421,-2.2338595,11.909594128193943,2.9843852518530327,-96.00601196289062,-16.534326553344727,-83.95034790039062,90547217.0,40292.0,0.2145197895512,-0.19780832612816804,0.1974392734076,0.007490527361222707,-0.012480582943310893,0.00707542176577628,90.54721699998481
1648,B,459931382757000.0,13.131892,21.789888,-9.726174,244,1970-01-06 07:45:31.382757,-0.44741106,-3.086071,-1.9430424,27.2368182288329,3.674156317013347,-97.33585357666016,-19.2164306640625,-83.39154052734375,90587496.0,40279.0,0.38669595560215003,0.23988708258349997,-0.13061900487980002,0.012108184499515893,0.0008474451156321576,0.001345726798015628,90.58749599999283
1648,B,459931423021000.0,7.5083866,38.123924,-8.830438,244,1970-01-06 07:45:31.423021,-1.2676647,-0.72970617,-1.9110844,39.84703358801857,2.406592709638571,-97.79045104980469,-20.674659729003906,-83.21162414550781,90627760.0,40264.0,0.41553008877520003,0.811597663184,-0.37358171278400004,0.016150414725404814,0.021168490901791306,-0.010150568848007623,90.62776000000304
1648,B,459931463318000.0,1.3124708,23.990911,3.3506324,244,1970-01-06 07:45:31.463318,-1.8034927,3.04133,-2.231729,24.259289513312286,4.181254407147966,-97.62736511230469,-22.167356491088867,-83.42984008789062,90668057.0,40297.0,0.1777270453239,0.8566101529975001,-0.11040986313159998,0.011953241366395716,0.03361188518433295,-0.009751704267335468,90.66805699997349
1648,B,459931503632000.0,0.016765138,3.276387,-1.575923,244,1970-01-06 07:45:31.503632,-1.3592775,-0.39840892,-2.735599,3.6357291078338276,3.0805627535148212,-98.3833999633789,-23.465185165405273,-83.12720489501953,90708371.0,40314.0,0.026793408802266,0.154549725786,0.0357728173758,0.004122518793821128,0.020381949676639012,-0.0015044589312996602,90.70837099995697
1648,B,459931543920000.0,-8.229287,-1.4944923,-7.582632,244,1970-01-06 07:45:31.543920,-1.0546118,-3.1158986,-1.2154667,11.28941893148413,3.506905962952256,-99.37326049804688,-22.85736846923828,-82.60933685302734,90748659.0,40288.0,-0.16543304038812798,-0.35892791316320005,-0.18448993192,-0.0027927567386656035,-0.0041169942065263174,-0.0029957575553783648,90.7486589999753
1648,B,459931584206000.0,-12.518767,-5.031936,-0.07185059,244,1970-01-06 07:45:31.584206,-2.3212113,-0.95128113,-0.21518342,13.492407850923733,2.5177890284502915,-99.28376007080078,-21.8581485748291,-82.64360809326172,90788945.0,40286.0,-0.41792805172200004,-0.5262646452469001,-0.15418424281037002,-0.01175064247837431,-0.017830433704054648,-0.006821913901593843,90.78894499997841
1648,B,459931624449000.0,-8.732242,-9.182506,7.0006423,244,1970-01-06 07:45:31.624449,-3.3353431,0.65726817,0.1438107,14.476859445306129,3.4025279660051653,-98.55695343017578,-20.73517608642578,-83.00086212158203,90829188.0,40243.0,-0.4276021775935,-0.680397294703,0.139417682392765,-0.017013336509171834,-0.024279848224701917,-0.0002971253454428394,90.82918800000334
1648,B,459931664733000.0,-3.6739602,-8.138277,14.240787,244,1970-01-06 07:45:31.664733,-2.1805964,0.11717909,1.4572818,16.808615364130443,2.6253384245535716,-96.00909423828125,-19.25075340270996,-83.92633056640625,90869472.0,40284.0,-0.24988572471239998,-0.743658411186,0.4278448689606,-0.013645961328245438,-0.02868333002801624,0.011425802309359478,90.86947199999122
1648,B,459931705021000.0,-7.7239385,4.91937,8.605306,244,1970-01-06 07:45:31.705021,1.8024274,-0.9555422,3.4738274,12.56625316083988,4.028558331865428,-94.7977066040039,-19.344160079956055,-84.26927947998047,90909760.0,40288.0,-0.22959927141279995,-0.45966406260799997,0.46021169739199996,-0.009658745761946027,-0.024239727912106334,0.01788901147260677,90.90975999995135
1648,B,459931745336000.0,3.1422658,29.140203,0.732876,244,1970-01-06 07:45:31.745336,5.268798,-1.5861788,4.252536,29.318294160309442,6.954154009055986,-94.53118896484375,-20.520713806152344,-84.21509552001953,90950075.0,40315.0,-0.09235506745025,0.29146884274749996,0.18823440366499997,-0.006489794585631929,-0.0033903951443380285,0.013071052282056475,90.95007500000065
1648,B,459931785635000.0,0.32572266,51.387543,-7.209009,244,1970-01-06 07:45:31.785635,6.682404,-0.05539375,3.400324,51.891766992367565,7.497986062385757,-94.40583801269531,-21.67713165283203,-84.15309143066406,90990374.0,40299.0,0.06987823347477,1.227663618027,-0.1304908418835,-0.00045289696618893436,0.030609759518375784,0.0011635038981163339,90.99037399998633
1648,B,459931825907000.0,3.4057178,22.01981,-14.7054205,244,1970-01-06 07:45:31.825907,5.8504324,-1.655421,1.3550164,26.69682262463376,6.22928947782006,-95.01203918457031,-22.74400520324707,-83.74402618408203,91030646.0,40272.0,0.07513628510256,1.083464860008,-0.44126895241200004,0.002920012346073117,0.04653688303371276,-0.01151295521793419,91.03064599999925
1648,B,459931866206000.0,9.721385,1.2981006,-7.470066,244,1970-01-06 07:45:31.866206,1.7235979,-2.5928538,-1.1856394,12.328514814457634,3.33157940561098,-97.71669006347656,-24.17535400390625,-82.50984191894531,91070945.0,40299.0,0.2645045578686,0.07491403963469996,-0.44682496523175,0.006843593165447389,0.023340755638350582,-0.017894648393562744,91.07094499998493
1648,B,459931906527000.0,7.817344,-0.06706055,-2.083667,244,1970-01-06 07:45:31.906527,-0.51452273,0.6412892,-0.96086854,8.090552051534635,1.2646160796403882,-100.03043365478516,-26.19611358642578,-81.55859375,91111266.0,40321.0,0.35358954600450004,-0.3703274170719751,-0.19260803414650005,0.012461086181133634,-0.005955681395824186,-0.01289128898396521,91.1112659999635
1648,B,459931946841000.0,5.3049684,-0.43349856,-0.97956306,244,1970-01-06 07:45:31.946841,-0.97258645,2.5630262,-0.46978164,5.412037926237878,2.78131668349563,-102.343017578125,-28.225011825561523,-80.63188171386719,91151580.0,40314.0,0.26450645104680004,-0.4051669699802701,-0.06174552831942001,0.012458961012563056,-0.015631640359812106,-0.0051270047586255505,91.1515800000052
1648,B,459931987131000.0,2.5962012,-0.4526587,0.47181886,244,1970-01-06 07:45:31.987131,-1.9078887,2.650378,-1.0748519,2.6772698045245327,3.438000791361936,-102.74024200439453,-31.152402877807617,-80.58413696289062,91191870.0,40290.0,0.15916906159199998,-0.41269363800270004,-0.010228506909000002,0.008534943202108626,-0.016475801947816934,-0.0014499169396765212,91.19186999998055
1648,B,459932027427000.0,6.07856,0.9148975,15.613133,244,1970-01-06 07:45:32.027427,-3.3140378,3.6112466,-2.5449169,16.779626074045726,5.522730354973526,-99.67253875732422,-32.351436614990234,-82.4112777709961,91232166.0,40296.0,0.1747790886576,-0.3855876126576,0.32407961007527997,0.006728387331228941,-0.016083770638303727,0.006323472026594208,91.2321660000016
1648,B,459932067701000.0,11.975099,6.095325,10.662627,244,1970-01-06 07:45:32.067701,-1.8397117,1.0077401,-3.1403997,17.153646768444165,3.77653141440992,-97.7799072265625,-34.86366653442383,-83.52808380126953,91272440.0,40274.0,0.36354653128299996,-0.25352034951749997,0.5291149791199999,0.010840263008743859,-0.012869717034319985,0.01718077944262535,91.27243999997154
1648,B,459932107976000.0,20.772005,17.004639,-17.529148,244,1970-01-06 07:45:32.107976,0.48043427,-4.189685,-2.0037625,32.06095707938629,4.668976509195745,-100.20931243896484,-37.11299133300781,-81.9049072265625,91312715.0,40275.0,0.6594448068,0.07048052504999996,-0.13827456663749996,0.020600488070646412,-0.003685964465214281,0.007870548806366343,91.3127150000073
1648,B,459932148285000.0,-1.2022998,44.408455,-12.739109,244,1970-01-06 07:45:32.148285,-0.060720075,1.2293152,-0.15339808,46.21516307890719,1.2403361477465422,-100.65225219726562,-38.16398620605469,-81.68341064453125,91353024.0,40309.0,0.3944176234534,0.8427220030229998,-0.6100415857064999,0.021240070350542147,0.018405140352047274,-0.015081937892417144,91.35302399995271
1648,B,459932188578000.0,-1.3292359,15.208375,6.940767,244,1970-01-06 07:45:32.188578,-2.4160197,5.301821,-1.9632823,16.77008600952192,6.148246457025156,-99.7977294921875,-39.32490921020508,-82.48345947265625,91393317.0,40293.0,-0.05100158398005,0.806199065595,-0.11681629710299998,0.006918631239249845,0.03321998830891253,-0.014643642336021591,91.39331699995091
1648,B,459932228861000.0,-0.9388477,-2.9051588,-1.8944606,244,1970-01-06 07:45:32.228861,-3.2043154,-3.4738274,-3.5750275,3.5930994450425513,5.92587003008201,-101.86664581298828,-36.955108642578125,-81.15097045898438,91433600.0,40283.0,-0.045682605829399994,-0.14696817090770004,0.1016401803556,-0.001947364609047037,0.013277899065344254,-0.00030566975546775666,91.43359999998938
1648,B,459932269165000.0,-8.52627,-2.4812403,-3.046465,244,1970-01-06 07:45:32.269165,-2.5449169,-4.919391,-0.78083885,9.388012704266494,5.593453240034812,-102.40596771240234,-35.81571960449219,-80.70875549316406,91473904.0,40304.0,-0.1907410518904,-0.5035259146632,-0.0995695326912,-0.00476440955036941,-0.013108756812424778,4.1727691732988844e-05,91.47390399995493
1648,B,459932309455000.0,-9.656719,-3.439248,6.0114994,244,1970-01-06 07:45:32.309455,-2.964631,-1.2293152,0.25353295,11.883550550515842,3.2193992892848415,-101.42640686035156,-34.87559127807617,-81.31572723388672,91514194.0,40290.0,-0.36629631340499996,-0.5141102368035,0.059730617988,-0.011221517723875831,-0.020500280271296672,-0.000802554936695964,91.51419399998849
1648,B,459932349759000.0,-7.079678,-4.4738965,8.583751,244,1970-01-06 07:45:32.349759,-2.3329291,-1.71188,0.70840085,11.992429766581802,2.9790809126822206,-100.18041229248047,-34.02136993408203,-82.02420806884766,91554498.0,40304.0,-0.337271872344,-0.5544448879639999,0.29412348606079997,-0.014178306079213847,-0.021533522874314655,0.007130867904791417,91.55449799995404
1648,B,459932390060000.0,-4.641548,-3.1350808,11.496095,244,1970-01-06 07:45:32.390060,0.0628506,-2.7973845,1.5680692,12.787998268214523,3.207514809747455,-98.63040924072266,-33.46091079711914,-82.78080749511719,91594799.0,40301.0,-0.23618856451300002,-0.54827449708365,0.404618936823,-0.011555514532886977,-0.022220346968402666,0.01408000919232001,91.59479899995495
1648,B,459932430348000.0,-5.6426663,15.205979,6.840176,244,1970-01-06 07:45:32.430348,3.625095,-1.8940402,2.5065672,17.602542090066784,4.79703879141673,-97.75053405761719,-34.14875411987305,-83.10799407958984,91635087.0,40288.0,-0.2071652128592,-0.15166622665920004,0.369365843024,-0.008930918491385597,-0.01409960593907597,0.015591149405237967,91.63508699997328
1648,B,459932470618000.0,1.5543678,38.72268,-3.1853762,244,1970-01-06 07:45:32.470618,6.441654,-0.43356264,2.9816751,38.88455512379694,7.111488537604471,-97.57908630371094,-35.20164489746094,-83.02361297607422,91675357.0,40270.0,-0.08231789029750002,0.691207548965,0.07358939397299999,-0.005828742282060154,0.010863664524627283,0.008918903696934596,91.67535699997097
1648,B,459932510907000.0,1.7387843,38.868774,-16.020287,244,1970-01-06 07:45:32.510907,6.8113008,-1.0695255,1.9750003,42.076769822164,7.172051977518775,-97.94462585449219,-36.16911315917969,-82.58139038085938,91715646.0,40289.0,0.06633890247845001,1.168208845103,-0.3868884823324,-0.00032188872012085286,0.03745701355030282,-0.0063112534854559334,91.71564599999692
1648,B,459932551165000.0,6.71324,12.188255,-10.633887,244,1970-01-06 07:45:32.551165,3.891411,-1.917476,-0.49321744,17.512872521987763,4.366126111854438,-98.99959564208984,-37.22896194458008,-81.7566146850586,91755904.0,40258.0,0.1701307971347,0.6331985367410001,-0.536521868446,0.004759898583513097,0.03626052918913788,-0.018587326950818415,91.75590399996145
1648,B,459932591445000.0,9.445957,0.847837,-4.28469,244,1970-01-06 07:45:32.591445,0.8447547,-1.0897655,-1.4924355,10.406896733441627,2.0318865789759504,-101.58065032958984,-39.325706481933594,-80.07959747314453,91796184.0,40280.0,0.32544622758,-0.13219710712000005,-0.30046014078,0.00998092127775406,0.010090168792566944,-0.01685681766581164,91.79618399997707
1648,B,459932631715000.0,6.837781,-0.7544312,-2.8285182,244,1970-01-06 07:45:32.631715,0.010652645,0.9406285,-0.6508766,7.438073046644923,1.14391249765238,-104.51959228515625,-41.116031646728516,-78.21159362792969,91836454.0,40270.0,0.32787306463,-0.392765274217,-0.14322444710700002,0.01315458394864835,-0.010570117548220497,-0.008933589177104746,91.83645399997476
1648,B,459932671992000.0,3.6140847,0.244292,-1.0514137,244,1970-01-06 07:45:32.671992,-0.7126619,2.6375947,-0.40053943,3.7718374260545455,2.7613809263056095,-106.96190643310547,-43.34637451171875,-76.68545532226562,91876731.0,40277.0,0.21048489739944998,-0.4049880382792,-0.07813600856814999,0.010841721818330078,-0.016065555083704722,-0.004457867536614008,91.87673099996755
1648,B,459932712293000.0,3.8847218,0.7232959,6.349197,244,1970-01-06 07:45:32.712293,-2.0602214,2.3840618,-1.0759171,7.478403771337908,3.3295435857350792,-103.91322326660156,-45.28266906738281,-78.95802307128906,91917032.0,40301.0,0.15110470037824997,-0.37545242002105006,0.10675298238665,0.0072862111900195425,-0.015726265454979186,0.0005766463309296844,91.91703199996846
1648,B,459932752556000.0,5.5612354,3.9182522,6.2270513,244,1970-01-06 07:45:32.752556,-2.0250678,0.3920173,-1.7257284,9.222592226150395,2.6893708685606548,-101.78644561767578,-47.79108810424805,-80.57289123535156,91957295.0,40263.0,0.19016128737180002,-0.30113607442485,0.25317874265145,0.006870196232390132,-0.013620741275937638,0.00724596552260451,91.95729499997105
1648,B,459932792860000.0,7.31439,15.18203,-5.0558863,244,1970-01-06 07:45:32.792860,-0.86392945,-2.3552997,-1.8013622,17.594212749410747,3.08848126867984,-102.7830581665039,-49.05046463012695,-79.76950073242188,91997599.0,40304.0,0.2594696030608,-0.010070313105600054,0.023601317080000003,0.009060961703997757,-0.006271431121513629,0.005577671763708181,91.9975989999948
1648,B,459932833163000.0,16.49929,15.783179,-13.479171,244,1970-01-06 07:45:32.833163,-1.3401027,-2.8410604,-2.2583606,26.514587696160426,3.868810158514864,-104.4632797241211,-50.21023941040039,-78.43270874023438,92037902.0,40303.0,0.47988137251999996,0.2290260091634999,-0.37350920718094993,0.01489903118441649,0.0044122857091107685,-0.007051168847369292,92.03790199995274
1648,B,459932873460000.0,10.114168,25.478218,-8.698711,244,1970-01-06 07:45:32.873460,-2.389388,0.51984906,-1.9366508,28.759408197132096,3.119300303091628,-105.45730590820312,-51.410552978515625,-77.7546615600586,92078199.0,40297.0,0.536221258513,0.43644465745449995,-0.44685105547699994,0.020472943861368397,0.01340823572635277,-0.0165290287521637,92.0781989999814
1648,B,459932913798000.0,2.567461,15.414347,-0.7879615,244,1970-01-06 07:45:32.913798,-1.582983,2.731338,-1.2591426,15.646559773586405,3.3987472009062047,-105.60601043701172,-52.5498161315918,-77.77098846435547,92118537.0,40338.0,0.255775775301,0.4294497434849999,-0.19133669765249997,0.015973788174994563,0.01746422417254877,-0.012871608792868883,92.118536999973
1648,B,459932954095000.0,-1.2502003,1.2573853,-2.6776319,244,1970-01-06 07:45:32.954095,-1.4519554,-0.45699844,-1.2463595,3.211499832581934,1.967341876998465,-107.36247253417969,-52.250553131103516,-76.41337585449219,92158834.0,40297.0,0.026540827213950006,-0.05900020175345004,-0.0698265086199,0.00568825606577247,0.007464002591578133,-0.00526204686157945,92.15883400000166
1648,B,459932994418000.0,-9.673484,-2.0381618,-4.8355446,244,1970-01-06 07:45:32.994418,-1.2591426,-1.707619,0.0628506,11.005130067374234,2.122581667266567,-107.88191986083984,-50.95988082885742,-76.00670623779297,92199157.0,40323.0,-0.22023786101444998,-0.41090702540475005,-0.15147690800475,-0.0039052227469687797,-0.00947403456035005,-0.0044618088342778806,92.19915699999547
1648,B,459933034727000.0,-9.295072,-6.464158,3.9637575,244,1970-01-06 07:45:33.034727,-2.47674,-0.16831179,0.7584683,11.995627355538945,2.595735743167608,-105.6102523803711,-48.5096321105957,-77.8390884399414,92239466.0,40309.0,-0.382301761902,-0.5663882044091001,-0.01757043310695001,-0.012143884830069588,-0.01969689670928324,-0.0034070646364357574,92.23946599999908
1648,B,459933075035000.0,-4.543352,-8.080796,12.533137,244,1970-01-06 07:45:33.075035,-2.5715485,-0.27057716,1.4199976,15.589125519101096,2.9499943849729062,-101.9000244140625,-47.1793212890625,-80.69053649902344,92279774.0,40308.0,-0.27889959729599995,-0.6881574029159999,0.33247841175299997,-0.01332585219327649,-0.025284112170030064,0.006346655401632491,92.27977399999509
1648,B,459933115369000.0,-6.1743608,-1.6813037,11.59908,244,1970-01-06 07:45:33.115369,0.49960902,-1.2069446,2.8644962,13.247194807453024,3.1482793586575126,-99.92008972167969,-46.59698486328125,-82.09762573242188,92320108.0,40334.0,-0.2161441140376,-0.5921454646499,0.48667442023900004,-0.00998354652646471,-0.025819867930201502,0.016519855162782666,92.32010799995624
1648,B,459933155656000.0,-5.4103494,24.225624,-0.2802173,244,1970-01-06 07:45:33.155656,4.6658583,-1.3646038,3.987285,24.82400573144221,6.287353885211038,-99.665283203125,-47.123931884765625,-82.09151458740234,92360395.0,40287.0,-0.23335660991370002,0.059308915963049956,0.22800151079745,-0.009054517832913013,-0.010733193018473565,0.014396074616832734,92.36039499996696
1648,B,459933195966000.0,8.4376545,42.633743,-4.0859036,244,1970-01-06 07:45:33.195966,6.0304623,-0.5550028,2.9550436,43.652315676031584,6.7384557828652465,-99.63124084472656,-48.109031677246094,-81.89393615722656,92400705.0,40310.0,0.0610153342905,0.9525125418849999,-0.0879991667395,-0.003473538410185596,0.020393261482927444,0.0028217472444879823,92.40070499997819
1648,B,459933236276000.0,-1.223855,38.49036,-16.45139,244,1970-01-06 07:45:33.236276,6.1284666,-0.22796659,1.5350461,41.876650617291794,6.321901467327453,-100.15259552001953,-48.807865142822266,-81.27664947509766,92441015.0,40310.0,0.1453941289225,1.2400182959650001,-0.41392915250799994,0.0041601827310580155,0.044190459036866754,-0.01011636527443336,92.44101499998942
1648,B,459933276572000.0,7.4269557,5.400769,-6.816226,244,1970-01-06 07:45:33.276572,2.8900626,-1.9504992,-1.0173275,11.436298074298323,3.6320606001794147,-101.68760681152344,-49.850425720214844,-79.9344711303711,92481311.0,40296.0,0.1249800729036,0.489417667092,-0.468795927168,0.005447499418392262,0.03484467578367244,-0.017785144905312047,92.48131099995226
1648,B,459933316861000.0,8.523875,-0.5005591,-1.7675245,244,1970-01-06 07:45:33.316861,-0.0053263223,-1.0769824,-1.551025,8.719584123472751,1.8882791134374186,-104.1805648803711,-52.34756851196289,-77.94983673095703,92521600.0,40289.0,0.32132150903615003,-0.29611992166945,-0.17291536194725002,0.008990522217385293,0.0038938864326645587,-0.012926953063582153,92.5215999999782
1648,B,459933357121000.0,4.8451247,0.5364844,-2.8812087,244,1970-01-06 07:45:33.357121,0.08735169,1.2346416,-0.14594123,5.662544696772745,1.2463021466764506,-107.7804183959961,-54.205238342285156,-75.09574890136719,92561860.0,40260.0,0.26911796396099996,-0.393824823711,-0.093578999316,0.011885546591432629,-0.013888587724508458,-0.005364531492229222,92.56185999995796
1648,B,459933397417000.0,3.7697608,0.46942386,-0.21794678,244,1970-01-06 07:45:33.397417,-0.79042625,1.9217371,-0.14807177,3.8051223434294865,2.0832120360818784,-109.7709732055664,-56.854549407958984,-73.53848266601562,92602156.0,40296.0,0.173572713054,-0.37463376037752005,-0.062441784611040003,0.008919331760498219,-0.015482903552215502,-0.0031435067545620018,92.602155999979
1648,B,459933437719000.0,5.611531,0.050295413,7.6664577,244,1970-01-06 07:45:33.437719,-2.1252027,1.8343854,-1.2452941,9.500862248155117,3.071190926548732,-106.2770004272461,-59.12923049926758,-76.62673950195312,92642458.0,40302.0,0.18904241106179998,-0.38448673692977703,0.15009494354891997,0.007307057366057485,-0.015297037141239344,0.0017662988057572193,92.64245799998753
1648,B,459933478020000.0,7.220984,4.864285,6.128855,244,1970-01-06 07:45:33.478020,-1.5659387,0.42717105,-1.8301244,10.647381936443624,2.446220439288159,-104.16570281982422,-61.87584686279297,-78.52949523925781,92682759.0,40301.0,0.2585815935075,-0.2959185473878435,0.27798244856134996,0.009019847504073678,-0.01371050668164221,0.008625973489717994,92.68275899998844
1648,B,459933518310000.0,10.219549,16.923208,-5.728887,244,1970-01-06 07:45:33.518310,-0.19707392,-1.6724652,-1.6500946,20.582864160107405,2.357708668199777,-105.60860443115234,-63.005088806152344,-77.21125793457031,92723049.0,40290.0,0.35133953728500006,0.04406704648499993,0.008057355359999989,0.012286861179814914,-0.005073548485687784,0.005762271849995594,92.7230489999638
1648,B,459933558605000.0,16.573536,20.300186,-11.249407,244,1970-01-06 07:45:33.558605,-0.4101268,-1.7097495,-2.0793962,28.518920123832547,2.7231114375660304,-107.61504364013672,-64.10992431640625,-75.38278198242188,92763344.0,40295.0,0.5398136800375,0.35506733061499995,-0.3420701783649999,0.01795450944600507,0.008041559862622246,-0.006729523351493236,92.76334399997722
1648,B,459933598924000.0,2.3375392,29.841944,-7.398216,244,1970-01-06 07:45:33.598924,-0.7190535,1.3187973,-1.0492855,30.8340608936502,1.8322839067294647,-108.39794921875,-64.7828369140625,-74.72927856445312,92803663.0,40319.0,0.38123782049439997,0.615714069735,-0.3759267558685,0.01856793772497284,0.019570467640355825,-0.014474459195680243,92.80366299999878
1648,B,459933639218000.0,1.2813355,9.431587,-3.1374757,244,1970-01-06 07:45:33.639218,-0.7499462,0.60507023,-1.3358417,10.021996196877135,1.647119404774767,-109.5827407836914,-65.45479583740234,-73.69161987304688,92843957.0,40294.0,0.07290946858090001,0.39636262905700004,-0.2122625806799,0.009149705433000069,0.020390309250562427,-0.011850250563440615,92.8439570000046
1648,B,459933679520000.0,-4.191284,0.7783814,-6.7898808,244,1970-01-06 07:45:33.679520,-1.4753913,-2.9561088,-0.98856544,8.017182825078308,3.4485678701042732,-112.05340576171875,-64.47721862792969,-71.45529174804688,92884259.0,40302.0,-0.05863837222349999,-0.1892185267716,-0.20004616083149998,0.00028757686269796786,0.004174160805153096,-0.00830843345019622,92.88425899995491
1648,B,459933719813000.0,-10.504556,-1.6645386,-3.2093263,244,1970-01-06 07:45:33.719813,-2.0900488,-2.1454427,0.3089267,11.109282641462393,3.0110901798746608,-112.06480407714844,-63.05720520019531,-71.4990463256836,92924552.0,40293.0,-0.29606974056,-0.41272436602980006,-0.20144902584015,-0.007146126994192784,-0.012127042489823409,-0.008088722778280396,92.92455199995311
1648,B,459933760067000.0,-8.147857,-5.1732426,6.864126,244,1970-01-06 07:45:33.760067,-3.4216294,-0.26631612,0.54648066,11.843404849737247,3.475214114046824,-107.39384460449219,-61.27035140991211,-75.78205871582031,92964806.0,40254.0,-0.37541711645099995,-0.5321132222124,0.07356015356189999,-0.013515015971060395,-0.01901674613855076,-0.002574019332344338,92.96480600000359
1648,B,459933800322000.0,-3.427273,-5.2834134,12.947476,244,1970-01-06 07:45:33.800322,-2.634399,0.025566347,1.0141318,14.39783984292104,2.8229727304866348,-101.70526885986328,-60.6721305847168,-80.88043975830078,93005061.0,40255.0,-0.232978429075,-0.60496534364,0.398758019255,-0.012245481342574563,-0.02288654883419418,0.009506584023372153,93.00506100000348
1648,B,459933840628000.0,-5.2115626,1.8250049,8.677156,244,1970-01-06 07:45:33.840628,0.93423694,-0.5336975,2.1784658,10.285138009141091,2.4296800043084796,-98.98381042480469,-60.25128173828125,-83.20561981201172,93045367.0,40306.0,-0.1740984538468,-0.4646961065005001,0.435801208696,-0.008203820421523036,-0.021556887204681498,0.016818872120896503,93.04536699998425
1648,B,459933880932000.0,-2.0022364,27.662477,-2.069297,244,1970-01-06 07:45:33.880932,4.2365565,-0.47617322,3.1489217,27.8119322315301,5.3000811112537045,-98.9507827758789,-60.696109771728516,-83.05096435546875,93085671.0,40304.0,-0.145372477448,0.19925253524879993,0.13316157456799999,-0.006437978207452809,-0.005349218847864262,0.011465738008336127,93.0856709999498
1648,B,459933921217000.0,8.128696,38.861588,-2.6105714,244,1970-01-06 07:45:33.921217,5.171859,0.628506,2.0410466,39.78836266518965,5.595446052933453,-98.89276885986328,-61.52426528930664,-82.89920043945312,93125956.0,40285.0,0.123402212493,0.9451679792625,-0.09426424924700001,-0.0004425360618560875,0.02305149021354386,0.000783489375278242,93.1259560000035
1648,B,459933961515000.0,1.4873072,30.196407,-19.07154,244,1970-01-06 07:45:33.961515,5.6544237,-1.4242586,1.1728562,35.745751025659274,5.947824106736353,-100.3493423461914,-61.9708366394043,-81.33837890625,93166254.0,40298.0,0.1937528484768,0.9965291412549999,-0.43687286259860003,0.0063903573234805,0.039123255281307105,-0.010701881666576997,93.16625399998156
1648,B,459934001801000.0,7.903565,6.844966,-10.241104,244,1970-01-06 07:45:34.001801,2.5374599,-2.5182853,-0.64341974,14.635576872443293,3.632416903127416,-102.93203735351562,-62.78205871582031,-78.8770523071289,93206540.0,40286.0,0.18916033872460003,0.351321576339,-0.590444588092,0.0077130203297978,0.027149757004495942,-0.020693255409260758,93.20653999998467
1648,B,459934042101000.0,8.823253,-0.019160157,-1.4298267,244,1970-01-06 07:45:34.042101,-0.99708754,0.056459017,-1.2314457,8.938375971375233,1.5855061321459303,-105.87531280517578,-65.41890716552734,-76.26779174804688,93246840.0,40300.0,0.33704538270000006,-0.25740001226355,-0.23516925360500002,0.010603045286705692,0.0018925195161203175,-0.01663611891019455,93.24683999997796
1648,B,459934082386000.0,6.6844997,-1.6741188,2.799778,244,1970-01-06 07:45:34.082386,-1.4104102,3.0040457,-0.74675035,7.438008257934212,3.4016442472983046,-104.48235321044922,-68.32298278808594,-77.669189453125,93287125.0,40285.0,0.31236490875975,-0.42889987139137253,0.02759424406025,0.013080746795728015,-0.013823795406519278,-0.004181079629755127,93.28712499997346
1648,B,459934122789000.0,5.137317,-1.9112257,4.184099,244,1970-01-06 07:45:34.122789,-1.4913702,2.9742184,-0.73290193,6.895759137080593,3.406949574523275,-99.87814331054688,-70.83000946044922,-82.10438537597656,93327528.0,40403.0,0.23881843006505,-0.46837873691675,0.1410847912155,0.011134730219269197,-0.018126373805736538,0.0034075695311230635,93.32752799999435
1648,B,459934163081000.0,4.9169755,-0.014370117,5.5588408,244,1970-01-06 07:45:34.163081,-1.506284,0.7840346,-0.8905611,7.421426116832767,1.9174725071005243,-93.52832794189453,-72.96741485595703,-88.22291564941406,93367820.0,40292.0,0.20255377670500002,-0.43365465332928205,0.19628126521079997,0.008891884477589427,-0.018172364679896563,0.006796576572764239,93.36781999998493
1648,B,459934203366000.0,5.4366946,6.598279,3.7146754,244,1970-01-06 07:45:34.203366,-0.81918836,-1.1121361,-1.0705907,9.321681568412178,1.7475928361632722,-91.8806381225586,-74.138916015625,-89.8252182006836,93408105.0,40285.0,0.20854879998925002,-0.2621766153241725,0.1867918000585,0.008280633651063931,-0.014015781328852209,0.007716049217186874,93.40810499998042
1648,B,459934243650000.0,10.497371,16.037052,-8.399334,244,1970-01-06 07:45:34.243650,-0.24927188,-2.9028456,-1.4615428,20.926792549406635,3.259563836440381,-94.78550720214844,-75.16143035888672,-86.99549865722656,93448389.0,40284.0,0.3209439493152,0.06113763700199995,-0.0943583935212,0.010665042956490232,-0.0040493271013652,0.0018617936744742966,93.4483889999683
1648,B,459934283906000.0,17.713566,19.928959,-15.766415,244,1970-01-06 07:45:34.283906,-0.9171927,-2.6695528,-1.9973708,30.97601764611232,3.4579249143979065,-98.73773193359375,-76.18460845947266,-83.17411804199219,93488645.0,40256.0,0.567829739936,0.3294150694079999,-0.48640819587199996,0.017889236817248154,0.007861044874620476,-0.011689669911306329,93.4886449999758
1648,B,459934324194000.0,2.0429518,30.46944,-16.36517,244,1970-01-06 07:45:34.324194,-1.0684602,0.9086706,-1.2346416,34.646489217518464,1.8685902008570419,-101.56832122802734,-76.5190658569336,-80.4837417602539,93528933.0,40288.0,0.3979752945632,0.6204029494559999,-0.64725864824,0.019455176614951886,0.019133134171996413,-0.022836584907792126,93.52893299999414
1648,B,459937587946000.0,7.8748245,14.482684,-23.514303,244,1970-01-06 07:45:37.587946,4.8693237,-1.748099,-1.2761868,28.717302142183645,5.328678650254388,-107.13359069824219,-76.81513214111328,-74.80850982666016,96792685.0,3263752.0,16.1845811173388,41.371522704624006,-65.078354881348,27.06067582722899,68.52561566867747,-107.25605130420996,96.79268499999307
1648,B,459937628244000.0,13.596526,-4.8834453,-4.89542,244,1970-01-06 07:45:37.628244,0.4282363,-1.6831179,-2.501241,15.253809171586228,3.0450745038535754,-117.44683074951172,-78.90982818603516,-64.67537689208984,96832983.0,40298.0,0.4326262412245,-0.20150533943370003,-0.572427508727,0.334820111067692,0.8295346798912194,-1.3227976143776214,96.83298299997114
1648,B,459937668540000.0,8.581355,-1.5376027,-0.78556645,244,1970-01-06 07:45:37.668540,-0.7840346,0.4878911,-0.8831042,8.753341667411245,1.2777405869400917,-128.0619659423828,-81.17906188964844,-54.25583267211914,96873279.0,40296.0,0.44683994638799995,-0.524272075104,-0.11446051499459999,0.01771948474801665,-0.01462296334810558,-0.013839419901942795,96.87327899999218
1648,B,459937708835000.0,4.5529323,0.27303225,-1.0657837,244,1970-01-06 07:45:37.708835,-0.6178534,0.43249738,0.15765914,4.683976305780062,0.7704889434793754,-145.6199493408203,-82.6445083618164,-36.90229797363281,96913574.0,40295.0,0.26462305337675,-0.420368933141375,-0.037300077147125,0.014334200787760298,-0.01903215471362369,-0.003057596530175404,96.91357400000561
1648,B,459937749132000.0,5.367239,-2.2585034,2.1171973,244,1970-01-06 07:45:37.749132,-1.6618125,-0.74248934,-0.27377295,6.196016179615725,1.8406147976482172,-164.46949768066406,-84.65522003173828,-18.241796493530273,96953871.0,40297.0,0.19987657143805,-0.43491486546577507,0.0211844069196,0.009358970690580998,-0.017232685616236164,-0.00032470658157928746,96.95387099997606
1648,B,459937789408000.0,3.1063404,4.8139896,-0.8382569,244,1970-01-06 07:45:37.789408,-2.352104,-1.0887003,-0.11824436,5.790209079124685,2.594541057433453,-173.3876495361328,-84.65803527832031,-9.47752857208252,96994147.0,40276.0,0.1706409419572,-0.3432424189044,0.0257553017752,0.007461481684753544,-0.015670531392646587,0.0009452718536958823,96.99414699996123
1648,B,459937829703000.0,5.398374,10.918895,-6.926397,244,1970-01-06 07:45:37.829703,-2.606702,-1.4604776,-0.39840892,14.01212636492085,3.0144020641648526,-179.8351593017578,-84.01770782470703,-3.188418388366699,97034442.0,40295.0,0.17134873337399997,-0.07791270752150004,-0.15643836445025,0.00689023698373535,-0.00848522290966582,-0.0026329370052455697,97.03444199997466
1648,B,459937870002000.0,18.29316,9.065149,-9.357342,244,1970-01-06 07:45:37.870002,-2.8144288,-0.27057716,-1.768339,22.458327597636586,3.334852963580869,169.1104278564453,-83.35355377197266,7.668750762939453,97074741.0,40299.0,0.477372564333,0.007738294577999952,-0.32810919898049995,0.013071409788147198,-0.0014139793336050551,-0.009763391129347897,97.07474099996034
1648,B,459937910302000.0,13.383369,24.78127,-9.105865,244,1970-01-06 07:45:37.910302,-2.1955101,0.7190535,-1.1195929,29.59970753236062,2.567253551325749,164.00244140625,-82.93866729736328,12.638498306274414,97115041.0,40300.0,0.63828205935,0.28706534285,-0.37203362105,0.022480440667212453,0.0059402932941742,-0.014107877823614575,97.11504099995364
1648,B,459937950675000.0,1.4753321,17.5052,-13.41211,244,1970-01-06 07:45:37.950675,0.12996227,1.2069446,-0.13954964,22.10188513447191,1.2219163478392627,164.93516540527344,-82.27777099609375,11.722776412963867,97155414.0,40373.0,0.29994516975514995,0.4579604266549999,-0.45455910233749997,0.01893952396033111,0.015039462696112681,-0.016686014010661766,97.15541399997892
1648,B,459937990953000.0,-0.98435307,3.8727467,-6.686895,244,1970-01-06 07:45:37.990953,-0.9470201,-1.4679344,-0.29614353,7.789844845040517,1.7718294113340118,168.13804626464844,-81.15502166748047,8.505589485168457,97195692.0,40278.0,0.009887826685169998,0.03580606859129995,-0.40477386169499996,0.006239726715311604,0.009943963447765235,-0.017306106562650518,97.19569199997932
1648,B,459938031248000.0,-7.1203933,1.3627661,-1.2525953,244,1970-01-06 07:45:38.031248,-2.1901836,-1.0695255,0.23009712,7.357046090352852,2.4482103017288983,177.2806854248047,-81.07869720458984,-0.6394669413566589,97235987.0,40295.0,-0.163290377489575,-0.289408505862,-0.15996088081925,-0.0030906778923317497,-0.00510945510491143,-0.01137799322480585,97.23598699999275
1648,B,459938071545000.0,-7.8652444,-3.427273,7.9969707,244,1970-01-06 07:45:38.071545,-2.7260118,0.48043427,0.60933125,11.728589432021177,2.834297442710669,-166.3643798828125,-82.87549591064453,-16.977611541748047,97276284.0,40297.0,-0.30193812119845,-0.43650731727465,0.1358890477469,-0.00937365640581567,-0.014626114962468793,-0.000485011328658244,97.2762839999632
1648,B,459938111827000.0,-5.5732107,-4.3709106,12.17149,244,1970-01-06 07:45:38.111827,-1.8578212,0.93849796,1.067395,14.082283401490216,2.339147305775889,-145.21250915527344,-84.7514419555664,-38.1117057800293,97316566.0,40282.0,-0.27066392416909996,-0.5518268158876,0.4062129669587,-0.011532777795747825,-0.019906037776020874,0.01091847667818549,97.31656599999405
1648,B,459938152122000.0,-6.452183,-3.05844,10.121353,244,1970-01-06 07:45:38.152122,1.3017532,0.67005134,1.9462382,12.386545412248646,2.435441094152202,-111.94349670410156,-84.9437026977539,-71.19803619384766,97356861.0,40295.0,-0.24228161957074995,-0.5445738412134999,0.4491450543424999,-0.010334570342498626,-0.022089732238944407,0.017233325734165927,97.35686100000748
1648,B,459938192403000.0,-6.9862723,19.615211,-1.5040723,244,1970-01-06 07:45:38.192403,4.6093993,-0.16937704,3.3246903,20.876463702166983,5.685843480032997,-110.30979919433594,-84.42176818847656,-72.60006713867188,97397142.0,40281.0,-0.27065720896965,-0.06129215367450007,0.17355634193834996,-0.010330844476217925,-0.012202444070041762,0.012541517471794456,97.39714199997252
1648,B,459938232698000.0,6.6342044,36.248623,-14.753321,244,1970-01-06 07:45:38.232698,6.221144,0.9054748,2.8399951,39.69427941084395,6.898412096286728,-115.08186340332031,-84.45054626464844,-67.54956817626953,97437437.0,40295.0,-0.007093288015250013,0.7306255955150001,-0.32754583151175,-0.005595978138003273,0.013485395519481474,-0.0031025032411800767,97.43743699998595
1648,B,459938272980000.0,6.6677346,37.429367,-21.001926,244,1970-01-06 07:45:38.272980,5.042962,0.18322548,0.58696073,43.43382431269669,5.080311034624491,-122.0345458984375,-84.41095733642578,-60.38078308105469,97477719.0,40282.0,0.267914353399,1.08918479659,-0.720146429827,0.005253197077894108,0.0366528011073868,-0.021101569835623758,97.4777189999586
1648,B,459938313275000.0,7.194639,11.187137,-11.840977,244,1970-01-06 07:45:38.313275,2.799515,-0.41438788,-0.6583334,17.807964535892893,2.905581596835899,-133.7194366455078,-84.38392639160156,-48.60863494873047,97518014.0,40295.0,0.279292172106,0.5846100143399998,-0.6617023881924999,0.011024843472611987,0.03372278095321216,-0.02784079906104787,97.51801399997203
1648,B,459938353575000.0,11.048225,-2.1555176,-0.38080812,244,1970-01-06 07:45:38.353575,-0.44847634,-0.5219796,-1.2048141,11.26297236961863,1.3875052237432355,-164.36367797851562,-85.79154205322266,-18.085834503173828,97558314.0,40300.0,0.36759370960000004,-0.21295286909000002,-0.246268970168,0.013034750516375902,0.007488891476787497,-0.018295622870964073,97.55831399996532
1648,B,459938393860000.0,7.4676714,-1.6932789,0.45026368,244,1970-01-06 07:45:38.393860,-0.5837649,1.1984226,-0.30999196,7.670465888920328,1.3686099524435045,155.67987060546875,-85.75849914550781,21.74139976501465,97598599.0,40285.0,0.37295644323700006,-0.47231738350125,0.0013990086172999995,0.014916531453519274,-0.013803056062819254,-0.004932293200534975,97.59859899996081
1648,B,459938434154000.0,3.5182838,-0.16525635,-2.2129982,244,1970-01-06 07:45:38.434154,-0.30786142,1.6863136,-0.04580637,4.159686477579891,1.714797490959779,146.88441467285156,-84.5767822265625,30.493614196777344,97638893.0,40294.0,0.2213340394144,-0.43232510968175003,-0.035513812374440006,0.011973170353977759,-0.018225832310157904,-0.0006873109512950997,97.63889299996663
1648,B,459938474444000.0,4.382886,-2.339934,2.8380983,244,1970-01-06 07:45:38.474444,-1.820537,0.69774824,-0.83729786,5.721868818298344,2.12185656469816,119.02757263183594,-83.73304748535156,58.12633514404297,97679183.0,40290.0,0.159169065621,-0.44530905960075,0.012592641514500002,0.0076652350509381325,-0.017679940340195963,-0.0004617469869734914,97.6791830000002
1648,B,459938514754000.0,6.310877,2.3255641,3.0823903,244,1970-01-06 07:45:38.514754,-2.4671526,-0.44528055,-1.3177321,7.398415158253279,2.832231383073331,109.81945037841797,-82.8496322631836,67.15077209472656,97719493.0,40310.0,0.215532793265,-0.3953276253345,0.11932744773300001,0.00755211596584733,-0.016943032384869963,0.0026588493987833627,97.71949299995322
1648,B,459938555057000.0,8.384964,14.573694,-9.989627,244,1970-01-06 07:45:38.555057,-1.4647386,-1.3837786,-1.2985574,19.557423799827546,2.397197050983227,113.53765869140625,-82.06172180175781,63.38656997680664,97759796.0,40303.0,0.2961432399115,-0.054424000397850045,-0.13919118036005002,0.01031103958255624,-0.009063169885945452,-0.00040028400803399815,97.75979599996936
1648,B,459938595340000.0,20.259472,19.493065,-8.581355,244,1970-01-06 07:45:38.595340,-1.9483687,-0.25672874,-1.9771309,29.394990090983768,2.787668709301105,113.20008087158203,-81.03528594970703,63.627899169921875,97800079.0,40283.0,0.576941907694,0.2913822263985,-0.374047433953,0.017585244500496176,0.004772694108992091,-0.010337395550186299,97.80007899994962
1648,B,459938635625000.0,6.816226,32.42138,-3.784131,244,1970-01-06 07:45:38.635625,-2.1923141,1.9718045,-1.5584819,33.345561404970184,3.3351341700007615,112.54975891113281,-80.88990020751953,64.18075561523438,97840364.0,40285.0,0.545372246965,0.6508937084125002,-0.24907180175500002,0.02260621286021891,0.01897979301693057,-0.01255117920524839,97.84036400000332
1648,B,459938675916000.0,3.1015503,11.685301,-2.548301,244,1970-01-06 07:45:38.675916,-1.2538162,0.46978164,-1.5691346,12.355553881175547,2.0627489536006776,113.0014877319336,-80.60091400146484,63.681270599365234,97880655.0,40291.0,0.19979856245165,0.4936993420854999,-0.127570008856,0.015011838541103124,0.023058399298807458,-0.0075876375956639005,97.88065499998629
1648,B,459938716224000.0,-5.621111,2.1124072,-5.728887,244,1970-01-06 07:45:38.716224,-1.128115,-2.078331,-0.9896307,8.29935535518885,2.5634882720949768,121.67189025878906,-80.9718017578125,55.0539436340332,97920963.0,40308.0,-0.050779226347799994,-0.1169393889372,-0.166818446952,0.003003335699836993,0.0075932200957508356,-0.005933104938354431,97.9209629999823
1648,B,459938756515000.0,-11.711646,-2.440525,-1.8202149,244,1970-01-06 07:45:38.756515,-1.7960359,-1.1994878,0.21518342,12.100908915743602,2.1704423145249785,137.54367065429688,-82.80175018310547,39.23948669433594,97961254.0,40291.0,-0.34917705614350003,-0.40146189713990005,-0.15208043232645,-0.008057319288928484,-0.010443453108666218,-0.006424377372504014,97.96125399996527
1648,B,459938796806000.0,-6.9048414,-8.078402,11.223062,244,1970-01-06 07:45:38.796806,-3.6804886,-0.6423545,0.72970617,15.456213452479297,3.8067160037145245,130.29551696777344,-85.571533203125,46.263816833496094,98001545.0,40291.0,-0.3750384469167,-0.6067608438785,0.18942505625305,-0.014589683416899259,-0.02031115122918618,0.0007523261213133206,98.00154500000644
1648,B,459938837096000.0,-6.2869267,-4.608018,12.147539,244,1970-01-06 07:45:38.837096,-1.8141453,-0.33662358,2.0719395,14.433363467190102,2.7744137931794453,99.08612060546875,-87.98626708984375,77.33605194091797,98041835.0,40290.0,-0.2657481683745,-0.6504099309000001,0.470800757145,-0.012908646365041226,-0.025325705257912886,0.013300249010903719,98.0418349999818
1648,B,459938877395000.0,-10.696157,12.169095,2.6129665,244,1970-01-06 07:45:38.877395,2.6322684,-0.10013486,3.9286952,16.411040235700973,4.730064470419914,96.41340637207031,-89.17314147949219,80.13853454589844,98082134.0,40299.0,-0.34220064501315006,-0.24257827898850007,0.29741680557225003,-0.012249864615354456,-0.017993265935148335,0.01547919977997123,98.08213399996748
1648,B,459938917690000.0,-2.929109,30.723312,-8.943004,244,1970-01-06 07:45:38.917690,4.4261737,0.88203895,4.0352216,32.13220970190567,6.054091153343775,133.66790771484375,-89.35228729248047,43.10867691040039,98122429.0,40295.0,-0.274515046735,0.4692837700325,-0.12753443053125,-0.01242527939949585,0.0045675488808089885,0.003422705151138548,98.12242899998091
1648,B,459938957969000.0,11.541599,27.188263,8.696317,244,1970-01-06 07:45:38.957969,2.718555,2.0208068,1.6447684,30.790194572273474,3.765562972596501,85.82040405273438,-89.08549499511719,91.0888442993164,98162708.0,40279.0,0.173451242355,0.7715759647125001,-0.004968152836499993,-0.0020353744883110096,0.024990294627896932,-0.0026685357777348007,98.16270799998892
1648,B,459938998256000.0,2.059717,29.109068,-6.212681,244,1970-01-06 07:45:38.998256,4.442153,0.9033443,2.1763353,29.835845541168663,5.02843808133078,102.28166961669922,-89.10015869140625,74.85380554199219,98202995.0,40287.0,0.27397810884600005,0.7392126869985002,0.050029121766000016,0.009012793135917345,0.030432571205740538,0.0009076856276313838,98.20299499999965
1648,B,459939038543000.0,9.831555,8.281978,-7.549102,244,1970-01-06 07:45:39.038543,4.2504053,-1.4327807,1.4125407,14.90770184558683,4.702560683044618,119.66596984863281,-87.99845123291016,57.683990478515625,98243282.0,40287.0,0.23953183753200002,0.35837393510099996,-0.27721047586050007,0.010343887604865246,0.022109236122261282,-0.0045762276062025625,98.24328199995216
1648,B,459939078828000.0,12.319981,4.991221,-5.7073317,244,1970-01-06 07:45:39.078828,1.6863136,-0.9406285,0.82557994,14.466093254401027,2.1000042309213605,118.84197998046875,-86.68890380859375,58.58890914916992,98283567.0,40285.0,0.44618731388,-0.1274375891425,-0.26701771580225003,0.01381209800731621,0.0046516353484690855,-0.010962116350566943,98.28356700000586
1648,B,459939119121000.0,8.4304695,6.696475,-5.4534597,244,1970-01-06 07:45:39.119121,0.10226539,0.44101948,0.5113269,12.06879513934922,0.682943328831121,119.8499526977539,-85.58065032958984,57.58897399902344,98323860.0,40293.0,0.41804895099825,-0.15940523253600003,-0.22485088394010003,0.017411335910369665,-0.0057788789069459015,-0.009909430744709256,98.32386000000406
1648,B,459939159415000.0,5.4055595,3.9853127,-0.27303225,244,1970-01-06 07:45:39.159415,-1.9355855,0.22903186,-1.1899004,6.7214088876039675,2.2835958010614466,113.8362808227539,-84.54561614990234,63.48686981201172,98364154.0,40294.0,0.27875447626300004,-0.17967522320810003,-0.11537163331665,0.014038498649032404,-0.0068314539418763845,-0.006854463055171743,98.36415399995167
1648,B,459939199744000.0,5.3073635,3.2692018,5.43909,244,1970-01-06 07:45:39.199744,-3.1521175,0.14274544,-2.9912627,8.272816192709438,4.347858499866151,101.4313735961914,-83.86725616455078,75.67878723144531,98404483.0,40329.0,0.21602073583349998,-0.24894054236475002,0.10417097149987499,0.009976894764319873,-0.008642822604893735,-0.00022585574520435966,98.40448299999116
1648,B,459939240038000.0,5.3480787,10.102193,0.13891114,244,1970-01-06 07:45:39.240038,-2.3829966,-0.5368933,-3.500459,11.43134049424908,4.268505642713555,99.98709106445312,-83.17391967773438,76.99620819091797,98444777.0,40294.0,0.21467519400340002,-0.12548770896440006,0.11237998896758002,0.008677230898424024,-0.007543605979528387,0.004362852200537817,98.44477699999698
1648,B,459939280330000.0,9.515413,18.652412,-8.284373,244,1970-01-06 07:45:39.280330,-1.6213325,-1.1121361,-3.6272254,22.518578862384768,4.125812633031779,103.23063659667969,-82.43181610107422,73.69486999511719,98485069.0,40292.0,0.2994399037882,0.18442867233000002,-0.16409847463156002,0.010357362760109574,0.0011874246479633766,-0.0010419206121865413,98.48506899998756
1648,B,459939320613000.0,9.558523,29.822784,-3.5110989,244,1970-01-06 07:45:39.320613,-2.1805964,0.2759035,-3.6794233,31.513356262666885,4.2859397127803955,103.13113403320312,-81.97893524169922,73.69271850585938,98525352.0,40283.0,0.384177681944,0.581589760234,-0.23757849727385003,0.013769083603025105,0.015428760259487806,-0.008090376729632818,98.52535199996782
1648,B,459939360863000.0,2.6057813,20.800745,4.272715,244,1970-01-06 07:45:39.360863,-1.7662084,1.7097495,-2.8644962,21.394325934922083,3.774662096770418,99.9551773071289,-81.93739318847656,76.7661361694336,98565602.0,40250.0,0.2448066240375,0.6243485211249998,0.015327524012499998,0.012658309157877688,0.024269507912349872,-0.004472800836884669,98.56560199998785
1648,B,459939401137000.0,-2.0501368,1.7699195,-4.1050634,244,1970-01-06 07:45:39.401137,-0.7190535,-1.3550164,-2.0559604,4.918050574487217,2.5651667677754153,109.71234893798828,-82.16188049316406,67.05980682373047,98605876.0,40274.0,0.011189013296499992,0.05982027103649996,0.0033760002692000022,0.005154984148994757,0.01377710696775612,0.00037663286846059284,98.60587599995779
1648,B,459939441431000.0,-7.8748245,-2.3375392,-5.5420756,244,1970-01-06 07:45:39.441431,-0.8692558,-2.5640914,-0.42077947,9.90916506944214,2.739931699105122,131.32598876953125,-83.19705963134766,45.55878829956055,98646170.0,40294.0,-0.1999581953111,-0.4063170340959001,-0.194360909433,-0.003803132710048147,-0.006980870285357735,-0.0038477729649230787,98.6461699999636
1648,B,459939481736000.0,-7.575447,-7.470066,7.3383403,244,1970-01-06 07:45:39.481736,-2.9039109,-0.6540724,0.4495416,12.924415718041923,3.0104147338383673,129.49356079101562,-86.05061340332031,47.23479080200195,98686475.0,40305.0,-0.31136159640375,-0.592636763793,0.03619922436674999,-0.010304372102533514,-0.02013141641195606,-0.0031873533582976034,98.68647499999497
1648,B,459939522032000.0,-7.2281694,-7.29523,7.5227566,244,1970-01-06 07:45:39.522032,-2.227468,-0.5656554,1.623463,12.730227040035063,2.8137540466327473,114.68706512451172,-88.90174865722656,61.915184020996094,98726771.0,40296.0,-0.2982632632272,-0.6923919838079999,0.29942138034119997,-0.012282721671844379,-0.025890759206664945,0.006762083943655775,98.72677099995781
1648,B,459939562325000.0,-7.046148,-4.6966333,5.6426663,244,1970-01-06 07:45:39.562325,0.9012137,-0.81918836,3.1244206,10.175767733479798,3.3533952627048813,-46.987464904785156,-88.09977722167969,-136.3727264404297,98767064.0,40293.0,-0.2875775354991,-0.6364654739734501,0.26523719245485,-0.011802641651539401,-0.026771826773193983,0.011375893936835623,98.76706399995601
1648,B,459939602656000.0,-8.566985,3.666775,4.87626,244,1970-01-06 07:45:39.602656,3.2724924,0.27377295,4.10766,10.51743231394669,5.258995038199738,-54.35325241088867,-86.622802734375,-128.8459014892578,98807395.0,40331.0,-0.3148466335115,-0.41601140754865,0.21211940830265,-0.012148184580183255,-0.02122372255433391,0.009626134532575365,98.80739499995252
1648,B,459939642951000.0,-1.6765138,37.01503,-0.9244776,244,1970-01-06 07:45:39.642951,4.7319045,0.7882957,4.5657234,37.06450867413991,6.6225493937807896,-56.84026336669922,-86.46342468261719,-126.12173461914062,98847690.0,40295.0,-0.206380892073,0.4247456662375,0.079618535904,-0.010501431571713713,0.0001759734769336048,0.00587779023090348,98.84768999996595
1648,B,459939683239000.0,8.669971,50.23793,-0.94603276,244,1970-01-06 07:45:39.683239,5.405152,1.2293152,3.42376,50.98934188444419,6.515290979047293,-55.406707763671875,-86.59049987792969,-127.28003692626953,98887978.0,40288.0,0.1408762018368,1.36280122624,-0.037679560691839996,-0.001319526480118013,0.036008344602066755,0.0008448187166737512,98.88797799998429
1648,B,459939723534000.0,5.6738014,27.226583,-8.234077,244,1970-01-06 07:45:39.723534,4.647749,-1.3827133,1.1941614,29.00480767432289,4.9939451625190925,-60.442176818847656,-87.10977172851562,-122.01493072509766,98928273.0,40295.0,0.288991154429,1.1658252756675,-0.18495626138959997,0.008660752560365205,0.05094550244718135,-0.004485555225385812,98.92827299999772
1648,B,459939763830000.0,9.551338,2.203418,-6.701265,244,1970-01-06 07:45:39.763830,2.7079022,-2.8815403,-0.8745821,11.873923575347494,4.04980279457276,-70.119873046875,-88.61152648925781,-112.20279693603516,98968569.0,40296.0,0.3067561086312,0.19805486014799997,-0.30091727061599993,0.01200311585613691,0.02747945697641069,-0.009789379922848826,98.96856899996055
1648,B,459939804105000.0,8.032896,0.19160157,-1.2765454,244,1970-01-06 07:45:39.804105,0.34621096,-1.0748519,-0.85753787,8.135950925780195,1.4179350599522775,91.14791107177734,-88.43389129638672,86.55400848388672,99008844.0,40275.0,0.35410251217499994,-0.34646529340912496,-0.16065315692999999,0.013308040476484852,-0.002988615099795904,-0.009294874484707573,99.00884399999632
1648,B,459939844400000.0,5.2594633,0.39757326,-0.4143384,244,1970-01-06 07:45:39.844400,-0.644485,1.381648,-0.51984906,5.290717816216291,1.6107622904425978,91.39141845703125,-86.98700714111328,86.28036499023438,99049139.0,40295.0,0.26780780899675,-0.38302060011257505,-0.0340670813605,0.012529938195807831,-0.01469731703972845,-0.003923126000957848,99.04913899995154
1648,B,459939884717000.0,5.230723,1.9830762,3.915857,244,1970-01-06 07:45:39.884717,-1.6692694,1.3880396,-0.8681905,6.828395884992641,2.338133658547939,78.71293640136719,-85.79005432128906,98.85496520996094,99089456.0,40317.0,0.21146642052855003,-0.34711627786059,0.0705853626981,0.00966144955588576,-0.014718464254622048,0.0007361537743440095,99.08945599995786
1648,B,459939925010000.0,6.9862723,5.372029,5.9180937,244,1970-01-06 07:45:39.925010,-2.0314593,0.29933932,-1.546764,10.61557955405959,2.5707799959838167,72.1908187866211,-84.65290832519531,105.25362396240234,99129749.0,40293.0,0.24612969581145003,-0.24669177308820003,0.19811968777754999,0.009218960157843813,-0.0119631538984398,0.005413466299407682,99.12974899995606
1648,B,459939965320000.0,5.47741,11.795472,-5.9037232,244,1970-01-06 07:45:39.965320,-0.9917612,-1.4189322,-1.9792614,14.28247624304351,2.6295312425510824,80.50482177734375,-84.29002380371094,96.91938781738281,99170059.0,40310.0,0.2512055167565,-0.049027017345000014,0.00028963742750000125,0.010023791209307032,-0.005960212221181147,0.003998939949507782,99.1700589999673
1648,B,459940005608000.0,12.966637,16.068186,-10.152488,244,1970-01-06 07:45:40.005608,-1.4615428,-1.8983012,-2.6439865,23.008548172592487,3.567957316776019,88.18887329101562,-83.52803039550781,89.19422149658203,99210347.0,40288.0,0.371536882768,0.16646312675199998,-0.32343631841279996,0.012544522896021528,0.002365632987894607,-0.006509466741767883,99.21034699998563
1648,B,459940045893000.0,15.85024,21.471352,-8.310719,244,1970-01-06 07:45:40.045893,-2.3339944,-0.3387541,-3.1425302,27.952050283699492,3.9290940759175275,91.79798889160156,-82.68755340576172,85.492919921875,99250632.0,40285.0,0.5804439449725,0.36134714416499997,-0.37189514699750004,0.01917527382276302,0.010631418381945671,-0.014005714042026968,99.25063199998112
1648,B,459940086190000.0,0.1341211,25.839867,-10.736873,244,1970-01-06 07:45:40.086190,-0.8628642,0.6668556,-1.7033578,27.982086356547526,2.0225377162648512,95.81510925292969,-82.73001861572266,81.46980285644531,99290929.0,40297.0,0.32206089962335,0.5583394960214999,-0.38378040741200004,0.01818411886133948,0.01853030626979769,-0.015225728908019811,99.29092899995157
1648,B,459940126484000.0,-1.9687061,5.031936,0.23950197,244,1970-01-06 07:45:40.126484,-1.5733956,-0.58696073,-1.9228023,5.40865462105939,2.5528935147292735,95.81063842773438,-83.32088470458984,81.39366912841797,99331223.0,40294.0,-0.036961383995,0.22709301504100007,-0.21149053414141003,0.005743899941364368,0.01582410880037619,-0.011992923659476554,99.33122299995739
1648,B,459940166777000.0,-10.023157,-3.1566358,-6.183941,244,1970-01-06 07:45:40.166777,-1.7789917,-2.2764702,-1.1057445,12.19299602689887,3.093509162656089,118.58506774902344,-85.10591125488281,58.62892532348633,99371516.0,40293.0,-0.24159406994415,-0.3570906645207001,-0.11975964091789501,-0.005611917452785086,-0.002618997645242777,-0.0066735316518322894,99.37151599995559
1648,B,459940207063000.0,-13.936619,-5.5301003,1.468147,244,1970-01-06 07:45:40.207063,-2.509763,-1.5350461,0.4346279,15.065417820054979,2.9739163163667905,146.45558166503906,-87.4161605834961,30.678117752075195,99411802.0,40286.0,-0.482621767968,-0.5697797252623,-0.094990238542,-0.014587879623064437,-0.018669950261398973,-0.004325706821960666,99.4118019999587
1648,B,459940247344000.0,-8.58854,-9.2256155,12.983401,244,1970-01-06 07:45:40.247344,-3.709251,0.29614353,1.2974921,18.09540555534032,3.94077780659152,-40.34138870239258,-89.66956329345703,-142.71182250976562,99452083.0,40281.0,-0.4536679648395,-0.6919412940698999,0.291061402494,-0.01885734336360945,-0.025411692189860172,0.003948971277575255,99.45208299998194
1648,B,459940287631000.0,-6.1935205,-4.3709106,14.238392,244,1970-01-06 07:45:40.287631,-1.3603427,0.25992453,2.847452,16.13060328700624,3.1663979400958135,-27.460739135742188,-86.74297332763672,-155.6572265625,99492370.0,40287.0,-0.29776243568175004,-0.66869422349535,0.5483421872955,-0.0151364382728998,-0.027407961548075618,0.016908526210924795,99.49236999999266
1648,B,459940327940000.0,-6.706055,16.425045,4.9361353,244,1970-01-06 07:45:40.327940,2.8069718,-1.3741912,4.841627,18.415176040835345,5.762711527335173,-35.272640228271484,-86.14842224121094,-147.70626831054688,99532679.0,40309.0,-0.25998449441475,-0.1520831482352,0.38645301046785,-0.01124111050262991,-0.01654235753854337,0.018840329813321437,99.53267899999628
1648,B,459940368256000.0,6.69408,44.190506,-5.872588,244,1970-01-06 07:45:40.368256,4.841627,-0.4314321,4.4879594,45.078806743304334,6.615834432638695,-37.08413314819336,-86.40320587158203,-145.6438751220703,99572995.0,40316.0,-0.00024139205000001034,0.826791477058,-0.018877013526600005,-0.005245633419356431,0.013600770492410003,0.007409596946341718,99.57299499999499
1648,B,459940408570000.0,12.078084,42.446934,3.1422658,244,1970-01-06 07:45:40.408570,4.037352,1.8940402,1.3923006,44.243600141368034,4.671841222888509,-30.71729850769043,-86.50525665283203,-151.7970428466797,99613309.0,40314.0,0.37839050974800004,1.35127367808,-0.05503510458540001,0.007622351765438587,0.043903259332116674,-0.0014898465647835844,99.61330899997847
1648,B,459940448863000.0,4.7133985,18.729053,-10.775193,244,1970-01-06 07:45:40.448863,4.6413574,-0.58269966,0.38562572,22.11556772691717,4.693660043529398,-33.15880584716797,-87.34656524658203,-149.12562561035156,99653602.0,40293.0,0.33828960218625004,0.8376106220955,-0.1537767678348,0.01443859587508337,0.04409835755348572,-0.004206828387713559,99.65360199997667
1648,B,459940489156000.0,8.111932,-0.30895755,-5.7887626,244,1970-01-06 07:45:40.489156,2.3254724,-2.0048277,-1.3113406,9.970389560066586,3.3386779058569593,64.1623764038086,-88.94425964355469,113.69227600097656,99693895.0,40293.0,0.25838552091825,-0.023770947016575034,-0.3337057314954,0.01202091536762481,0.016396021013977562,-0.009821066172755875,99.69389499997487
1648,B,459940529446000.0,6.11209,-2.7470875,-1.2454102,244,1970-01-06 07:45:40.529446,-0.020240024,0.64555025,-1.3070794,6.8158037286163315,1.4579442176403536,91.00227355957031,-86.17530059814453,86.86851501464844,99734185.0,40290.0,0.28654292318999997,-0.45640602753225007,-0.141703411056,0.010977583506560697,-0.009673165152286082,-0.009577117176697953,99.73418499995023
1648,B,459940569741000.0,3.9517825,-1.9255958,-0.8933423,244,1970-01-06 07:45:40.569741,-0.5454154,2.1933794,-0.75101143,4.485818161411938,2.381682035640393,94.90338134765625,-83.31665802001953,82.96296691894531,99774480.0,40295.0,0.20276187119375,-0.48903388678674997,-0.043090515993749995,0.009858268344846603,-0.01904825067374205,-0.003723135645234838,99.77447999996366
1648,B,459940610048000.0,4.040398,-0.29698244,2.8620484,244,1970-01-06 07:45:40.610048,-1.4082797,1.2452941,-0.9310411,4.960275759674548,2.097819496242732,87.60992431640625,-82.11874389648438,90.13595581054688,99814787.0,40307.0,0.16107040970675002,-0.43980133055984005,0.03967631838635,0.0073324938731282275,-0.018719280552794502,-6.880803148073575e-05,99.81478699995205
1648,B,459940650342000.0,7.541917,5.611531,6.5192432,244,1970-01-06 07:45:40.650342,-1.7459685,-0.3387541,-1.3709954,11.43985682163882,2.2456154457253406,82.60572052001953,-81.14627075195312,94.99776458740234,99855081.0,40294.0,0.233348900305,-0.2878089901616801,0.18900488186520004,0.007946365838806728,-0.014659165131576467,0.004607240141467979,99.85508099995786
1648,B,459940690622000.0,6.0114994,15.9173,-6.0282645,244,1970-01-06 07:45:40.690622,-0.6498113,-2.6205506,-1.4721955,18.050998233010844,3.075207271549074,86.81422424316406,-80.85343933105469,90.78759765625,99895361.0,40280.0,0.27296580629600004,0.03884665633999998,0.009888311018000008,0.010197178190944142,-0.005014101403168638,0.004005708904667649,99.89536099997349
1648,B,459940730948000.0,15.1964,13.131892,-14.822777,244,1970-01-06 07:45:40.730948,-1.099353,-3.762514,-2.2647521,24.961808397057155,4.5270509930041,93.04484558105469,-79.99893951416016,84.55834197998047,99935687.0,40326.0,0.4276148756022001,0.190524058296,-0.4204195497645,0.014125808289113409,0.004624801719205668,-0.00827754136684568,99.93568699999014
1648,B,459940771204000.0,14.281502,22.062922,-5.989944,244,1970-01-06 07:45:40.771204,-2.8932583,-0.51984906,-2.5108283,26.955764794886157,3.8659339606080523,94.50325775146484,-79.3091049194336,82.97774505615234,99975943.0,40256.0,0.593331211456,0.313892416192,-0.418918448288,0.020549602840307452,0.010152894798494464,-0.01689419522480072,99.97594299999764
1648,B,459940811492000.0,2.5578809,18.501526,-7.213799,244,1970-01-06 07:45:40.811492,-0.9321064,1.8290591,-1.3646038,20.022190565461656,2.465040174761501,96.6333999633789,-79.26737213134766,80.85677337646484,100016231.0,40288.0,0.33921252913759997,0.42230784051199993,-0.265976198992,0.018785161110517475,0.014830017971045373,-0.013796517774808318,100.01623099995777
1648,B,459944074970000.0,7.4964113,0.047900394,-9.433982,244,1970-01-06 07:45:44.074970,2.9358687,-2.2498386,-1.530785,12.049833741709346,4.003049021173067,102.18609619140625,-78.12955474853516,75.53649139404297,103279709.0,3263478.0,16.4059807001358,-1.7142619252808404,-27.164833521159004,27.32378485474135,-2.108131866326623,-44.75992202194948,103.2797089999658
1648,B,459944115396000.0,6.0498195,-1.5471827,-2.543511,244,1970-01-06 07:45:44.115396,-0.098004326,0.31318775,-1.3422332,6.742665533517181,1.3817674832789404,104.0855712890625,-75.24168395996094,73.68861389160156,103320135.0,40426.0,0.27380996316039996,-0.426479793251178,-0.242101066009,0.33714860867720603,-0.043270812356687685,-0.5539763688104268,103.3201349999872
1648,B,459944155700000.0,4.0835085,-2.3255641,-1.6166383,244,1970-01-06 07:45:44.155700,-1.0215886,2.855974,-0.6487461,4.9695884583945125,3.101790169981066,104.69773864746094,-72.40007019042969,73.08844757080078,103360439.0,40304.0,0.20420682585599997,-0.47302279351360005,-0.08383532869360001,0.009632994332258492,-0.018126776128483808,-0.006568270226046795,103.36043899995275
1648,B,459944195996000.0,4.88105,-2.4644752,3.396138,244,1970-01-06 07:45:44.195996,-1.9750003,3.0029805,-0.9438243,6.436772516483633,3.716089662218988,98.08654022216797,-70.26856231689453,79.30706024169922,103400735.0,40296.0,0.18061792465799997,-0.4914105118164,0.0358533599556,0.00775344907335607,-0.01943140223578884,-0.0009667407061332242,103.40073499997379
1648,B,459944236270000.0,7.350315,0.57001466,6.327642,244,1970-01-06 07:45:44.236270,-2.146508,1.7140105,-1.5318503,9.715508251862273,3.14513814160592,94.67997741699219,-69.31397247314453,82.43547058105469,103441009.0,40274.0,0.246302997005,-0.43283395189397994,0.19580775786,0.00859690659952783,-0.01861151076573592,0.004664959929452737,103.44100900000194
1648,B,459944276555000.0,7.4916215,9.5633135,-1.3675562,244,1970-01-06 07:45:44.276555,-0.628506,-0.9267801,-1.5403724,12.22503855857735,1.9043865879788617,94.99551391601562,-68.79827117919922,82.09732818603516,103481294.0,40285.0,0.29895370595125,-0.19068243753720004,0.0999085282265,0.010982833139296265,-0.012559178874117543,0.005956465292497326,103.48129399999743
1648,B,459944316751000.0,19.711012,13.663587,-9.532178,244,1970-01-06 07:45:44.316751,-0.026631612,-2.0964406,-2.0229373,25.808526133710096,2.9134254326852727,96.37792205810547,-67.89762878417969,80.77653503417969,103521490.0,40196.0,0.546718528083,0.07289344624899996,-0.21906285795160005,0.016996320559620356,-0.0023673231469102454,-0.002394763718815061,103.52148999995552
1648,B,459944357186000.0,7.793394,39.877075,-9.230406,244,1970-01-06 07:45:44.357186,-0.25246766,0.39734364,-1.6884441,41.66675527947547,1.7528449350753008,97.05713653564453,-68.0510025024414,80.14619445800781,103561925.0,40435.0,0.5560703283049999,0.686195333985,-0.37933254202,0.02229563370402439,0.015346877414380894,-0.012098058998925824,103.56192499998724
1648,B,459944397526000.0,1.3603711,17.938698,-4.6774735,244,1970-01-06 07:45:44.397526,-0.035153728,1.623463,-1.5606124,18.588336499216958,2.2521942544982787,97.76348114013672,-68.36121368408203,79.5223159790039,103602265.0,40340.0,0.18463144206700002,0.77081214141,-0.280521929515,0.014939954708403239,0.02938784077871715,-0.01330926469086095,103.60226499999408
1648,B,459944437897000.0,-1.7244141,0.5340894,-1.81782,244,1970-01-06 07:45:44.437897,-1.9217371,-2.1156151,-1.5190672,2.5618987153810684,3.2367369202609377,104.54659271240234,-69.88127899169922,73.05896759033203,103642636.0,40371.0,-0.0073483899764999975,-0.02275334993730007,-0.13111074694424998,0.0035785470479727877,0.015099940735272184,-0.008309011390668189,103.64263600000413
1648,B,459944478189000.0,-6.71324,-5.585186,1.6166383,244,1970-01-06 07:45:44.478189,-2.8059065,-0.93636745,-0.004261058,8.88118310503859,2.9580252610106346,104.79598999023438,-72.73226928710938,72.67535400390625,103682928.0,40292.0,-0.1699849794986,-0.49662099210360006,-0.004053006528200001,-0.003572558061445365,-0.010463315494755975,-0.0027230089774559776,103.68292799999472
1648,B,459944518448000.0,-8.974138,-5.863008,7.7143583,244,1970-01-06 07:45:44.518448,-3.5356128,0.9981528,1.2602079,13.206867139177515,3.883940117315674,98.6268539428711,-75.16827392578125,78.44649505615234,103723187.0,40259.0,-0.315779075451,-0.6249846211230001,0.1878282960597,-0.009778187544107973,-0.02257736019144485,0.0036993046906243295,103.72318699996686
1648,B,459944558743000.0,-6.813831,-7.31439,10.154883,244,1970-01-06 07:45:44.558743,-2.6620958,0.21731395,2.352104,14.24956991324124,3.5589847749123966,88.16988372802734,-76.6834487915039,88.46175384521484,103763482.0,40295.0,-0.3180881054275,-0.6603826262050001,0.36002053909174997,-0.012770839026749576,-0.025896936615540884,0.011037784406213839,103.76348199998029
1648,B,459944599014000.0,-8.47837,-2.3758595,8.327483,244,1970-01-06 07:45:44.599014,-0.022370555,-1.2942963,3.50472,12.119176512285364,3.736143149335247,77.50028991699219,-78.54347229003906,98.87094116210938,103803753.0,40271.0,-0.3079161132355,-0.5897738188072501,0.37215168059299997,-0.012604907944888836,-0.025172525098544164,0.014742653729462284,103.80375299998559
1648,B,459944639258000.0,-8.8951025,24.022047,1.1208692,244,1970-01-06 07:45:44.639258,3.1116376,-1.5393071,4.57318,25.64055261337446,5.741579069754606,76.87480926513672,-79.51142883300781,99.63259887695312,103843997.0,40244.0,-0.349589013645,0.04117338487499997,0.1901197429684,-0.013230318163089422,-0.011038937931584737,0.01131402558490249,103.84399699995993
1648,B,459944679424000.0,5.8103175,37.062927,-0.37122804,244,1970-01-06 07:45:44.679424,4.6008773,-0.03089267,3.4503915,37.51743804573838,5.751019717405537,77.25931549072266,-79.72801208496094,99.48731994628906,103884163.0,40166.0,-0.061951737155000006,0.8331427328420001,0.01505504341628,-0.008264972898316401,0.017558890592110514,0.0041205252349635286,103.88416299998062
1648,B,459944719721000.0,1.1136842,38.507126,-7.8772197,244,1970-01-06 07:45:44.719721,4.5625277,-0.6412892,2.062352,39.32034632959473,5.04789130461502,79.22162628173828,-80.1041259765625,97.7783203125,103924460.0,40297.0,0.13950824825245,1.1277126128705002,-0.16619384928939,0.0015626473638469713,0.039508293933088315,-0.0030452202301343564,103.92445999995107
1648,B,459944760014000.0,5.134922,11.326048,-10.602752,244,1970-01-06 07:45:44.760014,3.6485307,-2.525742,0.30679616,16.34212768331872,4.4480639387487715,85.83662414550781,-79.98529052734375,91.42156982421875,103964753.0,40293.0,0.1258875448083,0.609092639991,-0.37230674985405005,0.005346796344898401,0.03499054702677421,-0.010848902320643316,103.96475300000748
1648,B,459944800410000.0,10.169253,2.3614893,-1.1304493,244,1970-01-06 07:45:44.800410,0.41758367,-1.2942963,-0.6135923,10.500869197923283,1.492003533596234,87.48423767089844,-78.65953063964844,89.811279296875,104005149.0,40396.0,0.30911372665000003,-0.11941992161460002,-0.23698719985740002,0.008786155680914745,0.009890409565766528,-0.012306519196271867,104.00514899997506
1648,B,459944840715000.0,9.448353,0.5556446,-0.9484278,244,1970-01-06 07:45:44.840715,-0.7914915,1.6745957,-0.2034655,9.512078144439888,1.8633646349335362,88.00852966308594,-77.2741470336914,89.27605438232422,104045454.0,40305.0,0.395343804915,-0.33620145908025006,-0.04189457075775,0.014196580404863664,-0.009181909874452967,-0.005620164882321811,104.04545400000643
1648,B,459944880658000.0,6.933582,3.3937428,0.56522465,244,1970-01-06 07:45:44.880658,-1.2175972,2.2828617,-0.15978967,7.740253771566115,2.5922062459251656,87.23728942871094,-76.14503479003906,89.9923324584961,104085397.0,39943.0,0.32717181485249996,-0.31256620954090003,-0.007653141710225001,0.014429720700186626,-0.012956863493867299,-0.0009895421395541627,104.0853969999589
1648,B,459944920980000.0,4.3278003,3.9182522,3.1039455,244,1970-01-06 07:45:44.920980,-2.1038973,0.8245147,-1.1132014,6.611885767801436,2.5190128416555044,84.51236724853516,-75.33467102050781,92.54046630859375,104125719.0,40322.0,0.2270407285503,-0.24773846880500003,0.07397413939415,0.01117347908754385,-0.01129630262013169,0.0013370976343056117,104.1257190000033
1648,B,459944961311000.0,4.248765,8.854387,5.5636306,244,1970-01-06 07:45:44.961311,-2.4959147,-0.5273059,-2.6003106,11.28743365979399,3.6426991254183014,82.0330581665039,-74.89492797851562,94.80602264404297,104166050.0,40331.0,0.17295072755714996,-0.13767714421240004,0.17478600584454998,0.008066027708134782,-0.007772098544302381,0.0050163727088110045,104.16604999999981
1648,B,459945001780000.0,7.9706254,13.876743,-7.2425394,244,1970-01-06 07:45:45.001780,-2.0996363,-2.0080235,-3.086071,17.56556980333193,4.238450800218275,84.8903579711914,-74.48921966552734,91.917236328125,104206519.0,40469.0,0.2472532550488,0.06335684998499994,-0.03397188011360001,0.008502617486040094,-0.0015038339935443273,0.0028493034271029074,104.20651899999939
1648,B,459945042031000.0,12.054133,23.543043,-0.81909674,244,1970-01-06 07:45:45.042031,-2.3073628,-0.793622,-3.0104373,26.462197859418566,3.875111831539721,85.33448028564453,-74.06065368652344,91.36445617675781,104246770.0,40251.0,0.4030082751792,0.358632103143,-0.16224445813557004,0.013086838426603615,0.008492738676177562,-0.003948951915433672,104.24676999996882
1648,B,459947298828000.0,3.4512234,1.6908839,-3.8344264,244,1970-01-06 07:45:47.298828,-1.2868395,-0.6956177,-2.521481,5.42889096750006,2.915082557437189,89.175048828125,-73.23045349121094,87.60485076904297,106503567.0,2256797.0,17.4962209037254,6.357314663069649,-5.25102853089129,20.197463356632184,7.578264257074204,-6.108329120908425,106.50356699997792
1648,B,459950522375000.0,8.155042,-1.81782,-11.369158,244,1970-01-06 07:45:50.522375,3.4866107,-0.5997439,-1.8876486,14.1091081646973,4.009908247831072,93.27363586425781,-72.26566314697266,83.84828186035156,109727114.0,3223547.0,18.7066710056869,-31.795352842173354,-24.5047344409334,58.350861802955144,-41.00035582906761,-47.959550230268285,109.72711399995023
1648,B,459953745884000.0,-11.57034,0.46702883,9.335787,244,1970-01-06 07:45:53.745884,-5.284777,-3.242665,-1.0226538,14.874400914087941,6.284072329040177,87.18724060058594,-74.42554473876953,89.38070678710938,112950623.0,3223509.0,-5.504621920341,-33.76753194680777,-3.2772948594195013,21.278462022527137,-105.67127459162187,-44.77781074397564,112.95062299998244
1648,B,459956969331000.0,10.047108,1.8202149,-0.36883304,244,1970-01-06 07:45:56.969331,-0.7914915,0.4495416,-1.2090752,10.217318594290855,1.513409820226448,87.49981689453125,-73.07964324951172,89.04769897460938,116174070.0,3223447.0,-2.455028810352,-27.90337613013135,14.45225042075006,-12.82875613445008,-99.39645181394259,18.010938489652155,116.17406999995
1648,B,459960192763000.0,-11.752361,-7.2760696,7.8604546,244,1970-01-06 07:46:00.192763,-4.317517,-0.88949585,0.87564737,15.901129658518803,4.494320218792174,79.74195098876953,-75.07381439208984,96.29096984863281,119397502.0,3223432.0,-2.7483835441480013,-40.3829219136652,12.07436633419696,-8.386422946345323,-110.0581191379556,42.75337264981619,119.39750199997798
1648,B,459963416353000.0,7.0078273,4.8427296,-3.3554225,244,1970-01-06 07:46:03.416353,-1.0226538,-0.9193232,-1.5286545,9.155355459994315,2.056151872086041,82.52129364013672,-74.23175048828125,93.54610443115234,122621092.0,3223590.0,-7.647215694991502,-35.51322724530001,7.2611882136195,-16.755574875648858,-122.32903373367435,31.164950142397828,122.62109199998667
1648,B,459966639967000.0,-10.380015,20.83667,4.5696974,244,1970-01-06 07:46:06.639967,3.755057,-1.8471686,5.1846423,23.72327259078502,6.662807267888232,81.52870178222656,-75.40365600585938,94.66908264160156,125844706.0,3223614.0,-5.435315740173901,9.7988188310772,1.9571767837443,-21.086515744919645,-41.446663482903226,14.858225231305953,125.8447060000035
1648,B,459966680280000.0,7.5467067,50.218773,0.852627,244,1970-01-06 07:46:06.680280,5.682121,0.20133498,5.2272525,50.78981114793087,7.723419160680641,81.65617370605469,-75.81046295166016,94.83273315429688,125885019.0,40313.0,-0.057109578748950014,1.0371616368295,0.1092950817686,-0.11070807094086844,0.21841544030136142,0.04165284015721077,125.88501899997937
1648,B,459966720545000.0,7.0102224,48.769783,6.799461,244,1970-01-06 07:46:06.720545,4.673315,2.586462,3.3992589,49.73798972470712,6.331241571437486,80.59302520751953,-76.08010864257812,96.12808227539062,125925284.0,40265.0,0.29306737510575,1.5982901036700004,0.15405566166,0.004750420335153276,0.0530582321656062,0.00530190884207629,125.92528399999719
1648,B,459966760858000.0,5.2858086,7.7407036,-6.878496,244,1970-01-06 07:46:06.760858,4.033091,-0.9683254,0.44315,11.626348179927476,4.171313823852882,84.81674194335938,-75.81477355957031,92.21568298339844,125965597.0,40313.0,0.2478449488515,0.7439862231529,-0.001593068977500004,0.010902899257844309,0.04721209278160579,0.0030731122494048117,125.96559699997306
1648,B,459966801155000.0,6.5312185,-1.6813037,-3.1949563,244,1970-01-06 07:46:06.801155,1.8258632,-1.5190672,-1.0343717,7.4626632635598416,2.5906112014331617,90.19252014160156,-73.2295150756836,87.10208129882812,126005894.0,40297.0,0.23809537052435,-0.27282278111485003,-0.20296495366654999,0.009790968524944314,0.00949323661190365,-0.004121537319243641,126.00589400000172
1648,B,459966841449000.0,6.2941117,-3.9278321,-0.61073,244,1970-01-06 07:46:06.841449,-0.24927188,0.2876214,-0.59761333,7.4442392647447395,0.7085225699230642,90.83840942382812,-70.343994140625,86.48063659667969,126046188.0,40294.0,0.2583919275394,-0.5078884589626,-0.0766731618861,0.010002729594090373,-0.015728989353840386,-0.00563386911403924,126.04618799994932
1648,B,459966881741000.0,4.3397756,-0.41912845,-0.83586186,244,1970-01-06 07:46:06.881741,-0.8404937,0.10226539,-0.39947417,4.439367743829905,0.9361984203301835,91.47737121582031,-68.95513916015625,85.84368133544922,126086480.0,40292.0,0.21423029354580003,-0.4824354672403,-0.029143039611559996,0.00952144726598244,-0.019951065817283623,-0.0021317731953718584,126.08647999999812
1648,B,459966922035000.0,6.485713,2.193838,3.9589674,244,1970-01-06 07:46:06.922035,-1.5744609,0.04261058,-1.2772521,7.908907709846901,2.0278352285408094,89.40154266357422,-67.94278717041016,87.70246124267578,126126774.0,40294.0,0.21810111882420002,-0.3591261266961501,0.06292120731438,0.008710180965018391,-0.016954941433037662,0.0006805287447087147,126.12677400000393
1648,B,459966962290000.0,8.971744,10.904525,5.000801,244,1970-01-06 07:46:06.962290,-1.9068234,0.16298546,-2.130529,14.980282591418694,2.8638599055819705,88.06813049316406,-67.42292785644531,88.85025787353516,126167029.0,40255.0,0.31111996576749995,-0.13086169871750006,0.180337738471,0.010651897380119442,-0.009862229956013243,0.004896194431295235,126.16702900000382
1648,B,459967002518000.0,8.638836,19.155367,-4.4499464,244,1970-01-06 07:46:07.002518,-1.1025487,-0.20879184,-2.7142937,21.479282932687905,2.9371070729855875,88.86632537841797,-67.25353240966797,88.05705261230469,126207257.0,40228.0,0.35421920611999996,0.21039026768799993,0.011079889424400002,0.013382632103345173,0.0015996376362726343,0.003850174167488075,126.20725699997274
1648,B,459967042787000.0,15.251485,17.82134,-7.9778104,244,1970-01-06 07:46:07.042787,-1.7289242,0.029827405,-3.8221688,24.776065322790323,4.1951213211453275,89.99383544921875,-66.65186309814453,86.93888092041016,126247526.0,40269.0,0.4810196681745,0.34987130709149994,-0.2502266692896,0.01681711711448261,0.01128058667739784,-0.00481510083919587,126.24752599996282
1648,B,459967083074000.0,6.344407,30.857433,3.7074904,244,1970-01-06 07:46:07.083074,-2.775014,3.7838194,-3.1190944,31.7203114202435,5.634424711372379,88.98931121826172,-66.7820816040039,87.80923461914062,126287813.0,40287.0,0.435016850502,0.5857482639255,-0.08601919092,0.01845218161396008,0.018846652828780938,-0.006773168485132078,126.28781299997354
1648,B,459967123355000.0,-1.6094532,8.111932,-0.7927515,244,1970-01-06 07:46:07.123355,-2.3137543,5.354019,-2.9209552,8.307962163874272,6.523109511079554,88.57891082763672,-67.43934631347656,88.18544006347656,126328094.0,40281.0,0.0953643370089,0.39010869578249996,0.05870429881545,0.010682142307063281,0.01965424709699897,-0.0005501355844316892,126.32809399999678
1648,B,459967163651000.0,-11.414663,-1.0346485,-4.0835085,244,1970-01-06 07:46:07.163651,-2.7292075,6.6131616,-3.3811493,12.1671718403125,7.912941963306777,90.45341491699219,-69.9376449584961,86.43787384033203,126368390.0,40296.0,-0.26240989319759994,-0.25230769204200004,-0.09824688648,-0.003365633866089926,0.002776414623363592,-0.0007967040562653535,126.36838999995962
1648,B,459967203980000.0,-11.481724,-12.995377,5.5708156,244,1970-01-06 07:46:07.203980,-3.9382827,9.350891,-4.20886,18.21383528621878,10.984704621363303,82.84671020507812,-71.7535400390625,93.60157012939453,126408719.0,40329.0,-0.4616941956614999,-0.67813264919475,0.029990804017950012,-0.014601196899799317,-0.018761864260868448,-0.001376349774806007,126.40871899999911
1648,B,459967244267000.0,-10.33451,-8.01613,0.88376224,244,1970-01-06 07:46:07.244267,-3.2575786,5.305017,-2.9305425,13.108831863055144,6.880632460012176,78.73272705078125,-74.27827453613281,97.45912170410156,126449006.0,40287.0,-0.4394553095790001,-0.8180578912545001,0.13001778872004002,-0.01815230505881201,-0.030138514151539474,0.0032231330878177028,126.44900599995162
1648,B,459967284599000.0,-9.580078,-3.04407,2.931504,244,1970-01-06 07:46:07.284599,-2.8112328,1.2985574,-0.07456851,10.470815266873922,3.0975541382797847,71.79597473144531,-76.60498046875,104.05685424804688,126489338.0,40332.0,-0.401597581608,-0.6182935932000001,0.07693865899583999,-0.016960672603677045,-0.028965464035509453,0.0041734837246384365,126.48933799995575
1648,B,459967324942000.0,-5.860613,1.1184741,18.010548,244,1970-01-06 07:46:07.324942,-4.386759,2.9891322,0.680704,18.973075878951303,5.351814997622193,64.79537963867188,-76.51142120361328,110.68810272216797,126529681.0,40343.0,-0.3114618985065,-0.43420355769684993,0.422432601918,-0.014383479303129637,-0.021230446279315807,0.010073067389523523,126.52968099998543
1648,B,459967365259000.0,1.6669337,-7.079678,13.9174595,244,1970-01-06 07:46:07.365259,-3.8967373,2.5790052,0.6583334,15.703381402679486,4.719028742484399,55.47286605834961,-74.57981872558594,119.55906677246094,126569998.0,40317.0,-0.08453828416904999,-0.5152755288181501,0.64362073918875,-0.007982769682465075,-0.019140074165512628,0.021490036276700417,126.56999799999176
1648,B,459967405552000.0,-0.87178713,0.64186525,13.481565,244,1970-01-06 07:46:07.405552,-2.324407,-0.74675035,1.8418423,13.524962057189521,3.058249016176317,50.83909606933594,-73.93946838378906,123.91302490234375,126610291.0,40293.0,0.016019420372505002,-0.5245707945678751,0.55199444708925,-0.0013804152894770936,-0.02094926395409656,0.02408746135034973,126.61029099998996
1648,B,459967445817000.0,2.0118165,-6.9240017,25.013584,244,1970-01-06 07:46:07.445817,-3.1563785,-1.8034927,1.4285196,26.032068486701768,3.905890346873514,44.322452545166016,-71.89327239990234,129.98513793945312,126650556.0,40265.0,0.022951641291525004,-0.521072112079625,0.7750035872425,0.0007845848989510841,-0.021051405818080796,0.026715787926183957,126.65055599994957
1648,B,459967486082000.0,4.392466,-7.1563187,11.529625,244,1970-01-06 07:46:07.486082,-1.4732608,-2.7569044,0.5400891,14.26320116726083,3.172178351148436,41.58897399902344,-69.31089782714844,132.47018432617188,126690821.0,40265.0,0.12893421743125,-0.678069050453,0.7357061551925002,0.0030578420507362675,-0.024141709454688076,0.030414363889572638,126.6908209999674
1648,B,459967526345000.0,5.0678616,-3.5661843,3.5566041,244,1970-01-06 07:46:07.526345,0.68816084,-2.4884577,0.94595486,7.144950971312389,2.7496941036334235,43.19683074951172,-66.62252807617188,130.994873046875,126731084.0,40263.0,0.1904505850794,-0.6104374691445,0.30370842112665,0.00642969515174315,-0.025939568999277074,0.020924974543168967,126.73108399997
1648,B,459967566637000.0,6.212681,-2.7135572,7.422166,244,1970-01-06 07:46:07.566637,0.2790993,-0.9289106,0.350472,10.052330377429346,1.0313107896443485,43.06423568725586,-65.25102233886719,131.12123107910156,126771376.0,40292.0,0.2272578112196,-0.5213732722590001,0.22117830243460002,0.008415153351839655,-0.022801459196314915,0.010574367932864943,126.77137599996058
1648,B,459967606942000.0,4.605623,-0.73527104,6.217471,244,1970-01-06 07:46:07.606942,0.74675035,-0.13848437,-0.39627838,7.772344070885738,0.8566507808989868,42.77128219604492,-63.89899826049805,131.41172790527344,126811681.0,40305.0,0.21801587136,-0.46449151110660003,0.27487278464250003,0.00897337788818539,-0.019867640046775256,0.00999666953232126,126.81168099999195
1648,B,459967647229000.0,3.6931202,2.3255641,12.894786,244,1970-01-06 07:46:07.647229,1.3028184,0.15233281,-0.8671253,13.61333504989328,1.5724017788978575,41.49423599243164,-62.8342399597168,132.60011291503906,126851968.0,40287.0,0.16716573364920004,-0.36277853174589003,0.38498774887950005,0.0077589056605028225,-0.016664114108199134,0.013291900657000408,126.85196800000267
1648,B,459967687514000.0,1.5711329,4.4499464,22.707182,244,1970-01-06 07:46:07.687514,1.9643476,0.21092236,-1.6575515,23.192382282410303,2.5788809027805026,39.876380920410156,-61.895198822021484,134.09567260742188,126892253.0,40285.0,0.10603521806675001,-0.2583172797537501,0.71711264044,0.005502950169938524,-0.0125104223831315,0.022199057091868032,126.89225299999816
1648,B,459967727818000.0,0.0,3.2668068,20.724106,244,1970-01-06 07:46:07.727818,3.9627838,-1.6841831,-2.3190808,20.980004675112973,4.890630216730425,38.458438873291016,-61.024627685546875,135.44876098632812,126932557.0,40304.0,0.0316614702008,-0.23947118951360002,0.8752273157759999,0.0027748636619676676,-0.010031433232675638,0.03208883479766483,126.93255699996371
1648,B,459967768116000.0,0.7807764,4.5625124,18.76977,244,1970-01-06 07:46:07.768116,4.7319045,-4.551875,-2.376605,19.332107930586638,6.9827457019979065,37.45072937011719,-60.3043098449707,136.42062377929688,126972855.0,40298.0,0.0157318636836,-0.2371674474392,0.795762107524,0.0009549282844367756,-0.009603791895961968,0.0336687658900717,126.97285499999998
1648,B,459967808409000.0,1.0633887,-0.18441652,10.873389,244,1970-01-06 07:46:07.808409,3.9585228,-5.9345884,-2.3989756,10.926819909079567,7.526242499742469,36.62912368774414,-59.3956413269043,137.16644287109375,127013148.0,40293.0,0.037153472187150004,-0.30666809135358003,0.5972059027935,0.001065454419120065,-0.010956382682288743,0.028063430019861516,127.01314799999818
1648,B,459967848694000.0,-1.4897022,-1.5926881,5.9061184,244,1970-01-06 07:46:07.848694,2.6471822,-5.5692024,-1.5030881,6.295879810112723,6.346878193925279,35.070518493652344,-58.62625503540039,138.5012664794922,127053433.0,40285.0,-0.00858701967375,-0.43058832980835005,0.3379812278045,0.0005753997697511596,-0.014850187463254179,0.018837006778070216,127.05343299999367
1648,B,459967888967000.0,-12.262501,1.6238233,-7.2808595,244,1970-01-06 07:46:07.888967,2.1198764,-3.4855454,-0.27803403,14.353280041278515,4.089034801585352,32.75784683227539,-61.31343078613281,140.53656005859375,127093706.0,40273.0,-0.27692123973680005,-0.3940484460452,-0.027682474160149993,-0.005749137065620541,-0.01660529843697501,0.006248330852759454,127.093705999956
1648,B,459967929275000.0,-12.056529,-7.316785,-3.7482057,244,1970-01-06 07:46:07.929275,-0.037284255,-2.2445123,0.48043427,14.59261046672522,2.2956573499354445,27.4842529296875,-62.82128143310547,145.17584228515625,127134014.0,40308.0,-0.4901257306199999,-0.5097543501018,-0.22227978004079998,-0.015459064640570945,-0.01821524155354664,-0.005037739271165945,127.134013999952
1648,B,459967969619000.0,-8.576566,-12.978611,3.3458424,244,1970-01-06 07:46:07.969619,-2.0240026,-1.5190672,1.4359765,15.912149107122984,2.909670117294201,22.08192253112793,-61.432472229003906,149.87557983398438,127174358.0,40344.0,-0.4162107923399999,-0.8047699281120001,-0.008116472487600003,-0.018282620341149115,-0.026516583740128774,-0.0046475532060028845,127.1743579999893
1648,B,459968009931000.0,-10.753638,8.583751,10.138118,244,1970-01-06 07:46:08.009931,-0.8564726,0.65513766,4.467719,17.091019514557022,4.5960051926713525,19.22356414794922,-61.405426025390625,152.45301818847656,127214670.0,40312.0,-0.389619591824,-0.48364039816000004,0.2717827058224,-0.016242317223209585,-0.025969198536338434,0.005314456599096229,127.21466999995755
1648,B,459968050145000.0,2.929109,30.529316,32.663277,244,1970-01-06 07:46:08.050145,0.22050974,2.763296,5.832323,44.80522825899301,6.457586306460012,18.129966735839844,-60.940120697021484,153.57435607910156,127254884.0,40214.0,-0.157327804603,0.39234923816899997,0.860607649265,-0.010997471299957689,-0.0018355913539390384,0.02276897286974235,127.25488399999449
1648,B,459968090410000.0,10.736873,23.365812,26.383535,244,1970-01-06 07:46:08.090410,0.8042747,0.52411014,4.354801,36.84199412808294,4.459354323387178,17.946701049804688,-60.458309173583984,153.87379455566406,127295149.0,40265.0,0.275130382615,0.6904466644600001,1.1887599425900002,0.00237166040182659,0.021799388509678348,0.04125889304302079,127.29514899995411
1648,B,459968130706000.0,7.2449346,23.64124,12.0253935,244,1970-01-06 07:46:08.130706,3.6346824,-0.773382,4.7542753,27.49558864483027,6.034249704394395,18.087121963500977,-60.55599594116211,154.0153045654297,127335445.0,40296.0,0.36229745952479997,0.552197283696,0.773863091418,0.012842896163432689,0.02503679026744709,0.03954292888919319,127.33544499997515
1648,B,459968170935000.0,10.085427,2.3950195,1.8250049,244,1970-01-06 07:46:08.170935,2.8623655,0.9310411,2.0122845,10.525331304179135,3.6206715805800047,20.50078582763672,-60.10637283325195,152.0967254638672,127375674.0,40229.0,0.3485915584032,0.12946214171274997,0.2785938386168,0.014299177151112756,0.0137112385123843,0.021169644919184986,127.37567399995169
1648,B,459968211087000.0,7.2449346,1.7004639,0.79993653,244,1970-01-06 07:46:08.211087,1.3369069,0.7755125,0.40586576,7.484687921717832,1.5979570432474828,22.977510452270508,-59.67150115966797,150.0283203125,127415826.0,40152.0,0.3479243394816,-0.31126867526160007,0.05269832414868,0.013983253165935246,-0.0036499479675267147,0.006651021459679776,127.41582599998219
1648,B,459968251311000.0,3.3937428,0.39278322,-1.7483643,244,1970-01-06 07:46:08.251311,0.6125271,0.90973586,-0.5028048,3.837778859702562,1.2064913800385768,25.83905601501465,-59.75482177734375,147.5809326171875,127456050.0,40224.0,0.21396507986879998,-0.35209581392256,-0.01907477931024,0.011300720001975247,-0.01334158660647183,0.0006762367337907053,127.45604999997886
1648,B,459968291545000.0,2.9338992,0.3281177,1.6765138,244,1970-01-06 07:46:08.291545,-0.12250541,-0.113983296,-1.1877699,3.395014618879331,1.1994986880327554,27.480276107788086,-58.777061462402344,146.1366729736328,127496284.0,40234.0,0.12729317411399999,-0.37979083619236004,-0.0014454165085000007,0.006865092295371987,-0.014723363740361846,-0.0004128047792855926,127.49628399999347
1648,B,459968331777000.0,4.064348,1.8968556,6.358777,244,1970-01-06 07:46:08.331777,-0.37710363,-1.9941751,-1.5787219,7.7814542836210485,2.571245673746248,27.879222869873047,-57.826107025146484,145.72097778320312,127536516.0,40232.0,0.1407767406752,-0.34951603709719997,0.16163790973279998,0.005392494405899546,-0.014670737063092788,0.003222432193700018,127.53651599999284
1648,B,459968372009000.0,7.429351,9.968072,1.9375709,244,1970-01-06 07:46:08.372009,0.33449304,-3.674097,-1.8620822,12.582205556694413,4.132580849635525,29.382905960083008,-58.040042877197266,144.3712615966797,127576748.0,40232.0,0.23120724908399998,-0.15559871639840003,0.1668893343564,0.007482829937996067,-0.010160888381317488,0.006608654042098346,127.57674799999222
1648,B,459968412234000.0,14.058765,16.288528,5.6905665,244,1970-01-06 07:46:08.412234,-0.20240025,-2.2860575,-2.6493127,22.256405029180502,3.5051223283770856,30.795040130615234,-57.973670959472656,143.07421875,127616973.0,40225.0,0.4321797330499999,0.13388086749999994,0.15342091345749997,0.013342370678170073,-0.00043680023596907175,0.006442239859157062,127.6169729999965
1648,B,459968452564000.0,13.390554,17.06212,9.64714,244,1970-01-06 07:46:08.452564,-1.2325109,0.41545314,-3.6123118,23.737948215903497,3.839333401851669,31.701915740966797,-57.63087844848633,142.17791748046875,127657303.0,40330.0,0.553515517635,0.2772818169199999,0.30928485157249996,0.01987654473006302,0.008291095531329297,0.009330461751829949,127.6573029999854
1648,B,459968492736000.0,3.0296998,19.828367,5.465435,244,1970-01-06 07:46:08.492736,-0.6530071,1.6383767,-1.9686087,20.78976186742008,2.643126311296717,31.695730209350586,-57.87761306762695,142.1337890625,127697475.0,40172.0,0.3298172178268,0.34729672188199995,0.30355118145,0.017742621324485713,0.01254528453037697,0.012309424559289935,127.69747499999357
1648,B,459968532946000.0,-2.6488917,3.6188745,5.0343313,244,1970-01-06 07:46:08.532946,-1.2815131,1.2868395,-1.7406421,6.742208208238517,2.5155648758329154,29.750167846679688,-57.651405334472656,143.70387268066406,127737685.0,40210.0,0.007656146850499998,0.07734879035749999,0.21109780146150003,0.006784901996837117,0.008537498023575146,0.010347017801435708,127.73768500000006
1648,B,459968573293000.0,-12.248131,0.54366946,0.96758795,244,1970-01-06 07:46:08.573293,-2.218946,0.5134575,-0.87138635,12.298313539501377,2.438580350570506,24.609487533569336,-58.62696838378906,147.96380615234375,127778032.0,40347.0,-0.30052508743845,-0.31142751942294,0.121079717989875,-0.0059081915729510106,-0.004722187240801655,0.006701183188652315,127.77803200000199
1648,B,459968613575000.0,-7.1874537,-10.466236,6.600674,244,1970-01-06 07:46:08.613575,-2.7696877,0.11824436,-0.6668556,14.309803770548905,2.851288844620001,20.57061767578125,-56.67194366455078,151.2439727783203,127818314.0,40282.0,-0.3914521114427,-0.5946140126821401,0.15243236393495,-0.013937112762665243,-0.018248582498128416,0.0055088068420479,127.81831399997463
1648,B,459968653883000.0,-7.5083866,-2.320774,0.7065308,244,1970-01-06 07:46:08.653883,-1.4146712,-0.71798825,0.4079963,7.8905669673024255,1.6380667605629486,15.267976760864258,-56.74966812133789,155.62193298339844,127858622.0,40308.0,-0.2961799654062,-0.65272779954,0.14726940553919998,-0.013858536876812728,-0.025138926883525013,0.006040189461982017,127.85862199997064
1648,B,459968694151000.0,-3.410508,9.620794,8.737032,244,1970-01-06 07:46:08.694151,-0.56885123,-0.50387007,2.328668,13.43603253112778,2.4495247342164803,13.99329948425293,-56.68890380859375,156.7217254638672,127898890.0,40268.0,-0.21984102387639998,-0.24764779732000003,0.19013669341519995,-0.010389566598215867,-0.01812816226717924,0.006793334396347888,127.8988899999531
1648,B,459968734440000.0,2.6153615,11.287727,18.800903,244,1970-01-06 07:46:08.734440,-0.19281286,2.2264028,2.2413163,22.084538714168797,3.165050549908312,13.54903793334961,-55.986000061035156,157.15792846679688,127939179.0,40289.0,-0.01601782866925,0.026359501284499976,0.5547379316075,-0.004751258655105846,-0.00445774207948713,0.015005126883769777,127.93917899997905
1648,B,459968774734000.0,7.27128,0.90052736,4.9648757,244,1970-01-06 07:46:08.774734,1.3347764,0.023435818,2.034655,8.850562303094593,2.4335156142065926,15.146682739257812,-55.2046012878418,155.9505157470703,127979473.0,40294.0,0.1991861663005,-0.14932443940908005,0.4788091434689001,0.0036902924982567943,-0.002477374608395915,0.020822872921564234,127.97947299998486
1648,B,459968815005000.0,4.8020144,20.170855,16.137642,244,1970-01-06 07:46:08.815005,1.1451592,-0.0053263223,3.1489217,26.274440489742048,3.3506903521192126,15.025757789611816,-55.11982727050781,156.18348693847656,128019744.0,40271.0,0.2431018193912,0.029627019509779962,0.42490974514835,0.008905689735895226,-0.002410167398382357,0.018196831681752637,128.01974399999017
1648,B,459968855285000.0,7.197034,8.792117,19.861898,244,1970-01-06 07:46:08.855285,0.058589544,2.2242723,2.1315942,22.88216798953388,3.0813168991012687,15.037640571594238,-54.27391052246094,156.2515411376953,128060024.0,40280.0,0.241660834776,0.18857025607999992,0.7250307356,0.009763119854927409,0.004394493130378168,0.02315980128227177,128.0600240000058
1648,B,459968895563000.0,3.4847536,3.4248781,1.3052857,244,1970-01-06 07:46:08.895563,1.6170714,-1.5020229,1.5009576,5.057377621969419,2.6690572159135386,16.518281936645508,-54.4262580871582,155.14492797851562,128100302.0,40278.0,0.2151205204764,-0.14868633568110004,0.4262859125343,0.009199119713428084,0.0008032222729134446,0.02318636597677667,128.1003020000062
1648,B,459968935825000.0,5.0846267,4.3469605,1.710044,244,1970-01-06 07:46:08.935825,1.2964269,-1.0503508,0.99708754,6.90461763958361,1.943744600642662,18.104440689086914,-54.48502731323242,153.9261474609375,128140564.00000001,40262.0000000149,0.17251019481936386,-0.2381127171434882,0.060701602190722466,0.007803393929621911,-0.007786651732414668,0.009803545658933056,128.14056400000118
1648,B,459968976083000.0,6.016289,1.6238233,7.3383403,244,1970-01-06 07:46:08.976083,-0.51452273,0.7882957,-0.31851408,9.627241235148727,0.9937781289017129,18.943042755126953,-53.5088005065918,153.22508239746094,128180822.0,40257.9999999851,0.2234503321252173,-0.2743424928896985,0.18213492757463254,0.007970289446864525,-0.010315210922754198,0.0048880565076450215,128.1808219999657
1648,B,459969016375000.0,4.6511283,3.4775686,3.178191,244,1970-01-06 07:46:09.016375,0.1438107,-0.10652645,-1.28897,6.620224759269722,1.301335107835062,20.248933792114258,-53.14748764038086,152.1461639404297,128221114.0,40292.0,0.2149057889258,-0.29208895878260005,0.21186603956980002,0.008831122414693795,-0.011411328025390128,0.007937543484091739,128.2211139999563
1648,B,459969056607000.0,4.888235,6.9000516,7.2928348,244,1970-01-06 07:46:09.056607,0.14274544,-0.7914915,-2.0634172,11.166512119636042,2.2146163542403645,20.839481353759766,-52.8021354675293,151.61412048339844,128261346.0,40232.0,0.19189383214279998,-0.18551739205680004,0.21063515499279997,0.008183181177415958,-0.009607529353485371,0.00849903402982126,128.26134599995567
1648,B,459969096897000.0,3.4057178,9.280701,10.279425,244,1970-01-06 07:46:09.096897,0.15233281,0.11611383,-3.1691618,14.261728615958967,3.1749447587476234,20.959320068359375,-52.4382438659668,151.43667602539062,128301636.0,40290.0,0.167081679156,-0.06888073887300002,0.35399317367099997,0.0072315616751143265,-0.005124850347580822,0.011374437680932251,128.30163599998923
1648,B,459969137253000.0,8.392149,4.8283596,12.784615,244,1970-01-06 07:46:09.137253,-0.07669904,-0.17896444,-3.5824845,16.037069618959013,3.587771760614335,21.640888214111328,-51.58523941040039,150.79251098632812,128341992.0,40356.0,0.2380573562904,-0.11079617521320004,0.46538619912,0.00817489545723746,-0.003625520772431345,0.016533436984176798,128.34199200000148
1648,B,459969177591000.0,6.68929,13.206139,12.966637,244,1970-01-06 07:46:09.177591,-0.29507825,-0.36964676,-2.0463731,19.67949143349975,2.100322062257398,21.921043395996094,-51.33342742919922,150.49850463867188,128382330.0,40338.0,0.304177543191,-0.03157459773660005,0.519377001588,0.010936335687640356,-0.0028714761196245177,0.019861688995079653,128.3823299999931
1648,B,459969217841000.0,3.6931202,10.856624,13.527071,244,1970-01-06 07:46:09.217841,-0.41225734,-0.9715212,-0.59761333,17.733783333740856,1.2128277901775688,21.74872589111328,-51.036773681640625,150.58802795410156,128422580.00000001,40250.0000000149,0.2089460052750773,0.08981310537503322,0.5331858735001973,0.01032661141288363,0.0011720499662239013,0.021182827861157816,128.4225799999549
1648,B,459969258165000.0,-2.3638844,4.5744877,5.415139,244,1970-01-06 07:46:09.258165,-0.3270362,-1.2868395,-0.3653857,7.472457264068872,1.3771039483768754,20.502376556396484,-51.01568603515625,151.51861572265625,128462904.00000001,40324.0,0.026800052199600004,-0.08405312590460003,0.38191283802,0.004753112010804444,0.00011613270608287399,0.018450220221670217,128.46290399995632
1648,B,459969298458000.0,-5.8917484,-2.9913795,2.4572902,244,1970-01-06 07:46:09.298458,-0.28016454,-0.8223842,-0.28868666,7.049774865124336,0.9155041941711721,16.273178100585938,-50.089439392089844,154.7566680908203,128503197.0,40292.9999999851,-0.16632210620513851,-0.3629773106485658,0.15860189487774135,-0.0028108810610215423,-0.009006098690015025,0.010889480066320317,128.50319699995453
1648,B,459969338781000.0,-6.9072366,-5.0487013,-0.6777906,244,1970-01-06 07:46:09.338781,-0.5486112,-0.26418558,0.3355583,8.582464818596673,0.6952464614395865,11.902368545532227,-49.476295471191406,158.08187866210938,128543520.0,40323.0,-0.2580467360775,-0.5572654890492,0.0358773811854,-0.008555912413681416,-0.018553475206106503,0.0039209939243470245,128.54352000000654
1648,B,459969379182000.0,-4.6032276,-2.787803,1.7220191,244,1970-01-06 07:46:09.379182,-0.26844665,-0.9044095,1.0546118,5.6503893392381,1.4150004227157362,7.977263450622559,-48.207550048828125,161.05502319335938,128583921.0,40401.0,-0.23251713207210004,-0.55423110511215,0.02109393781425,-0.009909635418555995,-0.022452786950356355,0.00115084912945243,128.583920999954
1648,B,459969419480000.0,-2.7135572,13.198954,12.075689,244,1970-01-06 07:46:09.419480,0.5795039,1.1994878,2.4905882,18.09414391996783,2.8244690358443107,7.341106414794922,-48.176025390625,161.6385498046875,128624219.00000001,40298.0000000149,-0.1474258969352545,-0.18514611850106846,0.2780100205070028,-0.007655472091472017,-0.014897711678588246,0.006026645656217151,128.62421899999026
1648,B,459969459797000.0,8.210127,2.299219,17.694405,244,1970-01-06 07:46:09.459797,0.9853696,3.2618399,2.2690134,19.64139917801466,4.0937726599331,7.875455379486084,-47.12902069091797,161.36924743652344,128664536.0,40316.9999999851,0.11080260231325904,-0.08268667957946946,0.6001204398987783,-0.0007382706846372229,-0.005399107460104529,0.0177017928860834,128.6645359999966
1648,B,459969500110000.0,7.2616997,18.776955,14.08032,244,1970-01-06 07:46:09.500110,1.3379722,1.123854,3.310842,24.567493419301147,3.7436469077963057,8.20882511138916,-47.202205657958984,161.29061889648438,128704849.0,40313.0,0.31185787487855005,0.029754501231000006,0.6404672444625,0.0085193559085167,-0.0010669274528809245,0.02500590565982811,128.70484899997246
1648,B,459969540412000.0,8.789722,15.2538805,20.537292,244,1970-01-06 07:46:09.540412,0.65194184,1.3923006,3.3172336,27.05033171402577,3.656168469924752,8.501659393310547,-46.86709976196289,161.21853637695312,128745151.0,40302.0,0.32345219867669994,0.2907957661604999,0.6975794994119999,0.01280213329221184,0.006459408438206114,0.02696297993581505,128.74515099998098
1648,B,459969580710000.0,6.5407987,1.9758912,7.1706886,244,1970-01-06 07:46:09.580710,0.38136467,0.6562029,1.2463595,9.904795235961675,1.4592646301246628,9.580692291259766,-46.184017181396484,160.49484252929688,128785449.0,40298.0,0.3088946615843,-0.047757730016700056,0.5582881011094,0.012741156887398889,0.004896973390261423,0.025304476282905688,128.78544899995904
1648,B,459969621023000.0,4.495452,1.3986914,-1.7315992,244,1970-01-06 07:46:09.621023,0.87138635,-1.1046792,1.1867046,5.016359447465722,1.8406243814369414,11.538248062133789,-46.70665740966797,159.14166259765625,128825762.0,40313.0,0.22245218723455001,-0.32704762582310004,0.10963300549110001,0.01071009275821715,-0.007554764154984931,0.013462951785192977,128.82576199999312
1648,B,459969661267000.0,4.88584,0.7065308,1.698069,244,1970-01-06 07:46:09.661267,0.11504856,-0.17789917,0.5475459,5.220541792353513,0.5871037373851171,13.284414291381836,-46.3132438659668,157.89613342285156,128866006.0,40244.0,0.18877035762400002,-0.35202991889160007,-0.0006746946843999991,0.008274620047643745,-0.013664398354749198,0.002192459130052418,128.86600599996746
1648,B,459969701406000.0,4.038003,0.74006104,0.85023195,244,1970-01-06 07:46:09.701406,-0.257794,-0.05006743,-0.17257284,4.192380342924015,0.314238570338637,15.119134902954102,-46.0397834777832,156.55685424804688,128906145.00000001,40139.0000000149,0.1790970670885665,-0.36432982506725525,0.05114312591604398,0.007382915280271594,-0.014376981881387585,0.0010128761806038548,128.90614499995718
1648,B,459969741641000.0,4.663103,5.2858086,2.675237,244,1970-01-06 07:46:09.741641,0.10972224,-0.67537767,-0.99708754,7.539309991677751,1.2092797565114939,16.22874641418457,-46.231353759765625,155.72125244140625,128946380.0,40234.9999999851,0.17504449995493518,-0.2730775675171989,0.07092362160159874,0.0071244429749950065,-0.012823043220313008,0.0024556777931852678,128.9463799999794
1648,B,459969781876000.0,4.27032,9.14658,4.3325906,244,1970-01-06 07:46:09.781876,0.13848437,-0.87032104,-2.0133498,10.984848651939105,2.1977747952329008,16.898277282714844,-46.56370544433594,155.16615295410156,128986615.0,40235.0,0.17971813720250002,-0.10395942233950002,0.140979971743,0.007136937353014702,-0.0075850416434421405,0.0042629705391099655,128.98661500000162
1648,B,459969822132000.0,10.679393,6.6773148,11.280542,244,1970-01-06 07:46:09.822132,-0.09374327,0.65513766,-3.310842,16.908181321493807,3.376339423574675,17.895036697387695,-46.01325607299805,154.33987426757812,129026871.0,40256.0,0.300907823264,-0.07600544546560002,0.3142611329728,0.009674039332269712,-0.003622332859181054,0.009163092955719623,129.02687099995092
1648,B,459969862420000.0,10.054293,17.742306,23.210135,244,1970-01-06 07:46:09.862420,-0.5635249,0.12357068,-2.8538435,30.89641721374357,2.9115722124597774,18.166181564331055,-45.69447708129883,154.0320587158203,129067159.0,40288.0,0.41765937078399995,0.09708644139519998,0.694780197488,0.01447481755690291,0.00042465558200586155,0.02032612856080235,129.06715899996925
1648,B,459973127220000.0,8.902288,3.271597,-7.661668,244,1970-01-06 07:46:13.127220,3.0402648,-2.1358552,0.18748654,12.192425316875104,3.720247127835361,22.093801498413086,-47.03166961669922,151.2805633544922,132331959.00000001,3264800.000000015,30.94472282440014,2.3080552572000066,25.381317530800118,51.195952695418825,3.9261533087868328,42.56662193165772,132.33195899997372
1648,B,459973167532000.0,8.808882,-1.8202149,3.3745828,244,1970-01-06 07:46:13.167532,-1.2644689,0.6306366,-0.51026165,9.607153243607696,1.5023152371548032,23.52538299560547,-46.0958137512207,150.1866912841797,132372271.00000001,40312.0,0.35698634252000006,-0.36580354239240004,-0.0864104892912,0.6309172499684423,0.03914802556366212,0.5098441463286537,132.37227100000018
1648,B,459973207823000.0,5.975574,-1.8034497,3.0943654,244,1970-01-06 07:46:13.207823,-2.0900488,2.1518342,-0.624245,6.9667074489046295,3.064045729210986,24.64023208618164,-44.94804763793945,149.32579040527344,132412562.00000001,40291.0,0.297840258348,-0.4678523351993,0.1303201959631,0.013191809287786295,-0.016794414482023592,0.0008845829957587612,132.41256199998315
1648,B,459973248131000.0,4.0882983,-1.5783179,3.647615,244,1970-01-06 07:46:13.248131,-1.7353158,1.2378373,-0.9619338,5.70178617377645,2.3385633928938874,25.334402084350586,-43.697784423828125,148.76678466796875,132452869.99999999,40307.9999999702,0.20282728233405006,-0.4631745442100576,0.13587787298149956,0.010090453614898576,-0.01876391572760232,0.005364955881505492,132.45286999997916
1648,B,459973288407000.0,7.1084185,0.4023633,6.6605496,244,1970-01-06 07:46:13.288407,-1.9792614,0.36751625,-1.8418423,9.749586184571594,2.7285393421413797,26.02181625366211,-42.76216506958008,148.17308044433594,132493146.0,40276.0000000149,0.22547948291848346,-0.41838617373495485,0.20758581871487686,0.008625241638658711,-0.01775286973798323,0.006916671823384188,132.49314599996433
1648,B,459973328697000.0,8.753797,11.328443,-1.6573536,244,1970-01-06 07:46:13.328697,-1.0769824,-0.24714136,-2.0112193,14.412126965749746,2.294770797797658,27.23300552368164,-43.38993453979492,147.2389373779297,132533436.0,40290.0,0.31954433124750004,-0.15852490708650005,0.10078938342000002,0.010979504736373739,-0.01162187372314821,0.006212218447007095,132.5334359999979
1648,B,459973369001000.0,13.294754,23.138285,-3.4871485,244,1970-01-06 07:46:13.369001,-1.1547467,0.4079963,-2.3276029,26.912653554095947,2.6301399548432762,28.25992202758789,-44.0991325378418,146.42079162597656,132573739.99999999,40303.9999999851,0.44432239975183574,0.2995943026558892,-0.10367200631916168,0.015393442363092924,0.0028428304595132796,-5.8090616663884366e-05,132.57373999996344
1648,B,459973409295000.0,14.087505,29.29588,6.947952,244,1970-01-06 07:46:13.409295,-2.6152241,1.6724652,-3.2075112,33.24124575123094,4.463705303507086,28.778850555419922,-44.47086715698242,145.8944549560547,132614034.0,40294.0000000149,0.551670372073204,0.6615099222552446,0.06972480811452578,0.020066266373966496,0.019363366819291777,-0.0006839342022290525,132.61403399996925
1648,B,459973449589000.0,4.040398,22.513186,6.210286,244,1970-01-06 07:46:13.449589,-1.5403724,1.2815131,-2.8112328,23.70097069891434,3.4522532948712223,28.840557098388672,-45.00510787963867,145.7311553955078,132654327.99999999,40293.9999999851,0.36522286174086493,0.6489160527017601,0.265099020985902,0.018472647981645215,0.026401152117449013,0.006745695684883823,132.65432799997507
1648,B,459973489873000.0,-3.8056862,5.621111,-2.1818628,244,1970-01-06 07:46:13.489873,-0.26205507,-1.619202,-2.6375947,7.130263782302537,3.1060253987990496,28.32373046875,-46.34227752685547,145.9823455810547,132694612.0,40284.0000000149,0.004727565075601747,0.17189781017406355,0.08114050009443001,0.007451541496940027,0.016532832826050954,0.006973956433602627,132.69461199996294
1648,B,459973530161000.0,-15.304175,1.0466236,-6.006709,244,1970-01-06 07:46:13.530161,-0.69668293,-2.2019017,-1.5084145,16.474032487566088,2.7584511061874064,25.254440307617188,-48.3076286315918,148.13241577148438,132734900.00000001,40288.0000000149,-0.3849490440129424,-0.2605075542176964,-0.16495059033926102,-0.007659181471716623,-0.0017849546840156,-0.0016882704578925004,132.73489999998128
1648,B,459973570451000.0,-14.839541,-10.2387085,3.7098854,244,1970-01-06 07:46:13.570451,-2.8495824,-1.0833739,-0.92997587,18.40669385087356,3.187267478636399,21.13426399230957,-47.42839050292969,151.0388946533203,132775190.00000001,40290.0,-0.60724515882,-0.5800165503105,-0.046269511422,-0.019987752216069625,-0.016932358085720516,-0.004255028949980603,132.77518999995664
1648,B,459973610751000.0,-9.261541,-12.707974,11.464959,244,1970-01-06 07:46:13.610751,-3.1989892,-1.1249193,0.58056915,19.460576295450192,3.440354032822909,18.225505828857422,-45.33869552612305,153.03213500976562,132815490.00000001,40300.0,-0.4856368023,-0.8573156523750001,0.30577311466000007,-0.022021571516568,-0.028962243884112827,0.0052289976052457025,132.81548999994993
1648,B,459973651065000.0,-12.588223,-2.682422,5.841453,244,1970-01-06 07:46:13.651065,0.49854377,-1.0205233,3.7731667,14.13440197656137,3.9404061519642353,14.146749496459961,-44.75446319580078,156.05169677734375,132855804.0,40313.9999999851,-0.4404256929478372,-0.7053014121717394,0.34884534668387107,-0.018666641716703753,-0.03149767217005699,0.013195144325303533,132.85580399999162
1648,B,459973691338000.0,-8.842413,25.085436,6.133645,244,1970-01-06 07:46:13.691338,3.697533,1.2389026,5.8791947,27.29631784616178,7.054896190510804,13.274070739746094,-45.55599594116211,157.0137939453125,132896076.99999999,40272.9999999851,-0.43153800181384033,0.056442891410979135,0.24113656087691077,-0.017558296939562023,-0.013065739603294213,0.011880170681593288,132.89607699995395
1648,B,459973731629000.0,11.56076,40.449486,25.456663,244,1970-01-06 07:46:13.731629,3.1148334,2.1827269,5.559615,49.17167660897241,6.736156380159547,13.352798461914062,-45.768314361572266,157.27566528320312,132936367.99999999,40291.0,0.05476245948849999,0.925381971151,0.636402549814,-0.007590331687915144,0.01977935276874235,0.017678464154423743,132.93636799999513
1648,B,459973771925000.0,7.1467385,40.806343,7.5970025,244,1970-01-06 07:46:13.771925,4.681837,-0.77231675,4.6275086,42.11826144567268,6.627963993563447,13.618955612182617,-46.607215881347656,157.4021453857422,132976664.0,40296.0000000149,0.3769186797781394,1.2422416426924594,0.6659652524942463,0.008697511593947467,0.043673280571734176,0.02624010648091625,132.97666399995796
1648,B,459973812211000.0,8.334668,8.782537,-8.442444,244,1970-01-06 07:46:13.812211,5.554289,-1.7257284,1.8311896,14.760572736846258,6.097665139808493,15.280094146728516,-47.72886276245117,156.43284606933594,133016950.00000001,40286.0000000149,0.31184197112961537,0.6040660098402234,-0.017029728134506292,0.013873705791240037,0.03719017504497959,0.013071508267183077,133.01694999996107
1648,B,459973852505000.0,8.765772,1.331631,-5.4342995,244,1970-01-06 07:46:13.852505,2.130529,-1.0791129,-0.19813919,10.399212034180534,2.3964343532425976,19.548856735229492,-48.549686431884766,153.315673828125,133057244.0,40293.9999999851,0.3445225646798726,-0.19111105730392935,-0.27957475129439663,0.013223776302948863,0.00831980342874564,-0.005975690447051898,133.0572439999669
1648,B,459973892778000.0,6.4905033,-1.456172,0.81191164,244,1970-01-06 07:46:13.892778,-0.9257148,0.9736517,-0.660464,6.7012141058216,1.497049838565146,21.379302978515625,-47.80108642578125,151.90707397460938,133097517.00000001,40273.0000000149,0.30720798757856366,-0.397183219846647,-0.09307871314292444,0.013123572265556858,-0.011846187711846964,-0.007503936486644892,133.09751699998742
1648,B,459973933062000.0,2.955454,-1.3651612,0.5676197,244,1970-01-06 07:46:13.933062,-1.6415725,1.7502295,-1.0940266,3.304627902189523,2.6372253936541075,22.929216384887695,-46.775306701660156,150.69456481933594,133137801.0,40283.9999999851,0.19026047193652962,-0.4516104933142329,0.02778652025026972,0.010020009711549302,-0.017096402970480117,-0.0013151153492433649,133.1378009999753
1648,B,459973973323000.0,5.213958,-6.0258694,3.7170706,244,1970-01-06 07:46:13.973323,-2.1859226,2.0090888,-2.0240026,8.792785332134791,3.5932272324865515,24.398117065429688,-43.986228942871094,149.53201293945312,133178062.00000001,40261.0000000149,0.16445434826606087,-0.5433429414935012,0.08625295808418193,0.007140586688090891,-0.020028910119404504,0.0022956717186125284,133.17806199996267
1648,B,459974013621000.0,7.3718705,1.5423926,5.132527,244,1970-01-06 07:46:14.013621,-2.7622306,3.9500005,-2.2892532,9.11407060577402,5.3360193076193845,25.270841598510742,-43.087005615234375,148.81861877441406,133218359.99999999,40297.9999999702,0.25359185844631243,-0.4852579740428412,0.17831054204226812,0.00842321301904138,-0.020725279847126434,0.005330689964043899,133.21835999999894
1648,B,459974053883000.0,2.3543043,12.626543,13.457615,244,1970-01-06 07:46:14.053883,-2.9103024,7.113836,-2.1209416,18.60321849455283,7.973387985351793,24.69481658935547,-42.735923767089844,149.15228271484375,133258622.0,40262.0000000149,0.19579762489887245,-0.10933275743644051,0.37423814860213855,0.009046659689225266,-0.011969706015413853,0.01112335769136667,133.25862199999392
1648,B,459974094162000.0,3.3314724,-0.098195806,20.951632,244,1970-01-06 07:46:14.094162,-3.428021,9.153817,-4.1790323,21.215070922146403,10.630522311268308,24.00962257385254,-41.290496826171875,149.49560546875,133298901.0,40279.0,0.11450869984965001,-0.14241955168643702,0.6929850299565,0.006249414227272869,-0.005070165629580192,0.0214933412045817,133.29890100000193
1648,B,459974134441000.0,0.7664063,6.0689797,21.816235,244,1970-01-06 07:46:14.134441,-2.6173549,7.367369,-3.303385,22.657625709480612,8.487698457941352,23.20252227783203,-40.328369140625,149.93600463867188,133339180.0,40279.0,0.08252922807865,-0.27448559776678705,0.8613234574465,0.003968245349511998,-0.008396261257413207,0.03130299578205272,133.33917999995174
1648,B,459974174730000.0,-2.7183473,1.0274634,11.747571,244,1970-01-06 07:46:14.174730,-1.180313,3.3161683,-2.1624868,12.101674160288646,4.131157238845809,22.07938575744629,-39.47608184814453,150.5923614501953,133379469.0,40289.0,-0.0393208754745,-0.25187790197205,0.676126089967,0.0008704106590342996,-0.010603329520489004,0.03097115240787125,133.3794689999777
