Subject-id_accel,Activity_accel,Timestamp_accel,accel_x,accel_y,accel_z,Segment_accel,DateTime,gyro_x,gyro_y,gyro_z,accel_magnitude,gyro_magnitude,Roll,Pitch,Yaw,Time_Difference,Difference_Microseconds,vx,vy,vz,dx,dy,dz,Time_diff
1607,B,288986619732348.0,7.266242320708692,1.4754268,-2.8616695,37,1970-01-04 08:16:26.619732348,-2.8482509,-0.44581318,1.336108,3.4593512036241494,3.177493850265728,78.64673614501953,21.896482467651367,-19.037982940673828,15005474.0,39937.0,0.3243511764625481,-0.23555041486260003,-0.017820660184100005,0.013448744612797535,-0.007265715065063279,0.0006376364915665948,15.005474213976413
1607,B,288986659595629.0,9.658049820708692,1.5215151,-4.0001125,37,1970-01-04 08:16:26.659595629,-3.257046,-1.2285162,1.6634104,4.425477053795881,3.858048063283634,79.93399047851562,21.374359130859375,-18.543302536010742,15045337.0,39863.0,0.3373265288166606,-0.33092385252015005,-0.136765607933,0.013188229182772548,-0.011290681860339285,-0.003081136202975979,15.045337494986597
1607,B,288986700013337.0,-11.081722079291307,19.612701,0.03232172,37,1970-01-04 08:16:26.700013337,-5.460812,-2.9814088,2.2338595,27.736990141307416,6.61055174685152,79.79899597167969,21.81789207458496,-18.61197853088379,15085755.0,40418.0,-0.028770992673696063,0.031004973164900005,-0.08018508387302001,0.006235598829913171,-0.006061060632890248,-0.004384356530707859,15.085755202977452
1607,B,288986736988027.0,-0.8255610792913082,9.994595,3.788824,37,1970-01-04 08:16:26.736988027,-1.8575549,-5.5015583,1.6634104,14.205744147432828,6.0402473536802335,79.38920593261719,22.168285369873047,-18.96859359741211,15122729.0,36974.0,-0.2201299437527168,0.185004881152,0.07064152092564,-0.004601431611715095,0.0039933741767565305,-0.0001764318482082143,15.122729892958887
1607,B,288986777201672.0,7.056749720708692,10.749966,7.213131,37,1970-01-04 08:16:26.777201672,-2.4426515,1.3020195,1.5486282,13.0294338343549,3.171758255395222,78.69385528564453,21.76011848449707,-19.110124588012695,15162943.0,40214.0,0.12529051001297933,0.02301368802699999,0.221216309185,-0.0019069364942049013,0.004182629370482153,0.005868385390034638,15.162943537987303
1607,B,288986819217244.0,9.022987820708693,4.609437,3.1381998,37,1970-01-04 08:16:26.819217244,0.7595336,1.8290591,0.038615838,5.597918464171039,1.9808684115221316,78.17066192626953,21.171730041503906,-19.232025146484375,15204959.0,42016.0,0.3378031262700964,-0.08908646177600002,0.21746075744639998,0.009728671111034854,-0.0013880568309189926,0.00921572781579245,15.204959110007621
1607,B,288986856858963.0,9.433593420708691,-3.4003649,5.1379566,37,1970-01-04 08:16:26.856858963,0.958738,1.4921691,-0.6175871,6.226934353185026,1.8780737476801117,75.1725082397461,21.182138442993164,-20.270435333251953,15242600.0,37641.0,0.34736208725409584,-0.34612645854195,0.1557614015262,0.01289515190113206,-0.008190924766843978,0.007024227642943818,15.242600828991272
1607,B,288986896438078.0,8.281982400708692,-0.76434886,0.015562311,37,1970-01-04 08:16:26.896438078,2.0141487,0.087085366,-1.4626081,0.8042196770230325,2.4907029732323873,74.0488510131836,23.88782501220703,-20.75113868713379,15282179.0,39579.0,0.3505823877179393,-0.47029180295352,0.1019855624892345,0.01381197218745909,-0.016156509185864604,0.005100683544383442,15.282179943984374
1607,B,288986936217870.0,6.735926620708692,0.55964464,0.4225766,37,1970-01-04 08:16:26.936217870,2.8738172,-0.5683186,-1.063134,1.927728377427686,3.116418654814818,73.96710205078125,24.954118728637695,-20.881460189819336,15321959.0,39780.0,0.2987062104359918,-0.39391556693580004,0.008714582939790001,0.01291435021728169,-0.017189084587098575,0.0022018258925832978,15.32195973600028
1607,B,288986976061152.0,6.128397920708692,4.734534,-0.8218097,37,1970-01-04 08:16:26.976061152,3.1206923,-0.22450449,0.027696876,5.3727513894251695,3.128879961623585,74.73555755615234,25.042770385742188,-20.631980895996094,15361803.0,39844.0,0.2562830735141171,-0.28500057313392,-0.007953521818199999,0.01105649651485407,-0.013525367342468963,1.5161859664316025e-05,15.361803017964121
1607,B,288987016579589.0,-11.081722079291307,19.612701,2.2361844,37,1970-01-04 08:16:27.016579589,0.95953697,0.44368264,-0.7688546,27.826967101648076,1.307173621893936,74.96053314208984,25.575130462646484,-20.545886993408203,15402321.0,40518.0,-0.10034939412872519,0.096174233865,0.0286538170473,0.003159060410668655,-0.0038254328072490503,0.0004193672810463369,15.402321454952471
1607,B,288987056845004.0,9.799906220708692,-4.97156,1.1402385,37,1970-01-04 08:16:27.056845004,2.514024,-0.46685216,-0.4673848,5.255968925618105,2.599368416201079,72.03851318359375,26.470352172851562,-21.90818977355957,15442586.0,40265.0,-0.025806157772914493,-0.09983422881750001,0.06797583403424999,-0.002539826648659761,-7.368484838120644e-05,0.0019453964503993052,15.442586869990919
1607,B,288987098364065.0,5.288631820708692,10.299856,-12.076353,37,1970-01-04 08:16:27.098364065,2.1510353,0.43915528,-3.5971317,16.200062802620558,4.214162631999725,73.57960510253906,26.658178329467773,-21.29786491394043,15484105.0,41519.0,0.31323050547080417,-0.29627343918800003,-0.22702826896274997,0.005966785746034341,-0.008222997133960177,-0.003301849022898195,15.484105930954684
1607,B,288987136409640.0,5.737544620708691,19.612701,0.34715924,37,1970-01-04 08:16:27.136409640,1.6125441,3.7020602,-1.0325075,19.81376244267674,4.167927534929692,74.16154479980469,26.325485229492188,-20.928821563720703,15522151.0,38046.0,0.2097509544450829,0.19617577181100004,-0.22312445289648,0.009948676311979921,-0.001904157926512671,-0.008563255227928132,15.522151505982038
1607,B,288987178231984.0,7.248285920708692,16.90426,0.8230068,37,1970-01-04 08:16:27.178231984,3.1430628,0.60906494,-0.4822985,16.9728661309076,3.2376558972477745,74.68779754638672,25.836265563964844,-20.746776580810547,15563973.0,41822.0,0.27154670245157886,0.353750571471,0.02446934206244,0.010064415303366093,0.011499509764369902,-0.0041540770226506105,15.563973849988542
1607,B,288987218152347.0,-2.6242050792913076,8.659229,4.785411,37,1970-01-04 08:16:27.218152347,0.50387007,0.6332997,-0.041545313,14.910865154525776,0.8103576805918253,74.47803497314453,26.40850067138672,-20.82312774658203,15603894.0,39921.0,0.09229896563511168,0.11903422218449998,0.1119468234969,0.0072625414578443865,0.009437020873760606,0.002722934872647206,15.603894212981686
1607,B,288987256043703.0,8.601009770708693,7.8356237,1.8471266,37,1970-01-04 08:16:27.256043703,-0.5291701,0.016777916,-0.6945524,8.05069538774283,0.8733301377744117,74.51017761230469,25.7945556640625,-20.80482292175293,15641785.0,37891.0,0.11323355328124807,-0.05882856817215003,0.1256567411008,0.003893916337129894,0.001140626218090976,0.004501518333085725,15.641785568965133
1607,B,288987297938181.0,7.913873890708692,5.2642508,0.08798691,37,1970-01-04 08:16:27.297938181,-2.387524,-0.6463492,0.5067996,5.301097664664388,2.5248532578105998,74.77427673339844,25.31223487854004,-20.660900115966797,15683680.0,41895.0,0.3459455254975407,-0.13616137891125002,0.040535790250725,0.009618653752718679,-0.004084551916529523,0.0034813180504860704,15.683680046990048
1607,B,288987336082037.0,7.830076820708692,-0.41359833,-3.7421372,37,1970-01-04 08:16:27.336082037,-2.817891,0.08655274,1.7265273,3.82972038085078,3.305888319699835,77.65784454345703,26.145692825317383,-19.324331283569336,15721823.0,38143.0,0.30026075599279667,-0.28129218141839507,-0.06969012725573501,0.01232412309744297,-0.007961465575826826,-0.0005560169381910484,15.721823902975302
1607,B,288987377164796.0,9.612560020708692,3.074155,-5.130774,37,1970-01-04 08:16:27.377164796,-3.7215014,-0.57604176,1.8085527,6.078140595907716,4.177590172353333,78.94959259033203,25.618070602416992,-18.68636131286621,15762906.0,41083.0,0.35829792467797517,-0.347961575163195,-0.18226290541480003,0.01352778313899866,-0.012925816040820734,-0.005175493220601795,15.76290666195564
1607,B,288987416569484.0,-11.081722079291307,19.612701,12.494142,37,1970-01-04 08:16:27.416569484,-5.3566823,0.006657903,1.1827098,30.421097312910412,5.485698867220264,78.24175262451172,25.951173782348633,-18.867952346801758,15802311.0,39405.0,-0.028946165459223974,0.060818780340000024,0.14507675802000003,0.006489053036007446,-0.0056574309150039985,-0.0007326600690460471,15.802311349951196
1607,B,288987459300317.0,1.918193920708692,13.471575,-3.477578,37,1970-01-04 08:16:27.459300317,-2.0266657,-3.7151098,1.6889768,15.404990414088708,4.556540059798747,78.6960220336914,25.875410079956055,-18.77312660217285,15845042.0,42731.0,-0.19578336087219686,0.2880982988779999,0.19264339814200002,-0.004801458694833972,0.007454787856032178,0.0072155599964792115,15.845042183005717
1607,B,288987497451097.0,6.780219420708692,4.4274774,5.216367,37,1970-01-04 08:16:27.497451097,-1.9789951,1.5848472,1.28391,7.06259848793077,2.841933697550288,77.68498229980469,25.670297622680664,-19.08832359313965,15883192.0,38150.0,0.1659222344875366,-0.03244557547000006,0.03316740017500001,-0.0005696009857873946,0.0048765756990075985,0.0043073409778967755,15.88319296296686
1607,B,288987537372818.0,8.084460740708693,0.2220622,6.3248825,37,1970-01-04 08:16:27.537372818,0.8727179,2.303368,0.19361182,6.344553887557915,2.4707541790409104,76.2483139038086,25.617155075073242,-19.625728607177734,15923114.0,39922.0,0.2967138807020524,-0.2984261400444,0.23037488126949998,0.009234679495299386,-0.006604530313382939,0.005260567479913664,15.92311468400294
1607,B,288987577306046.0,8.372363520708692,-3.74094,4.9021277,37,1970-01-04 08:16:27.577306046,1.5331819,0.7432883,-1.154214,6.168536073970441,2.057992758296418,73.21317291259766,26.250389099121094,-20.966327667236328,15963047.0,39933.0,0.32858518161559025,-0.4616030735937,0.22416409915830002,0.012485033727765212,-0.015175123294105124,0.009075552552711669,15.96304791199509
1607,B,288987617166826.0,6.060163120708692,1.0761937,-3.3692403,37,1970-01-04 08:16:27.617166826,2.0591562,-0.6149239,-1.948635,4.314842313772639,2.900936749054458,74.60566711425781,27.056482315063477,-20.438798904418945,16002908.000000002,39861.00000000186,0.2876474722267826,-0.4437475261321708,0.030551212325701432,0.012281824907405984,-0.018044090127837312,0.005076603515532128,16.00290869199671
1607,B,288987657080369.0,8.210754920708691,7.9385743,-0.41718966,37,1970-01-04 08:16:27.657080369,1.6138756,-0.67537767,0.345412,7.956000033079462,1.7832663567605345,75.17677307128906,26.46371078491211,-20.243267059326172,16042822.000000002,39914.0,0.2848047113525667,-0.21124947502400002,-0.07556578271172,0.011424428227693071,-0.0130717751520737,-0.0008983557811937725,16.042822234972846
1607,B,288987696914432.0,-11.081722079291307,15.574881,10.660183,37,1970-01-04 08:16:27.696914432,1.2492889,-1.1661983,1.2271847,27.219440784991342,2.103978022342484,74.8459243774414,26.895858764648438,-20.456066131591797,16082656.0,39833.99999999814,-0.05718105289748728,0.07794428921009633,0.20400969835277044,0.004533580405449604,-0.0026550393858553955,0.0025582174678226823,16.08265629800735
1607,B,288987736783441.0,8.244273720708692,-4.2598834,-6.8306575,37,1970-01-04 08:16:27.736783441,2.9577067,-1.7046895,-0.44448158,8.055248734039157,3.4426093431573728,77.81607818603516,28.21561622619629,-19.22716522216797,16122525.0,39869.0,-0.05656311430416513,-0.16515738034280003,0.07633967607975001,-0.00226743310108134,-0.001738549365184882,0.0055886246046250795,16.122525307000615
1607,B,288987775228494.0,6.067345720708692,9.730635,-8.095394,37,1970-01-04 08:16:27.775228494,3.771835,1.0982877,-2.8953888,12.895468268115659,4.880189693276454,79.27310943603516,28.19317626953125,-18.607297897338867,16160969.999999998,38444.99999999814,0.2751051047126324,-0.2715994773689869,-0.28691602495873614,0.0042009234106265584,-0.008395558697364417,-0.004047803866326115,16.160970359982457
1607,B,288987818232295.0,5.036641920708692,19.612701,-6.7947445,37,1970-01-04 08:16:27.818232295,1.1800467,1.3646038,-2.091114,21.048543203266522,2.7617768747947995,80.15280151367188,27.936439514160156,-18.17936897277832,16203973.999999998,43004.0,0.23875794226575658,0.20950121067199998,-0.32016775802700004,0.011049083236129319,-0.0013352369305186123,-0.013053515501759299,16.203974161006045
1607,B,288987854108182.0,9.245050020708693,19.612701,2.8335378,37,1970-01-04 08:16:27.854108182,1.5883093,2.424542,-1.2844427,19.829170921067483,3.1703191309099754,80.33429718017578,27.304359436035156,-18.036611557006836,16239850.0,35876.00000000186,0.2561849900451584,0.35204046107601833,-0.0710561257846037,0.008878286319793654,0.010072934507816475,-0.007017774027812913,16.23985004797578
1607,B,288987893774743.0,-0.5185040792913078,9.582792,8.306085,37,1970-01-04 08:16:27.893774743,1.6263925,0.016777916,0.29827404,15.579632047940445,1.6536025717987604,79.73505401611328,27.57048988342285,-18.347070693969727,16279516.000000002,39666.00000000186,0.17307358565613912,0.19030741266900894,0.22093213899241035,0.008513485331884233,0.01075638537998563,0.002972490969950568,16.279516608978156
1607,B,288987934177192.0,3.527097920708692,5.1080294,0.130484,37,1970-01-04 08:16:27.934177192,-0.36938044,-0.36245623,-0.81412834,7.15218921001957,0.9646871939191284,79.88067626953125,28.027639389038086,-18.292844772338867,16319918.999999998,40402.999999996275,0.06077810848738768,-0.09917277148789089,0.17043134865348425,0.004724154999240021,0.0018410564538201867,0.007906129495677811,16.319919058005325
1607,B,288987974021983.0,9.215721020708692,6.282984,3.063381,37,1970-01-04 08:16:27.974021983,-1.7853832,-0.26844665,-0.08628642,7.023406785648587,1.8075126890328816,79.34581756591797,27.261127471923828,-18.511396408081055,16359763.000000002,39844.000000003725,0.25386243895094085,-0.16353943104521532,0.06362817853000595,0.006268268986066967,-0.005233752498865031,0.004662933900549928,16.359763849002775
1607,B,288988015062452.0,7.527808920708692,1.2868834,-0.7835025,37,1970-01-04 08:16:28.015062452,-2.1068268,-0.66339344,0.9281117,1.8103859417435857,2.395871730521099,80.12701416015625,27.50718879699707,-18.12517738342285,16400804.0,41040.99999999814,0.34358560616283984,-0.2468643360182888,0.046784246759247874,0.01225993260975678,-0.008421690502026253,0.00226571817314803,16.400804317963775
1607,B,288988056063805.0,8.929613950708692,0.9995792,-2.2146366,37,1970-01-04 08:16:28.056063805,-2.412025,-0.52837116,1.3965617,2.4621548546568635,2.836798418155868,81.53666687011719,27.05835723876953,-17.435752868652344,16441804.999999998,41000.99999999814,0.33738539757547675,-0.3549361734686839,-0.061463350619547205,0.013960246062136724,-0.012337211344737123,-0.00030092896868805273,16.441805670969188
1607,B,288988093689692.0,6.486331120708692,10.788273,-3.2716765,37,1970-01-04 08:16:28.093689692,-4.3023367,-2.0551615,2.3342607,11.457475110865024,5.3087251658767975,81.9537124633789,26.57535171508789,-17.224973678588867,16479431.000000002,37626.000000003725,0.29002017462860397,-0.14696993656141458,-0.10321400835031022,0.01180338102987654,-0.009442359647997178,-0.003098075154300234,16.47943155799294
1607,B,288988136314743.0,-4.1241720792913075,16.742653,19.612701,37,1970-01-04 08:16:28.136314743,-4.4504085,-0.28336033,1.5701998,28.72529335022203,4.727785560429957,80.77713775634766,26.625022888183594,-17.654985427856445,16522056.0,42624.99999999814,0.050343514570205805,0.1690278603749926,0.3482680846562348,0.007254001126049316,0.00047010950127686097,0.00522271500126979,16.522056608984713
1607,B,288988175194641.0,5.611848920708692,11.096526,2.8030117,37,1970-01-04 08:16:28.175194641,-2.010953,-1.1888351,1.2080098,11.811629070219482,2.6299331816791565,80.51879119873047,26.252492904663086,-17.768741607666016,16560936.000000002,38880.00000000186,0.028920437797155335,0.16016963976000767,0.4357614548880209,0.0015408912340215744,0.006399599402624712,0.015241534248741063,16.56093650695402
1607,B,288988215633909.0,5.884787920708692,-0.035913024,3.965995,37,1970-01-04 08:16:28.215633909,-0.18961707,2.1936457,0.5273059,4.768218051790189,2.2640864830078122,79.24639129638672,26.870943069458008,-18.232620239257812,16601375.0,40438.99999999814,0.2324562486150281,-0.17266213593176002,0.1368659309706437,0.005284905910910899,-0.0002525920263447351,0.011578239428368735,16.60137577500427
1607,B,288988253698285.0,11.664989320708692,0.3429694,5.3282957,37,1970-01-04 08:16:28.253698285,0.6327671,1.8919097,-0.11744541,6.190850513267527,1.9983768263584745,76.67477416992188,25.29998016357422,-19.296022415161133,16639440.0,38065.0,0.33401613534727637,-0.36719294952378007,0.17689358774775,0.01078138564776256,-0.010274791913932567,0.005971628040007828,16.639440150989685
1607,B,288988295397140.0,8.137731740708691,-1.7016789,0.866701,37,1970-01-04 08:16:28.295397140,1.6839168,-0.50147325,-1.4756576,1.949870897163913,2.2944752258905656,74.21644592285156,27.122100830078125,-20.45551109313965,16681139.000000002,41699.00000000186,0.41287683277004017,-0.4369786137202695,0.12916258369665576,0.015572344938762686,-0.01676657500785756,0.006381118146530423,16.68113900598837
1607,B,288988335335315.0,8.255646170708692,1.4754268,0.7613561,37,1970-01-04 08:16:28.335335315,2.64878,-0.5201154,-0.8737832,1.6830584314941395,2.8372614610429188,74.01421356201172,26.734573364257812,-20.640329360961914,16721077.000000002,39938.0,0.3273593635130937,-0.39591042818490013,0.0325106722299,0.014781776603577901,-0.016631961277804332,0.0032284532475973923,16.721077180991415
1607,B,288988373157401.0,-10.577744079291307,19.612701,-8.276156,37,1970-01-04 08:16:28.373157401,1.0527476,-1.4772555,1.3187973,28.606275289723076,2.242718805395206,74.79155731201172,27.130342483520508,-20.359098434448242,16758899.0,37821.99999999814,-0.043913193549203665,0.028141984825798595,-0.142112380908893,0.00536025052018686,-0.006954869032363626,-0.0020726779128283344,16.7588992670062
1607,B,288988413366514.0,8.763815480708692,-4.684854,-0.7380127,37,1970-01-04 08:16:28.413366514,0.454069,-0.9962886,-0.60560286,4.74831065021572,1.2512091972532569,73.9347152709961,29.91144561767578,-20.828556060791016,16799108.0,40209.0,-0.03646812751020419,-0.0939312999885,-0.18122535462915002,-0.0016160262692388652,-0.0013226612866885305,-0.006500543504124586,16.799108379986137
1607,B,288988455001619.0,3.009351620708692,6.351817,-8.32045,37,1970-01-04 08:16:28.455001619,4.477573,1.3630059,-2.9872677,11.835136277728308,5.552496138245131,75.54197692871094,30.41506576538086,-20.111608505249023,16840743.0,41635.0,0.2450879061337564,-0.37332099774750005,-0.18857454725724998,0.004342942241495797,-0.00972702470811918,-0.0076983094575201316,16.84074348496506
1607,B,288988495463285.0,4.222014920708692,19.612701,-4.507085,37,1970-01-04 08:16:28.495463285,2.841593,1.2500879,-1.5574167,20.580189235368927,3.4731710745101947,76.45308685302734,30.13231086730957,-19.688791275024414,16881205.0,40462.0,0.14629777649941508,0.128760563658,-0.259513860585,0.007918123745351691,-0.004947702142064675,-0.009065276579056558,16.881205150973983
1607,B,288988534907138.0,4.641000120708692,19.612701,-1.6011224,37,1970-01-04 08:16:28.534907138,1.4247912,1.8237327,-1.850098,20.058869087589052,2.962919765071395,77.06898498535156,29.812288284301758,-19.358936309814453,16920649.0,39444.0,0.17479638264683364,0.387052178244,-0.1204660663428,0.006332619006682317,0.010172858895791243,-0.007493964118870071,16.920649003994185
1607,B,288988574779952.0,5.447247620708692,9.401431,9.501988,37,1970-01-04 08:16:28.574779952,1.2279836,2.0082898,-0.06684534,13.718154912356221,2.354918245318235,76.32666015625,29.529630661010742,-19.67266082763672,16960521.0,39872.0,0.20111930697289696,0.18768013555199997,0.15751165660160002,0.007494255188258948,0.011457863407837054,0.0007385408873994372,16.960521817964036
1607,B,288988614679275.0,3.595332520708692,8.347384,0.58418524,37,1970-01-04 08:16:28.614679275,0.009853696,0.03195793,-0.3800331,9.715277180148338,0.38150171914469183,76.56379699707031,29.58208656311035,-19.55849838256836,17000421.0,39900.0,0.18039947382127683,-0.036931140750000015,0.201219156138,0.007611299676843767,0.0030074424462998993,0.007156679714155021,17.000421140983235
1607,B,288988654557606.0,8.958942920708692,1.246182,0.5267244,37,1970-01-04 08:16:28.654557606,-0.61865234,0.34780884,-0.5832323,1.41881958469157,0.9186194112541446,76.2825698852539,28.5739688873291,-19.67108154296875,17040299.0,39878.0,0.25031969802642123,-0.19951828752600004,0.02215042731196,0.00858810956747125,-0.004714565150395165,0.004453766124408752,17.040299471991602
1607,B,288988694467973.0,9.630516520708692,2.0632033,2.6342204,37,1970-01-04 08:16:28.694467973,-2.5411885,-0.67058396,0.68363345,3.5218732259235295,2.7156355672108203,75.19300079345703,27.624908447265625,-20.14501953125,17080209.0,39910.0,0.37095266315348385,-0.32507921633850007,0.063076653484,0.012397489967345007,-0.0104683431896161,0.001700706397283382,17.080209838983137
1607,B,288988734397139.0,6.347467520708692,1.9081788,-1.5592239,37,1970-01-04 08:16:28.734397139,-1.8916434,-0.068176925,1.0990866,3.2928200288641363,2.1888248445605636,76.08788299560547,28.117717742919922,-19.673282623291016,17120139.0,39930.0,0.3190004513868981,-0.31202535637350004,0.021462305122499994,0.013774913931798725,-0.012719792794195084,0.0016878203085787726,17.12013900495367
1607,B,288988772133337.0,8.366378000708693,8.308478,-13.51048,37,1970-01-04 08:16:28.772133337,-3.483415,0.12463594,1.9441077,15.861625626664248,3.9911488232041625,77.4726333618164,27.824939727783203,-18.915735244750977,17157875.0,37736.0,0.2776208372981032,-0.17704491949760004,-0.2843351731852,0.011257050474908605,-0.009227777965135915,-0.0049598852746070244,17.15787520300364
1607,B,288988811965577.0,-11.081722079291307,19.612701,7.6853876,37,1970-01-04 08:16:28.811965577,-6.0096893,-2.646117,-1.0391655,28.782021471182922,6.6481700938388855,76.9132308959961,28.225662231445312,-19.16251564025879,17197707.0,39832.0,-0.05407879266905134,0.16572460096399994,-0.11601254023839998,0.004452063360832197,-0.00022545546391517968,-0.007973325060544417,17.197707442974206
1607,B,288988852266306.0,-0.44548107929130865,11.246164,2.658761,37,1970-01-04 08:16:28.852266306,-0.37337518,-4.598214,1.9944414,14.633277249457757,5.026010098763232,76.78141784667969,28.31549072265625,-19.393539428710938,17238008.0,40301.0,-0.23227890724701897,0.2268717591825,0.2084397663643,-0.005770250832158774,0.007911012955132045,0.0018624548200499485,17.238008171960246
1607,B,288988891844379.0,6.322328220708692,7.219715,-2.3511062,37,1970-01-04 08:16:28.891844379,-1.0996193,1.9417108,1.655421,7.90776639019221,2.7784567880408235,77.59579467773438,28.048524856567383,-18.88296890258789,17277586.0,39578.0,0.1162969280815086,-0.02244312046900001,0.006088180837200007,-0.002295167385706285,0.0040454383315014514,0.004245293547170484,17.27758624497801
1607,B,288988931736357.0,7.941407180708692,-0.82599956,2.070386,37,1970-01-04 08:16:28.931736357,-0.11345066,2.4881914,0.04926848,2.3058783498849937,2.4912637111333487,74.53515625,28.89999008178711,-20.232112884521484,17317478.0,39892.0,0.28450446631667115,-0.26341255183376,-0.005599245109199995,0.007994384612666093,-0.00570167723975085,9.75231203068824e-06,17.31747822300531
1607,B,288988972740055.0,9.540135320708693,-2.7670987,3.934272,37,1970-01-04 08:16:28.972740055,0.5499428,0.45327002,-0.86606,4.914521280310062,1.1215840217757385,71.29882049560547,28.845083236694336,-21.79941749572754,17358481.0,41003.0,0.3583978435928085,-0.47549330397739,0.12310449598699999,0.013180461706609197,-0.01514867840291229,0.0024090339008712163,17.35848192096455
1607,B,288989013749275.0,7.9970723707086915,-3.2824504,-0.8798691,37,1970-01-04 08:16:29.013749275,2.282329,-0.6846987,-2.0857878,3.4401084931402632,3.166756814258324,71.02687072753906,31.781124114990234,-22.049455642700195,17399491.0,41010.0,0.3596004437125135,-0.5259440042955,0.0626305314645,0.014722554881195627,-0.020534472006135607,0.0038084967378930073,17.399491140968166
1607,B,288989053667087.0,10.276950920708693,7.9631147,-3.0113072,37,1970-01-04 08:16:29.053667087,1.3081448,-1.7166736,-0.753142,8.690540471527472,2.285920807654543,72.08032989501953,30.972164154052734,-21.61480140686035,17439408.0,39917.0,0.3647220938617539,-0.29776756156845,-0.07766204218355001,0.014456391366176017,-0.016440047287295645,-0.0003000064066861597,17.439408952952363
1607,B,288989093571459.0,-10.675905079291308,19.612701,9.212888,37,1970-01-04 08:16:29.093571459,1.9193403,0.028229509,1.2205267,28.95622124883069,2.2747196569677244,72.03059387207031,31.181957244873047,-21.672605514526367,17479313.0,39905.0,-0.007960132849119632,0.15913746275425006,0.123737040912,0.007118293027104586,-0.002766017046590325,0.0009193114121293984,17.479313324962277
1607,B,288989133521208.0,9.808884520708691,-8.982447,-2.520496,37,1970-01-04 08:16:29.133521208,1.9720708,0.051931642,0.4876248,9.416409418893625,2.032126492428189,71.79338073730469,34.00925064086914,-21.842939376831055,17519263.0,39950.0,-0.01731873565768777,-0.17917067635,0.1336805302,-0.0005049453984234779,-0.00040016344157510513,0.005141915982962201,17.519263073976617
1607,B,288989173389372.0,0.48107492070869107,5.109825,-8.999206,37,1970-01-04 08:16:29.173389372,3.2727587,-0.221575,-4.2402854,13.111316437111492,5.360976148287162,73.25472259521484,34.8044319152832,-21.172304153442383,17559131.0,39868.0,0.2051200515052141,-0.467903246948,-0.229633739668,0.00374363143010459,-0.012898771587022333,-0.0019127312775351116,17.559131237969268
1607,B,288989211803918.0,2.429954920708692,19.612701,-5.869984,37,1970-01-04 08:16:29.211803918,0.25033715,3.069027,-1.7382452,21.36222263505804,3.535971124135796,74.26985168457031,34.60885238647461,-20.50135040283203,17597545.0,38414.0,0.05591215016410367,0.098388356882,-0.28559253233,0.005013645497462586,-0.007097272493497662,-0.009895951006265585,17.59754578396678
1607,B,288989251109421.0,11.537498120708692,19.49359,2.885013,37,1970-01-04 08:16:29.251109421,3.4115095,0.53103435,0.0077231675,19.933863332205252,3.4526010769833237,74.67318725585938,33.639774322509766,-20.3508358001709,17636851.0,39306.0,0.27450235462297584,0.383357137023,-0.058663635063,0.0064936362625804735,0.009467744191714965,-0.006765666457774628,17.636851286981255
1607,B,288989291109021.0,0.011810920708692052,11.642405,4.9542017,37,1970-01-04 08:16:29.291109021,0.64821345,0.14833808,-0.090014845,15.253725394230646,0.6710346750052213,74.5177001953125,33.65979766845703,-20.44997787475586,17676850.0,39999.0,0.23098040617382698,0.2307141320025,0.15678037439265,0.010109402474555659,0.012281118344875488,0.001962285728223335,17.676850886957254
1607,B,288989331144997.0,6.1421645207086915,6.0387754,-1.1252748,37,1970-01-04 08:16:29.331144997,-0.6527408,-0.19680761,-0.75394094,6.591080951047389,1.0164795759613843,75.17455291748047,33.459163665771484,-20.085050582885742,17716886.0,40036.0,0.12319028038629319,-0.038410930752800033,0.0766474586842,0.007089788803560486,0.003849525482616494,0.004672758362532383,17.716886862996034
1607,B,288989371045327.0,9.588618020708692,4.3101616,1.6244658,37,1970-01-04 08:16:29.371045327,-2.303368,0.30626354,-0.042876896,4.7258561051403385,2.324035268142015,74.90135192871094,32.431983947753906,-20.158241271972656,17756787.0,39901.0,0.3138369770925475,-0.18456333238150002,0.009959110045500003,0.00871891230033161,-0.004448448036660853,0.0017278443494418798,17.756787193007767
1607,B,288989410795314.0,6.923871520708692,2.5635915,-2.2864625,37,1970-01-04 08:16:29.410795314,-3.1569111,0.5470133,1.1414309,3.7927077413609736,3.401202102662367,76.05741119384766,32.50950241088867,-19.418088912963867,17796537.0,39750.0,0.3281857296356705,-0.2529341571375,-0.013157184412499995,0.012760201296223335,-0.008695262604190125,-6.356172804412483e-05,17.796537179965526
1607,B,288989450510736.0,9.264802220708692,3.430891,-5.3408656,37,1970-01-04 08:16:29.450510736,-3.1361384,-1.6405072,1.8407769,6.3901076896445845,3.989371821826089,77.45359802246094,32.007625579833984,-18.636999130249023,17836252.0,39715.0,0.3214665888201957,-0.27017156375625,-0.15145966774574998,0.012900470913737364,-0.01038757185264764,-0.003268879141732449,17.836252601991873
1607,B,288989492579584.0,-11.081722079291307,19.612701,-3.3554738,37,1970-01-04 08:16:29.492579584,-5.4333816,-0.6021407,3.5870118,27.939197945322043,6.538414386313725,77.64415740966797,32.177913665771484,-18.38365364074707,17878321.0,42069.0,-0.038218000765356024,0.07243423592399997,-0.1829231511093,0.005957992425439525,-0.004159305822287463,-0.007033575403206548,17.878321449970827
1607,B,288989532441463.0,3.327780620708692,16.756418,7.1275387,37,1970-01-04 08:16:29.532441463,-1.5909724,-5.745504,1.1249193,18.938290800655928,6.066914604895165,77.09784698486328,31.671981811523438,-18.857521057128906,17918183.0,39862.0,-0.1545438072110101,0.33422531078900003,0.0751810255219,-0.0038419355947769537,0.008105131425536804,-0.0021474083050824692,17.91818332899129
1607,B,288989571528075.0,8.490277940708692,10.378265,2.3104045,37,1970-01-04 08:16:29.571528075,-1.1579424,-0.26019084,0.9550096,10.632406080102154,1.5233427752905206,77.04920959472656,30.875213623046875,-18.854089736938477,17957269.0,39086.0,0.23096031846577997,0.14725030986899995,0.1844457239576,0.0014934078794519676,0.009409478054519294,0.005073885565077868,17.957269940990955
1607,B,288989610157765.0,8.756632880708692,3.383007,1.958457,37,1970-01-04 08:16:29.610157765,0.24554345,1.9246665,0.32517198,3.915474417988017,1.9673254785716758,76.6321029663086,30.10851287841797,-18.988422393798828,17995899.0,38630.0,0.33312408251567677,-0.11277503132000001,0.0824530598725,0.010895290204956836,0.0006658900051739338,0.005155150009678381,17.99589963100152
1607,B,288989651564483.0,8.618966280708692,-4.1916485,3.7068229,37,1970-01-04 08:16:29.651564483,0.6314355,0.96566224,-0.96086854,5.596256774396628,1.501493491022788,73.51655578613281,31.04377555847168,-20.558408737182617,18037306.0,41407.0,0.3597357172384048,-0.42253030929525004,0.11729112240964999,0.014344622864208626,-0.01108269411942783,0.004135403677878492,18.03730634896783
1607,B,288989691392294.0,8.551330083708692,-0.40641573,-1.6723499,37,1970-01-04 08:16:29.691392294,1.5078819,-0.07856325,-1.8852518,1.7211386003354352,2.4153787193733023,76.81519317626953,31.885555267333984,-18.901229858398438,18077134.0,39828.0,0.3419292818010078,-0.48188025107622,0.04051449532200001,0.013972956790870864,-0.018010431899237456,0.003142541071508078,18.077134159975685
1607,B,288989731343285.0,7.996473820708692,6.815694,-3.1824925,37,1970-01-04 08:16:29.731343285,2.1552963,0.536627,-0.39734364,7.541105993952681,2.256358270791928,77.97142028808594,31.39945411682129,-18.333227157592773,18117085.0,39951.0,0.3305506568926895,-0.263491261917615,-0.0969779043612,0.01343312301537595,-0.01488916865780835,-0.0011278848272625395,18.117085150966886
1607,B,288989769899846.0,3.9616454207086917,6.918046,-1.2449849,37,1970-01-04 08:16:29.769899846,2.0935109,-0.79708415,1.598962,8.38412970521689,2.752237364044757,78.5947494506836,31.399030685424805,-18.08204460144043,18155641.0,38556.0,0.23052862273604433,-0.11308976028000002,-0.0853529093172,0.01081648635268273,-0.007259728945925623,-0.0035149734260921947,18.155641711957287
1607,B,288989809813598.0,-5.5762560792913085,12.087128,14.665084,37,1970-01-04 08:16:29.809813598,0.9257148,0.6982809,-1.0138655,23.668424793107715,1.5402815841053545,77.80333709716797,31.716920852661133,-18.49971580505371,18195555.0,39914.0,-0.03222278491333328,-0.011870942482000024,0.2678249177387,0.003957589605427844,-0.0024938407450212346,0.003641593872067875,18.195555463957135
1607,B,288989851354170.0,6.222370520708692,4.8279076,-5.662287,37,1970-01-04 08:16:29.851354170,4.7809067,0.5773733,-2.9574404,7.7911889131711805,5.651272646157672,79.45976257324219,31.87908363342285,-17.755107879638672,18237096.0,41541.0,0.013420120005459762,-0.055768053070200045,0.18699259508850002,-0.00039054075146898696,-0.0014048957571169715,0.009446787150177358,18.237096035969444
1607,B,288989889443233.0,4.740359620708691,18.338388,-10.382456,37,1970-01-04 08:16:29.889443233,2.1691446,-0.30333406,-2.352104,21.411800560175568,3.2139684308470184,80.6111068725586,31.63298797607422,-17.237337112426758,18275185.0,38089.0,0.20877971417822333,0.06791831655419993,-0.3055641080635,0.004231684742111152,0.00023139569292103575,-0.0022581351788523866,18.275185098988004
1607,B,288989929509743.0,8.256843270708693,19.612701,4.321534,37,1970-01-04 08:16:29.929509743,0.53289855,3.3790188,-1.71188,20.08504856246227,3.8252166016770266,80.64173889160156,31.01152229309082,-17.1053466796875,18315251.0,40066.0,0.26037296552376443,0.36762736593699996,-0.12141845042599998,0.00939853563246992,0.008725286657346207,-0.008553741594220152,18.315251608961262
1607,B,288989968897660.0,2.611913920708692,13.154343,6.985682,37,1970-01-04 08:16:29.968897660,1.8620822,1.4223944,0.51984906,16.027442548319087,2.4001664512885523,80.28462219238281,30.80048370361328,-17.272979736328125,18354639.0,39388.0,0.21404930412777395,0.259311764536,0.222684311904,0.009343272178517397,0.012346939235535261,0.0019943298759477323,18.354639525990933
1607,B,288990009336983.0,0.5092069207086922,3.5966895,0.37828386,37,1970-01-04 08:16:30.009336983,0.14966966,-0.26365295,0.015446335,8.799869913799165,0.3035662603669096,80.32904815673828,31.618337631225586,-17.264835357666016,18395078.0,40439.0,0.0631075028530388,-0.05760469836625001,0.14889570770627,0.005603972058748544,0.0040784160244192605,0.007513162206509855,18.395078848989215
1607,B,288990049103024.0,9.570062820708692,6.581062,2.4127567,37,1970-01-04 08:16:30.049103024,-1.7126789,0.21198763,-0.7976168,7.085917218593997,1.9011576287673957,79.94669342041016,30.74977684020996,-17.414745330810547,18434844.0,39766.0,0.20040612026860186,-0.18734256692550005,0.05549425945448,0.005239441368527582,-0.004870286475795867,0.004063885717057193,18.4348448899691
1607,B,288990089752971.0,8.301136010708692,2.1278467,-1.8267759,37,1970-01-04 08:16:30.089752971,-2.2229407,-0.37790257,0.5566007,2.81388436887626,2.3225158874310385,81.10782623291016,30.352020263671875,-16.779497146606445,18475494.0,40650.0,0.36323211624855833,-0.22136143067250003,0.011910059760000003,0.01145594715721128,-0.008306908751179351,0.0013699927880343062,18.475494836980943
1607,B,288990130993337.0,8.940387850708692,1.2294226,-2.2481554,37,1970-01-04 08:16:30.130993337,-2.718555,0.18242654,1.2831111,2.5947655367694638,3.011676414468291,82.51771545410156,29.8449649810791,-15.987403869628906,18516735.0,41241.0,0.3555288427843572,-0.3349332283993501,-0.08402712087164999,0.014821210355738235,-0.011471074017391085,-0.0014870898586527783,18.51673520298209
1607,B,288990172246254.0,6.860425120708692,6.6241574,-2.055422,37,1970-01-04 08:16:30.172246254,-4.3473444,-1.3685985,2.0162792,7.134211416758449,4.9837583206618525,82.93820190429688,29.396778106689453,-15.718863487243652,18557988.0,41253.0,0.32591546875494065,-0.24228753213000004,-0.0887677392411,0.014055811091965326,-0.01190604401705864,-0.0035641531821156373,18.557988119951915
1607,B,288990210855264.0,-11.081722079291307,19.612701,19.612701,37,1970-01-04 08:16:30.210855264,-4.7542753,0.68629664,1.3803164,33.97054044198888,4.997940582917561,81.89741516113281,29.597440719604492,-16.077590942382812,18596597.0,38609.0,-0.08149002713695808,0.12812123298279995,0.3389344924555,0.004718510937714344,-0.0022039233218871237,0.004829344087427385,18.59659713000292
1607,B,288990250973284.0,3.9173525207086923,10.188525,-0.6596026,37,1970-01-04 08:16:30.250973284,-1.7670075,-1.0431602,1.9065571,11.204115016705108,2.800974595293699,82.09406280517578,29.37744140625,-15.97037124633789,18636715.0,40118.0,-0.14371008897560866,0.20462639233400004,0.38018020080560005,-0.004517289129101976,0.006674584616229692,0.014424721632124408,18.636715149972588
1607,B,288990289169222.0,7.487107420708692,3.8959646,3.3943794,37,1970-01-04 08:16:30.289169222,-0.28682247,1.5006913,1.1110709,5.271742624689465,1.8891320896166581,81.24744415283203,29.001277923583984,-16.304811477661133,18674911.0,38196.0,0.2178023759611892,-0.10533521761920002,0.05222876732640001,0.001415014496850617,0.0018962628547032508,0.008258146473384938,18.674911087960936
1607,B,288990330553700.0,7.746878320708692,-1.9195513,3.554791,37,1970-01-04 08:16:30.330553700,0.7384946,1.722,0.3320962,4.115454982046681,1.902878388201306,78.21802520751953,29.919084548950195,-17.736318588256836,18716295.0,41384.0,0.3152216329614085,-0.3646672559964,0.1437922339168,0.011029332792626391,-0.009725291184053995,0.0040560665577242935,18.716295566002373
1607,B,288990368353232.0,8.400495370708692,-3.0412347,3.8612487,37,1970-01-04 08:16:30.368353232,1.0644655,0.67724186,-1.2074772,4.916862074397683,1.746351776174076,75.07049560546875,30.704092025756836,-19.333717346191406,18754095.0,37800.0,0.30518536276778857,-0.4641988554,0.14016315032999999,0.011725692219281825,-0.015665569505391958,0.00536675676226452,18.754095098003745
1607,B,288990410300837.0,6.519849920708692,0.46028528,-3.3333273,37,1970-01-04 08:16:30.410300837,3.4187,0.5406217,-1.3315805,3.9204569853390776,3.7084886598843925,76.67806243896484,31.475616455078125,-18.58312225341797,18796042.0,41947.0,0.3129318619695425,-0.46521214266037,0.011072359482899996,0.012964081613028412,-0.01949300156781917,0.0031719379650608577,18.796042702975683
1607,B,288990450272659.0,7.977918780708692,7.644686,2.8095956,37,1970-01-04 08:16:30.450272659,0.50653327,-1.9323897,0.38429415,8.163430033842449,2.0343028044043012,76.4507827758789,30.77631187438965,-18.79022979736328,18836014.0,39972.0,0.28975240526652785,-0.22973964399792002,-0.010467301756199998,0.012045247764980102,-0.013889306408152583,1.2092683725826158e-05,18.836014524975326
1607,B,288990490142972.0,-11.081722079291307,19.612701,9.481039,37,1970-01-04 08:16:30.490142972,0.89855057,0.89801794,0.39574575,29.31261977246186,1.3305803418254123,76.26107025146484,31.058645248413086,-18.86920928955078,18875884.0,39870.0,-0.06187431875724443,0.15265000984500002,0.24501380075100002,0.004542749654562565,-0.0015367818568384603,0.004675684457461338,18.875884837994818
1607,B,288990530042712.0,7.2309278207086916,-3.0963013,-8.431181,37,1970-01-04 08:16:30.530042712,3.5811527,0.20985709,-1.150752,9.075438583218594,3.7673498409949344,79.47644805908203,32.3525276184082,-17.2742862701416,18915784.0,39900.0,-0.07682334545872317,-0.06151782598500001,0.02094466710000001,-0.0027670184011085535,0.0018180870680070001,0.00530587143362745,18.915784577955492
1607,B,288990569989221.0,7.2273365207086915,10.702082,-8.808268,37,1970-01-04 08:16:30.569989221,3.762514,0.9057411,-3.2248218,13.921967889778442,5.0374948319755575,80.96350860595703,32.134185791015625,-16.568809509277344,18955731.0,39947.0,0.2887821428233001,-0.23956653918855003,-0.34433213460150003,0.004233559039161379,-0.006013708567793902,-0.006459179582141212,18.955731086956803
1607,B,288990609841983.0,2.8932329207086918,19.612701,-2.9484594,37,1970-01-04 08:16:30.609841983,0.7661915,1.4223944,-2.4746094,20.618981247575604,2.9553251811589143,81.52383422851562,31.899314880371094,-16.24910545349121,18995583.0,39852.0,0.2016624666896828,0.213502766058,-0.23426455017239997,0.009772599289155698,-0.0005193467433993399,-0.011529117540804731,18.995583848969545
1607,B,288990650256097.0,8.235295450708692,19.612701,0.30406362,37,1970-01-04 08:16:30.650256097,2.4354608,3.0290794,-0.32969934,19.617295392138995,3.900704163947509,81.95642852783203,31.205188751220703,-15.961973190307617,19035997.0,40414.0,0.2248741728012311,0.39657049821400003,-0.053435305526459996,0.008619025874192898,0.012327750451144304,-0.0058135509841068635,19.035997962986585
1607,B,288990689701876.0,-3.4310500792913086,8.955511,6.6546836,37,1970-01-04 08:16:30.689701876,0.95128113,-1.5419703,0.40719733,16.358192435401104,1.8569916154725352,81.41036987304688,31.624135971069336,-16.334095001220703,19075443.0,39446.0,0.09475413146046506,0.17688004527599996,0.13724737142006002,0.006304029044953433,0.01131016506925327,0.0016530253756194733,19.07544374198187
1607,B,288990729562764.0,6.400738320708692,2.6168625,-0.095169514,37,1970-01-04 08:16:30.729562764,-0.72651035,-0.31718248,-0.50653327,3.376018954512756,0.9407433060580159,81.60416412353516,31.84400749206543,-16.229692459106445,19115304.0,39861.0,0.059187371495569165,-0.15999460995825004,0.130734395491023,0.0030681311246652404,0.00033653516860041467,0.00534101060542134,19.1153046299587
1607,B,288990767629848.0,10.378105920708691,5.5377884,2.6449943,37,1970-01-04 08:16:30.767629848,-2.18539,-0.6578008,0.35633096,6.408803387918142,2.309892442871564,81.007080078125,30.778196334838867,-16.507774353027344,19153371.0,38067.0,0.3193601318690177,-0.21784505209485,0.04853209006433099,0.007205083905289863,-0.007191611207687679,0.00341206865281783,19.15337171399733
1607,B,288990807029065.0,8.091044820708692,1.1492168,-3.6290112,37,1970-01-04 08:16:30.807029065,-2.3204124,0.1717739,1.6367788,3.8320348322168587,2.8447960944370707,82.5404052734375,30.721660614013672,-15.646116256713867,19192770.0,39399.0,0.36383303503055175,-0.2543795410626001,-0.019384640921549998,0.01345856379133807,-0.009302588372905188,0.0005741901743882143,19.19277093099663
1607,B,288990847589378.0,10.764170920708692,3.2387564,-3.2914288,37,1970-01-04 08:16:30.847589378,-3.4706316,-0.41571945,1.8943065,5.12908550013152,3.975739362680747,83.54714965820312,29.687395095825195,-15.058095932006836,19233331.0,40561.0,0.3823932028438152,-0.3085075095174,-0.14034998342,0.015133841217211098,-0.011415630829287692,-0.003239498048958805,19.233331243973225
1607,B,288990889179378.0,-11.081722079291307,19.612701,1.858499,37,1970-01-04 08:16:30.889179378,-4.7020774,-7.1870728,1.1222562,27.799165382047033,8.661582204570308,83.13160705566406,29.96530532836914,-15.453073501586914,19274921.0,41590.0,-0.006603476342725487,0.06761405663299999,-0.029797775191,0.00781454736259016,-0.005009379352731099,-0.003538222640315745,19.27492124395212
1607,B,288990928510160.0,-0.5107230792913082,12.955026,0.74639237,37,1970-01-04 08:16:30.928510160,-2.544118,-4.0647826,3.0258837,15.816226086057043,5.67018219717078,82.98311614990234,29.914194107055664,-15.622781753540039,19314252.0,39331.0,-0.2279712302661064,0.2550168353185,0.05122649123673499,-0.004613028892815983,0.006344697805672222,0.00042140641539740146,19.314252025971655
1607,B,288990968990211.0,7.382959720708692,5.3438582,5.716755,37,1970-01-04 08:16:30.968990211,-2.1118867,1.7337179,1.4799186,7.909325632511503,3.1074108600317496,81.88724517822266,29.486156463623047,-16.030689239501953,19354732.0,40480.0,0.13909406962228787,-0.026334583792000033,0.1308141027688,-0.0017988737314308873,0.00462852877089636,0.003684501622672029,19.354732076986693
1607,B,288991010473494.0,7.284198820708692,-0.6889315,4.578911,37,1970-01-04 08:16:31.010473494,0.60427123,1.9864519,0.42663842,4.795519489766469,2.119706397555902,80.3814697265625,29.800987243652344,-16.702131271362305,19396215.0,41483.0,0.30421886888680866,-0.30998323785195003,0.21354755633900002,0.009194975314086426,-0.0069757360976279905,0.007142577352384434,19.396215359971393
1607,B,288991048361930.0,7.818704320708692,-4.984728,2.369661,37,1970-01-04 08:16:31.048361930,0.98084223,0.84422207,-0.94462323,5.5651590506006166,1.6022095463085004,77.9526596069336,31.753002166748047,-17.940385818481445,19434103.0,37888.0,0.2861093971110109,-0.478784205568,0.13163374796799998,0.011183178671062692,-0.014942410448147534,0.006539114628791808,19.43410379596753
1607,B,288991088656358.0,5.379012920708692,-1.4107834,-2.5899277,37,1970-01-04 08:16:31.088656358,2.6029737,0.17150758,-2.1864552,4.31702459712333,3.4037440083672843,78.96082305908203,33.083011627197266,-17.480627059936523,19474398.0,40295.0,0.26590100812145673,-0.5237445659315,-0.004437823338250005,0.011121629639421142,-0.020198448423786174,0.0025626798914778876,19.474398223974276
1607,B,288991128546201.0,8.367575100708692,6.0758853,3.4973302,37,1970-01-04 08:16:31.128546201,1.7201358,-0.6791061,-0.48363006,7.012460169694804,1.9115308787551546,78.47332000732422,32.38751983642578,-17.82301139831543,19514288.0,39890.0,0.27417569808716974,-0.2978765426045,0.0180981428625,0.010771829905331055,-0.01638723300975052,0.00027245507291116615,19.51428806700278
1607,B,288991168539584.0,-4.807118579291307,13.222577,7.501034,37,1970-01-04 08:16:31.168539584,1.7004284,-1.2181299,1.0847056,20.224314028149315,2.3562435008869373,78.13165283203125,32.5709114074707,-18.093257904052734,19554281.0,39993.0,0.07119666883052272,-0.006029698618050016,0.2199287897253,0.006906238535069637,-0.006077061152606722,0.004759705557491943,19.55428144999314
1607,B,288991208403753.0,5.225185520708692,-1.1641805,-11.13603,37,1970-01-04 08:16:31.208403753,3.472762,-1.6514262,-0.21731395,11.674703897755094,3.8515593927077174,81.40827178955078,33.66775131225586,-16.46599578857422,19594145.0,39864.0,0.008332910276331307,-0.15031924096200003,-0.072452740272,0.0015851835707578143,-0.0031163470637095574,0.0029394926177031756,19.594145618961193
1607,B,288991248314898.0,3.464249920708692,5.589264,-6.9701195,37,1970-01-04 08:16:31.248314898,3.381682,-0.15286545,-3.6802223,10.271331508892128,5.0003177071407165,82.85519409179688,34.082786560058594,-15.78237533569336,19634056.0,39911.0,0.17340202895120463,-0.30282304621575007,-0.36131726634725003,0.003626611579755094,-0.009042680911775592,-0.008656097367090445,19.634056763956323
1607,B,288991286037295.0,3.303239920708692,19.612701,-9.26556,37,1970-01-04 08:16:31.286037295,1.6623452,1.9033613,-2.0714068,22.31242167204728,3.267552896800138,83.89179992675781,33.812232971191406,-15.182524681091309,19671779.0,37723.0,0.127645009643894,0.1056614628475,-0.30622926888925,0.005678198718461452,-0.003718763204700249,-0.012590928974363244,19.67177916096989
1607,B,288991328106721.0,9.728080220708692,19.612701,5.430648,37,1970-01-04 08:16:31.328106721,2.0756679,0.72917354,-0.9805759,20.385818501331027,2.4086553049756523,83.73790740966797,33.00979232788086,-15.299226760864258,19713848.0,42069.0,0.274107303514644,0.41281051836900007,-0.08066545646400003,0.008450659031133267,0.010905798888898472,-0.008138137100442939,19.713848586950917
1607,B,288991368936253.0,2.127686920708692,10.927735,7.419631,37,1970-01-04 08:16:31.368936253,0.9667275,0.8679242,-0.0063915867,14.67910543412871,1.2991902588083215,83.09539794921875,32.91679382324219,-15.639017105102539,19754678.0,40830.0,0.2420354861920359,0.22334900094000001,0.262338445785,0.01053705505186187,0.012987196586693235,0.003708854076988214,19.75467811897397
1607,B,288991405829066.0,4.576955220708692,5.7921724,-1.0235212,37,1970-01-04 08:16:31.405829066,-0.41305628,-0.38402784,-0.47564057,7.087728652927289,0.7377850799334646,83.47311401367188,32.99046325683594,-15.440729141235352,19791570.0,36892.0,0.12367382894058507,-0.05312618809960002,0.1179826413708,0.006745874026936326,0.0031399300056540185,0.007015402773675887,19.79157093196409
1607,B,288991447784430.0,9.061295070708692,2.5971103,1.1587936,37,1970-01-04 08:16:31.447784430,-1.8445054,0.479369,-0.24714136,2.892816063418339,1.9217371465975284,82.8954849243164,32.05326843261719,-15.68227767944336,19833526.0,41956.0,0.28610321461335386,-0.23517842751940002,0.0028377444072000017,0.008596302819674531,-0.006048054226455384,0.002534570052850884,19.833526295959018
1607,B,288991487721982.0,8.120972340708692,1.8321629,-2.5971103,37,1970-01-04 08:16:31.487721982,-2.5379925,-0.4002731,1.1369035,3.2047464400213688,2.8096572838964025,84.23507690429688,31.787261962890625,-14.917484283447266,19873463.0,39937.0,0.34310410680488806,-0.3029366581058,-0.02872102702395,0.012564326397740163,-0.010745351087306808,-0.0005168503289325724,19.873463847965468
1607,B,288991527663023.0,9.002637090708692,2.6270378,-0.7128736,37,1970-01-04 08:16:31.527663023,-2.8620992,-0.31451932,1.7249295,2.7625012423249493,3.356473746845661,84.67587280273438,30.796937942504883,-14.619071006774902,19913404.0,39941.0,0.34196704215012086,-0.30236933242065,-0.06610203347495,0.013681213380206007,-0.012088263283808468,-0.0018936639296932825,19.91340488899732
1607,B,288991567540055.0,-6.2831430792913086,19.612701,3.9091327,37,1970-01-04 08:16:31.567540055,-4.325773,-4.7950215,2.0453076,24.88805571533163,6.77405538887962,84.18397521972656,30.817899703979492,-14.957167625427246,19953281.0,39877.0,0.054222631346645504,0.0526324320638,0.06372861206535001,0.007899427805015277,-0.004979379187765054,-4.732246277530947e-05,19.95328192098532
1607,B,288991607427658.0,2.017553620708692,19.612701,11.595717,37,1970-01-04 08:16:31.607427658,-2.9316077,-3.7361488,2.088451,23.69707167226534,5.187943633256025,83.26519012451172,30.38886833190918,-15.500347137451172,19993169.0,39888.0,-0.08507291616197171,0.391409017488,0.3092287224168,-0.0006152780803568659,0.008855962669861099,0.007438261078912,19.9931695239502
1607,B,288991647376045.0,5.662127120708692,10.510546,1.2665327,37,1970-01-04 08:16:31.647376045,-2.1920478,0.165116,1.7124126,10.968565548507513,2.7865200095422966,83.1626205444336,29.928701400756836,-15.480697631835938,20033117.0,39948.0,0.15339394312907081,0.21019133557800002,0.2569105755078,0.0013646441926408375,0.012016365452140283,0.011308066336745961,20.033117910963483
1607,B,288991687188179.0,6.779022320708692,1.0474633,3.8576574,37,1970-01-04 08:16:31.687188179,-0.5866944,1.8650117,0.76778936,4.364647879464392,2.1004712474722096,81.7832260131836,30.148500442504883,-16.072397232055664,20072930.0,39813.0,0.24765974135557517,-0.16008788786955003,0.10200469022565,0.007983575170193605,0.0009973842818082597,0.007144746737322923,20.07293004496023
1607,B,288991727659429.0,7.524217620708692,-3.9761705,3.2184057,37,1970-01-04 08:16:31.727659429,0.51798487,1.0069412,-0.44368264,5.213716703933848,1.2161797526861424,79.07337951660156,31.788286209106445,-17.43977928161621,20113401.0,40471.0,0.2894332118345515,-0.4558796545456,0.14318767486005,0.01086834445427881,-0.012464411204541769,0.004961590103691682,20.11340129497694
1607,B,288991768643648.0,7.605620420708692,-3.8295257,-2.2038627,37,1970-01-04 08:16:31.768643648,1.984055,0.18109496,-2.0205405,4.514385360070409,2.8375788164741174,80.67326354980469,34.460716247558594,-16.626197814941406,20154385.0,40984.0,0.310040641144725,-0.5615975265304001,0.020790015155999996,0.012284418195251333,-0.02085014239460939,0.003360230823808896,20.154385513975285
1607,B,288991805002086.0,8.003656420708692,1.9782091,-0.8475474,37,1970-01-04 08:16:31.805002086,3.3228261,0.5925534,-1.0450244,2.2159307183961823,3.5333226316440633,81.7566909790039,34.130523681640625,-16.09261131286621,20190743.0,36358.0,0.2837610437001266,-0.38996348447140006,-0.0554715842079,0.010794720828794558,-0.017298427619001727,-0.0006304762437944903,20.190743952000048
1607,B,288991846862137.0,-6.928980079291309,19.612701,-5.6904187,37,1970-01-04 08:16:31.846862137,-0.55287224,-5.367335,1.3952302,25.613819691097905,5.573205543220136,82.12628936767578,34.15522003173828,-16.08122444152832,20232604.0,41861.0,0.022493513164036544,0.041670743848050015,-0.13684289945605002,0.006410061002445367,-0.007289941207617028,-0.004025238300328306,20.2326040029875
1607,B,288991886747816.0,7.299162620708692,-10.503363,-11.561002,37,1970-01-04 08:16:31.886747816,2.2929816,-3.2178977,0.608266,15.66831991712727,3.997826628602077,84.92585754394531,35.82843780517578,-14.66819953918457,20272489.0,39885.0,0.007382365332216172,-0.209210026935,-0.34403645730974997,0.0005957997069115198,-0.0033411521529615,-0.009589936572301965,20.27248968195636
1607,B,288991924700992.0,3.6168803207086917,9.427169,-9.446322,37,1970-01-04 08:16:31.924700992,3.696734,1.3331785,-3.6903424,14.221770887680998,5.390902912208308,86.42071533203125,35.90656280517578,-13.859909057617188,20310442.0,37953.0,0.20714828887780698,-0.392361795441,-0.398645483886,0.004071040959616504,-0.011415727687318165,-0.014093503857101149,20.310442857968155
1607,B,288991966573335.0,6.703604920708692,18.823812,-3.7858315,37,1970-01-04 08:16:31.966573335,1.8735338,2.0301278,-2.0823257,19.28755826035181,3.4594259791121083,87.03255462646484,35.317176818847656,-13.48178482055664,20352315.0,41873.0,0.21607483925693505,0.18112126370649997,-0.27703498175275004,0.008860811022193027,-0.004422637392659361,-0.014146384068845691,20.3523152009584
1607,B,288992006500159.0,5.150366620708692,19.612701,0.29508537,37,1970-01-04 08:16:32.006500159,1.4713966,2.1302626,-1.530785,19.9042132661966,3.007711657668554,87.24061584472656,34.78194808959961,-13.321255683898926,20392242.0,39927.0,0.23664676086708591,0.3760427272755,-0.06968751036625499,0.009037907664075891,0.011122943333969156,-0.006921794471417757,20.392242025001906
1607,B,288992046319118.0,2.210885420708692,13.041217,8.517372,37,1970-01-04 08:16:32.046319118,1.2681973,1.144094,0.02956109,16.809822137876093,1.7082591520624961,86.528076171875,34.570457458496094,-13.715848922729492,20432060.0,39818.0,0.1465551668925787,0.25989045346199996,0.17544721377933,0.007629167179767162,0.012660793695302886,0.0021055699352509104,20.43206098396331
1607,B,288992084939795.0,1.818236220708692,8.531139,-1.5400703,37,1970-01-04 08:16:32.084939795,0.027164243,-0.013582122,-0.32836777,10.964538565175554,0.32976925646663735,86.85457611083984,34.68422317504883,-13.532464981079102,20470681.0,38621.0,0.0778043534565904,0.03808718053799996,0.13473518447785002,0.00433249451770263,0.005754097101356999,0.005989777201545275,20.470681660983246
1607,B,288992126235992.0,7.864792720708692,4.5160627,2.0482395,37,1970-01-04 08:16:32.126235992,-1.7880464,-0.6037386,-0.30652985,5.00346978232412,1.9119546999403367,86.12296295166016,34.099884033203125,-13.920320510864258,20511977.0,41296.0,0.19993518158238613,-0.13530217929840005,0.010492677641600005,0.005734765919484787,-0.002007295294404741,0.0029986648970424037,20.511977857968304
1607,B,288992166097189.0,9.129529820708692,1.0546459,-0.037708677,37,1970-01-04 08:16:32.166097189,-2.4615598,-0.47004795,1.2146678,1.212949460373972,2.7848948972325838,86.14109802246094,32.75806427001953,-13.857335090637207,20551839.0,39862.0,0.33871384257298986,-0.27961780689340004,0.040071889833213005,0.0107358137004408,-0.008269770244788768,0.001007802394340498,20.551839054969605
1607,B,288992205994957.0,8.553724287708691,-0.18914193,0.0676362,37,1970-01-04 08:16:32.205994957,-2.5640914,-1.0937603,1.3329122,0.20208856178879495,3.0899079653476558,83.5269546508789,34.69686508178711,-15.281949996948242,20591736.0,39897.0,0.35275439458176416,-0.3737250940544551,0.0005970091925654998,0.013793754128881612,-0.013033210859558287,0.0008112835322157426,20.591736822971143
1607,B,288992245878228.0,9.266597820708691,4.729147,-9.153033,37,1970-01-04 08:16:32.245878228,-3.1614387,-1.9403793,1.7006947,10.328751071649178,4.080702016116133,84.92464447021484,34.21998977661133,-14.472505569458008,20631620.0,39884.0,0.35537286348605945,-0.3003264188940601,-0.1811809829856,0.01412147378038854,-0.01344193527121929,-0.0036012056053806945,20.631620094005484
1607,B,288992283853909.0,-11.081722079291307,19.612701,18.346767,37,1970-01-04 08:16:32.283853909,-7.476026,0.87538105,-0.04873585,33.255727878933726,7.527259256758088,83.71659088134766,34.40851593017578,-14.907444953918457,20669595.0,37975.0,-0.03446467185983742,0.09003583890000003,0.17456602432499999,0.006093244288502891,-0.003992892387637215,-0.00012560152756814296,20.669595774961635
1607,B,288992325655003.0,2.3383769207086917,12.585121,-1.1947067,37,1970-01-04 08:16:32.325655003,-1.8804581,-2.5294704,2.6636937,14.07722747241327,4.126694475939727,83.86233520507812,34.07038497924805,-14.864002227783203,20711396.0,41801.0,-0.18274028548695595,0.26330077871099994,0.35848663630014993,-0.004539692211026655,0.007384911976378705,0.011141067133395945,20.711396868980955
1607,B,288992365576043.0,8.659667710708693,1.7663223,4.996699,37,1970-01-04 08:16:32.365576043,-0.7041398,2.1286647,1.1851068,5.301254790932099,2.5360410860978515,82.35123443603516,33.63948059082031,-15.593242645263672,20751317.0,39921.0,0.2195264698654067,-0.10476381601035005,0.07588966730414998,0.000734270633286066,0.0031644770439863217,0.008670368208093629,20.751317908987403
1607,B,288992405558909.0,7.400916220708692,-3.6152446,1.8201919,37,1970-01-04 08:16:32.405558909,1.27885,2.7851338,-0.015180019,4.202557310793234,3.064744367704961,80.27503967285156,35.859169006347656,-16.697540283203125,20791300.0,39983.0,0.3210751636649306,-0.42879613016045,0.13627987442734998,0.010807437556721738,-0.010666663663873548,0.004241587393525282,20.79130077495938
1607,B,288992445880991.0,7.588861020708692,-4.6136265,3.7894228,37,1970-01-04 08:16:32.445880991,0.907339,0.43782368,-1.4905713,6.04433534743132,1.7990987844121935,77.33682250976562,37.50493240356445,-18.472475051879883,20831622.0,40322.0,0.3022088989642159,-0.5610578702471,0.11309544196669999,0.012566029986666222,-0.019956446502216615,0.005027655753820441,20.831622856960166
1607,B,288992485357136.0,7.789375420708692,0.75836337,-5.337274,37,1970-01-04 08:16:32.485357136,3.5505264,-0.039947417,-1.8322549,5.4417344021038,3.9956215451160966,79.28788757324219,37.80345153808594,-17.40607452392578,20871099.0,39477.0,0.30354331999891704,-0.46297171129150494,-0.030552260911199995,0.011956640174003798,-0.02021280789519975,0.0016292785792639865,20.87109900196083
1607,B,288992525208285.0,8.545943130708691,4.6710877,0.94810385,37,1970-01-04 08:16:32.525208285,1.8722023,-2.4722126,-0.29561087,4.7663578936893165,3.115182559367301,79.26287078857422,36.913658142089844,-17.576757431030273,20910950.0,39851.0,0.32548938979626707,-0.28235527270471505,-0.087456409823825,0.01253379125902394,-0.01485101281961668,-0.0023513817687307406,20.91095015098108
1607,B,288992565127080.0,-11.081722079291307,19.612701,8.970475,37,1970-01-04 08:16:32.565127080,0.7653925,-2.0940435,-0.22290659,29.151483652312212,2.240654191706951,78.90438842773438,37.056846618652344,-17.899324417114258,20950868.0,39918.0,-0.05061161203476043,0.09348373866330002,0.19796491526715004,0.005486285566341911,-0.003769686947932603,0.002205639260143325,20.950868945976254
1607,B,288992605072985.0,7.769623250708692,-5.0062757,-6.417059,37,1970-01-04 08:16:32.605072985,3.196326,-0.36645097,0.669785,8.174473531245074,3.2862437763980537,81.91426849365234,38.78583908081055,-16.154556274414062,20990814.0,39946.0,-0.06615254990328057,-0.0997366674831,0.05099937776800001,-0.0023321306063884928,-0.00012488974731786505,0.0049725638247910525,20.990814850956667
1607,B,288992644856614.0,6.128397920708692,3.7576995,-6.281188,37,1970-01-04 08:16:32.644856614,3.0799458,-0.70866716,-3.786749,7.703823877532784,4.932316216910784,83.63237762451172,38.97531509399414,-15.220621109008789,21030598.0,39784.0,0.2764594371418346,-0.4147198777704,-0.25259352932400003,0.004183424600949316,-0.010233569598182621,-0.004010110862751952,21.030598479963373
1607,B,288992684832921.0,-0.4778030792913075,19.612701,-8.981249,37,1970-01-04 08:16:32.684832921,1.3299826,3.1720912,-2.2602248,23.37712172442457,4.115778473625037,84.688720703125,38.816280364990234,-14.486353874206543,21070574.0,39976.0,0.11294408969025067,0.07536276519400001,-0.305065590756,0.007783397694319719,-0.006783069966177083,-0.011146490492159041,21.070574786979705
1607,B,288992722650938.0,11.487818620708692,19.612701,3.2136173,37,1970-01-04 08:16:32.722650938,1.9297266,0.29854035,-0.376571,20.092902621139558,1.9886620651500049,84.66996002197266,37.786293029785156,-14.548242568969727,21108392.0,37818.0,0.2081883838726613,0.371096726418,-0.10906014781529999,0.006072293942601102,0.008442102526891308,-0.00783070359064471,21.108392803987954
1607,B,288992764648231.0,-1.3085910792913076,6.884527,7.9726915,37,1970-01-04 08:16:32.764648231,0.7840346,0.29454562,0.19467708,14.414903666568925,0.8598642577382031,83.79996490478516,38.085018157958984,-15.094820022583008,21150390.0,41998.0,0.21375359914222367,0.14483489077200004,0.23490129849119998,0.008860359701329569,0.01083404802937281,0.002642538323043224,21.150390096998308
1607,B,288992803107034.0,6.043403720708692,2.4307132,-3.3500867,37,1970-01-04 08:16:32.803107034,0.11265171,-0.6764429,-0.62344605,4.829333122462849,0.9267957606651729,85.13459014892578,38.31007385253906,-14.302072525024414,21188848.0,38458.0,0.09104571228181489,-0.19776564619420003,0.08888806769919999,0.005860985959372837,-0.0010178054960134836,0.006226145722475201,21.188848899968434
1607,B,288992844489637.0,10.837194020708692,3.5571852,1.2611457,37,1970-01-04 08:16:32.844489637,-1.9925772,0.03222425,-0.04527374,4.4226599037577765,1.9933519538158557,84.64977264404297,36.992698669433594,-14.535387992858887,21230231.0,41383.0,0.3492848881665378,-0.28165480025640005,-0.043223322701500005,0.00911110061917709,-0.009919928167732593,0.0009448720711199094,21.23023150296649
1607,B,288992882686721.0,8.575272100708691,1.0827777,-0.7769185,37,1970-01-04 08:16:32.882686721,-2.6602316,-0.54275227,1.3278521,1.333386322348258,3.022350640098386,85.66659545898438,36.23176956176758,-13.865531921386719,21268428.0,38197.0,0.3707489842198899,-0.28571426855435006,0.0092480131792,0.01375156691177219,-0.010835898160682112,-0.0006488774489116466,21.268428587005474
1607,B,288992921910888.0,8.998447240708693,2.759916,-1.2749124,37,1970-01-04 08:16:32.921910888,-2.407764,-1.1403656,1.6194683,3.0757933800382338,3.1177618183665423,86.35437774658203,35.238258361816406,-13.433602333068848,21307652.0,39224.0,0.34465578372387773,-0.30903229115560005,-0.0402405076108,0.014030518308913172,-0.011664169529031543,-0.0006078248007925392,21.307652753952425
1607,B,288992961875002.0,-0.7172230792913084,16.260221,4.2293572,37,1970-01-04 08:16:32.961875002,-5.763347,-3.6493297,2.7249465,19.178700926591297,7.345686443728274,85.65473937988281,34.942115783691406,-13.811184883117676,21347616.0,39964.0,0.16547542119344216,-0.011586822465999992,0.0590357159936,0.010193441736657887,-0.006406611128386812,0.0003755658539051096,21.347616867977194
1607,B,288993003486200.0,-3.8967230792913075,19.612701,13.161526,37,1970-01-04 08:16:33.003486200,-1.7635453,-3.7140446,2.7920582,26.68981964927223,4.969890170630382,84.68575286865234,34.699337005615234,-14.457114219665527,21389228.0,41612.0,-0.09599776377546991,0.33857441513200004,0.3618347158592001,0.0014455521402383308,0.006803303853008797,0.00875663020512936,21.389228065963835
1607,B,288993043966460.0,5.951227020708692,7.968502,3.2052376,37,1970-01-04 08:16:33.043966460,-2.1443772,1.123854,1.6671388,8.968209574022486,2.9395158049687846,84.14855194091797,34.211238861083984,-14.647652626037598,21429708.0,40480.0,0.041583159774287864,0.16153954872,0.331263295264,-0.0011013515849839246,0.010122306628364481,0.014028303745133572,21.429708326002583
1607,B,288993083913283.0,7.247687320708692,2.4809916,4.6525326,37,1970-01-04 08:16:33.083913283,0.066312715,2.394981,0.3539341,5.426762753806516,2.421900227853014,82.84001159667969,34.04340362548828,-15.28366756439209,21469655.0,39947.0,0.26362851559830014,-0.18276763958040004,0.1569471730897,0.006096145398054386,-0.0004239992728002001,0.009751271789662628,21.469655148976017
1607,B,288993123769793.0,7.9988680207086915,-3.4638114,4.841076,37,1970-01-04 08:16:33.123769793,1.0929613,1.4958977,-0.5683186,5.976435901948918,1.937849417077844,79.68006134033203,35.07572937011719,-17.048601150512695,21509511.0,39856.0,0.30383335484376567,-0.4101744329744001,0.1891886321808,0.011308380154169488,-0.011816149621872057,0.006897794327430525,21.509511658980045
1607,B,288993164173597.0,5.8626416207086915,-1.3096284,-1.316811,37,1970-01-04 08:16:33.164173597,0.8988169,-0.2974751,-1.9387813,3.2515132983374446,2.157599634796806,80.28355407714844,36.51521301269531,-16.747615814208984,21549915.0,40404.0,0.28003021777591397,-0.49239223083960004,0.07119720153,0.01179521189406277,-0.018233651742370433,0.0052603146126255825,21.549915462965146
1607,B,288993203611304.0,7.721140660708691,4.735132,-4.107253,37,1970-01-04 08:16:33.203611304,2.0511668,0.4777711,-0.4908206,6.320428056376349,2.1625113472076416,81.76055145263672,36.146514892578125,-15.917975425720215,21589353.0,39438.0,0.26785860280726936,-0.3189448945116001,-0.106957118016,0.010803819653079793,-0.015998756774800314,-0.0007051497931874339,21.589353169954848
1607,B,288993243430104.0,6.097273420708692,10.645818,6.640917,37,1970-01-04 08:16:33.243430104,0.9576728,-2.0943098,1.4937671,12.781277631314222,2.7449245671381006,81.04656982421875,35.51585388183594,-16.43922996520996,21629171.0,39818.0,0.2751108059469387,-0.08399706645000002,0.050442716575999996,0.010809977958887529,-0.008022171500784495,-0.00112514521826896,21.62917196995113
1607,B,288993281438129.0,-8.905991079291308,11.493964,6.986879,37,1970-01-04 08:16:33.281438129,1.7249295,-2.6610305,-0.2066613,22.02263606437018,3.1779197590276236,80.62623596191406,35.95723342895508,-16.843130111694336,21667179.0,38008.0,-0.05337687038370403,0.04826601712799998,0.258982635184,0.004213831711443712,-0.0006790328613152887,0.00588031938484704,21.6671799949836
1607,B,288993320978126.0,5.476576620708692,2.767697,-3.731962,37,1970-01-04 08:16:33.320978126,3.9840891,-0.2495382,-1.8745991,5.5606402505695955,4.410142521021158,82.12764739990234,36.355712890625,-16.096559524536133,21706719.0,39540.0,-0.06779952384617831,-0.10553896203000002,0.06434970909,-0.0023956573139247736,-0.0011322861207125406,0.00639228044629698,21.706719991983846
1607,B,288993363200420.0,2.9040069207086923,16.21054,-6.9449806,37,1970-01-04 08:16:33.363200420,3.0722227,0.37364152,-2.8956552,18.511723798339727,4.238275515012002,83.15214538574219,36.15574264526367,-15.582785606384277,21748942.0,42223.0,0.17692668943463308,-0.013126349574499992,-0.2254062736999,0.0023038381563206625,-0.0025052027259384016,-0.003400145663761903,21.74894228595076
1607,B,288993403096200.0,2.082795520708692,19.612701,-5.981314,37,1970-01-04 08:16:33.403096200,0.07483483,2.2120216,-2.369681,21.49467264520553,3.2425341713555906,83.90623474121094,35.89323425292969,-15.064237594604492,21788838.0,39896.0,0.09947673510139399,0.32362121146800005,-0.25785372468080003,0.005513695512644668,0.00619375150505154,-0.009640070447698204,21.788838065986056
1607,B,288993442980053.0,8.534570672708693,17.879898,10.324396,37,1970-01-04 08:16:33.442980053,2.2801986,2.339587,-0.03701794,20.646644139224772,3.26716135412575,83.3923110961914,35.13862228393555,-15.335564613342285,21828721.0,39883.0,0.2117262079460328,0.3568052629585,0.086607569703,0.006205853488780262,0.013568724539776051,-0.0034149051994898,21.82872191898059
1607,B,288993482909586.0,-1.1158580792913089,8.010401,2.3145945,37,1970-01-04 08:16:33.482909586,0.07669904,-0.16618125,0.49641323,12.75134868374037,0.5290794321342657,83.20233917236328,35.46739959716797,-15.451972007751465,21868651.0,39930.0,0.14811459692757806,0.12558581953500003,0.2523374453325,0.007184221669301641,0.009630937961982729,0.006767037225183758,21.868651451950427
1607,B,288993523324272.0,6.986120720708692,0.57161564,-0.9008184,37,1970-01-04 08:16:33.523324272,-0.8157263,-0.44235107,-1.0503508,1.8779393458530576,1.4015422464922258,84.05106353759766,36.269989013671875,-14.95394229888916,21909066.0,40415.0,0.11862333232644177,-0.22264589874720003,0.028568880540750005,0.005390106705400606,-0.0019613415506805317,0.0056764145800837,21.90906613797415
1607,B,288993562718283.0,10.040523520708692,2.2948422,2.4253263,37,1970-01-04 08:16:33.562718283,-2.4218788,0.38695732,-0.008522116,3.6640722165552213,2.45261197824934,82.90424346923828,35.206085205078125,-15.536700248718262,21948460.0,39394.0,0.33537381162319824,-0.32960057992552005,0.030028232106300002,0.00894238174437606,-0.010877598890416569,0.001154187327808944,21.948460148996674
1607,B,288993602620314.0,7.927041980708692,0.50637364,-1.2060791,37,1970-01-04 08:16:33.602620314,-2.14491,0.0031957934,0.9962886,1.4410082447700787,2.3650031914746785,84.33780670166016,35.43595504760742,-14.640861511230469,21988362.0,39902.0,0.3584708993187782,-0.3351525427761601,0.024325200887200003,0.013842895828003372,-0.013262489551021219,0.0010844053416533186,21.988362179952674
1607,B,288993642479585.0,9.760401920708691,5.9106855,-4.8255134,37,1970-01-04 08:16:33.642479585,-1.979794,-0.89508843,1.903095,7.728634489770221,2.8883452284969096,85.42679595947266,34.5653076171875,-13.987442970275879,22028221.0,39859.0,0.3525019132332977,-0.26272941986937004,-0.12020662272875,0.014169332667756596,-0.011915488574544091,-0.0019108687965911707,22.02822145097889
1607,B,288993682455679.0,-9.373459079291308,19.612701,2.7515364,37,1970-01-04 08:16:33.682455679,-5.0538807,-4.022705,1.7230653,26.698676803304224,6.685268855844287,84.96339416503906,34.65175247192383,-14.266725540161133,22068197.0,39976.0,0.007734213514250655,0.11839664936199998,-0.041454652276,0.007200399701429996,-0.0028849234169013127,-0.003231285564794943,22.068197544955183
1607,B,288993722328335.0,-0.011532079291308506,13.557766,1.7872716,37,1970-01-04 08:16:33.722328335,-2.05383,-5.127384,2.6684875,16.124270127823543,6.134257077267976,84.62979888916016,34.42976760864258,-14.597938537597656,22108070.0,39873.0,-0.18710387623308233,0.2705476153455,0.09048794569199999,-0.0035760032807939874,0.0077541873333410736,0.0009775522541880836,22.10807020100765
1607,B,288993762183908.0,7.387748120708692,7.293337,1.4287399,37,1970-01-04 08:16:33.762183908,-1.9188076,1.2045478,1.503887,7.5194686586745645,2.7192708796792573,84.40990447998047,33.7437744140625,-14.61166763305664,22147925.0,39855.0,0.14698954516534493,0.024931355032500012,0.06408706916625,-0.0007993783323523371,0.005888157182207594,0.0030802936085877765,22.147925773984753
1607,B,288993800570836.0,7.570904470708692,0.76434886,5.61979,37,1970-01-04 08:16:33.800570836,-0.11664646,2.0306604,0.59228706,5.7523179937672255,2.1184881444563564,82.82109069824219,33.733028411865234,-15.40446949005127,22186312.0,38387.0,0.2871088985133695,-0.22153740644609002,0.13528595863565,0.008331868478747404,-0.0037735582478067393,0.0038266662091157666,22.18631270196056
1607,B,288993842047188.0,6.928659920708692,-2.6755204,5.2037973,37,1970-01-04 08:16:33.842047188,0.5499428,0.6761766,-0.6194513,6.066898867216055,1.0692856450598642,79.67847442626953,34.89288330078125,-17.16698455810547,22227789.0,41477.0,0.30069921613140943,-0.44610943098229,0.22446496522105,0.012190258585560746,-0.01384599393800846,0.007460694534402173,22.227789053984452
1607,B,288993882422764.0,6.022454620708691,-2.7048495,-1.2282255,37,1970-01-04 08:16:33.882422764,1.3454291,-0.0013315806,-2.1358552,3.8885020806350856,2.5242936975718067,80.42709350585938,37.806968688964844,-16.777339935302734,22268164.0,40375.0,0.2614506248048634,-0.50429121735625,0.0802568557125,0.011348399913901009,-0.019186213088334278,0.006151571760096041,22.26816462998977
1607,B,288993919471512.0,9.233079020708692,4.0827127,-1.9087774,37,1970-01-04 08:16:33.919471512,2.824815,0.18002969,-0.5864281,4.561148752978054,2.8906553564851185,81.57688903808594,36.94451141357422,-16.162761688232422,22305213.0,37049.0,0.2826011329404363,-0.3375559731516,-0.05811141022104999,0.010078286786352803,-0.015594798280562669,0.00041023330500636573,22.305213377985638
1607,B,288993959340106.0,5.040831920708692,11.112687,3.144784,37,1970-01-04 08:16:33.959340106,1.2602079,-2.8168256,1.7648768,12.06510614968393,3.554914982276793,81.32740783691406,36.350040435791016,-16.450586318969727,22345081.0,39868.0,0.28453614070621414,-0.08780130238020004,0.024638555564400002,0.01130531441287233,-0.008479071930450902,-0.000667247884725661,22.34508197195828
1607,B,288994002242554.0,-9.664953079291308,18.287512,2.3223755,37,1970-01-04 08:16:34.002242554,1.1387677,-2.274606,0.23782028,25.902514618220085,2.5548351836035468,81.33440399169922,36.527557373046875,-16.56928253173828,22387984.0,42903.0,-0.09919433503333498,0.2102289688484999,0.11727877201425,0.003975859744391767,0.0026262570872447343,0.0030443395525534102,22.387984419998247
1607,B,288994041541408.0,2.2952812207086923,1.9961656,-2.552219,37,1970-01-04 08:16:34.041541408,3.4770231,-0.65700185,-2.3635554,7.027794494506455,4.255318460198507,82.1962890625,37.46581268310547,-16.19447135925293,22427283.0,39299.0,-0.1448103671852191,0.013433923001199952,-0.004516309853249997,-0.004794570396243479,0.004394863993400677,0.0022157260002325695,22.427283273951616
1607,B,288994079536772.0,2.9866069207086916,19.612701,-12.542026,37,1970-01-04 08:16:34.079536772,2.4234767,1.288171,-2.5060346,23.93130084410202,3.7165620211535617,83.48690032958984,37.209983825683594,-15.448254585266113,22465278.0,37995.0,0.10034266996657676,0.03816344323350002,-0.2867529193875,-0.0008447750779111582,0.0009802209650437129,-0.0055333871825011495,22.46527863800293
1607,B,288994119245627.0,5.401757920708691,19.612701,3.271078,37,1970-01-04 08:16:34.119245627,0.45806372,1.5536882,-2.1158814,20.1284317578366,2.664718276528579,83.46758270263672,36.646751403808594,-15.421794891357422,22504987.0,39709.0,0.16654678974392143,0.389652544009,-0.18407003706600003,0.005298956777822086,0.008494072518706217,-0.009347954388906017,22.504987492982764
1607,B,288994159499167.0,5.900350220708692,12.645575,6.06571,37,1970-01-04 08:16:34.159499167,2.242648,1.9108181,0.09827065,14.269785005176926,2.9479404647724876,83.0796127319336,36.069969177246094,-15.642119407653809,22545241.0,40254.0,0.22747753056230766,0.25477312105199995,0.187921532076,0.007930527494803472,0.012970355360682745,7.75190400662691e-05,22.545241032959893
1607,B,288994201186823.0,0.9156219207086922,8.884883,2.7365725,37,1970-01-04 08:16:34.201186823,0.10546118,-0.019441076,-0.6402239,12.018018171286863,0.6491430181818488,82.83827209472656,36.1930046081543,-15.791436195373535,22586928.0,41687.0,0.14206871532963325,0.04023750132299996,0.18347037528875001,0.00770263717624867,0.006149053907473311,0.007741107221157168,22.586928688979242
1607,B,288994241595211.0,8.646499600708692,4.2066126,-0.45310268,37,1970-01-04 08:16:34.241595211,-0.5901565,0.09853696,-0.7901599,4.232505002671108,0.9911341455859048,83.21315002441406,35.377994537353516,-15.55482292175293,22627337.0,40409.0,0.19319788427947757,-0.13150107714980003,0.04613636597818999,0.0067738940118022796,-0.0018439349177925817,0.004639089403927889,22.627337076992262
1607,B,288994282738907.0,10.218891620708693,3.5116954,1.4257472,37,1970-01-04 08:16:34.282738907,-2.5220137,-0.29561087,0.6649913,4.14870909836984,2.62490996388934,82.66317749023438,34.13655471801758,-15.804134368896484,22668480.0,41143.0,0.38808939551138766,-0.244424226978,0.02000875674318,0.011957951276217784,-0.007733347393865038,0.0013607043920626628,22.668480772990733
1607,B,288994318961669.0,7.273424920708692,1.460463,-1.7064673,37,1970-01-04 08:16:34.318961669,-2.5917885,-0.050866377,1.3467606,2.5744769938275405,2.921253006973842,83.80252838134766,34.258731842041016,-15.086000442504883,22704703.0,36223.0,0.31681209103988095,-0.2649321531384,-0.005084262091149998,0.012766823273673301,-0.00922520807847818,0.0002703049848902414,22.704703534953296
1607,B,288994360800157.0,9.160055850708693,5.903503,-7.771579,37,1970-01-04 08:16:34.360800157,-3.356382,-0.9155948,1.940113,9.779763408832908,3.9834221996268537,85.08342742919922,33.65928268432617,-14.304943084716797,22746542.0,41839.0,0.34378020099766604,-0.255971713263,-0.19827598957284998,0.013819260453279464,-0.010897048433184089,-0.004254194784685048,22.74654202297097
1607,B,288994400747554.0,-11.081722079291307,19.612701,4.4759603,37,1970-01-04 08:16:34.400747554,-5.29756,-2.8953888,0.4396879,28.09579680330453,6.053159811715848,84.55219268798828,33.89323806762695,-14.571967124938965,22786489.0,39947.0,-0.038382400416594846,0.11816730059400002,-0.06582504010445,0.006099862969906026,-0.0027524364364442714,-0.005275021916259551,22.786489419988357
1607,B,288994438200159.0,0.5277609207086922,13.479954,-0.14664486,37,1970-01-04 08:16:34.438200159,-1.4357102,-4.232562,2.8613002,15.677747004163876,5.306871366139194,84.50537872314453,33.65470504760742,-14.721565246582031,22823942.0,37453.0,-0.19763875363619735,0.2526702038575,0.08107292558715999,-0.004419850141369613,0.006944488527111015,0.0002855395274919685,22.82394202495925
1607,B,288994480455001.0,5.6321996207086915,6.9725137,4.2957964,37,1970-01-04 08:16:34.480455001,-1.9875171,1.7925738,1.5078819,8.687704445562796,3.0720112101986965,83.75794982910156,33.31290054321289,-14.998583793640137,22866196.0,42254.0,0.13014148635852507,0.018010085097899965,0.08765912458558,-0.001426014765775382,0.005718662464760735,0.0035648020239994783,22.866196866962127
1607,B,288994520467085.0,7.796558020708692,0.20709845,4.2957964,37,1970-01-04 08:16:34.520467085,0.40746364,1.8988339,0.48043427,4.363142300182448,2.000603380358459,82.1723403930664,33.370391845703125,-15.800250053405762,22906208.0,40012.0,0.2686557253741962,-0.24848227932710001,0.1718834055568,0.007978337017924822,-0.004610826717749376,0.005192407858028455,22.906208950967994
1607,B,288994560324897.0,8.076679590708691,-2.8933928,4.3879733,37,1970-01-04 08:16:34.560324897,0.7571367,0.5699165,-0.83063996,5.275695600320541,1.2601680612553001,78.94583892822266,34.30385971069336,-17.59923553466797,22946066.0,39858.0,0.31633775235793704,-0.44414356010115,0.17305884635129998,0.011658335017723684,-0.013803340353965595,0.006874354138276525,22.94606676296098
1607,B,288994600738023.0,5.792611220708691,-0.2801216,-3.3488896,37,1970-01-04 08:16:34.600738023,2.0104203,-0.41545314,-2.1395836,4.335374060849146,2.9651659440201503,80.32736206054688,35.31626892089844,-16.900964736938477,22986479.0,40413.0,0.2802498247809053,-0.46017301872360006,0.02099624478404999,0.012054946877456018,-0.01827307295002231,0.0039211741990264485,22.986479888961185
1607,B,288994640134012.0,9.176815320708691,4.895544,0.374094,37,1970-01-04 08:16:34.640134012,2.5241442,0.15739283,-0.62078285,4.952032782517778,2.6041213090374975,80.61363220214844,34.378238677978516,-16.808265686035156,23025875.0,39396.0,0.2948677640128396,-0.29516620956480005,-0.058597523728800005,0.011328666264059189,-0.014878672118824907,-0.0007406699926536858,23.02587587799644
1607,B,288994679079845.0,-6.960703079291308,19.612701,4.0934863,37,1970-01-04 08:16:34.679079845,1.1502193,-0.88683265,1.4090786,25.326378366964548,2.0236054675199098,80.59150695800781,34.3853759765625,-16.879859924316406,23064821.0,38946.0,0.0431543536771207,0.09557825488500002,0.08699719118190002,0.006582304697776597,-0.003886576241479746,0.0005530267243142167,23.06482171098469
1607,B,288994718559793.0,11.002992720708692,-11.298238,-8.438962,37,1970-01-04 08:16:34.718559793,2.9358687,-0.4775048,-0.20293288,14.3169184064081,2.9813617042297675,83.52140045166016,36.116397857666016,-15.292115211486816,23104301.0,39480.0,0.07979479752157916,-0.22277650038,-0.085779690318,0.0024270162446623353,-0.0025108933660712997,2.4033467053386616e-05,23.104301658982877
1607,B,288994759221513.0,4.179517620708692,8.578424,-9.330204,37,1970-01-04 08:16:34.759221513,3.5454664,0.45060685,-3.942011,13.400839296858539,5.32098010247331,85.05525970458984,36.21123504638672,-14.491328239440918,23144963.0,40662.0,0.3086756177513568,-0.453784138434,-0.36126491394599997,0.00789799201291406,-0.013755154347727432,-0.009088863849291383,23.1449633789598
1607,B,288994797461513.0,3.9347109207086923,18.555063,-6.465542,37,1970-01-04 08:16:34.797461513,1.9020296,1.3337111,-1.9984361,20.17981126035182,3.0643512760978595,85.89598083496094,35.825111389160156,-14.00646686553955,23183203.0,38240.0,0.1551440497119004,0.14404027143999995,-0.30201466352000006,0.008868232041897479,-0.005922302736925281,-0.012681905521149922,23.183203378983308
1607,B,288994837663439.0,7.402711820708692,19.612701,2.3014264,37,1970-01-04 08:16:34.837663439,1.8295918,1.9925772,-1.0135992,19.779508150147397,2.888797914501414,85.97603607177734,35.11286926269531,-13.93593978881836,23223405.0,40202.0,0.22789353452523087,0.37323062416400005,-0.08370288767560001,0.007699438480750577,0.010397662272536004,-0.007753308496582758,23.223405305005144
1607,B,288994877238700.0,2.4562909207086916,11.900379,7.8128786,37,1970-01-04 08:16:34.877238700,1.2088089,0.009054748,-0.11158645,15.478023274770845,1.2139820760637927,85.25111389160156,34.91496276855469,-14.386597633361816,23262980.0,39575.0,0.19508501674579648,0.23573007049999994,0.20013681018749999,0.008369688083275453,0.0120498097456639,0.002303936241704221,23.262980565952603
1607,B,288994919407605.0,5.762085020708692,7.145495,-1.3221979,37,1970-01-04 08:16:34.919407605,-0.5075985,-0.5864281,-0.6673882,7.776657187052791,1.0232112016446555,85.6309585571289,34.62434387207031,-14.181674003601074,23305149.0,42169.0,0.17328034753681484,-0.011683469647000039,0.13685275721915,0.007766799523216719,0.0047239105556850765,0.007105256533985511,23.305149470979813
1607,B,288994959887189.0,9.345007920708692,2.8275523,0.6679823,37,1970-01-04 08:16:34.959887189,-2.3358586,0.41998053,-0.24873926,3.0171046927888634,2.3863131111064173,85.27165985107422,33.5460205078125,-14.300228118896484,23345629.0,40480.0,0.3057675611342879,-0.194849522648,-0.013241323743999998,0.00969592967150312,-0.004180227764050801,0.002501895413537036,23.345629054994788
1607,B,288994999258648.0,7.707972560708692,2.4540567,-1.9829975,37,1970-01-04 08:16:34.999258648,-2.6016421,-0.051132694,0.9643307,3.2608279870060413,2.7750837587090227,86.28692626953125,33.240604400634766,-13.668356895446777,23385000.0,39371.0,0.335696447266942,-0.2818646860305001,-0.0258867317196,0.012627539737382412,-0.009384357554940615,-0.0007702553358286978,23.38500051398296
1607,B,288995039123440.0,9.845994720708692,2.0847511,-1.4514848,37,1970-01-04 08:16:35.039123440,-2.5888588,-0.29960564,1.8908445,2.8601899932879444,3.2198208566685045,87.08818817138672,32.046539306640625,-13.172551155090332,23424865.0,39865.0,0.349894452836852,-0.3002072135265,-0.06845781844474999,0.013665540616318873,-0.011602148137919903,-0.0018805227461509062,23.424865306005813
1607,B,288995079069845.0,-0.2623240792913073,12.173917,3.6894648,37,1970-01-04 08:16:35.079069845,-4.966263,-4.550277,2.5305357,15.464446903104296,7.195304016570286,86.36705017089844,31.989931106567383,-13.610276222229004,23464811.0,39946.0,0.19141465372102945,-0.10668242203870004,0.04469917454000001,0.010811566785280566,-0.00812680669114374,-0.0004745313947095714,23.464811710990034
1607,B,288995119026980.0,-5.936583079291308,19.612701,18.067245,37,1970-01-04 08:16:35.119026980,-2.3036344,-3.4791536,1.7635453,30.338277227412682,4.530047819439482,85.21294403076172,31.946142196655273,-14.302811622619629,23504768.0,39957.0,-0.12384486666774279,0.243470347713,0.4346664267393,0.0013499429906440874,0.0027328175730840015,0.009577005665158496,23.504768845974468
1607,B,288995158886876.0,4.851689920708692,8.959702,-0.18195933,37,1970-01-04 08:16:35.158886876,-1.9590213,0.0644485,1.7419738,9.68766973111295,2.622287318905459,85.2829818725586,31.623945236206055,-14.20521354675293,23544628.0,39860.0,-0.021621920650551546,0.17881999179,0.3564537434031,-0.0028991530712536057,0.00841624646629479,0.01576702499093803,23.54462874197634
1607,B,288995198611824.0,7.848631920708692,2.7449522,4.0575733,37,1970-01-04 08:16:35.198611824,-0.3637878,2.065814,0.72624403,4.9462186470144776,2.219765626622658,84.03559112548828,31.293466567993164,-14.756487846374512,23584353.0,39725.0,0.25226014257515283,-0.15682130595250005,0.07697938247912499,0.0045810516829773934,0.0004369488974473428,0.008609065462835694,23.584353689977434
1607,B,288995238732813.0,6.567135420708691,-2.328361,5.1200004,37,1970-01-04 08:16:35.238732813,0.7462177,0.8785769,-0.6420882,5.957743144692243,1.3194754569851384,81.04497528076172,32.55263900756836,-16.323116302490234,23624474.0,40121.0,0.2891875007525034,-0.38482877223240003,0.18410671720885,0.010861710448974448,-0.010865771393428187,0.005237517702790621,23.62447467900347
1607,B,288995278590836.0,7.530801620708692,-2.5701754,-0.19273324,37,1970-01-04 08:16:35.278590836,1.1198592,-0.18295917,-2.1518342,2.7648690549839334,2.432683520312778,80.75437927246094,35.5085563659668,-16.53765869140625,23664332.0,39858.0,0.28095778729840704,-0.48823133191560003,0.09819550723164,0.011362425445566591,-0.017399214815565493,0.005626001030874525,23.66433270199923
1607,B,288995317065471.0,7.1034365207086925,4.326921,-4.547786,37,1970-01-04 08:16:35.317065471,2.735599,0.25193503,-1.2285162,6.4377162643619945,3.009356276980933,82.30722045898438,35.36328887939453,-15.714652061462402,23702807.0,38475.0,0.28152615624551697,-0.3432596065200001,-0.09119573887950001,0.010820784863926238,-0.01599580692815486,0.000134658043674293,23.702807336987462
1607,B,288995358448022.0,3.8347529207086923,14.316728,7.595605,37,1970-01-04 08:16:35.358448022,0.44181845,-3.2463934,1.6173377,16.873709758752934,3.6537726921861537,81.64385223388672,34.83710861206055,-16.231246948242188,23744189.0,41382.0,0.22632207773236715,-0.01978785854100003,0.063062422929,0.0105078878092364,-0.007511815099577154,-0.0005821064403317959,23.744189888006076
1607,B,288995396445939.0,-5.664841079291309,7.551312,4.994903,37,1970-01-04 08:16:35.396445939,1.500425,-3.3164346,0.31611723,16.8377457316683,3.6537574823467733,81.20381927490234,35.3889274597168,-16.659969329833984,23782187.0,37998.0,-0.03476984492491113,0.043090491959999984,0.23920706149199997,0.0036393008711088567,0.00044272673232758004,0.0057428179345145785,23.78218780498719
1607,B,288995436266563.0,2.8656996207086918,4.36044,-5.2462945,37,1970-01-04 08:16:35.436266563,3.827495,-0.5382249,-2.6272085,8.867875725603124,4.673502810577657,82.5293960571289,35.92683410644531,-16.036088943481445,23822008.0,39821.0,-0.0557323060111092,-0.15307686180400004,-0.005005330460750009,-0.0018019430762116328,-0.0021898836167789635,0.0046630735656977024,23.822008428978734
1607,B,288995478104168.0,2.3593259207086916,19.612701,-10.147225,37,1970-01-04 08:16:35.478104168,3.5321505,1.4607439,-2.380067,22.92860463411435,4.502730151866361,83.71688079833984,35.696746826171875,-15.398762702941895,23863846.0,41838.0,0.10930230930091024,0.09148173657900001,-0.3220170344205,0.001120630898819348,-0.0012885084245817756,-0.00684098085095087,23.863846033986192
1607,B,288995517958647.0,9.492251370708692,19.612701,4.5340195,37,1970-01-04 08:16:35.517958647,0.2463424,1.3456954,-2.4706147,20.152872421054926,2.824095905502327,83.56211853027344,34.94231033325195,-15.4520845413208,23903700.0,39854.0,0.2361663806860742,0.391075385654,-0.11185434599850001,0.006884154585370639,0.00961591577473699,-0.008645754997609414,23.90370051295031
1607,B,288995557928803.0,5.297609920708692,13.55178,4.0001125,37,1970-01-04 08:16:35.557928803,1.6911073,1.8418423,0.09827065,14.495178170898082,2.5023756869890668,83.41577911376953,34.4221076965332,-15.508322715759277,23943670.0,39970.0,0.2955753779089764,0.271086152785,0.17055462802,0.010626859045522085,0.013233298345703415,0.0011731251361996769,23.94367066898849
1607,B,288995596061617.0,1.1161369207086915,5.711368,3.4518404,37,1970-01-04 08:16:35.596061617,-0.027963191,0.13848437,-0.07590009,9.976156163722436,0.160376695461677,82.9336929321289,34.81140899658203,-15.776089668273926,23981803.0,38133.0,0.12228770415188454,-0.006422588658000007,0.14208265996785,0.007967186454113406,0.0050462078454274455,0.005960898851420341,23.981803482980467
1607,B,288995637697396.0,8.318493970708692,4.3915644,-1.9752164,37,1970-01-04 08:16:35.637697396,-1.4735271,0.57550913,-0.63010395,4.820033451743248,1.702798831616163,83.77555847167969,34.196781158447266,-15.236860275268555,24023439.0,41636.0,0.19641014589752712,-0.19770995329680002,0.030740358431999997,0.006634651842328651,-0.004249631258415027,0.0035978295970480766,24.023439262004104
1607,B,288995678144220.0,9.425213720708692,1.3994108,1.7603368,37,1970-01-04 08:16:35.678144220,-2.3880565,-0.40852892,0.43089947,2.4198597437935363,2.460769001534865,82.51437377929688,33.203365325927734,-15.884420394897461,24063886.0,40447.0,0.3588398724973794,-0.2792668130428,-0.004345617590600003,0.011229098747009392,-0.0096461396340689,0.0005337940414060527,24.063886085990816
1607,B,288995717878595.0,7.078896020708692,3.169923,-0.97264445,37,1970-01-04 08:16:35.717878595,-2.624279,0.18002969,1.2490226,3.620046098412617,2.9119252075617013,83.04402923583984,32.96857452392578,-15.50915813446045,24103620.0,39734.0,0.3278871482327392,-0.29861424539540005,0.01564908391745,0.013643205720845266,-0.01148076298799172,0.00022456596551552889,24.103620460955426
1607,B,288995757444688.0,6.9430251207086915,9.586982,0.3573346,37,1970-01-04 08:16:35.757444688,-4.701012,-1.5760587,2.1843247,9.724269221029877,5.418002329735544,82.9089126586914,32.28065490722656,-15.508623123168945,24143186.0,39566.0,0.27739566594066006,-0.135376948385,-0.01217267476255,0.011974309912792356,-0.008585647786557654,6.877380231138667e-05,24.14318655396346
1607,B,288995795070730.0,-11.081722079291307,19.612701,19.612701,37,1970-01-04 08:16:35.795070730,-3.4967306,-0.39121836,1.1446266,33.97054044198888,3.7000468574877545,81.87482452392578,32.42423629760742,-15.979057312011719,24180812.0,37626.0,-0.07786130588181474,0.18059883627900003,0.37569627974280007,0.0037538399157870574,0.0008507593769498226,0.006838969580493444,24.18081259599421
1607,B,288995836401825.0,5.448444720708692,10.936713,-3.3554738,37,1970-01-04 08:16:35.836401825,-1.4748586,-1.7941717,1.7920412,11.848063385878625,2.9335425072039247,82.44709014892578,31.9652156829834,-15.698891639709473,24222143.0,41331.0,-0.11641449325378903,0.226275115017,0.3359637287016001,-0.00401480652703682,0.008408253640507488,0.014706809904507751,24.222143690974917
1607,B,288995877411407.0,6.612026620708692,0.32022446,5.085284,37,1970-01-04 08:16:35.877411407,-1.1366372,2.3307986,1.0727214,5.444936570683811,2.8062960357388813,80.9128646850586,32.21074676513672,-16.379863739013672,24263153.0,41010.0,0.24729996485576342,-0.17107449738270003,0.035469758150999994,0.0026838065951984846,0.0011318886645913212,0.007616243647912564,24.263153272971977
1607,B,288995914868595.0,7.869581120708692,-1.6891093,5.8107276,37,1970-01-04 08:16:35.914868595,0.33076462,1.4679344,-0.15925704,6.087354534767832,1.5131422409465232,77.61555480957031,32.64086151123047,-18.096817016601562,24300610.0,37457.0,0.2712187905851355,-0.39271575972594,0.20406595325059998,0.009711078511274875,-0.010558945830259162,0.0044861445709848645,24.30061046098126
1607,B,288995957310938.0,9.045732720708692,-3.9845502,-0.8948329,37,1970-01-04 08:16:35.957310938,0.7366304,0.7600662,-1.5997609,4.116032236706303,1.9182178999674175,77.70549774169922,35.59107971191406,-18.049423217773438,24343052.0,42442.0,0.3589598750287183,-0.5363323282495001,0.1043202014287,0.01337302146299159,-0.019715329474926813,0.006544262588449425,24.3430528040044
1607,B,288995997419323.0,8.195192580708692,1.8698715,-5.09127,37,1970-01-04 08:16:35.997419323,3.0850058,0.9187906,-0.70840085,5.4342069096031995,3.295947317079374,79.62769317626953,35.579158782958984,-16.99020767211914,24383161.0,40109.0,0.34575813645727493,-0.43547702398915,-0.12004830060805,0.01413276736134585,-0.019489150654470006,-0.0003154191649922746,24.383161188976374
1607,B,288996036787763.0,5.878802420708691,8.928576,4.3718123,37,1970-01-04 08:16:36.036787763,0.7600662,-1.5827167,0.5563344,10.289287148661346,1.841792807420175,79.15615844726562,35.06158447265625,-17.344181060791016,24422529.0,39368.0,0.27703251760789976,-0.17324975941000004,-0.014161805366799991,0.012259011234618897,-0.01198217800442887,-0.002641791726008947,24.422529628966004
1607,B,288996076719322.0,-11.081722079291307,19.612701,15.537172,37,1970-01-04 08:16:36.076719322,2.1648836,-1.2436962,1.0500845,31.79218915335943,2.7085381106020368,78.5909423828125,35.14569854736328,-17.77329444885254,24462461.0,39932.0,-0.10388149390326051,0.178521536582,0.3975027805338,0.0034571333392868276,0.00010525630301615151,0.007653785910184323,24.462461187969893
1607,B,288996116518908.0,5.278456320708692,-3.4051533,-5.072715,37,1970-01-04 08:16:36.116518908,3.4791536,0.03355583,-1.5547534,6.921727140830708,3.8108914837517363,81.06478881835938,37.39960861206055,-16.420631408691406,24502260.0,39799.0,-0.11548208696291475,-0.06750810454385,0.20823746207149998,-0.004365225577446455,0.0022091117908431663,0.012053927957724168,24.502260773966555
1607,B,288996156503335.0,4.549421920708692,16.365566,-6.8330517,37,1970-01-04 08:16:36.156503335,3.5486622,0.57098174,-3.0402648,18.176355862591514,4.70767815501881,82.16313171386719,37.076210021972656,-15.860102653503418,24542245.0,39985.0,0.19648385574153704,-0.13274194909525,-0.23802604074975,0.0016194278623066062,-0.004003499197379707,-0.0005955481592249135,24.542245200951584
1607,B,288996196686041.0,6.734729520708692,19.612701,-2.6372132,37,1970-01-04 08:16:36.196686041,0.52171326,1.8010958,-2.503904,19.870621483744234,3.1282049241783167,82.71682739257812,36.48564529418945,-15.48672866821289,24582427.0,40182.0,0.2267098866095167,0.32905576229700007,-0.1902670921059,0.00850238547757502,0.003944140821036361,-0.008604837332202865,24.58242790697841
1607,B,288996236297814.0,9.728080220708692,17.936163,2.552219,37,1970-01-04 08:16:36.236297814,2.1563616,2.782737,-0.540888,18.156304214801956,3.5617524323944187,82.89643096923828,35.604251861572266,-15.336942672729492,24622039.0,39612.0,0.32606240973851275,0.355495200384,-0.0016833951252000026,0.010948208101469072,0.013558216366859888,-0.003801771350099167,24.622039679961745
1607,B,288996276210939.0,-0.8518970792913088,8.923788,4.4328647,37,1970-01-04 08:16:36.276210939,0.48363006,-0.2231729,0.2181129,13.686996923835233,0.5755670381253808,82.48835754394531,35.81679153442383,-15.597116470336914,24661952.0,39913.0,0.177137548861696,0.14488321213149993,0.13939782285904997,0.010042109973805065,0.009985801789365574,0.002748297977070577,24.661952805006877
1607,B,288996314159584.0,6.636567320708692,1.9339164,-2.1158757,37,1970-01-04 08:16:36.314159584,-1.2434299,-0.08362326,-0.577107,3.4362810994084594,1.3733765890228498,83.6326675415039,36.07951354980469,-14.895380020141602,24699901.0,37949.0,0.10976122549577413,-0.16588068786220003,0.04396370778049999,0.005443760794045817,-0.000398416603252169,0.0034791933631201405,24.699901449959725
1607,B,288996356013543.0,9.735861420708693,1.340753,3.1794999,37,1970-01-04 08:16:36.356013543,-2.7896614,-0.09427591,0.21278657,3.654741710364942,2.7993529249147295,82.04560852050781,35.288455963134766,-15.741884231567383,24741755.0,41854.0,0.3426258162716416,-0.34164019346620006,0.022258463633400002,0.00946710362306671,-0.01062088948355943,0.0013858313811786853,24.741755408991594
1607,B,288996396424116.0,6.950806220708692,2.086547,-1.2401965,37,1970-01-04 08:16:36.396424116,-2.3712788,0.1470065,1.0916297,2.896654088658523,2.6146184158101886,82.85700988769531,35.329002380371094,-15.19229507446289,24782165.0,40410.0,0.33715411969483833,-0.32676940350000006,0.039183625197000006,0.01373495360620273,-0.013505215906702072,0.001241437404818232,24.78216598200379
1607,B,288996433878126.0,9.186990650708692,5.6060233,-5.4420204,37,1970-01-04 08:16:36.433878126,-2.9379995,-1.6578178,2.0676782,7.840449548387204,3.956702422314866,84.01553344726562,34.596500396728516,-14.500046730041504,24819619.0,37454.0,0.3022125220110334,-0.22299043599190005,-0.1251378758863,0.01197341909922586,-0.010295352514164814,-0.001609665252658521,24.819619991991203
1607,B,288996475894115.0,-11.081722079291307,19.612701,5.8262897,37,1970-01-04 08:16:36.475894115,-5.8885155,-2.4304008,1.3907027,28.342286941489515,6.520392384064642,83.4115219116211,34.752296447753906,-14.770027160644531,24861635.0,42016.0,-0.03980451785166357,0.1180381600944,0.008072729454400011,0.005512667351380041,-0.0022048374120546806,-0.0024593045962413543,24.861635980952997
1607,B,288996515572709.0,4.468018920708692,9.624691,-3.9205053,37,1970-01-04 08:16:36.515572709,-0.42077947,-4.6560044,2.776878,11.158743226694039,5.437507127542624,84.01984405517578,34.3487663269043,-14.58996295928955,24901314.0,39679.0,-0.13121256381469978,0.19120103858400003,0.03780980960380001,-0.003392893391719816,0.006135151082180118,0.0009102866336451593,24.901314574992284
1607,B,288996555566876.0,9.640691820708692,5.981913,3.6110547,37,1970-01-04 08:16:36.555566876,-1.010936,1.2942963,1.3334448,7.074823872658195,2.115483288266946,83.29754638671875,33.37955093383789,-14.905059814453125,24941308.0,39994.0,0.28213188869612343,-0.07985593981200004,-0.0061880836481999985,0.003017933739653829,0.002226567940143684,0.0006323396539341335,24.94130874198163
1607,B,288996595425678.0,11.717661720708692,-0.28550854,6.4487824,37,1970-01-04 08:16:36.595425678,0.711863,1.9856529,-0.34274885,7.1985720493431975,2.137064141345255,80.31200408935547,32.1910400390625,-16.46097183227539,24981167.0,39859.0,0.4256613069036778,-0.27709170731443,0.20048752348444998,0.014105964491706239,-0.0071137881334061865,0.0038722906862165437,24.981167543970514
1607,B,288996633193333.0,7.332082820708692,-3.0669725,-0.6805518,37,1970-01-04 08:16:36.633193333,-0.25699505,-0.023169503,-1.5883093,3.3627755743081487,1.6091332182452327,80.4903564453125,35.128414154052734,-16.367511749267578,25018935.0,37768.0,0.3597353759201259,-0.4334346519593601,0.1089272666504,0.01483143095844471,-0.013417579768526252,0.005842988896906507,25.01893519895384
1607,B,288996675273802.0,6.924470020708692,-0.7649474,-4.211401,37,1970-01-04 08:16:36.675273802,1.6607473,0.7089335,-1.4921691,4.572071599374858,2.342485202701257,83.73492431640625,36.51387405395508,-14.497411727905273,25061015.0,42080.0,0.29995787178342176,-0.4930075946960001,-0.102926686912,0.013879945931682642,-0.019492344869628777,0.000126252197695936,25.06101566797588
1607,B,288996718367396.0,8.715332900708692,0.8619126,4.156334,37,1970-01-04 08:16:36.718367396,2.9092371,-1.2897689,0.068176925,4.2487376410258095,3.1830508026932396,82.1469497680664,36.178733825683594,-15.576361656188965,25104109.0,43094.0,0.33699083354778037,-0.42023189083560003,-0.0011865286490000044,0.013724333753771413,-0.019677571194749388,-0.002243327455692867,25.104109261999838
1607,B,288996757823178.0,-11.081722079291307,19.612701,16.218323,37,1970-01-04 08:16:36.757823178,1.6951021,0.8005462,0.94116116,32.13057077516255,2.097624770270268,81.52532196044922,36.2720947265625,-15.956561088562012,25143565.0,39456.0,-0.04668412571507783,0.017254377100799998,0.401951233296,0.005727170732123555,-0.007949940390960135,0.007906286093276016,25.143565043981653
1607,B,288996796529741.0,13.419939420708692,-8.517971,-8.103774,37,1970-01-04 08:16:36.796529741,3.2759545,0.119043306,-0.44581318,12.732755442346297,3.308292397330588,85.16251373291016,36.960269927978516,-13.881441116333008,25182271.0,38706.0,0.045251520208450656,-0.16460249031,0.15704086679700002,-2.77252143697557e-05,-0.002851628034937647,0.01081817411309983,25.182271606987342
1607,B,288996832886772.0,5.721383620708692,10.429741,-7.5908165,37,1970-01-04 08:16:36.832886772,2.6559706,1.123854,-4.1409492,13.202165900620464,5.046254840806298,86.4676513671875,36.77205276489258,-13.147470474243164,25218628.0,36357.0,0.3479605409084059,-0.321545489055,-0.28530411340425,0.007148005453012776,-0.008837441042886652,-0.0023316334284498937,25.218628637958318
1607,B,288996874752916.0,4.221416320708692,19.612701,-1.0540473,37,1970-01-04 08:16:36.874752916,0.88656634,3.309244,-2.3534355,20.108370128982433,4.15641123800536,86.82835388183594,36.31285858154297,-12.832762718200684,25260494.0,41866.0,0.2081326311736901,0.218591638386,-0.1809629339254,0.011640698371194516,-0.002155132956054178,-0.009760368101751562,25.2604947820073
1607,B,288996914666564.0,6.603646920708692,19.612701,-3.764882,37,1970-01-04 08:16:36.914666564,1.5992283,3.0503848,-0.47484162,20.06363115017035,3.4767590005170264,87.44258880615234,35.63490676879883,-12.397629737854004,25300408.0,39914.0,0.21603578710896673,0.391664147714,-0.09617137204009998,0.008465129123666981,0.012178874723197699,-0.005530769344153483,25.300408429990057
1607,B,288996954562240.0,-1.3899940792913075,5.841852,7.630321,37,1970-01-04 08:16:36.954562240,0.6045376,-0.2495382,0.023702133,13.812553142128685,0.6544438968939582,86.51912689208984,36.09251403808594,-12.96636962890625,25340304.0,39896.0,0.10400194688059398,0.11678662324399999,0.07710777717200001,0.006384112717623757,0.010142575979070183,-0.0003802805904288582,25.340304105950054
1607,B,288996994699790.0,5.207228720708692,3.6332011,-0.5943606,37,1970-01-04 08:16:36.994699790,-0.8066715,0.087618,-1.0183928,4.9603137359862846,1.3021212377993416,86.77130889892578,36.30824661254883,-12.792623519897461,25380441.0,40137.0,0.07660617340128477,-0.20319249686265,0.1412011712874,0.003624534061876884,-0.0017340362747158779,0.00438113313215747,25.380441655986942
1607,B,288997033747765.0,10.044713320708691,2.0374656,3.0867245,37,1970-01-04 08:16:37.033747765,-2.0948424,-0.23702134,0.61598915,3.9960872048563667,2.1963575367801296,85.35587310791016,35.363304138183594,-13.567486763000488,25419489.0,39048.0,0.29777891641663295,-0.2719563033492,0.0486609127836,0.0073094944936050255,-0.00927680517533616,0.003706867329402204,25.419489630963653
1607,B,288997074267915.0,6.625793320708691,1.774702,-3.6140475,37,1970-01-04 08:16:37.074267915,-2.2953787,-0.42397526,1.3771206,4.454539422056719,2.71016227271544,86.70964050292969,35.50990676879883,-12.728802680969238,25460009.0,40520.0,0.3377444645551162,-0.31986148442400003,-0.01068356398,0.012875703698487636,-0.011990228380285033,0.0007694210867609361,25.460009781003464
1607,B,288997114631252.0,9.914827920708692,5.1158104,-3.554791,37,1970-01-04 08:16:37.114631252,-2.7449203,-1.133175,1.6642094,6.381334943797352,3.4041542210988984,87.5840072631836,34.528167724609375,-12.189459800720215,25500373.0,40364.0,0.33382281789428564,-0.25650287874320005,-0.14468149860699997,0.013553570894393827,-0.01163218557744043,-0.003135577693130833,25.50037311797496
1607,B,288997152182655.0,-11.081722079291307,19.612701,0.17896658,37,1970-01-04 08:16:37.152182655,-5.285576,-5.784386,-0.47857004,27.737548673993487,7.850188808682094,87.15921020507812,34.79952621459961,-12.520172119140625,25537924.0,37551.0,-0.021909021274467883,0.09629036579070002,-0.06338279139771,0.005856337488435389,-0.0030080700369396643,-0.003906511076983432,25.537924520962406
1607,B,288997193983489.0,0.781546920708692,14.110228,4.6142254,37,1970-01-04 08:16:37.193983489,-2.076733,-5.553756,2.13479,16.746718805633243,6.301932561121628,86.4619140625,34.521575927734375,-13.080869674682617,25579725.0,41801.0,-0.21527881090195594,0.2951762775645,0.10018010897798998,-0.004957344286403346,0.008181848579445357,0.0007690823360866418,25.579725354968105
1607,B,288997233888127.0,5.154556320708692,7.7973166,2.6443958,37,1970-01-04 08:16:37.233888127,-1.5094798,0.6282397,1.7281252,8.899171320665749,2.378997918061126,85.99182891845703,34.159690856933594,-13.273063659667969,25619629.0,39904.0,0.11843713187275966,0.04604012985919997,0.1448240101824,-0.0019321851799905243,0.006807949760917662,0.004888322185488101,25.61962999298703
1607,B,288997273788854.0,8.158082460708691,-0.15263036,1.7543513,37,1970-01-04 08:16:37.273788854,1.0910971,1.7718011,0.4876248,1.8001509295739708,2.137182716841183,84.41014099121094,34.39106750488281,-14.119952201843262,25659530.0,39901.0,0.2655938000086675,-0.23851448716888002,0.08775720401854999,0.0076616091065004124,-0.0038399596655067716,0.004640111513916052,25.65953071997501
1607,B,288997311450782.0,9.486864420708692,-4.907515,3.8750155,37,1970-01-04 08:16:37.311450782,1.2604742,-0.007190535,-1.056476,6.325505584342449,1.6446849094082507,81.2098388671875,35.47727966308594,-15.993110656738281,25697192.0,37662.0,0.33227199472397073,-0.46437519727416005,0.10600660621079999,0.01125841078061031,-0.013236115647746889,0.003648766310428889,25.697192647960037
1607,B,288997353142917.0,8.438204055708692,-0.57400984,-1.8525136,37,1970-01-04 08:16:37.353142917,1.4407701,-0.60080916,-2.2988408,1.9416520319735007,2.778751365548662,84.63204956054688,36.429710388183594,-14.063655853271484,25738884.0,41692.0,0.3736659774593968,-0.52284946681464,0.0421610746074,0.01471598296813448,-0.020579685347595127,0.0030887034743361966,25.738884783000685
1607,B,288997393480470.0,9.062492170708692,6.1770406,-0.05686229,37,1970-01-04 08:16:37.393480470,2.0604877,-0.41758367,0.09374327,6.200075308810811,2.104465130139307,84.8997802734375,35.48126983642578,-13.984000205993652,25779222.0,40338.0,0.35297154219061216,-0.28230487260156,-0.03851020232541,0.014655552133821031,-0.016239157871685336,7.363444305545632e-05,25.779222335957456
1607,B,288997431560105.0,-6.617733079291309,19.612701,17.628508,37,1970-01-04 08:16:37.431560105,2.3768713,3.7031255,2.5321336,30.412562512820028,5.07684510436973,84.244140625,35.37440490722656,-14.273704528808594,25817301.0,38079.0,0.04654699072104127,0.1178495851932,0.33455534849554497,0.007606633107371427,-0.003131146444611471,0.0056365515605062855,25.817301970964763
1607,B,288997473750834.0,7.649314620708692,-5.5258174,-8.44016,37,1970-01-04 08:16:37.473750834,2.0634172,-0.4631237,-1.5310514,10.126665161555884,2.6108030358875194,87.44705963134766,36.80756378173828,-12.471266746520996,25859492.0,42191.0,0.021761728406970403,-0.1163019470162,0.193832795234,0.0014410065843649704,3.264820116290354e-05,0.011146612086046616,25.859492699964903
1607,B,288997513262447.0,2.055262420708692,11.12406,-9.533113,37,1970-01-04 08:16:37.513262447,3.093528,0.7917578,-4.4402885,16.017728203771885,5.469273979595198,88.74473571777344,36.91574478149414,-11.761717796325684,25899004.0,39512.0,0.19172362403024182,-0.27661871919440006,-0.35507998138799995,0.004217616622749565,-0.007762540681656615,-0.0031855994096584234,25.899004312988836
1607,B,288997553127969.0,5.871619820708692,19.612701,4.0276456,37,1970-01-04 08:16:37.553127969,0.8069378,1.5840483,-1.7006947,20.197904512309094,2.4602276505254186,88.52558898925781,36.31418991088867,-11.854844093322754,25938869.0,39865.0,0.158002580277052,0.22198348863249998,-0.1097377289505,0.006970917567355134,-0.0010890167331750735,-0.00926497901132215,25.938869834993966
1607,B,288997592960521.0,4.200466920708692,19.612701,-1.3245921,37,1970-01-04 08:16:37.592960521,1.4050838,2.5369272,0.2942793,20.128862542158323,2.914937462370466,88.8480224609375,35.7257080078125,-11.604360580444336,25978702.0,39833.0,0.20060071558543932,0.39086931893300003,0.053835365032749986,0.007142122542045308,0.01220588294187828,-0.0011133794309678682,25.978702386957593
1607,B,288997633127396.0,0.5618789207086916,7.9726915,10.466252,37,1970-01-04 08:16:37.633127396,1.4857776,0.39254996,0.21784659,15.382533693519974,1.5521236047855176,87.75269317626953,35.867652893066406,-12.27230167388916,26018869.0,40167.0,0.09564457270610603,0.16037463027374999,0.18359652660165002,0.005949642247403251,0.011070907853893764,0.004768463395639473,26.018869261955842
1607,B,288997672807501.0,4.288453920708692,4.0857053,-2.6372132,37,1970-01-04 08:16:37.672807501,-0.22770028,-1.070857,-0.7305051,6.45383471589398,1.3161382271961743,88.46961212158203,36.14582824707031,-11.888689041137695,26058549.0,39680.0,0.09623060357372089,-0.14962540748800005,0.15532812979200003,0.003806803497391766,0.0002132645800692788,0.006724265182850017,26.0585493670078
1607,B,288997710918020.0,9.827439620708692,3.2986114,2.4851813,37,1970-01-04 08:16:37.710918020,-2.3118901,1.3379722,-0.03435478,4.328535642409166,2.6713640136379198,87.43273162841797,35.142921447753906,-12.370817184448242,26096659.0,38110.0,0.26897835143170823,-0.23276984528150002,-0.002896967854500006,0.006959056637628451,-0.007286541541522823,0.002904575790719063,26.09665988595225
1607,B,288997752693751.0,7.060939520708692,0.2621651,-4.497508,37,1970-01-04 08:16:37.752693751,-1.9755329,1.1470236,0.9488843,4.73910181925611,2.4736157326322656,89.0470962524414,35.43914031982422,-11.332670211791992,26138435.0,41776.0,0.3527644635059263,-0.33502730046800006,-0.0420334801096,0.01298696391841731,-0.011860146780415559,-0.0009385071970741209,26.138435616972856
1607,B,288997792546511.0,9.790329420708693,2.3475149,1.0468647,37,1970-01-04 08:16:37.792546511,-2.4511735,0.5435512,2.0956416,2.862028519176626,3.270384251089503,88.33621978759766,34.13381576538086,-11.643645286560059,26178288.0,39853.0,0.3357868105611535,-0.33855761148,-0.06875924371745,0.013720416962697666,-0.013422189747931823,-0.0022077112113397116,26.178288377006538
1607,B,288997830981147.0,2.463473620708692,9.904214,-3.09271,37,1970-01-04 08:16:37.830981147,-3.115366,-6.443252,1.6684705,12.019991676268935,7.348795510750742,88.4503402709961,33.98372268676758,-11.756875991821289,26216723.0,38435.0,0.23548745994843856,-0.14121539986425002,-0.03931603205274999,0.010978463293518086,-0.009220037845508124,-0.002076936612113818,26.21672301297076
1607,B,288997870294687.0,-4.131354079291308,19.612701,19.612701,37,1970-01-04 08:16:37.870294687,-3.7968688,-2.274606,0.42424157,30.490423543588665,4.446349744381958,87.10456848144531,33.9167594909668,-12.496145248413086,26256036.0,39313.0,-0.032784692234129185,0.1949318396975,0.32472520309150005,0.003984426953576322,0.0010558771995822782,0.005610145370523191,26.25603655294981
1607,B,288997909879896.0,3.6468079207086923,15.136143,-0.6242881,37,1970-01-04 08:16:37.909879896,-1.4468955,-1.1438277,1.1574098,15.917083228442031,2.17748612862254,87.14610290527344,33.4633674621582,-12.47770881652832,26295621.0,39585.0,-0.009590379843746416,0.29983349487000005,0.37582816232325,-0.0008387086141013529,0.009792642884427246,0.01386570248497144,26.29562176199397
1607,B,288997950982761.0,7.373981420708692,2.3469162,3.0484173,37,1970-01-04 08:16:37.950982761,-0.304133,1.8026937,0.9321064,4.017573066115161,2.0520779221632033,85.94319915771484,33.269901275634766,-13.053898811340332,26336724.0,41103.0,0.22649375215013937,-0.04350630885120002,0.04981949125380001,0.004457689655954835,0.005267908163465368,0.008747697752488744,26.336724627006333
1607,B,288997990255104.0,9.665830920708691,-4.295198,5.3923407,37,1970-01-04 08:16:37.990255104,0.7006777,1.2719258,-0.19627498,6.986601029977988,1.4653560481183165,82.64514923095703,33.829864501953125,-14.843745231628418,26375996.0,39272.0,0.3345937551360717,-0.4231220614248,0.16574272408800003,0.01101751429307204,-0.009162714678739537,0.004232779660451586,26.3759969699895
1607,B,288998031951616.0,8.659667710708693,-3.9252937,1.3012487,37,1970-01-04 08:16:38.031951616,1.0319749,0.36218992,-1.8311896,4.137340426507544,2.1329343833151024,80.31744384765625,36.0181770324707,-16.200231552124023,26417693.0,41697.0,0.3820591582171053,-0.58001552120745,0.13955129860590001,0.014941138264043708,-0.020913913891508467,0.006364922432133775,26.41769348195521
1607,B,288998071866249.0,7.915070990708692,5.5138464,-1.1821371,37,1970-01-04 08:16:38.071866249,2.1337247,0.43862265,-0.76938725,5.672744577426997,2.3102224275912646,81.08285522460938,35.40603256225586,-15.803930282592773,26457608.0,39915.0,0.33079034763353743,-0.35946345948975,0.0023771697569999976,0.014226694013014202,-0.01874965175726437,0.002832537407352577,26.457608114986215
1607,B,288998111792190.0,2.9901979207086917,15.0715,-0.92176765,37,1970-01-04 08:16:38.111792190,0.61598915,-1.7004284,1.7502295,16.08436073193419,2.516784193989332,81.41682434082031,34.94749069213867,-15.686783790588379,26497534.0,39926.0,0.21770188327862525,0.019670470183199985,-0.04200025052425,0.010949550405699504,-0.006783287445526658,-0.0007909955613566119,26.497534055961296
1607,B,288998151674584.0,-3.871584079291308,9.939528,4.4161053,37,1970-01-04 08:16:38.151674584,0.5882923,-0.9041432,0.5470133,16.49650358353903,1.209457029713094,81.11101531982422,35.27434539794922,-15.912808418273926,26537416.0,39882.0,-0.017575721388295953,0.10790130934799996,0.06968058707864999,0.003990715794255056,0.002543908855631658,0.0005519735912312903,26.53741644998081
1607,B,288998192065832.0,2.428158920708692,2.8179753,-7.5590935,37,1970-01-04 08:16:38.192065832,3.0786142,-0.2247708,-1.9816582,10.115957830216244,3.6681543760590993,82.62875366210938,35.935604095458984,-15.139598846435547,26577807.0,40391.0,-0.02915069279015522,-0.13818764210485004,-0.06347421819310002,-0.0009436632975409108,-0.0006116476331909659,0.00012534072282812444,26.577807697991375
1607,B,288998231450106.0,5.413130120708692,19.612701,-7.4148426,37,1970-01-04 08:16:38.231450106,3.2067122,1.1587414,-1.9275961,21.19817558139145,3.9167986277619646,83.63982391357422,35.471797943115234,-14.607108116149902,26617191.0,39384.0,0.15441066380359114,0.05574167769960001,-0.2948667496812,0.0024666193491965803,-0.001623525931068184,-0.007056450339380717,26.617191971978173
1607,B,288998269562970.0,3.394818120708692,17.910425,-1.7441759,37,1970-01-04 08:16:38.269562970,0.090281166,1.1054782,-2.313488,18.713945989386147,2.565630422674622,84.02201843261719,35.130348205566406,-14.354574203491211,26655304.0,38113.0,0.16784866566257037,0.341552050619,-0.17453883604525,0.006141134911971907,0.007571027933703402,-0.008945227544396096,26.655304835992865
1607,B,288998308921512.0,7.150722120708692,14.663288,2.0685902,37,1970-01-04 08:16:38.308921512,1.8477012,2.026932,-0.057790596,14.872721443195045,2.7433178470770527,84.12162017822266,34.43232345581055,-14.268732070922852,26694663.0,39359.0,0.20753095918097342,0.2553161849835,0.0063843112168500025,0.0073872833271085205,0.0117460684425394,-0.0033091969713604976,26.694663378002588
1607,B,288998349266197.0,2.643637520708692,9.35235,5.0122614,37,1970-01-04 08:16:38.349266197,1.3965617,-0.36325517,-0.3683152,12.134951875404456,1.4892934522751582,83.60173797607422,34.365516662597656,-14.618368148803711,26735008.0,40345.0,0.19757671986649217,0.08907445755499996,0.142838478901,0.008172034655585,0.00694722023660789,0.003010196733652329,26.735008062969428
1607,B,288998390407813.0,6.621004920708692,5.2810106,0.34117374,37,1970-01-04 08:16:38.390407813,-0.3222425,0.12596752,-0.7488809,5.626345320588397,0.8249428145550516,83.66373443603516,34.04526901245117,-14.572712898254395,26776149.0,41141.0,0.19057832734117627,-0.10216625577770003,0.11012283754737,0.007984543398585344,-0.00026930483534005174,0.005203540760001194,26.776149678975344
1607,B,288998429072968.0,8.900284980708692,3.5110967,0.65182143,37,1970-01-04 08:16:38.429072968,-2.0373182,0.04926848,-0.063116916,3.5900718808196554,2.0388910162777467,83.43976593017578,33.13113784790039,-14.637856483459473,26814814.0,38665.0,0.30006533701915156,-0.20894358562275003,0.019197079124025,0.009485368641246036,-0.006014531008874201,0.0025000772890497436,26.814814833982382
1607,B,288998470939896.0,7.616394320708692,1.3503298,-1.3796587,37,1970-01-04 08:16:38.470939896,-2.3012376,-0.3358246,1.0607371,2.1364479209572815,2.5560977776554887,84.53888702392578,33.15128707885742,-13.982948303222656,26856681.0,41867.0,0.3457519061562208,-0.30852992836225,-0.015236181491545,0.013519215260011657,-0.010832531805005,8.291545058952008e-05,26.85668176197214
1607,B,288998510788645.0,9.263605120708691,3.493739,-3.691859,37,1970-01-04 08:16:38.510788645,-2.19045,-1.0322412,1.9137475,5.135357718556891,3.086425536317649,85.72655487060547,32.39744567871094,-13.3154935836792,26896530.0,39849.0,0.33632554887052063,-0.29400455119440005,-0.10104745441365001,0.01359005225268031,-0.012005198237926475,-0.0023168933035930582,26.896530510974117
1607,B,288998551214479.0,-11.081722079291307,19.612701,2.2691047,37,1970-01-04 08:16:38.551214479,-5.516206,-2.5651567,2.0309267,27.82963193333615,6.413518596742648,85.32475280761719,32.59447479248047,-13.485184669494629,26936956.0,40426.0,-0.03674959808383041,0.07087567171999999,-0.028758132665899994,0.006055328693251368,-0.0045101040408160485,-0.002623760331638944,26.936956344987266
1607,B,288998590648801.0,0.9407614207086921,16.90486,4.2012253,37,1970-01-04 08:16:38.590648801,-1.3965617,-4.9859705,1.4064153,19.001186299219118,5.365472057969478,84.85051727294922,32.28659439086914,-13.906476020812988,26976390.0,39434.0,-0.19994932130527338,0.33356355023699996,0.12757549661,-0.004666992593594959,0.007974328139326168,0.0019483819648858198,26.976390666968655
1607,B,288998628150416.0,4.887602920708692,11.347319,0.23163901,37,1970-01-04 08:16:38.628150416,-1.3885722,0.011451593,1.5592809,11.920312870027354,2.087970502353874,84.89741516113281,31.852407455444336,-13.838082313537598,27013892.0,37502.0,0.10928765976591737,0.16223700842900002,0.08312063867681001,-0.0016999968155244646,0.009296756275546166,0.003950763232762975,27.01389228197513
1607,B,288998670177917.0,7.254271320708692,4.3185415,4.642357,37,1970-01-04 08:16:38.670177917,-0.2082592,1.9329224,0.70200926,6.467827405943576,2.0669731251112453,83.84688568115234,31.51173210144043,-14.299935340881348,27055919.0,42027.0,0.2551432743720242,-0.08267004038325002,0.102419715156135,0.007657969434507636,0.0016719804830293678,0.00389885222526859,27.055919782957062
1607,B,288998710102553.0,7.692410220708692,-2.7150247,6.7163343,37,1970-01-04 08:16:38.710102553,0.8498147,0.84555364,-0.695884,7.292784651948106,1.3861459244644265,80.62984466552734,32.20851516723633,-15.98794174194336,27095844.0,39925.0,0.2983731302705445,-0.35925479588000003,0.22674787507625002,0.011049571227677277,-0.00882192454390513,0.006571008020013986,27.095844418974593
1607,B,288998749977396.0,8.133541890708692,-0.22146365,1.3251907,37,1970-01-04 08:16:38.749977396,1.8767296,-1.2415657,-2.0764668,1.401288414572808,3.0619134132817813,79.04329681396484,32.63533401489258,-16.95475959777832,27135719.0,39875.0,0.3155299202213841,-0.44932123647812505,0.1603279046875,0.012239692069182828,-0.01612098464514012,0.007717323359039766,27.135719262005296
1607,B,288998789888800.0,7.090867020708692,5.1361613,-2.7934349,37,1970-01-04 08:16:38.789888800,2.2037659,0.11851067,-1.5084145,6.021551240131941,2.673189709825494,80.19580078125,32.4156494140625,-16.401670455932617,27175630.0,39911.0,0.3038106920317896,-0.29305255104542505,-0.0292995471331,0.012359251587818209,-0.014814440116926205,0.0026147363891768295,27.17563066596631
1607,B,288998827764011.0,9.163647150708693,6.066907,0.7870938,37,1970-01-04 08:16:38.827764011,2.0618193,0.18056233,1.0761834,6.150316147009048,2.3327820925459535,80.3798828125,31.476726531982422,-16.344284057617188,27213505.0,37875.0,0.3078198621212167,-0.15901689406875003,-0.03799508458125,0.011582753619272556,-0.008561065116849691,-0.0012743920880905028,27.213505877007265
1607,B,288998869689948.0,-11.081722079291307,19.612701,-3.0789435,37,1970-01-04 08:16:38.869689948,-1.3960291,-4.3979445,0.4609932,27.90733721589348,4.6371680801512145,80.55977630615234,31.771432876586914,-16.395126342773438,27255431.0,41926.0,-0.04020860472787734,0.127446822504,-0.048044045261099996,0.005609934788736572,-0.0006618034102118548,-0.0018036382788851827,27.255431814002804
1607,B,288998907827604.0,11.821210920708692,-7.529764,-1.3084313,37,1970-01-04 08:16:38.907827604,2.5313346,-2.2034996,-0.829841,8.320518231288524,3.4571232881744787,80.76935577392578,34.65559768676758,-16.44510841369629,27293569.0,38138.0,0.01410131271698812,-0.143342874347,-0.0836628500612,-0.0004978399513556464,-0.0003031218125941669,-0.002511518786900939,27.293569469999056
1607,B,288998947503073.0,1.360345220708692,15.501858,-14.239514,37,1970-01-04 08:16:38.947503073,1.8474349,2.3779366,-2.6881948,22.23730961348313,4.036581408333618,82.22409057617188,34.701602935791016,-15.591089248657227,27333244.0,39675.0,0.2614891199553674,-0.23066858527500003,-0.30843236488875003,0.005467025208137853,-0.007419452330251425,-0.007778188826569634,27.333244938985445
1607,B,288998987517707.0,8.651886560708691,17.935564,3.3602622,37,1970-01-04 08:16:38.987517707,0.32357407,2.0138824,-0.7653925,18.248021597414432,2.1785885749407514,82.21908569335938,33.93094253540039,-15.52536392211914,27373259.0,40015.0,0.20031972736670833,0.27685222066500004,-0.21766663038849998,0.00923964051279643,0.0009240190850654252,-0.01052592564800958,27.37325957295252
1607,B,288999028288333.0,6.705400520708692,14.792575,-0.6997054,37,1970-01-04 08:16:39.028288333,3.0032468,0.24900557,-0.47351006,14.92128636122519,3.050525674784998,82.68448638916016,33.32065963745117,-15.343886375427246,27414030.0,40771.0,0.3130659757982341,0.26762367758449995,0.05423678064640001,0.010465624251868935,0.011099413423765182,-0.003331599201917579,27.414030198997352
1607,B,288999069321511.0,1.2837309207086918,6.8384385,2.9855695,37,1970-01-04 08:16:39.069321511,0.35313517,1.0178602,-0.5091964,10.402362832213722,1.1916479382804006,82.38768768310547,33.64423751831055,-15.477843284606934,27455063.0,41033.0,0.16390901521783977,0.041669288472749935,0.04689793080765,0.00978585740318128,0.006345609138113567,0.002074930307547017,27.455063376983162
