Subject-id_accel,Activity_accel,Timestamp_accel,accel_x,accel_y,accel_z,Segment_accel,DateTime,gyro_x,gyro_y,gyro_z,accel_magnitude,gyro_magnitude,Roll,Pitch,Yaw,Time_Difference,Difference_Microseconds,vx,vy,vz,dx,dy,dz,Time_diff
1640,B,172725853142625.0,-1.6984708247748261,-3.2244788780355655,3.4334146909791055,205,1970-01-02 23:58:45.853142625,-2.5751102,5.0798464,-1.3219953,20.721392485788602,5.846683124897321,-83.304931640625,-3.3102147579193115,160.24969482421875,15033093.0,49884.0,0.14601678706693258,-0.42840493324792617,0.3065893183068017,0.015745414991885948,-0.010204212742331409,0.01681313128356279,15.033093230013037
1640,B,172725903026345.0,-3.3337110247748263,2.2678201219644354,4.826840090979106,205,1970-01-02 23:58:45.903026345,-0.88773143,3.0995202,-2.6525106,16.18148570958891,4.175033538204244,-83.4237060546875,-2.7081458568573,160.0842742919922,15082976.0,49883.0,-0.12551016360054265,-0.512713904364548,0.20602314464421073,0.0005114659491869644,-0.023472915488311524,0.012785323744692677,15.08297695001238
1640,B,172725952910065.0,-3.0655602247748264,7.592525121964435,4.173222990979105,205,1970-01-02 23:58:45.952910065,-0.4009056,1.6678048,-1.6319872,11.491379622212264,2.367631806674813,-83.55850219726562,-1.8550336360931396,159.99659729003906,15132860.0,49884.0,-0.15961062350626742,-0.24292646892592615,0.22447957339020166,-0.007111482672018057,-0.018847182190611007,0.010737598793214315,15.132860670011723
1640,B,172726002793785.0,-3.099078824774826,12.922017721964435,5.176393490979105,205,1970-01-02 23:58:46.002793785,-0.42114565,0.9636651,-0.543287,8.060683081601868,1.1837123163340544,-83.4600601196289,-0.605381965637207,159.9429168701172,15182744.0,49884.0,-0.15375842717386742,0.02281052761327385,0.2331981342930017,-0.007816050862063923,-0.005490131808220174,0.011415397385034458,15.182744390011067
1640,B,172726052683195.0,-3.7287544247748268,16.194891521964436,4.441373590979105,205,1970-01-02 23:58:46.052683195,0.63666195,0.8922924,2.635462,7.687088076850763,2.854327262091641,-83.37199401855469,0.9591604471206665,159.91419982910156,15232633.0,49889.0,-0.17031688649339133,0.23739454263518367,0.23991039097590658,-0.008083896661772935,0.006490685374812649,0.011801455608570283,15.23263380001299
1640,B,172726102572605.0,-2.6968535247748266,17.420722821964436,3.452568290979105,205,1970-01-02 23:58:46.102572605,1.0329403,-1.1029478,3.4322798,6.697204893941905,3.7502005464210804,-83.5493392944336,3.978055238723755,159.9802703857422,15282523.0,49890.0,-0.1602867903015161,0.3496194998093057,0.19691438024544755,-0.008246908717648965,0.014643065288777787,0.010896593918116678,15.282523210014915
1640,B,172726152462015.0,-4.468562824774827,-3.2244788780355655,-1.714119209020895,205,1970-01-02 23:58:46.152462015,-3.0448918,-4.566123,-0.6029418,22.39163943780052,5.521266533959711,-84.19822692871094,4.374629020690918,160.16650390625,15332412.0,49889.0,-0.17873772813134134,-0.13479399294066635,0.043364743124906575,-0.008456797100048413,0.005358714856084774,0.005993642592911799,15.33241262001684
1640,B,172726202351425.0,3.8872013422251737,-3.2244788780355655,1.8245109909791055,205,1970-01-02 23:58:46.202351425,-0.15909058,-2.0670123,0.22689919,20.058228473505366,2.085505431164993,-84.50318908691406,4.272152900695801,160.247802734375,15382302.0,49890.0,-0.01450206218220109,-0.6497912512251943,0.0027537230009475615,-0.004820366569371316,-0.019571478915717394,0.0011504251375094314,15.382302030018764
1640,B,172726252240835.0,2.8241757752251737,3.1225501219644354,3.8907072009791053,205,1970-01-02 23:58:46.252240835,-1.4469953,-2.223606,0.61039436,13.63055026665572,2.722278515541329,-84.72386169433594,4.302533149719238,160.34996032714844,15432191.0,49889.0,0.1674119465062402,-0.49145476185581644,0.1425632601893016,0.0038142606095209934,-0.028467811173299273,0.0036248594871891703,15.432191440020688
1640,B,172726302130245.0,4.279850415225174,10.077706121964436,5.236248590979105,205,1970-01-02 23:58:46.302130245,-2.0584571,-1.4534199,-0.43356475,6.738235738859824,2.556883538743793,-84.70581817626953,4.093692779541016,160.42918395996094,15482080.0,49889.0,0.17720638130768873,-0.1596384081233163,0.22766734875250158,0.008596331878154551,-0.016241193578544477,0.00923521742474881,15.482080850022612
1640,B,172726352019655.0,5.749890275225174,11.317902521964434,7.0510533909791056,205,1970-01-02 23:58:46.352019655,-1.5663049,-1.2861733,0.4239731,6.416922491984921,2.0705810747035502,-84.22886657714844,3.6139631271362305,160.5326385498047,15531970.0,49890.0,0.2501918815232839,0.04479145762280563,0.3065067479399476,0.010661449666318611,-0.002864857180235239,0.013324972841993145,15.531970260024536
1640,B,172726401909065.0,6.793762175225174,14.111936121964435,6.1101321909791055,205,1970-01-02 23:58:46.401909065,-0.3199455,-0.19108154,1.8482317,4.364149176179137,1.8854277219728979,-83.66539764404297,2.709887981414795,160.58349609375,15581859.0,49889.0,0.31289513855025874,0.14542241005348366,0.3282991937491566,0.014045924172224488,0.004744789822251199,0.01583491681246386,15.581859669997357
1640,B,172726451798475.0,8.871929175225173,9.438454121964435,2.8827481909791053,205,1970-01-02 23:58:46.451798475,-0.78333557,1.1266506,3.3981915,8.868630237791269,3.6647867141731227,-84.02777099609375,2.0338127613067627,160.5331573486328,15631749.0,49890.0,0.39078067073698386,0.09854248463480562,0.22432740112794755,0.017553193062670266,0.006085704297999376,0.013785270409209363,15.631749079999281
1640,B,172726501687885.0,5.160916675225174,6.5845651219644346,-2.125921609020895,205,1970-01-02 23:58:46.501687885,0.032657012,2.4923196,-1.3496921,11.935663378555683,2.8345003499345944,-84.8978500366211,1.7910133600234985,160.3731689453125,15681638.0,49889.0,0.3500423233165587,-0.08922599646981635,0.018878660673656577,0.018479459175168595,0.00023239513903157487,0.0060666536086101145,15.681638490001205
1640,B,172726551577295.0,0.7651622752251734,1.5064641219644344,-1.9774811090208946,205,1970-01-02 23:58:46.551577295,-0.98999685,2.2462435,-0.9385001,16.665950039525242,2.628019418117412,-85.58616638183594,1.9863256216049194,160.23606872558594,15731527.0,49889.0,0.1478230763795087,-0.2870855210248164,-0.10235732910019342,0.012419003462718554,-0.009386902648144867,-0.0020823336445657484,15.73152790000313
1640,B,172726601466705.0,-3.376806824774826,5.655615121964434,-0.4068849090208948,205,1970-01-02 23:58:46.601466705,0.01774331,2.2984414,-1.4785892,13.988312229085192,2.733015498792562,-86.13571166992188,2.630927085876465,160.0937042236328,15781417.0,49890.0,-0.06514747328851608,-0.3102639332601944,-0.059478010320052434,0.0020623429191048105,-0.014900882137139596,-0.0040369825418380325,15.781417310005054
1640,B,172726651356115.0,-2.2754738247748265,9.795190121964435,0.5460073909791054,205,1970-01-02 23:58:46.651356115,-0.1047621,2.1929803,-0.43569556,9.939222332239781,2.2382958505944237,-86.72293090820312,3.4655494689941406,159.9519500732422,15831306.0,49889.0,-0.14099331466269133,-0.10349958859281637,0.0034703407512065854,-0.005142078885048893,-0.010321124170862428,-0.0013970833135600754,15.831306720006978
1640,B,172726701245525.0,-0.8269818247748266,12.208545621964436,1.6640996909791053,205,1970-01-02 23:58:46.701245525,0.48645967,1.0243852,-0.052200355,6.979741366987644,1.1352237337096485,-87.25113677978516,4.386446475982666,159.86314392089844,15881196.0,49890.0,-0.07739075617801609,0.05996118813230565,0.055131121159447564,-0.005447590647121446,-0.0010860653994874399,0.0014618134673612677,15.881196130008902
1640,B,172726751134935.0,-1.7559322247748264,13.388887121964435,2.2746210909791054,205,1970-01-02 23:58:46.751134935,0.54611444,0.7218501,0.16617885,6.828029622573576,0.9202847160709811,-87.64015197753906,5.534287452697754,159.79185485839844,15931085.0,49889.0,-0.06442949950899132,0.1496029610809337,0.09824942054555659,-0.0035376353679845564,0.005227472920049649,0.0038260009225604763,15.931085540010827
1640,B,172726801024345.0,-3.601861424774826,13.630701521964435,-3.643845309020895,205,1970-01-02 23:58:46.801024345,0.8965865,-1.2020174,1.6660712,11.218984311224542,2.2415410826827262,-88.5963134765625,6.538242816925049,159.7501678466797,15980974.0,49889.0,-0.1336474836911913,0.18507792892848368,-0.03415461350694342,-0.004940931307436956,0.008348447460839912,0.0015988129141746863,15.980974950012751
1640,B,172726850913755.0,1.5169416752251736,-0.15271787803556336,-7.007699609020895,205,1970-01-02 23:58:46.850913755,-1.8145115,-3.6031234,-0.24501322,20.32186205121111,4.041655811327157,-89.48200225830078,6.558333873748779,159.83810424804688,16030864.000000002,49890.00000000186,-0.05200832315251802,-0.15271369800220005,-0.26570278798056235,-0.004631184101716502,0.0008073257404561752,-0.007479942880106111,16.030864360014675
1640,B,172726900803165.0,1.5217299752251736,-1.3234818780355653,-6.409148609020894,205,1970-01-02 23:58:46.900803165,-0.52873737,-1.5322495,-1.5148084,20.99736386939233,2.2185572396031,-90.2309799194336,6.505517959594727,159.83135986328125,16080753.000000002,49889.0,0.07579814498465869,-0.5257352648153163,-0.3346765703749434,0.0005934252106918329,-0.016923570153001537,-0.014976162904498913,16.0807537700166
1640,B,172726950692575.0,3.0013467252251735,4.305286121964436,-1.4363916090208946,205,1970-01-02 23:58:46.950692575,-0.5329984,-2.856373,-1.1622059,13.604239669372845,3.1294850316827483,-90.82044982910156,6.397614002227783,159.9102783203125,16130643.0,49889.99999999814,0.11282814829272969,-0.4145408931351789,-0.19570700073904512,0.004705282885804278,-0.023455188760074228,-0.013230418181437952,16.130643180018524
1640,B,172727000581985.0,5.199223875225174,8.602878121964435,2.9282380909791055,205,1970-01-02 23:58:47.000581985,-0.8259461,-3.4337466,-1.6415749,8.282413059193544,3.8945565633877726,-91.02284240722656,5.9441351890563965,160.06488037109375,16180532.0,49889.0,0.2045591333429337,-0.16692449701731632,0.0372133645692066,0.007917067046760807,-0.014504363424658918,-0.003953544507438537,16.180532590020448
1640,B,172727050471395.0,7.112191075225174,13.973072221964435,6.102949590979105,205,1970-01-02 23:58:47.050471395,1.8244318,-2.9501164,-0.8064076,4.656185686736715,3.561183986223958,-90.27781677246094,4.846360683441162,160.2729034423828,16230422.0,49890.0,0.30710824593898395,0.07423508132930562,0.22528297672644756,0.012763542776187435,-0.0023121374743374267,0.006547971233620092,16.230422000022372
1640,B,172727100366495.0,6.659686875225173,18.244328221964434,6.797268090979106,205,1970-01-02 23:58:47.100366495,2.3400197,-1.2893691,0.06391347,4.14640088122533,2.672498794025984,-88.08192443847656,2.8688535690307617,160.47500610351562,16280317.0,49895.0,0.34357392516886004,0.3147725975749155,0.3218281806206525,0.016232893463712938,0.009704769069463057,0.013649055597916779,16.280317099997774
1640,B,172727150261595.0,6.788973875225174,19.017655321964433,6.203505990979105,205,1970-01-02 23:58:47.150261595,4.0273986,-1.812414,-4.26106,4.244375920290578,6.1368897916027425,-86.08535766601562,0.41739821434020996,160.6055450439453,16330212.0,49895.0,0.3355104640718601,0.4406223344621654,0.3243368114096525,0.016941457800582867,0.018845215066995078,0.016120201138676033,16.33021220000228
1640,B,172727200156695.0,11.922142175225174,-3.2244788780355655,10.129996990979105,205,1970-01-02 23:58:47.200156695,-7.0396338,-0.25712794,2.6216137,22.3092334497264,7.516343340192675,-86.1369857788086,0.02485334873199463,160.62966918945312,16380106.999999998,49894.99999999814,0.4667955676685926,-0.09497073066508106,0.40748006564238726,0.020015529726844197,0.00862314338572744,0.01825700154025508,16.380107300006784
1640,B,172727250051795.0,-0.5995325247748267,0.16331712196443604,2.7486728909791056,205,1970-01-02 23:58:47.250051795,-0.040846232,3.5788894,0.1097201,17.204401503340268,3.5808038556230595,-86.34298706054688,0.4188069999217987,160.45071411132812,16430002.000000002,49895.000000003725,0.28247080425463117,-0.5653393329096268,0.32129061688017646,0.018692322813556022,-0.016473085311031255,0.018181006602233016,16.43000240001129
1640,B,172727299946895.0,1.0859851752251735,4.554282621964434,4.484469210979105,205,1970-01-02 23:58:47.299946895,-0.245377,2.1226728,0.17363597,12.487939324560605,2.143851472949253,-86.39876556396484,0.7505131959915161,160.34486389160156,16479897.000000002,49895.0,0.012135777497110027,-0.37127868038833456,0.18044881258860246,0.007349697698251564,-0.023366277886750893,0.012517144416672362,16.479897500015795
1640,B,172727349841995.0,0.8609301752251737,9.548587721964434,4.113367952979106,205,1970-01-02 23:58:47.349841995,-0.5425858,3.353053,-0.041547444,7.789404162263115,3.3969236025076537,-86.50520324707031,1.3064141273498535,160.17587280273438,16529792.0,49894.99999999814,0.04857067070535822,-0.13713964209482946,0.21449454264783946,0.0015144741165310199,-0.01268376610014826,0.009852849354760766,16.5297926000203
1640,B,172727399737095.0,1.1649941752251736,14.222069121964434,4.472498210979105,205,1970-01-02 23:58:47.399737095,0.49924284,4.3256397,-0.73396933,3.740124606731101,4.415780022248391,-86.39446258544922,2.3209855556488037,159.96075439453125,16579687.0,49895.0,0.05054174773286004,0.10404746161391543,0.2141958961253475,0.0024726070589874503,-0.0008255671725476028,0.010694754721294083,16.579687700024806
1640,B,172727449632195.0,-4.324910824774827,15.232422421964435,5.039923990979105,205,1970-01-02 23:58:47.449632195,0.9775466,2.0044284,-1.1654015,8.443084477352613,2.5162454614167453,-86.20362854003906,3.6584839820861816,159.8651123046875,16629582.0,49895.0,-0.07883202061463998,0.2458449277921655,0.23731115288335244,-0.0007057715827182051,0.008728940384708204,0.011263972105144543,16.629582800000207
1640,B,172727499527295.0,-6.264213824774826,16.355303021964435,0.6681117909791054,205,1970-01-02 23:58:47.499527295,1.144793,-1.0049436,2.5001736,10.75783815706781,2.9276835010237905,-86.59980010986328,5.133774280548096,159.88938903808594,16679476.999999998,49894.99999999814,-0.2641721871946301,0.2990637805124043,0.14240122267039715,-0.008557097474321446,0.013594110000427748,0.009472874489126815,16.679477900004713
1640,B,172727549422395.0,3.133027815225174,-3.2244788780355655,5.578619390979105,205,1970-01-02 23:58:47.549422395,-3.6382442,-7.056711,0.9182558,20.003494580752047,7.992320358355781,-86.72728729248047,5.088054656982422,160.24783325195312,16729372.999999998,49896.0,-0.07811682856624473,-0.1613929992572626,0.15584344952749346,-0.008539426365202305,0.003434610650753275,0.007440608081992976,16.72937300000922
1640,B,172727599317495.0,0.9088144752251734,-3.2244788780355655,-2.288727609020895,205,1970-01-02 23:58:47.599317495,1.3184311,-2.6007097,0.6476786,21.14084745484116,2.9868778143772907,-87.15941619873047,5.199977397918701,160.3343963623047,16779268.0,49895.00000000186,0.1008338605410138,-0.6498563736196088,0.08207457523040551,0.0005667331551905726,-0.020238643729846503,0.005935459922647906,16.779268100013724
1640,B,172727649212595.0,5.450614975225173,5.861517121964434,0.5771319909791055,205,1970-01-02 23:58:47.649212595,0.19670774,-2.674213,1.2644668,11.496983974452936,2.9646223018535003,-87.64197540283203,4.948196887969971,160.42694091796875,16829163.0,49895.0,0.15865186621511004,-0.42318348840958453,-0.04270003168109754,0.0064735201682484,-0.026769661957973305,0.0009822964251963607,16.82916320001823
1640,B,172727699107695.0,5.134580475225174,12.486273121964434,2.0471717909791054,205,1970-01-02 23:58:47.699107695,-1.317033,-2.5644908,-0.07776643,4.835539349399594,2.883961962996146,-88.35188293457031,4.479193210601807,160.5017547607422,16879058.0,49895.0,0.26407416350011004,-0.031239502889584603,0.06546981860040246,0.010545957626320454,-0.011336717575436023,0.0005680492591693596,16.879058300022734
1640,B,172727749002795.0,8.345204875225173,13.736046221964436,2.5762904909791056,205,1970-01-02 23:58:47.749002795,-0.3859919,-4.254,1.265532,5.527333639134163,4.455005835000624,-88.7684555053711,3.3378219604492188,160.6886444091797,16928953.0,49895.0,0.33628694503036,0.16521031183266546,0.11534382527915249,0.014977508755063903,0.0033422367561075097,0.004510848380685197,16.928953399998136
1640,B,172727798897895.0,11.565406175225174,18.057580421964435,3.4453856909791054,205,1970-01-02 23:58:47.798897895,2.336824,-3.480618,-0.8479526,7.777157726238087,4.2772037221468375,-88.87459564208984,0.4368204176425934,160.8511199951172,16978848.0,49895.0,0.4967199691811101,0.30420050069941545,0.15022576654940248,0.02078143999229065,0.01171062624564409,0.006625297392142876,16.97884850000264
1640,B,172727848792995.0,8.728277175225173,21.098216521964435,5.104567490979106,205,1970-01-02 23:58:47.848792995,2.4912872,2.7224166,-6.5034413,6.58303065101336,7.477487064474608,-88.0954818725586,-2.6735007762908936,160.6925048828125,17028743.0,49895.0,0.5062766653853601,0.4878682442586655,0.21329995700690246,0.02502225854084702,0.019760135014841727,0.009069057988420918,17.028743600007147
1640,B,172727898688095.0,8.905448175225173,2.045160121964434,9.248930690979105,205,1970-01-02 23:58:47.898688095,-0.19211379,2.2142856,-0.7936241,16.322407562996148,2.3600439908561737,-87.68814086914062,-3.0842387676239014,160.5597381591797,17078638.0,49895.0,0.43991736318036007,0.08839838882441543,0.3580838958944025,0.023605175527643307,0.014376411828840162,0.014254598670255305,17.078638700011652
1640,B,172727948583195.0,10.126491175225175,-3.2244788780355655,1.1493463909791055,205,1970-01-02 23:58:47.948583195,-0.776944,2.9791453,-0.1683139,21.075888978913724,3.083387466177629,-87.97250366210938,-3.434924602508545,160.4248504638672,17128533.0,49895.0,0.47479930694536004,-0.5183920546670846,0.25941101750215245,0.022819894127961402,-0.010727266978609989,0.015404954351960555,17.128533800016157
1640,B,172727998478295.0,1.5552487752251736,3.323663121964435,5.147663090979106,205,1970-01-02 23:58:47.998478295,0.16368453,2.961036,-0.07776643,13.634505181408795,2.9665762144755807,-87.89328002929688,-3.0997273921966553,160.27301025390625,17178428.0,49895.0,0.29143020741386005,-0.48649660107458464,0.15709464405115248,0.019115510809476644,-0.025069459739115292,0.010390774991601076,17.178428900020663
1640,B,172728048373395.0,1.9071965752251736,11.593236121964434,5.2673731909791055,205,1970-01-02 23:58:48.048373395,-0.930342,3.15811,-0.13635598,5.626994343588573,3.295115773739333,-87.6772232055664,-2.5146284103393555,160.10208129882812,17228324.0,49896.0,0.08638108660303527,-0.11683399766246262,0.2598343251622935,0.009425636163133506,-0.015051891777291857,0.010401543923937051,17.228324000025168
1640,B,172728098268495.0,1.0668316752251736,13.838997121964436,5.3391992909791055,205,1970-01-02 23:58:48.098268495,-0.030193588,4.77092,-0.6594008,4.245698122386337,4.816367792662533,-87.28439331054688,-1.527951717376709,159.8487091064453,17278219.0,49895.0,0.07419456977811004,0.14549963885291545,0.26460746699365245,0.004005961187568623,0.0007151360835988219,0.01308351160981046,17.27821910000057
1640,B,172728148167175.0,-5.651297824774828,15.737598971964434,5.193152890979105,205,1970-01-02 23:58:48.148167175,1.0893993,3.7163084,-1.7885811,9.697131271504794,4.265766204332847,-87.06941986083984,-0.18897971510887146,159.6571502685547,17328117.0,49898.0,-0.1143778459651143,0.24890609594743135,0.2627716545876754,-0.0010025325575895693,0.009840028677533853,0.013157581704332547,17.328117780009052
1640,B,172728198065855.0,-4.288996824774827,16.211650921964434,2.739096090979105,205,1970-01-02 23:58:48.198065855,1.2768859,-0.61292624,3.139332,8.344770158238342,3.44405597856994,-87.23914337158203,1.377671718597412,159.69424438476562,17378016.0,49899.0,-0.2480053813589391,0.30810761022857824,0.19790564597536636,-0.009041280330121469,0.013897213462238352,0.011493668310397609,17.378016460017534
1640,B,172728247964535.0,-2.689670824774826,-3.2244788780355655,1.0607606909791052,205,1970-01-02 23:58:48.247964535,-3.6510274,-6.5017085,0.3376867,21.21820978231019,7.464331637988756,-87.6811294555664,1.7949565649032593,160.01181030273438,17427915.0,49899.0,-0.17411426852243905,-0.16498675108999672,0.09480452678146636,-0.010531674204715444,0.0035707938750780396,0.007302972455196599,17.427915140026016
1640,B,172728297863215.0,8.417030875225173,-3.2244788780355655,-0.6630643090208945,205,1970-01-02 23:58:48.297863215,1.7381454,-2.9426596,1.7438357,20.97240425546642,3.836842178355504,-87.96865844726562,1.5281524658203125,160.15122985839844,17477813.0,49898.0,0.1428919058986857,-0.6498954470562187,0.009922127033475397,-0.0007789667251000225,-0.020330495961549927,0.002612825286028982,17.477813820005395
1640,B,172728347761895.0,5.467374475225173,5.897430121964435,1.4438330909791053,205,1970-01-02 23:58:48.347761895,-0.5202152,-2.9298763,1.9046906,11.231029133474161,3.533078723909374,-88.3756332397461,1.3865457773208618,160.29129028320312,17527712.0,49899.0,0.3464089712910609,-0.42232140293959664,0.019479790725466378,0.012207812235445582,-0.026751274298970593,0.0007335631471267178,17.527712500013877
1640,B,172728397660575.0,7.0858548752251735,11.514227121964435,3.735084090979105,205,1970-01-02 23:58:48.397660575,-1.8667095,-4.023903,1.4349091,6.084542285858286,4.662120100990756,-88.58074951171875,0.6813316345214844,160.49293518066406,17577611.0,49899.0,0.31319679567906095,-0.05459805759259669,0.12921139423126637,0.016456834083021055,-0.011898902080547957,0.0037097707190780036,17.57761118002236
1640,B,172728447559255.0,9.015581175225174,12.823855621964436,4.568266290979105,205,1970-01-02 23:58:48.447559255,0.6558367,-4.578906,1.6170692,6.414962828439107,4.900144358229819,-88.45953369140625,-0.3889361321926117,160.72372436523438,17627509.0,49898.0,0.40171472802268565,0.11821042637828134,0.2071602886794754,0.017836327604834876,0.0015870649888340466,0.008392137116940096,17.627509860001737
1640,B,172728497457935.0,15.724135175225173,18.517267221964435,9.148374390979106,205,1970-01-02 23:58:48.497457935,3.8644133,-5.9307265,-0.25673085,12.962256005104512,7.08329850425357,-87.1346206665039,-3.040661334991455,160.9814453125,17677408.0,49899.0,0.6172435530855609,0.2929351443946033,0.3422233266945164,0.025422499634510196,0.010257876417998085,0.013706846511773407,17.67740854001022
1640,B,172728547356615.0,11.285284575225173,21.476500421964435,6.210688590979105,205,1970-01-02 23:58:48.547356615,2.1077921,4.020974,-6.5364647,9.019883619105453,7.95841631355413,-86.15414428710938,-6.088606357574463,160.69215393066406,17727307.0,49899.0,0.6738715180638609,0.5088143058322033,0.38320094186836634,0.032212675467642504,0.02000324790843371,0.01809897278850964,17.7273072200187
1640,B,172728597255295.0,6.441814475225174,0.2542961219644333,9.878605390979105,205,1970-01-02 23:58:48.597255295,-2.996955,-1.1231879,0.8127946,17.624327292011685,3.302109233886815,-85.92745208740234,-6.109776020050049,160.71060180664062,17777205.0,49898.0,0.44227339420968576,0.05316124297448129,0.40141179555587536,0.027846699416312716,0.014020727967177975,0.019575303185997407,17.77720589999808
1640,B,172728647153975.0,3.918325965225174,-1.4503738780355633,8.540246690979107,205,1970-01-02 23:58:48.647153975,1.4483935,3.3658364,-1.6447704,18.697191278973342,4.016462133659842,-85.59307098388672,-6.027919769287109,160.51023864746094,17827104.0,49899.0,0.25848032391901593,-0.5188517419750966,0.45954115001881646,0.01748345489045204,-0.011618745104815854,0.021480345515615774,17.827104580006562
1640,B,172728697052655.0,2.4889874752251737,4.2717671219644355,8.152386390979105,205,1970-01-02 23:58:48.697052655,-1.554587,3.0750191,-1.429587,13.164618345477193,3.7304426274240985,-85.31463623046875,-5.785449981689453,160.31552124023438,17877003.0,49899.0,0.15985926668251593,-0.4186178492605966,0.41647284907831644,0.01043736361571292,-0.023389397566534926,0.02185611127047392,17.877003260015044
1640,B,172728746951335.0,-0.09914442477482632,9.397752721964435,6.797268090979106,205,1970-01-02 23:58:48.746951335,-1.3223593,4.028431,-1.8855202,8.778803772510479,4.640266895843981,-85.01483917236328,-5.0843658447265625,160.07305908203125,17926901.0,49898.0,0.059624194265685715,-0.14795954941381861,0.3729789296703754,0.005475892867196683,-0.014135539519527982,0.019696032428001112,17.926901940023527
1640,B,172728796850015.0,-0.8269818247748266,14.145454821964435,6.837969490979106,205,1970-01-02 23:58:48.796850015,-0.0024967135,4.594086,-1.614943,6.0686800337831865,4.869668705592127,-84.39862060546875,-3.9659650325775146,159.7895050048828,17976800.0,49899.0,-0.023106386863139067,0.09838105661725333,0.3401923600510664,0.0009111010357898376,-0.0012369586060279056,0.01779326709290511,17.976800620002905
1640,B,172728846748695.0,-5.787767824774827,15.531697621964435,5.616926690979105,205,1970-01-02 23:58:48.846748695,0.5993777,6.1376543,-1.7683413,9.911336467630475,6.4153787796864705,-84.145751953125,-2.6087160110473633,159.46377563476562,18026699.0,49899.0,-0.16503469638143906,0.25141991489980337,0.3107434322917664,-0.004694025956410602,0.008727359338864807,0.016240522551057505,18.026699300011387
1640,B,172728896647375.0,-8.481244824774826,2.705959121964435,0.8931667909791052,205,1970-01-02 23:58:48.896647375,1.4601114,-1.9551594,2.2306614,18.980821225041144,3.3061191541244064,-84.4236831665039,-1.524897575378418,159.5856475830078,18076597.0,49898.0,-0.3559975965936143,-0.03398910189571866,0.1624203222813754,-0.012999234677434607,0.005424681353638909,0.011804962512845314,18.07659798001987
1640,B,172728946546055.0,4.8712182252251734,-3.2244788780355655,2.8444409909791055,205,1970-01-02 23:58:48.946546055,4.080662,-1.9839215,4.368647,19.991341213178085,6.298636637163256,-84.44949340820312,-1.3467366695404053,159.7116241455078,18126496.0,49899.0,-0.09006835864546407,-0.5019470086540967,0.09325144535596638,-0.011129122550237385,-0.013371337990162619,0.006378882766667858,18.126496659999248
1640,B,172728996444735.0,4.433079325225174,-3.2244788780355655,5.504399190979106,205,1970-01-02 23:58:48.996444735,-0.96229994,-1.7847171,3.559046,19.988335421542025,4.096101162284986,-84.53640747070312,-1.1803724765777588,159.81842041015625,18176395.0,49899.0,0.2321375717349609,-0.6499084715350967,0.2082993881197664,0.003544555831976401,-0.02873821830298028,0.007523542519802794,18.17639534000773
1640,B,172729046343415.0,7.468926975225173,6.723429121964434,5.006405190979105,205,1970-01-02 23:58:49.046343415,-2.227834,-3.2803483,2.636527,10.631590130699099,4.761848792496239,-84.65555572509766,-1.513087511062622,159.9947052001953,18226294.0,49899.0,0.29694910619308595,-0.40171314088909676,0.26223931392766636,0.013200448070965804,-0.026237433419177416,0.011739705346732424,18.226294020016212
1640,B,172729096242095.0,8.780949675225173,10.204598821964435,7.742977790979106,205,1970-01-02 23:58:49.096242095,-1.5215638,-4.161322,2.6514409,8.900038626661589,5.163515859503798,-84.24861145019531,-2.1522459983825684,160.19911193847656,18276192.0,49898.0,0.4054181725520857,-0.06666303082691867,0.3180843560168754,0.017523361237413285,-0.011685517108142869,0.014478495241446373,18.276192700024694
1640,B,172729146149575.0,23.432865175225174,11.200586721964434,11.884946390979106,205,1970-01-02 23:58:49.146149575,-0.5500426,-1.792174,4.135354,21.71437565633627,4.5404390991848755,-83.80459594726562,-3.2257235050201416,160.2870635986328,18326100.0,49908.0,0.803863535778138,0.04504660006320097,0.48979522003658527,0.030176415749672402,-0.0005394164132778115,0.02015982694083806,18.326100180012872
1640,B,172729196057055.0,13.267683175225173,16.755134707964434,9.500321390979106,205,1970-01-02 23:58:49.196057055,0.59405136,4.8145957,-0.4005418,10.795394734328626,4.86761363568675,-83.04068756103516,-4.450323581695557,159.99649047851562,18376007.0,49907.0,0.9158071332629627,0.20850449470172996,0.5336372795970943,0.0429118020399171,0.006326987243216704,0.02553822287960902,18.37600766000105
1640,B,172729245964535.0,10.432948675225173,8.255719121964436,2.4039079909791052,205,1970-01-02 23:58:49.245964535,1.9245666,3.4947333,-0.17150997,10.792399294934683,3.9933110454576224,-83.28764343261719,-5.2137932777404785,159.85079956054688,18425915.0,49908.0,0.5914255671961379,0.13502244647204498,0.29705813999738523,0.0376114848072564,0.00857237129005038,0.020729173500560645,18.425915140018333
1640,B,172729295872015.0,-0.25476782477482596,-0.8494298780355649,-0.11479210902089498,205,1970-01-02 23:58:49.295872015,0.914696,3.7216346,-2.886869,18.529288891674586,4.798046007646671,-83.70640563964844,-4.894568920135498,159.69100952148438,18475822.0,49907.0,0.25398123585171273,-0.30427576135162093,0.0571214531604442,0.02109585865985454,-0.004223462592847498,0.008838020477863896,18.47582262000651
1640,B,172729345779495.0,-1.8780364247748262,0.3764001219644335,2.126180490979105,205,1970-01-02 23:58:49.345779495,-0.245377,2.3964458,-2.5417233,17.44285660166148,3.501930850006826,-84.01512145996094,-4.420385837554932,159.5824737548828,18525730.0,49908.0,-0.05322199724326202,-0.5009023845329991,0.050192185683385175,0.005009746040235279,-0.020092415452404807,0.0026779045437089186,18.525730100023793
1640,B,172729395686975.0,-2.976974824774826,5.174381121964435,3.2969451909791054,205,1970-01-02 23:58:49.395686975,0.84332323,2.936535,-2.3286705,13.46653594306527,3.8415020726342037,-84.1727523803711,-3.6949477195739746,159.43919372558594,18575637.0,49907.0,-0.12114952321563725,-0.35057718022962103,0.1353259667047442,-0.004351179735771143,-0.02124739531930404,0.004629327215617186,18.57563758001197
1640,B,172729445594455.0,-5.864381824774826,7.882223121964435,8.609678990979106,205,1970-01-02 23:58:49.445594455,-1.2914667,2.0811274,-1.9451753,13.942193081569252,3.12772831939888,-83.8594970703125,-2.7151856422424316,159.30435180664062,18625545.0,49908.0,-0.22062721383286205,-0.16328389769699903,0.2971178998365852,-0.008528696696308251,-0.012822889338580877,0.010791204245672334,18.62554506000015
1640,B,172729495501935.0,-1.3680715247748263,10.930041721964436,7.924936990979106,205,1970-01-02 23:58:49.495501935,-0.51701945,1.0776484,0.13315566,8.732832990912891,1.2026494150378564,-83.35710906982422,-1.786198377609253,159.2305908203125,18675452.0,49907.0,-0.18047502465798726,-0.01965674921702096,0.4125965399057942,-0.010008904708181408,-0.004565009432768998,0.017709859272111463,18.67545254001743
1640,B,172729545409415.0,-2.2299842247748267,12.601194821964434,4.087031734979106,205,1970-01-02 23:58:49.545409415,0.4971123,3.3541186,1.3305129,7.404959181359309,3.642457521885967,-83.4193344116211,-0.484756201505661,159.0738067626953,18725360.0,49908.0,-0.08978588317426205,0.09810007671720099,0.29974666758756124,-0.0067440906940459495,0.0019574747944394923,0.017775812399789193,18.72536002000561
1640,B,172729595316895.0,-9.118102824774827,11.284383721964435,-3.619903309020895,205,1970-01-02 23:58:49.595316895,0.89126015,1.0222546,2.612026,16.093155966244378,2.9431325058303415,-84.11084747314453,0.8155179023742676,159.036376953125,18775267.0,49907.0,-0.28317449019093727,0.10694018419592899,0.01165648917714821,-0.009306666676768502,0.0051164721506957896,0.007770598672328178,18.775267500022892
1640,B,172729645224375.0,-0.17097032477482665,-3.2244788780355655,-5.451467609020895,205,1970-01-02 23:58:49.645224375,-2.3471437,-5.0540137,2.2040298,22.47021025372578,5.9924857436230425,-84.95848083496094,1.1455228328704834,159.2861785888672,18825174.0,49907.0,-0.23179488683728727,-0.287965764477021,-0.2263624542033558,-0.012850288349673802,-0.0045172218175442294,-0.005357665298281471,18.82517498001107
1640,B,172729695131855.0,2.3189992752251736,-3.2244788780355655,0.30179879097910556,205,1970-01-02 23:58:49.695131855,-3.8619497,-4.141082,1.1153295,20.349876524675516,5.771236913316272,-85.53532409667969,1.2699897289276123,159.48899841308594,18875082.0,49908.0,0.05360191442953796,-0.650025691844999,-0.12850483568541482,-0.004446627433462976,-0.023406638801059688,-0.008855358351884382,18.87508245999925
1640,B,172729745039335.0,6.219153675225174,2.638921121964435,7.168369290979106,205,1970-01-02 23:58:49.745039335,-0.23578963,-3.919507,0.68496263,14.583423593655327,3.985888317196187,-85.34809112548828,1.032970905303955,159.69100952148438,18924989.0,49907.0,0.21305679964906277,-0.503700315466121,0.18640683923314424,0.006654068221760364,-0.028789501923438033,0.0014448576455282662,18.92498994001653
1640,B,172729794946815.0,8.211129775225174,10.360221821964435,8.418142390979106,205,1970-01-02 23:58:49.794946815,-0.88879675,-3.2174978,0.5102593,8.798561799312889,3.376776022932509,-84.77024841308594,0.3284946084022522,159.86105346679688,18974897.0,49908.0,0.360093293222538,-0.16471778697719902,0.3889458125115852,0.014302387417517926,-0.016679705328370608,0.01435735007163798,18.97489742000471
1640,B,172729844854295.0,18.458312175225174,7.190298121964435,11.940013190979105,205,1970-01-02 23:58:49.844854295,0.43852276,-2.9362679,1.9355831,19.061951918611946,3.544072985791071,-84.22569274902344,-0.685101330280304,160.01426696777344,19024804.0,49907.0,0.6654959197105628,-0.05114170057917096,0.5080072353143942,0.02559204042492613,-0.005386449722737878,0.022382117878925578,19.02480490002199
1640,B,172729894761775.0,12.096918675225174,15.064828321964434,9.679886990979107,205,1970-01-02 23:58:49.894761775,2.4827652,1.821203,-1.311343,10.03621968168891,3.3467183731513828,-83.32719421386719,-1.9016057252883911,159.89828491210938,19074712.0,49908.0,0.7624752306421381,0.06625602528180097,0.5395029891405853,0.0356335920859013,0.0003771628586294292,0.02613957014104956,19.07471238001017
1640,B,172729944669255.0,6.4705448752251735,11.823079121964435,5.7222714909791055,205,1970-01-02 23:58:49.944669255,1.7978002,2.8896632,-2.0218742,5.743863116670478,3.9585621441604175,-82.96533203125,-2.5755112171173096,159.73194885253906,19124619.0,49907.0,0.46332320170616276,0.18185879840207905,0.38433776167954425,0.030587961181603326,0.0061913332527957,0.0230530601755901,19.124619859998347
1640,B,172729994576735.0,2.4626513752251737,-3.2244788780355655,2.288986290979105,205,1970-01-02 23:58:49.994576735,0.6622283,2.651044,-3.1553156,20.065227828881092,4.174038469738899,-83.226806640625,-2.5485827922821045,159.5944061279297,19174527.0,49908.0,0.22291897923373796,-0.274528929512999,0.1999129266909852,0.017124487383174285,-0.0023124904517418964,0.014579391677598192,19.17452734001563
1640,B,172730044484215.0,-2.5579895247748268,0.8624231219644347,3.5962203909791053,205,1970-01-02 23:58:50.044484215,-0.15909058,3.0963244,-2.4330664,17.128955732364933,3.9411098322032405,-83.4244613647461,-2.0508742332458496,159.43408203125,19224434.0,49907.0,-0.002379020514787267,-0.5480301583091209,0.1468565049382442,0.005503243859893336,-0.02052572819796927,0.008653111012159976,19.224434820003808
1640,B,172730094391695.0,-3.7359368247748264,6.390636121964436,3.4310204909791056,205,1970-01-02 23:58:50.094391695,-0.038715705,2.840661,-1.8748678,12.870403036636716,3.4038188979749626,-83.6251220703125,-1.2345616817474365,159.28802490234375,19274342.0,49908.0,-0.15705863812666204,-0.30810555962699904,0.17535776896838517,-0.003978607333738726,-0.02136401070537794,0.00804053499106603,19.27434230002109
1640,B,172730144299175.0,-3.4725748247748265,10.788784121964435,3.009640990979105,205,1970-01-02 23:58:50.144299175,-1.1785487,2.2856584,-2.0953774,9.539475399024306,3.317200296664796,-83.94063568115234,-0.19604046642780304,159.16551208496094,19324249.0,49907.0,-0.17987759544703727,-0.06040193694312097,0.1607170462900442,-0.008407738304481304,-0.009195551815662489,0.008386242902551218,19.324249780009268
1640,B,172730194207735.0,-3.1804823247748266,12.957930721964434,3.9553506409791055,205,1970-01-02 23:58:50.194207735,0.19990353,1.7317208,-1.7289265,8.041474723547186,2.4551996238312985,-84.02361297607422,0.9963203072547913,159.0697479248047,19374158.0,49909.0,-0.16602371463843682,0.10347919557282292,0.17380788367970118,-0.008631794242527963,0.0010749714504748975,0.00834790236493001,19.37415834001149
1640,B,172730244116295.0,-7.743829824774826,12.601194821964434,3.4142610909791054,205,1970-01-02 23:58:50.244116295,0.7964516,-0.35193646,-0.4016071,12.39504492973664,0.958896598070043,-84.1091537475586,2.3155572414398193,159.0819854736328,19424066.0,49908.0,-0.27260528537986206,0.14870401882320095,0.1839012911592852,-0.01094554806645663,0.006292979932038379,0.008926274748932065,19.424066900013713
1640,B,172730294024855.0,-1.6888942247748262,6.816803121964435,1.2068070909791055,205,1970-01-02 23:58:50.294024855,-0.53512895,-3.3155022,2.4692805,11.732773310191254,4.168484619020825,-84.60088348388672,3.0606911182403564,159.2374267578125,19473975.0,49909.0,-0.2353889122944868,-0.004541770308227074,0.11531644594667619,-0.012676741205864539,0.0035974968305669155,0.007466829020610714,19.473975460015936
1640,B,172730343933415.0,0.9303622752251735,-3.2244788780355655,0.2132133909791052,205,1970-01-02 23:58:50.343933415,0.8209527,-4.052665,3.1127002,20.523265354627593,5.175611990184574,-84.9478759765625,3.3338124752044678,159.43194580078125,19523884.0,49909.0,-0.01892878553503681,-0.39946354465487705,0.03543590111702617,-0.0063463709904868475,-0.010081750632246781,0.0037619494448011604,19.52388402001816
1640,B,172730393841975.0,4.289427235225173,-3.2244788780355655,3.4669335209791052,205,1970-01-02 23:58:50.393841975,-0.24111594,-3.1312113,3.7497284,19.94370226508655,4.891122997383763,-85.11991119384766,3.3987507820129395,159.5947265625,19573792.0,49908.0,0.13025462744377797,-0.650025691844999,0.09183438604100519,0.002778025058990727,-0.026188954407617905,0.0031759027457415145,19.57379258002038
1640,B,172730443750535.0,6.176058175225174,5.6053371219644355,5.715088890979105,205,1970-01-02 23:58:50.443750535,-2.2129204,-3.9482691,2.5470448,11.443352026303142,5.19358092224989,-85.13265228271484,3.145442247390747,159.80772399902344,19623701.0,49909.0,0.26116095567508324,-0.4296950729518771,0.2291327782792112,0.009767580168939622,-0.026943891825123644,0.00800957510202884,19.623701140022604
1640,B,172730493659095.0,9.070647775225174,9.689845521964436,7.072601390979106,205,1970-01-02 23:58:50.493659095,-1.3511214,-4.763197,1.2069422,9.197760689814022,5.096104803915222,-84.81644439697266,2.3238003253936768,160.06857299804688,19673609.0,49908.0,0.380466300287538,-0.10742241230339898,0.3191040232959852,0.01601116654529125,-0.013403229727060158,0.01368070114650745,19.673609700024826
1640,B,172730543567655.0,12.436896175225174,14.660208121964434,7.379059090979105,205,1970-01-02 23:58:50.543567655,-0.37640452,-6.0830593,1.8620799,9.348963057851705,6.372804120948402,-84.3507080078125,1.0713629722595215,160.39419555664062,19723518.0,49909.0,0.5367100055115133,0.11853521365742296,0.3606339614970262,0.022887676123062424,0.00027731440138899146,0.016962521541517204,19.723518259997945
1640,B,172730593476215.0,10.737012475225173,19.671272521964436,5.243431190979106,205,1970-01-02 23:58:50.593476215,0.3447795,1.6646091,-4.0639863,7.512976878628024,4.405199315128743,-83.73067474365234,-1.922192931175232,160.2864532470703,19773426.0,49908.0,0.5782817164633379,0.367609367988601,0.3149816224959852,0.02782350343016044,0.012131251890394882,0.016859311282961607,19.773426820000168
1640,B,172730643384775.0,10.097760775225174,18.143771721964434,7.403001090979105,205,1970-01-02 23:58:50.643384775,0.14877084,0.4097276,-1.9739374,7.150222900291292,2.02149408313624,-82.32091522216797,-4.51735258102417,160.17637634277344,19823335.0,49909.0,0.5199213490783632,0.45454732158512295,0.31558539438012617,0.027405108399060383,0.020516509109967496,0.015735484622634924,19.82333538000239
1640,B,172730693293335.0,12.623643175225173,-3.2244788780355655,6.102949590979105,205,1970-01-02 23:58:50.693293335,-3.392168,0.7325027,-2.382999,21.837605548023184,4.209756308829798,-82.52947235107422,-5.095476150512695,160.12843322753906,19873243.0,49908.0,0.5669899141795379,-0.11680236637259905,0.3370274933175852,0.027122783663337664,0.008428087612373321,0.01628530199960869,19.873243940004613
1640,B,172730743201895.0,2.2639325752251738,-3.2244788780355655,6.988804090979105,205,1970-01-02 23:58:50.743201895,-0.6533733,1.5218637,-1.5542232,20.211496584599022,2.271249776213268,-82.53370666503906,-4.918067455291748,160.0406951904297,19923152.0,49909.0,0.3715120090646132,-0.6500387163238771,0.32669816725642614,0.023419846243596172,-0.019136135798149215,0.01656294199679417,19.923152500006836
1640,B,172730793110455.0,0.42757997522517366,1.0898731219644358,7.594537190979105,205,1970-01-02 23:58:50.793110455,-1.4949322,1.3748572,-0.9981552,16.386948818313233,2.2630440575198087,-82.47452545166016,-4.533859729766846,159.95504760742188,19973061.0,49909.0,0.0671653499402132,-0.5423762193398771,0.3639199900206262,0.01094697415528594,-0.02975611851202116,0.017234030805770205,19.97306106000906
1640,B,172730843019015.0,-0.1829413247748266,7.161568121964436,6.897824390979105,205,1970-01-02 23:58:50.843019015,-0.7183544,1.5815184,-0.90015084,10.770127017904489,1.9564010397386895,-82.29824829101562,-3.918954849243164,159.85519409179688,20022969.0,49908.0,0.00610471288333796,-0.283191935198999,0.36164239091618516,0.0018283811476988954,-0.020601227728363116,0.01810568365389719,20.02296962001128
1640,B,172730892927575.0,-2.105485324774826,13.221292921964436,6.921766390979105,205,1970-01-02 23:58:50.892927575,-0.5404552,2.284593,-0.63916105,7.5293727741341705,2.4331016926329125,-81.87079620361328,-2.7389378547668457,159.7113037109375,20072878.0,49909.0,-0.05710654282618681,0.019535905920722983,0.3448609781683762,-0.0012727251653088217,-0.00657940438262474,0.017630438323820687,20.072878180013504
1640,B,172730942836135.0,-3.877194824774826,14.526133121964435,6.019152490979105,205,1970-01-02 23:58:50.942836135,1.0020477,2.252635,0.30040216,8.33757190391705,2.4836878817663375,-81.53968811035156,-1.34768807888031,159.59263610839844,20122786.0,49908.0,-0.14929180045186202,0.20331086950020105,0.3229276897803852,-0.005150464258160431,0.005560918433853738,0.016663998419993394,20.122786740015727
1640,B,172730992744695.0,-3.1325978247748263,16.000961121964433,5.0375297909791055,205,1970-01-02 23:58:50.992744695,1.4739598,0.4342287,1.7310523,7.164917445089843,2.314660692467693,-81.29706573486328,0.157081738114357,159.58311462402344,20172695.0,49909.0,-0.1749258706731868,0.2726801733101229,0.2759139780051262,-0.008090689874090031,0.011878118477810229,0.014943794398753546,20.17269530001795
1640,B,172731042653255.0,-4.526023324774826,-3.2244788780355655,5.8802887909791055,205,1970-01-02 23:58:51.042653255,0.93174016,-4.6982155,1.379515,21.726625788715932,4.9844187469976955,-81.32998657226562,0.7438361644744873,159.8253631591797,20222603.0,49908.0,-0.19111323216586204,-0.17027406208499907,0.2724432448941852,-0.009134139772245625,0.00255544209951174,0.013683706140229419,20.222603860020172
1640,B,172731092561815.0,10.030722675225174,-3.2244788780355655,8.492362690979105,205,1970-01-02 23:58:51.092561815,0.034787543,-3.0076406,3.5153701,21.305354581937127,4.626547210597807,-81.23503112792969,0.4670577645301819,160.00149536132812,20272512.0,49909.0,0.1373670199408132,-0.6500387163238771,0.3586623314065262,-0.001341209852969981,-0.0204704952288043,0.015748924103796105,20.272512420022395
1640,B,172731142470375.0,6.4825158752251735,4.918202121964436,3.8045159309791052,205,1970-01-02 23:58:51.142470375,0.57061553,0.06884298,3.389669,12.064171251416045,3.4380513912001756,-81.45176696777344,0.3211562931537628,160.02220153808594,20322420.0,49908.0,0.41207135478793794,-0.44683323017099896,0.3068563091323452,0.013710685202981255,-0.027371342552833137,0.016607352156006994,20.322420980024617
1640,B,172731192380315.0,6.1162031752251735,12.534157121964435,3.8212753609791053,205,1970-01-02 23:58:51.192380315,-2.1724403,-2.0180101,2.2146823,4.71631264062632,3.700902499485685,-81.8259506225586,-0.25405654311180115,160.13882446289062,20372330.0,49910.0,0.31440103390398844,-0.05359437506775506,0.19030162169081713,0.018129118459807025,-0.012488170888733108,0.012406576163692016,20.372330920014065
1640,B,172731242290255.0,12.149591175225174,16.563598571964434,4.857964690979106,205,1970-01-02 23:58:51.242290255,0.7953863,-1.8294582,1.1430264,8.255027038434756,2.299144628524245,-81.65740203857422,-1.6361361742019653,160.23489379882812,20422240.0,49910.0,0.4558228980154885,0.23701649334199495,0.21659043549661716,0.019220938221050546,0.004577298961533657,0.010153991287112423,20.422240860003512
1640,B,172731292200195.0,14.713781175225174,21.632123421964437,3.6249507909791054,205,1970-01-02 23:58:51.292200195,0.55357134,-0.9719204,-1.3464966,11.86161364103073,1.75046382031081,-81.56183624267578,-4.573123931884766,160.268798828125,20472150.0,49910.0,0.6703754570054885,0.46405624235849496,0.2116911558522672,0.028104279949548484,0.017495270119405725,0.01068776711211141,20.472150800022064
1640,B,172731342110135.0,10.454496475225174,17.952235521964436,4.886695120979105,205,1970-01-02 23:58:51.342110135,-0.60011005,1.3375729,-1.5659411,6.688691790349477,2.1450885444649184,-81.15803527832031,-7.473201751708984,160.14662170410156,20522060.0,49910.0,0.6280743687669885,0.498709677445745,0.21240812373291718,0.03240281540215217,0.02402582352871481,0.010583397522048276,20.52206074001151
1640,B,172731392020075.0,10.547870175225174,7.300432621964434,1.5826966909791054,205,1970-01-02 23:58:51.392020075,-2.158592,2.9546442,-4.1619906,11.767183374808678,5.541805439163848,-81.72260284423828,-8.313990592956543,160.03367614746094,20571970.0,49910.0,0.5241140597619884,0.14106233353174494,0.16144367266741716,0.02875286223394062,0.015965510533943263,0.009329471579170344,20.57197068000096
1640,B,172731441930015.0,7.258237475225174,-3.2244788780355655,5.150057290979105,205,1970-01-02 23:58:51.441930015,1.2310795,1.7583524,-3.9425461,20.235055498720993,4.488989824952962,-81.77342987060547,-8.525918960571289,159.9358367919922,20621880.0,49910.0,0.4443514164169885,-0.38740257432025516,0.16801587561976716,0.024168055958046372,-0.006147420708877273,0.008221663027506685,20.62188062001951
1640,B,172731491839955.0,1.3996258752251736,0.5224481219644339,6.349552390979105,205,1970-01-02 23:58:51.491839955,-2.1234381,1.9671441,-1.9718069,16.537912414515326,3.502380294254756,-81.86915588378906,-8.182689666748047,159.82379150390625,20671790.0,49910.0,0.21605697991048847,-0.5565471775177552,0.2869727596132672,0.01648049153035219,-0.02355626605711755,0.011354241392240373,20.671790560008958
1640,B,172731541749895.0,-0.755155824774826,6.280502121964435,6.474050690979105,205,1970-01-02 23:58:51.541749895,-2.4227774,1.8457041,-1.3347787,11.679861513542953,3.325373382446137,-81.86541748046875,-7.480582237243652,159.70626831054688,20721700.0,49910.0,0.016082750108988426,-0.3193503766627551,0.3200130149102672,0.005793046962636047,-0.021858023464574636,0.0151473300032348,20.721700499998406
1640,B,172731591659835.0,-1.7607208247748267,11.981096721964434,7.058236090979106,205,1970-01-02 23:58:51.591659835,0.10935605,1.8840536,-1.1973596,7.976504683326454,2.235013808694864,-81.43543243408203,-6.393054008483887,159.55418395996094,20771610.0,49910.0,-0.06278370178951159,-0.03339980084975511,0.3376982166437672,-0.0011654222491874558,-0.008802880679824694,0.01641318378343093,20.771610440016957
1640,B,172731641569775.0,-3.553977424774826,12.854980121964434,6.565030590979106,205,1970-01-02 23:58:51.641569775,0.6877946,2.4688838,-0.0021329257,8.778861339103448,2.5628993696717086,-81.08006286621094,-5.084477424621582,159.40115356445312,20821520.0,49910.0,-0.1326282948175116,0.13066629764024487,0.3399686200482672,-0.004876506375328264,0.002427285427406672,0.01691117590964972,20.821520380006405
1640,B,172731691479715.0,-3.4606038247748265,9.007498121964435,5.193152890979105,205,1970-01-02 23:58:51.691479715,0.8358664,-1.3511544,1.4583446,10.732205225856019,2.156631592005802,-81.05684661865234,-3.9480817317962646,159.48077392578125,20871430.0,49910.0,-0.1750488750825116,0.0564601445772449,0.29342546879226716,-0.007678083774855079,0.004669740365537457,0.015806349487015536,20.871430320024956
1640,B,172731741389655.0,6.666869475225173,-3.2244788780355655,6.500387190979105,205,1970-01-02 23:58:51.741389655,1.6486632,-4.648148,3.136136,20.263051100459254,5.844546106194581,-81.04190063476562,-3.9245030879974365,159.73876953125,20921340.0,49910.0,0.0800123593069884,-0.3448027547677551,0.2918122927452672,-0.002371636251178182,-0.007195589837304183,0.014604608339169172,20.921340260014404
1640,B,172731791299595.0,3.6070797352251738,-3.2244788780355655,3.8523999609791053,205,1970-01-02 23:58:51.791299595,0.7517105,-0.78443384,3.1467888,19.93507281295636,3.329066667544048,-81.24806213378906,-3.655059337615967,159.8180694580078,20971250.0,49910.0,0.2563864025467884,-0.6500517408027552,0.25835380337711716,0.008394831102061,-0.024826593936962085,0.013729394928734104,20.97125020000385
1640,B,172731841209535.0,6.554342175225173,6.426548121964435,1.8532416909791052,205,1970-01-02 23:58:51.841209535,-0.07493469,-0.94635403,2.3680804,10.839989732448158,2.5512753553324656,-81.75443267822266,-3.807786226272583,159.91543579101562,21021160.0,49910.0,0.2535782837752884,-0.4092103620177552,0.14238428742461715,0.012726168747167428,-0.026433885775885835,0.01000041905595728,21.021160140022403
1640,B,172731891119475.0,6.741089675225174,11.940395121964436,2.530800690979105,205,1970-01-02 23:58:51.891119475,-2.3450131,-2.280065,1.8120124,5.744535531880201,3.7391405136943394,-82.43467712402344,-4.357777118682861,160.0816192626953,21071070.0,49910.0,0.33178750182798844,-0.030770931347755066,0.10940377764176713,0.014607803179729774,-0.010979733175936309,0.0062833711637316205,21.07107008001185
1640,B,172731941029415.0,11.144026875225174,17.267493861964436,3.4645392909791055,205,1970-01-02 23:58:51.941029415,-5.357581,-3.3549168,1.5126731,7.25912231082948,6.499793905497838,-82.93362426757812,-7.160441875457764,160.28709411621094,21120980.0,49910.0,0.4463230835164885,0.23976486959394497,0.14961370924976714,0.019417749657271423,0.005215443728933669,0.006463781385378238,21.120980020001298
1640,B,172731990939355.0,14.495909175225174,15.177355821964435,5.0255587909791055,205,1970-01-02 23:58:51.990939355,-1.6344818,0.3202454,0.49854136,10.715280561585809,1.7385716431551073,-82.912109375,-8.507491111755371,160.26124572753906,21170889.0,49909.0,0.6398317841709632,0.32053680143760294,0.21186615258622618,0.027104451645706514,0.013982048049756763,0.009020549212186296,21.17088996001985
1640,B,172732040849295.0,14.981932175225174,13.084823521964434,2.5834730909791057,205,1970-01-02 23:58:52.040849295,0.6718157,1.414272,-0.39947656,11.723415956610832,1.615884632868301,-83.1060791015625,-9.792130470275879,160.2252197265625,21220799.0,49910.0,0.7356195309004885,0.21616468552774487,0.18988339061426718,0.034324387567608076,0.013393385607220256,0.010025659850568313,21.220799900009297
1640,B,172732090759235.0,6.654898475225174,-2.5828318780355666,-3.1123326090208945,205,1970-01-02 23:58:52.090759235,-0.07493469,4.642023,-1.609617,20.765421102584323,4.913741917010232,-83.73016357421875,-9.815377235412598,160.09425354003906,21270709.0,49910.0,0.5399471088819885,-0.22704079852575515,-0.01319768927273284,0.03183176549577171,-0.00027141339986534653,0.004409191676977989,21.270709839998744
1640,B,172732140669175.0,2.113097875225174,-1.4671338780355647,0.4358741909791055,205,1970-01-02 23:58:52.140669175,-1.0475211,2.949318,-1.009873,18.624343144246353,3.288711084330487,-84.19375610351562,-9.480255126953125,160.01315307617188,21320619.0,49910.0,0.21880534892548845,-0.5901848954427551,-0.06679101982223284,0.018934667584585587,-0.020393867192984177,-0.001996118235464869,21.320619780017296
1640,B,172732190579115.0,-1.552424824774826,2.181629121964436,0.05040739097910496,205,1970-01-02 23:58:52.190579115,0.23612252,2.9429264,-0.96832776,16.04021009878019,3.1071254063933,-84.65253448486328,-8.824156761169434,159.9388427734375,21370529.0,49910.0,0.013991595973988432,-0.47128777118775506,0.012135156877767143,0.005809447759966446,-0.02648905039576438,-0.0013639370597791417,21.370529720006743
1640,B,172732240499175.0,-2.2084364247748263,8.629214121964434,3.3041277909791056,205,1970-01-02 23:58:52.240499175,0.16368453,3.2646363,-0.79468966,10.176350468829723,3.363952207203593,-84.83655548095703,-7.822476863861084,159.802490234375,21420449.0,49920.0,-0.09387109678875932,-0.21937735263153543,0.08372919814167694,-0.0019937923403366815,-0.01723900149052949,0.0023927743012853242,21.42044978000922
1640,B,172732290419235.0,-2.9362735247748266,11.880539821964435,3.4549624909791055,205,1970-01-02 23:58:52.290419235,1.3674333,4.102999,-1.1558143,8.418006770545471,4.476648447224148,-84.92256927490234,-6.59380578994751,159.61500549316406,21470369.0,49920.0,-0.12841196034075933,0.02270745844046454,0.16870689343767695,-0.005548185105952785,-0.00490888055900913,0.006300804845820672,21.4703698400117
1640,B,172732340339295.0,-10.399000824774827,13.776747921964436,0.8285230909791053,205,1970-01-02 23:58:52.340339295,1.3109744,2.0566263,1.0013461,14.984795616039284,2.6364862274042435,-85.18257141113281,-5.1452741622924805,159.55178833007812,21520289.0,49920.0,-0.33284844776475936,0.15118990208846458,0.10691580012567693,-0.011513059786313748,0.004340478118802071,0.006879542431341313,21.520289900014177
1640,B,172732390259355.0,-0.8102225247748263,-1.713737878035566,-1.4363916090208946,205,1970-01-02 23:58:52.390259355,1.378086,-3.83109,2.596047,19.80454629495419,4.828646977954072,-85.64180755615234,-4.573328018188477,159.79783630371094,21570209.0,49920.0,-0.27978221480475934,-0.18812326930353546,-0.015172398210323061,-0.015291261337735186,-0.000921856845688169,0.002289915311807233,21.570209960016655
1640,B,172732440179415.0,4.241543195225174,-3.2244788780355655,-1.2304906090208947,205,1970-01-02 23:58:52.440179415,0.7612979,-3.6095152,3.7550547,20.628397397361436,5.263896871289135,-86.09292602539062,-4.312502861022949,160.02940368652344,21620130.0,49921.0,0.08564747959477591,-0.6124861593399136,-0.06656671360343208,-0.004845700058208792,-0.019983611643654812,-0.0020402491004272356,21.620130020019133
1640,B,172732490099475.0,5.364423875225174,-1.4791048780355638,1.1637114909791055,205,1970-01-02 23:58:52.490099475,0.7794074,-2.3929832,2.6578324,18.47343016816371,3.660316592474859,-86.38594055175781,-4.19375467300415,160.18214416503906,21670050.0,49920.0,0.23976493807844068,-0.6066174505515354,-0.0016668067863230573,0.008122293945123486,-0.030428826102890567,-0.0017031086689282882,21.67005008002161
1640,B,172732540019535.0,6.094655375225173,8.945248521964434,3.7925449309791053,205,1970-01-02 23:58:52.540019535,-1.337273,-2.413223,1.5297173,8.061962956569836,3.1546757903431675,-86.60027313232422,-4.407456874847412,160.3182373046875,21719970.0,49920.0,0.2860186180912407,-0.30286105464753543,0.12370816029207693,0.013123557561995245,-0.022700583489768805,0.0030461521835036167,21.71997014002409
1640,B,172732589939595.0,8.072265675225173,11.890116621964435,4.065483918979106,205,1970-01-02 23:58:52.589939595,-0.5489774,-3.9088545,1.8887115,6.351004703542874,4.375814303431221,-86.71217346191406,-5.17211389541626,160.52557373046875,21769890.0,49920.0,0.35360634941924063,0.030834713992464517,0.19613640009495695,0.01596503918906161,-0.00678977746275057,0.007983320227260365,21.769890199997462
1640,B,172732639859655.0,18.776741175225172,18.555574421964437,4.508411230979106,205,1970-01-02 23:58:52.639859655,-1.1753528,-2.4036357,-0.43569556,14.964930861338699,2.7108576878519544,-86.68146514892578,-8.063124656677246,160.63499450683594,21819810.0,49920.0,0.6701512109872406,0.2707084484564646,0.21400442294295696,0.02555298870774577,0.00752651733472527,0.010237114943026331,21.81981025999994
1640,B,172732689779715.0,16.260435675225175,17.561980681964435,2.8995076909791053,205,1970-01-02 23:58:52.689779715,-2.1351562,0.532233,0.41118968,12.413496683266162,2.2385801119517574,-86.9163818359375,-9.464359283447266,160.6306915283203,21869730.0,49920.0,0.8745279341872407,0.4122781753940646,0.18490165629207694,0.03855519146355505,0.017047346131309205,0.009956695737706446,21.869730320002418
1640,B,172732739699775.0,8.867140875225173,2.729901121964435,-1.580043609020895,205,1970-01-02 23:58:52.739699775,-1.4246247,3.376489,-1.4040209,15.865607621265159,3.9244755306420114,-87.544921875,-9.76254940032959,160.55392456054688,21919650.0,49920.0,0.6271843106992407,0.017269369826064564,0.03293382348567693,0.03748273763236658,0.010721506728694425,0.005437173575252736,21.919650380004896
1640,B,172732789619835.0,3.5089174752251737,-3.2244788780355655,-2.868124309020895,205,1970-01-02 23:58:52.789619835,0.020939104,3.5011249,-1.7608845,21.1112574139279,3.91905961090369,-88.04974365234375,-9.589401245117188,160.46287536621094,21969570.0,49920.0,0.30890641642724065,-0.5015606607915355,-0.11102627123432307,0.023364824549076974,-0.012087910622498154,-0.0019491874958062077,21.969570440007374
1640,B,172732839539895.0,-0.709665824774826,-1.2253208780355642,-2.1977476090208947,205,1970-01-02 23:58:52.839539895,-0.13458951,4.4129915,-2.0634196,19.557567544320996,4.873428850505407,-88.53012084960938,-9.134294509887695,160.31900024414062,22019490.0,49920.0,0.06986932119524068,-0.6002830019115354,-0.12644416307432307,0.009454242411057134,-0.027502017821068647,-0.005927262040343807,22.01949050000985
1640,B,172732889459955.0,-2.488557824774827,5.222265121964435,2.6026266909791054,205,1970-01-02 23:58:52.889459955,0.7527758,3.6875463,-1.6351833,13.240158328646244,4.103473351236513,-88.65744018554688,-8.329085350036621,160.16024780273438,22069410.0,49920.0,-0.07982766229275934,-0.3894522716715354,0.010105781885676937,-0.00024856019379406564,-0.024703792428633447,-0.0029038059944686075,22.06941056001233
1640,B,172732939380015.0,-1.2746978247748264,10.398529121964435,0.4981233909791052,205,1970-01-02 23:58:52.939380015,-2.763662,4.9466887,-0.743557,8.929077766717624,5.714930774488934,-89.36410522460938,-7.390358924865723,159.99134826660156,22119330.0,49920.0,-0.09393086101275934,-0.09932097567153543,0.07739472204567693,-0.004337012741705746,-0.012199780253683047,0.0021840125781265925,22.119330620014807
1640,B,172732989300075.0,-7.126126824774827,8.145585121964436,3.9768984609791054,205,1970-01-02 23:58:52.989300075,-1.4597784,2.5051026,1.2026812,13.98569437297285,3.13893836869518,-89.44255065917969,-6.092998504638672,159.8676300048828,22169250.0,49920.0,-0.20968458325275935,-0.02635490847153543,0.11169654542487693,-0.007578241488867346,-0.0031368700682110483,0.004719718036065025,22.169250680017285
1640,B,172733039220135.0,-2.1701288247748267,13.465501521964434,3.5363653909791055,205,1970-01-02 23:58:53.039220135,1.5442672,-0.410526,2.0740674,6.931333327077076,2.618214727904226,-89.48637390136719,-4.664531230926514,159.90135192871094,22219170.0,49920.0,-0.23203454101275936,0.050196722632464545,0.18753106574487693,-0.011025309341667348,0.0005950916814567907,0.007468721174797056,22.219170740019763
1640,B,172733089140195.0,-8.328015824774827,1.9948811219644345,-4.065224609020895,205,1970-01-02 23:58:53.089140195,0.7421231,-1.4715294,1.8450356,20.810608629898816,2.4739243795810193,-90.02538299560547,-3.6493780612945557,160.01759338378906,22269090.0,49920.0,-0.2620336904527593,-0.10332484920753547,-0.01320032608232306,-0.012331943057379346,-0.0013260780393137702,0.004351295261977345,22.26909080002224
1640,B,172733139060255.0,1.7611501752251737,-3.2244788780355655,-4.591949609020894,205,1970-01-02 23:58:53.139060255,2.6691864,-3.5392077,3.7422714,21.843587414574237,5.8013052335609965,-90.47148895263672,-3.2360494136810303,160.22940063476562,22319010.0,49920.0,-0.16390896661275933,-0.5199067599915355,-0.21608306848232303,-0.010631528720355346,-0.015555860965608811,-0.005722913528333566,22.31901086002472
1640,B,172733188980315.0,3.5376478952251738,0.8145391219644349,-0.5792673090208948,205,1970-01-02 23:58:53.188980315,-1.0102369,-2.207627,2.3893857,16.56532925649473,3.4063704420710175,-90.919921875,-3.0033037662506104,160.36016845703125,22368930.0,49920.0,0.13225799983844067,-0.5493680963115355,-0.12907357427432303,-0.0007900081306869939,-0.02668910041332465,-0.008615109803205885,22.368930919998093
1640,B,172733238900375.0,6.453785475225174,8.373035121964435,4.948944390979105,205,1970-01-02 23:58:53.238900375,-2.0158465,-2.658234,1.1600705,8.750014745561604,3.5320827673326822,-90.86333465576172,-3.284027099609375,160.4835662841797,22418850.0,49920.0,0.2493861769264407,-0.25989414687153545,0.10906713996567692,0.009525838652051439,-0.020199185589849452,-0.0004993606003438069,22.41885098000057
1640,B,172733288825145.0,8.575048175225174,13.750411421964435,5.861135190979105,205,1970-01-02 23:58:53.288825145,0.32667,-3.334677,0.73289955,5.785206763065718,3.4298579757213274,-90.40445709228516,-4.351383686065674,160.61984252929688,22468775.0,49925.0,0.3751572599993668,0.06299153435282437,0.2698466115646318,0.015590165544260468,-0.004915181464998325,0.00945863452257533,22.46877575002145
1640,B,172733338749915.0,17.893281175225173,17.154966401964437,5.209912290979105,205,1970-01-02 23:58:53.338749915,-0.080261014,-2.6411898,0.22689892,14.013534429385397,2.652132822821948,-90.30429077148438,-5.76555061340332,160.74229431152344,22518700.0,49925.0,0.6607156714106167,0.28221049392982434,0.2763610227683818,0.025857978050321712,0.008617105631005617,0.01363470807203785,22.518700520013226
1640,B,172733388674685.0,11.179939775225174,12.052922721964435,3.8907072009791053,205,1970-01-02 23:58:53.388674685,0.08272444,2.127999,0.09054508,8.61481727211979,2.131530316107777,-90.31564331054688,-6.882725238800049,160.63807678222656,22568625.0,49925.0,0.7257402779756168,0.23983693225607441,0.22717421406800678,0.03460940663655385,0.013031608876165496,0.012569498349528349,22.568625290005002
1640,B,172733438599455.0,2.8553003752251733,2.6532861219644346,-0.6343339090208948,205,1970-01-02 23:58:53.438599455,-0.8355335,3.464906,-2.198708,14.861651753976687,4.1878403369424495,-90.78667449951172,-6.728397846221924,160.5175018310547,22618550.0,49925.0,0.3503546822556168,-0.1221612617334256,0.08128721830050682,0.026862020444772164,0.0029374789254216207,0.00769996850549902,22.618550060025882
1640,B,172733488524225.0,-1.3465238247748261,-0.8685828780355642,0.8524650909791052,205,1970-01-02 23:58:53.488524225,-0.12287159,2.281397,-1.6490318,18.632399549774615,2.817654268473932,-91.01078033447266,-6.25084114074707,160.42996215820312,22668474.0,49924.0,0.03766208025234157,-0.4447054376250476,0.005444990564040847,0.009685674425723658,-0.014150126549386209,0.0021650093976768392,22.668474830017658
1640,B,172733538448995.0,-5.155697824774826,1.2598611219644358,0.16532939097910537,205,1970-01-02 23:58:53.538448995,-0.1708085,3.4350786,-2.0687459,18.3443476237486,4.013558287930676,-91.28736877441406,-5.520316123962402,160.2884979248047,22718399.0,49925.0,-0.16231170792688318,-0.4794977168359255,0.02540669475588183,-0.0031115663308257445,-0.02307042124323204,0.0007701351947985698,22.718399600009434
1640,B,172733588373765.0,-2.225195824774826,8.490350121964434,2.1213920909791053,205,1970-01-02 23:58:53.588373765,-1.663244,2.3857932,-1.0642016,10.452629888517965,3.0969202188859826,-91.60359954833984,-4.627669811248779,160.19094848632812,22768324.0,49925.0,-0.18424555772688317,-0.2458753518234256,0.05708228499338183,-0.008650935743882142,-0.018107125226409053,0.002059131156990994,22.76832437000121
1640,B,172733638298535.0,-1.7080482247748265,12.321073121964435,2.8348641909791055,205,1970-01-02 23:58:53.638298535,-1.6259598,3.5671713,-0.4016071,7.252439597573536,3.9407796966501616,-91.8939437866211,-3.4723312854766846,160.02774047851562,22818249.0,49925.0,-0.0981836045868832,0.03024015272657437,0.12372054743838184,-0.007050137964257392,-0.005382793657455148,0.004513290704577901,22.81824914002209
1640,B,172733688223305.0,-4.808538824774827,14.392057621964435,3.7255072609791053,205,1970-01-02 23:58:53.688223305,1.1597068,2.353835,0.03515133,9.049367667087793,2.624251261825363,-91.8740463256836,-2.0711448192596436,159.91282653808594,22868173.0,49924.0,-0.16266704593085843,0.17755796962995238,0.16375999218378087,-0.006511353938223868,0.005187056730263621,0.007176089230048426,22.868173910013866
1640,B,172733738148075.0,-0.05365462477482641,16.597117395964435,3.620162390979105,205,1970-01-02 23:58:53.738148075,0.9328055,-0.14314464,2.450106,4.0141034178229065,2.625573442131638,-92.15164947509766,0.8972486257553101,159.92050170898438,22918098.0,49925.0,-0.1213725039843832,0.2843022813850493,0.18336627868700683,-0.007090337264759218,0.01152918651596198,0.008665139536612038,22.91809868000564
1640,B,172733788072845.0,-10.341539824774827,-1.0720918780355646,-8.549564609020894,205,1970-01-02 23:58:53.788072845,0.09337708,-3.2164326,-0.59122413,26.063489501894907,3.2716515586636583,-92.80046844482422,1.6432571411132812,160.06785583496094,22968023.0,49925.0,-0.2594900414468832,-0.10172155050870059,-0.12305020286786815,-0.009507281290327987,0.004557671494500855,0.0015056400426352492,22.968023449997418
1640,B,172733837997615.0,5.091484775225174,-3.2244788780355655,-6.466609609020894,205,1970-01-02 23:58:53.837997615,2.151468,-2.8585036,3.1137655,22.57857773729572,4.742930842340758,-93.2956314086914,1.6956113576889038,160.1854248046875,23017948.0,49925.0,-0.1310544991743832,-0.5965181474984256,-0.37484124891786813,-0.009748968095258362,-0.017429808461502886,-0.01242861536520144,23.017948220018297
1640,B,172733887922385.0,1.6749589752251737,3.8599651219644358,-0.1483109090208945,205,1970-01-02 23:58:53.887922385,-1.3990583,-1.2669986,1.2175949,13.711333714702691,2.246149353829095,-93.72757720947266,1.955573320388794,160.23345947265625,23067872.0,49924.0,0.1689039688987416,-0.4733921923790476,-0.16512164597135914,0.0009447984632594346,-0.026707101904021487,-0.013478553782224892,23.067872990010073
1640,B,172733937847155.0,5.050783375225174,9.483944421964434,2.0208355909791056,205,1970-01-02 23:58:53.937847155,-2.3237078,-2.2459767,-0.07883196,7.592867004443208,3.2326836768606317,-94.1390609741211,1.701246976852417,160.33653259277344,23117797.0,49925.0,0.1678913434231168,-0.1561676580096756,0.046742897373381845,0.00840725298383439,-0.015715387765328503,-0.0029550295118770083,23.11779776000185
1640,B,172733987771925.0,7.5958197752251735,11.878145621964435,4.350393920979105,205,1970-01-02 23:58:53.987771925,1.1639678,-2.992727,0.5752404,6.0668699643857495,3.2622289088532703,-93.93130493164062,0.8423727750778198,160.48654174804688,23167722.0,49925.0,0.31569083114311675,0.043986172721574374,0.1590418166922568,0.012071420032609604,-0.002800330326504227,0.005136900924863504,23.16772253002273
1640,B,172734037696695.0,10.859116675225174,15.004973221964434,3.9266202209791055,205,1970-01-02 23:58:54.037696695,0.7708853,-5.275589,0.5720446,7.134013560354323,5.36221395200399,-93.89897918701172,-0.5066247582435608,160.7472381591797,23217647.0,49925.0,0.46068135114436676,0.18180485414157435,0.20661496551863182,0.019380190600351305,0.005636308508071349,0.009127707425939307,23.217647300014505
1640,B,172734087621465.0,13.064176175225173,17.028073681964436,5.595378890979106,205,1970-01-02 23:58:54.087621465,0.013482253,1.9469042,-3.393935,9.26219436422655,3.9127244369299246,-93.43311309814453,-3.5087971687316895,160.64532470703125,23267572.0,49925.0,0.5971851977793667,0.3103599333393244,0.23769290283225683,0.026406993727508696,0.012285663507491934,0.011091035163709058,23.26757207000628
1640,B,172734137546235.0,4.315763435225174,11.016233421964435,0.6633233909791052,205,1970-01-02 23:58:54.137546235,-0.8440556,3.7802243,-1.1930985,6.647635439743383,4.0529013860324925,-94.12626647949219,-3.5853190422058105,160.50088500976562,23317496.0,49924.0,0.43383805255606156,0.2107867939282724,0.15622972636224086,0.02573640237487296,0.013008864606053753,0.009833096669953053,23.317496839998057
1640,B,172734187471005.0,-1.8157872247748261,-3.2244788780355655,-2.8729126090208945,205,1970-01-02 23:58:54.187471005,0.12533502,2.8811412,-1.150488,21.87732061648895,3.1048842361221523,-94.47234344482422,-3.1943366527557373,160.38246154785156,23367421.0,49925.0,0.062405656153366795,-0.29476332719717563,-0.05515687085536816,0.012387483578659104,-0.0020962642117249965,0.0025230311555903095,23.367421610018937
1640,B,172734237395775.0,-2.423914324774826,-0.9523808780355658,-2.580819909020895,205,1970-01-02 23:58:54.237395775,-1.739943,3.7887464,-0.33129963,19.914679346476973,4.182315192761074,-94.92858123779297,-2.697157621383667,160.2137908935547,23417346.0,49925.0,-0.10583354993063318,-0.5935298616609256,-0.13613879798161815,-0.0010840687984150122,-0.02217401872687035,-0.004775218133343271,23.417346380010713
1640,B,172734287327115.0,-0.5588311247748261,8.131220121964436,1.9537979909791052,205,1970-01-02 23:58:54.287327115,-0.7215502,2.9972548,-0.023438213,9.910911933086714,3.0829726526636128,-95.15809631347656,-2.0037171840667725,160.07244873046875,23467277.0,49931.0,-0.07446573152073184,-0.31010048885569386,-0.015653915694872303,-0.004501261711074054,-0.022559583515822663,-0.0037895809932904224,23.46727772001759
1640,B,172734337258455.0,1.1075331752251736,14.083205621964435,4.233078040979105,205,1970-01-02 23:58:54.337258455,-0.25070333,3.695003,-0.2812322,3.858481941761445,3.714160858121108,-95.02119445800781,-0.9522550106048584,159.8858642578125,23517209.0,49932.0,0.013698895391543375,0.06527175312292816,0.15446154701386866,-0.001517104830801319,-0.006112394216304228,0.0034654713235100633,23.51720906002447
1640,B,172734387189795.0,-3.2762503247748263,15.208480421964435,5.406236890979105,205,1970-01-02 23:58:54.387189795,0.72933996,3.5405397,0.12782933,7.481726732218532,3.6171395441891843,-94.70561981201172,0.4233987033367157,159.7081298828125,23567140.0,49931.0,-0.05414310799708186,0.24195778792970618,0.24065031693380273,-0.001009709989803571,0.007670139107149543,0.00986416523938559,23.567140400002245
1640,B,172734437121135.0,-7.269778824774827,17.684084971964435,0.5723435909791053,205,1970-01-02 23:58:54.437121135,1.3131049,-0.031291876,3.095656,11.778958298931895,3.3627830334774216,-95.51167297363281,3.306241512298584,159.67027282714844,23617071.0,49931.0,-0.26328689073308187,0.3318555413421312,0.14925825102232773,-0.007924798633297904,0.014325536671936057,0.009734262353308777,23.617071740009123
1640,B,172734487052475.0,-3.8939542247748267,4.578224621964434,-8.221558609020894,205,1970-01-02 23:58:54.487052475,-0.23898542,-2.4750085,0.194941,18.964351622025426,2.4941497748783705,-96.35458374023438,3.860774040222168,159.74029541015625,23667003.0,49932.0,-0.27871375931505665,0.0664672213220281,-0.1909703021404313,-0.013531588229101825,0.0099445260926734,-0.0010413830682145732,23.667003080016002
1640,B,172734536983815.0,7.607790775225173,-3.2244788780355655,-10.634914609020894,205,1970-01-02 23:58:54.536983815,-0.08665261,-1.8571551,3.953194,25.04477949244054,4.368555429648549,-97.06593322753906,3.775372266769409,159.76348876953125,23716934.0,49931.0,0.09271778640026813,-0.4555268606299439,-0.4707612821250223,-0.004643482461804153,-0.009713068425141773,-0.01652045986697918,23.71693442002288
1640,B,172734586915155.0,0.7316434752251735,2.1193791219644353,-2.1594403090208942,205,1970-01-02 23:58:54.586915155,-1.301054,-1.647298,1.7907071,16.18478202147584,2.759160040612072,-97.51619720458984,4.068384647369385,159.8075408935547,23766865.0,49931.0,0.20819814577961815,-0.5169131679601938,-0.3194174677063723,0.007512516704836951,-0.024277451533767088,-0.019727207578915683,23.766865760000655
1640,B,172734636846495.0,5.371606475225174,10.489509121964435,2.6050208909791053,205,1970-01-02 23:58:54.636846495,-2.2427478,-2.8457205,0.5507393,6.5493886778740915,3.6648815308396507,-97.76089477539062,3.702033519744873,159.93603515625,23816797.0,49932.0,0.15237373826294337,-0.17454009610207186,0.011124364809168697,0.00900203765700659,-0.017262822190578526,-0.007696845606931586,23.816797100007534
1640,B,172734686777835.0,7.418648775225174,11.957154721964436,5.513975990979105,205,1970-01-02 23:58:54.686777835,1.0254835,-2.3354588,0.54967403,6.063844522899765,2.6092385392152497,-97.21517944335938,2.8538355827331543,160.07569885253906,23866728.0,49931.0,0.31931511745511815,0.0710683861956062,0.20269481665652772,0.011775948127429266,-0.0025832229736698687,0.005338102774881844,23.866728440014413
1640,B,172734736709175.0,7.507234375225174,16.096729221964434,5.949720690979105,205,1970-01-02 23:58:54.736709175,1.938415,-2.7413247,1.3443613,4.080541993273141,3.6165758844510343,-96.43449401855469,1.6770473718643188,160.22909545898438,23916659.0,49931.0,0.3726321357925682,0.2110554396021562,0.28619691951342774,0.017274809150955115,0.0070433623729540375,0.012205426639351024,23.91665978002129
1640,B,172734786640515.0,17.469508175225172,16.841325971964434,7.968032590979105,205,1970-01-02 23:58:54.786640515,2.164251,-4.823917,-1.469002,14.085169388902457,5.487451547840218,-95.5405502319336,-1.1254637241363525,160.47804260253906,23966591.0,49932.0,0.6235693545145433,0.33299788597162805,0.34747062843736864,0.024871166407007345,0.013582835326275097,0.01582014400213958,23.966591119999066
1640,B,172734836571855.0,7.373158975225174,6.455279121964436,5.619320890979106,205,1970-01-02 23:58:54.836571855,-0.9484515,4.2542667,-2.2647545,10.922526663639145,4.911970922944413,-95.25200653076172,-1.683382511138916,160.269287109375,24016522.0,49931.0,0.6202096067445682,0.09228759447248117,0.3392150733538277,0.03105156365731435,0.010617464662027409,0.017143451888068113,24.016522460005945
1640,B,172734886503195.0,-1.609885824774826,-3.2244788780355655,-2.068460609020895,205,1970-01-02 23:58:54.886503195,-1.3117067,3.3061817,0.41118968,21.581364573711717,3.580571023339473,-95.59854125976562,-1.2710180282592773,160.10986328125,24066453.0,49931.0,0.14388299583756814,-0.4086652565101939,0.08864900236922771,0.019075953869764326,-0.00789852652160252,0.01068184058246394,24.066453800012823
1640,B,172734936434535.0,-1.0448541247748264,1.5615301219644344,2.1333630909791053,205,1970-01-02 23:58:54.936434535,0.7250789,3.4787545,-0.22690372,16.060331394614515,3.5607523896846995,-95.60003662109375,-0.8252579569816589,159.93875122070312,24116385.0,49932.0,-0.06627823758045662,-0.5308507786440718,0.0016203553645686769,0.0019374803946470463,-0.023455957333661397,0.00225366478518196,24.116385140019702
1640,B,172734986365875.0,0.8321998752251738,8.576541121964436,3.2011770909791055,205,1970-01-02 23:58:54.986365875,-0.009953564,3.5426702,-0.37391022,8.745367393981615,3.562361586367222,-95.61182403564453,-0.33410656452178955,159.76441955566406,24166316.0,49931.0,-0.005309019667131853,-0.23622178235969385,0.1331794629126777,-0.00178721167081467,-0.019150350021739513,0.003365344863200595,24.166316479997477
1640,B,172735036297215.0,1.5073648752251736,14.408817121964436,2.724730990979105,205,1970-01-02 23:58:55.036297215,-0.24111594,5.719005,-1.5947032,3.6048509472868155,5.942073155274793,-96.07039642333984,0.5267481803894043,159.48678588867188,24216247.0,49931.0,0.058408403777368154,0.08451716123880622,0.14794325822012772,0.0013256526740041043,-0.00378738171859352,0.007018369294441055,24.216247820004355
1640,B,172735086228555.0,-11.433295824774827,12.766394621964436,2.0495659909791053,205,1970-01-02 23:58:55.086228555,1.5208315,3.195394,-0.54435253,15.992365946467089,3.5804735641456213,-96.14103698730469,1.8554589748382568,159.32862854003906,24266179.0,49932.0,-0.24781079208645665,0.1891227363989282,0.11919509845156867,-0.004728620026524704,0.006831693684423678,0.006669376212665571,24.266179160011234
1640,B,172735136159895.0,0.07802637522517353,18.268270221964436,2.427849990979105,205,1970-01-02 23:58:55.136159895,1.913914,-1.5482284,4.5582643,4.474566476903926,5.180526170826382,-97.25122833251953,4.688322067260742,159.31471252441406,24316110.0,49931.0,-0.2834899794427319,0.28547212516110615,0.1117809286975777,-0.013264189411611957,0.01184849801627704,0.005766432005792015,24.316110500018112
1640,B,172735186091235.0,-11.581735824774826,-0.8781598780355644,-15.590313609020894,205,1970-01-02 23:58:55.186091235,-1.5130416,0.17217363,-4.438959,30.606949881612326,4.692898426972284,-98.13768768310547,5.114089488983154,159.2645721435547,24366041.0,49931.0,-0.28719585826273186,-0.05517100020864381,-0.3286074854562223,-0.014247457281235757,0.0057495827350007,-0.005413183402757942,24.36604184002499
1640,B,172735236022575.0,9.410624575225174,-3.2244788780355655,-8.041994609020895,205,1970-01-02 23:58:55.236022575,-2.5953503,-0.7546064,4.2248363,23.96172332702733,5.015427774420517,-98.81735229492188,4.8878703117370605,159.22430419921875,24415973.0,49932.0,-0.0542039634562566,-0.5917600791840718,-0.5900042069716313,-0.008523387949036267,-0.01615128132811854,-0.02293405951315379,24.415973180002766
1640,B,172735285953915.0,1.8641009752251736,3.8839071219644357,0.038436390979105006,205,1970-01-02 23:58:55.285953915,-2.6507442,-2.1373196,1.5094773,13.602352297853377,3.724661273940637,-99.15599060058594,5.076844692230225,159.2998809814453,24465904.0,49931.0,0.2814791607297682,-0.47286084417619384,-0.19981283269252229,0.0056740389375318535,-0.026578793662150716,-0.019718177303735426,24.465904520009644
1640,B,172735335888085.0,6.525611675225173,12.254035421964435,4.589814090979106,205,1970-01-02 23:58:55.335888085,-0.2187454,-2.606036,0.67430997,5.177882950685158,2.7007345517393153,-98.8202133178711,4.31033182144165,159.45111083984375,24515838.0,49934.0,0.2094659557437938,-0.08643718850572792,0.11555352978305064,0.012257426722995422,-0.013963993981969541,-0.0021037020157407787,24.51583869001479
1640,B,172735385822255.0,7.490474975225174,14.892445721964435,7.1899170909791055,205,1970-01-02 23:58:55.385822255,-0.10156631,-1.981791,0.65406996,5.062615121132505,2.0894063261085476,-97.86895751953125,3.3248157501220703,159.6074676513672,24565772.0,49934.0,0.3499396354017938,0.18841299472047207,0.29410454841995065,0.013966679394131886,0.0025460299537635174,0.010227933238494332,24.565772860019933
1640,B,172735435756425.0,8.086630875225174,16.472618911964435,5.853952590979105,205,1970-01-02 23:58:55.435756425,1.3557154,-2.3791347,0.7936196,4.523517435281867,2.8509784699371914,-96.66188049316406,0.7492708563804626,159.75868225097656,24615707.0,49935.0,0.38892139032111905,0.29374425124761905,0.3256728162842916,0.018447512659736827,0.012038261038708316,0.01547429135325317,24.615707030025078
1640,B,172735485690595.0,13.921300175225173,24.641635121964434,7.968032590979105,205,1970-01-02 23:58:55.485690595,3.5725307,-4.2593265,-5.929264,13.336592898558537,8.127792407397026,-95.66854858398438,-2.2673468589782715,159.9890899658203,24665641.0,49934.0,0.5494720145365938,0.537146380465102,0.34509350403795064,0.023428868139082515,0.020744846401971506,0.016747022719485423,24.66564120000112
1640,B,172735535624765.0,23.432865175225174,-3.2244788780355655,6.512358190979105,205,1970-01-02 23:58:55.535624765,3.863348,5.597565,-4.3718476,27.989827134597146,8.08524848943771,-95.23731231689453,-3.4689340591430664,159.71841430664062,24715575.0,49934.0,0.9326214463046937,0.045368939942172025,0.3615319166531506,0.03700342743682442,0.01454366000460841,0.017642316878394723,24.715575370006263
1640,B,172735585558935.0,0.7220666752251734,-3.2244788780355655,0.05998439097910513,205,1970-01-02 23:58:55.585558935,-3.6712675,2.2579613,-3.9638512,20.58413417016818,5.855656293242917,-95.56737518310547,-3.368727684020996,159.63284301757812,24765509.0,49934.0,0.6030761835101938,-0.6503643282958279,0.16409167724375065,0.038341762723588295,-0.015104919861025726,0.013123244268823935,24.765509540011408
1640,B,172735635493105.0,1.6462286752251738,1.4585801219644345,2.5715020909791053,205,1970-01-02 23:58:55.635493105,1.1181614,2.078997,-1.6469012,15.492019248157755,2.878332330538015,-95.50792694091797,-3.1664297580718994,159.5374298095703,24815443.0,49934.0,0.05912923001469382,-0.5334423942428279,0.06570032299505064,0.016533282559475868,-0.029556102441622618,0.0057372168699621525,24.815443710016552
1640,B,172735685427275.0,0.8681131752251736,7.800821121964436,3.5579131609791053,205,1970-01-02 23:58:55.685427275,-1.0816096,2.603107,-1.1270522,9.432734347210092,3.035834653235581,-95.50447082519531,-2.695582151412964,159.41030883789062,24865377.0,49934.0,0.06277557298019382,-0.25817372914282793,0.15303311059564065,0.0030435972163733596,-0.01976427975256967,0.00546111763645879,24.865377880021697
1640,B,172735735361445.0,2.0532428752251737,14.526133121964435,4.805292220979105,205,1970-01-02 23:58:55.735361445,0.5972472,3.8569233,-1.6202695,2.969042350443206,4.225853146125759,-95.0171890258789,-1.840491533279419,159.2084503173828,24915312.0,49935.0,0.07293895718961904,0.06808523008529405,0.2088083303740416,0.0033884525320148026,-0.0047460346002189775,0.009034276177410542,24.915312049997738
1640,B,172735785295615.0,-15.793136824774827,8.248536121964435,-4.7643316090208945,205,1970-01-02 23:58:55.785295615,3.2018187,4.8412275,1.5627406,23.213007769494155,6.010930450214367,-95.34983825683594,-0.5497472882270813,158.97268676757812,24965246.0,49934.0,-0.3430439322384062,0.07926196701317205,0.0010226635987606399,-0.006743710912043069,0.0036788174699574033,0.005238850426518953,24.965246220002882
1640,B,172735835229785.0,2.0460602752251735,14.327414121964434,4.506017030979105,205,1970-01-02 23:58:55.835229785,1.228949,-2.8095014,3.0892644,3.066417841862576,4.352834512626263,-94.98600006103516,0.5083963871002197,159.09860229492188,25015180.0,49934.0,-0.3432232602126062,0.07430054974017203,-0.006449340069969347,-0.017134032993924426,0.003833995355780742,-0.00013548783145666778,25.015180390008027
1640,B,172735885163955.0,4.401954695225173,-3.2244788780355655,20.62857239097911,205,1970-01-02 23:58:55.885163955,-5.4108443,-6.468685,0.879906,25.9109051982995,8.479112939270445,-94.24637603759766,0.5432480573654175,159.4261474609375,25065114.0,49934.0,0.1609875897672338,-0.21214621576482798,0.6275352940980308,-0.004549877984009612,-0.003441592743637585,0.01550665301421861,25.06511456001317
1640,B,172735935098125.0,10.061847175225173,0.13937412196443333,0.20363659097910558,205,1970-01-02 23:58:55.935098125,1.1053783,-3.5498602,1.8461008,18.084685194098064,4.151078990987231,-94.39897918701172,0.1506083905696869,159.59487915039062,25115048.0,49934.0,0.3611177412995338,-0.566379010444828,0.5201177616525507,0.013035403800743986,-0.01943743932277648,0.028653453842924767,25.115048730018316
1640,B,172735985032295.0,6.235913175225173,2.6772281219644345,3.2442727409791052,205,1970-01-02 23:58:55.985032295,-2.7945547,-1.3223923,0.69455004,14.241682079796583,3.1686995951739227,-94.51408386230469,-0.04499813914299011,159.6584014892578,25164982.0,49934.0,0.4069061826696938,-0.4190310917758279,0.08608395229100065,0.019175253309739706,-0.024602734022143115,0.015135038192028646,25.16498290002346
1640,B,172736034966465.0,7.0403651752251735,9.086506821964434,5.047106590979105,205,1970-01-02 23:58:56.034966465,-0.040846232,-2.0105531,0.2247684,8.286280599861783,2.023490305444226,-94.24606323242188,-0.5622897744178772,159.75631713867188,25214917.0,49935.0,0.33147547971486907,-0.195651947787456,0.20701501347066664,0.018435544155586576,-0.015347098790296292,0.007317948427654428,25.2149170699995
1640,B,172736084900635.0,7.231900975225173,14.904416721964434,6.239418990979106,205,1970-01-02 23:58:56.084900635,1.5101788,-1.2073438,-0.020242421,4.336173231500877,1.9335792755860364,-93.41551971435547,-1.6436115503311157,159.80133056640625,25264851.0,49934.0,0.3563356689782938,0.10962818812127202,0.2817906842047506,0.017172580949422197,-0.0021477552075856157,0.012204011853862143,25.264851240004646
1640,B,172736134834805.0,6.887136175225174,17.147783771964434,4.877118320979106,205,1970-01-02 23:58:56.134834805,2.1131184,-1.4448978,0.43888655,3.0921076621467254,2.5972332256911974,-92.59139251708984,-4.389830589294434,159.83175659179688,25314785.0,49934.0,0.3525100005352938,0.310894089731922,0.27754658706766067,0.017697749830745742,0.010499179711160695,0.013964973651858292,25.31478541000979
1640,B,172736184768975.0,11.069806675225173,16.056027791964436,4.467709810979105,205,1970-01-02 23:58:56.184768975,3.4521558,-4.015381,-1.0471573,7.177270518443014,5.397888721859494,-92.35289764404297,-5.843924045562744,160.02603149414062,25364719.0,49934.0,0.4483309921471938,0.3396463633166121,0.23331232397060064,0.019994597064303666,0.01624204349126275,0.01275461443189227,25.364719580014935
1640,B,172736234703145.0,10.176769175225173,-3.2244788780355655,12.208164390979105,205,1970-01-02 23:58:56.234703145,2.6361632,3.170893,-4.416589,22.412717310569217,6.0423652015915295,-91.63013458251953,-6.339312553405762,159.81419372558594,25414653.0,49934.0,0.5304632592581938,-0.16898791826593793,0.41634655120029057,0.024437556074838312,0.004260829397580181,0.01622003313639164,25.41465375002008
1640,B,172736284637315.0,-0.2763158247748261,2.5144231219644357,14.504203390979105,205,1970-01-02 23:58:56.284637315,1.0872688,1.2789834,-0.67324954,18.10608586238039,1.80865058096892,-90.70809173583984,-5.921267509460449,159.65914916992188,25464587.0,49934.0,0.2471846188006938,-0.5070811620618279,0.6669276864121506,0.019415534571496244,-0.016879416728543328,0.027046107890469816,25.464587920025224
1640,B,172736334576615.0,-0.6569933247748261,5.873488121964435,11.901705990979107,205,1970-01-02 23:58:56.334576615,0.2968426,2.171675,-0.8341044,14.128876835314589,2.345211714301956,-89.87238311767578,-5.387846946716309,159.47085571289062,25514527.0,49940.0,-0.023304729464254815,-0.27996585623909614,0.6593555572674965,0.005590280836730881,-0.01965256404697407,0.03311729259468079,25.514527220017044
1640,B,172736384515915.0,-0.7455791247748267,11.368180721964436,9.268084390979105,205,1970-01-02 23:58:56.384515915,0.12213922,2.610564,-1.0631363,8.793022871754857,2.8213863931648744,-89.00875854492188,-4.598625183105469,159.26617431640625,25564466.0,49939.0,-0.03502153277903005,-0.0588863498015181,0.5285990809423056,-0.0014563776050837015,-0.008460970158731117,0.02966263333877965,25.564466520008864
1640,B,172736434455215.0,-0.242796824774826,12.000250121964434,6.325610390979105,205,1970-01-02 23:58:56.434455215,0.5429187,4.77092,-1.1270522,6.68089920500317,4.932208939484877,-88.49913787841797,-3.675743341445923,158.9928741455078,25614405.0,49939.0,-0.02467925327228005,0.09409583395748188,0.3893667618581055,-0.0014906987773081876,0.0008791632146323375,0.022921148111804863,25.614405820000684
1640,B,172736484394515.0,-4.121402824774826,12.009827121964435,5.083019590979106,205,1970-01-02 23:58:56.484394515,0.6824683,1.4856447,-2.374477,9.377507667102002,2.882888166175022,-88.32613372802734,-2.518439769744873,158.90850830078125,25664345.0,49940.0,-0.10897406524925482,0.11011962878090382,0.2848734906494965,-0.0033373233634827254,0.005099260104577491,0.01683577910511482,25.664345120021608
1640,B,172736534333815.0,-0.5564368247748264,14.660208121964434,5.0973848909791055,205,1970-01-02 23:58:56.534333815,-0.9846705,-0.0366182,4.820319,5.037690422636771,4.919999202022546,-88.10304260253906,-0.9765576720237732,158.9084014892578,25714284.0,49939.0,-0.11680331712943003,0.17653524502328183,0.2541996097122555,-0.0056375483493045705,0.007157628871453613,0.013460385779482767,25.714284420013428
1640,B,172736584273115.0,-6.024793824774827,-3.2244788780355655,9.385399990979106,205,1970-01-02 23:58:56.584273115,-3.081111,-1.6323843,2.2349224,22.903376445434237,4.1415940930068516,-87.96753692626953,-0.22360217571258545,158.9896240234375,25764223.0,49939.0,-0.16433003870393004,-0.20385775864371813,0.36162789711005555,-0.007019759328481084,-0.0006822295038454843,0.015376904931599697,25.764223720005248
1640,B,172736634212415.0,-4.3081508247748275,-0.6650768780355634,8.015916790979105,205,1970-01-02 23:58:56.634212415,-0.8195545,-0.69708216,1.741705,19.62630065691781,2.047224810148,-87.7662124633789,0.46854251623153687,159.02780151367188,25814163.0,49940.0,-0.25801362789925486,-0.5865342072290961,0.43451088004549654,-0.010545921355081526,-0.01973608738784417,0.019879585265574137,25.81416302002617
1640,B,172736684151715.0,-0.4558805247748263,5.5383001219644346,6.349552390979105,205,1970-01-02 23:58:56.684151715,-1.647265,-1.5812516,1.1366347,12.212670308513404,2.5506424767049674,-87.63239288330078,1.0260645151138306,159.1114501953125,25864102.0,49939.0,-0.11895548078258009,-0.3677202522107181,0.35869858273890554,-0.009412730159231077,-0.023827256724982437,0.019806043680995127,25.86410232001799
1640,B,172736734091015.0,4.550395205225174,10.386558121964434,7.374270690979106,205,1970-01-02 23:58:56.734091015,-1.6046544,-1.7857823,0.66685313,7.154525499626033,2.4917117135462212,-87.10401916503906,0.9084481000900269,159.21237182617188,25914041.0,49939.0,0.10223798431350493,-0.09176645207821814,0.3426770004449556,-0.000417427528084572,-0.011473153262742593,0.01751299762430942,25.91404162000981
1640,B,172736784030315.0,6.961356175225173,15.694503421964434,6.928949090979105,205,1970-01-02 23:58:56.784030315,0.6441188,-1.4992262,0.68496263,4.280455940980771,1.769672860100532,-86.13582611083984,-0.08131256699562073,159.29544067382812,25963980.0,49939.0,0.2874426760941549,0.16182886622113182,0.35714424634560554,0.009730131250049063,0.0017494234499414831,0.017474186621736915,25.96398092000163
1640,B,172736833969615.0,7.3540053752251735,18.883579921964436,6.809239090979105,205,1970-01-02 23:58:56.833969615,2.11951,-1.2435628,0.1256988,4.888898488029933,2.4606038417358613,-84.18977355957031,-2.2745201587677,159.3180389404297,26013920.0,49940.0,0.35745457791474516,0.3740027410979038,0.3430425589034965,0.016103084432602235,0.01337971523475632,0.017483664527070078,26.013920220022555
1640,B,172736883908915.0,7.732289175225174,12.002644521964434,10.886564390979105,205,1970-01-02 23:58:56.883908915,2.3144534,0.737829,1.9845853,9.105731198443415,3.136824028693457,-83.08124542236328,-2.735095739364624,159.24754333496094,26063859.0,49939.0,0.37669723177746994,0.2818113812526819,0.44185536504275547,0.018331403612109762,0.01637535072803295,0.019598508711975937,26.063859520014375
1640,B,172736933848215.0,-0.582773124774826,-3.2244788780355655,12.694186890979106,205,1970-01-02 23:58:56.933848215,-1.8869495,2.0193422,-5.4435034,22.178129321186578,6.1049201962075355,-82.77159881591797,-2.637235403060913,159.09567260742188,26113798.0,49939.0,0.17851984102171994,-0.2702157929539181,0.5887995691348555,0.01386349269925937,0.0002895360420259822,0.025734938378947858,26.113798820006195
1640,B,172736983787515.0,-5.763825824774827,5.107343121964435,11.966349390979104,205,1970-01-02 23:58:56.983787515,1.0648983,0.68882686,-2.4447842,17.052405739489632,2.7541714937472555,-82.18142700195312,-1.8918664455413818,159.02528381347656,26163738.0,49940.0,-0.15847457577025484,-0.4423968798290961,0.6157735909604964,0.0005005302733290837,-0.017793938439391865,0.030078191807580937,26.163738119998015
1640,B,172737033726815.0,-6.891494824774826,6.009958121964434,9.495533390979105,205,1970-01-02 23:58:57.033726815,-0.029128324,1.0712568,-1.9014994,16.153219182169014,2.1826908986399447,-81.83435821533203,-0.986067533493042,158.9505615234375,26213677.0,49939.0,-0.31599702895893006,-0.21180874658971813,0.5358924821241055,-0.011847318734285382,-0.01633518738886458,0.02875652601188597,26.21367742001894
1640,B,172737083666115.0,-1.301033824774826,13.084823521964434,8.111684990979105,205,1970-01-02 23:58:57.083666115,1.6145747,0.77404803,-0.82238656,7.534990488935319,1.970360745826917,-81.09217071533203,-0.012598283588886261,158.90135192871094,26263616.0,49939.0,-0.20456334411493005,-0.012615049741918148,0.4396434393883056,-0.01299813223546775,-0.005603749982502792,0.024358644192204147,26.26361672001076
1640,B,172737133605415.0,1.9311385752251735,15.361709321964435,5.1404804909791055,205,1970-01-02 23:58:57.133605415,1.0137656,0.61425835,-0.81919074,2.63493480578139,1.440870390003844,-80.58464050292969,1.0400608777999878,158.8692169189453,26313556.0,49940.0,0.015733715618745175,0.2208979251129038,0.33090657208449653,-0.004715075823549736,0.005200823398013511,0.019240633786475867,26.31355602000258
1640,B,172737183544715.0,-1.7750858247748265,11.313114121964436,-1.0245888090208943,205,1970-01-02 23:58:57.183544715,-0.6853312,-0.2699111,0.7659227,9.36538895266451,1.0626233754119754,-81.52377319335938,1.9359619617462158,158.8650360107422,26363495.0,49939.0,0.0038965591523699404,0.17665480398318184,0.10277175735265555,0.0004901581458973588,0.00992669286916471,0.010828731046880967,26.363495320023503
1640,B,172737233484015.0,-4.767837824774826,6.0171401219644345,8.013522590979106,205,1970-01-02 23:58:57.233484015,0.82521373,0.12636726,2.080459,14.333501165186162,2.2417082850499126,-81.25035095214844,2.871037483215332,158.88418579101562,26413434.0,49939.0,-0.16337353206743005,-0.05667441665621811,0.17451018206860555,-0.003982060275202593,0.0029958502813606206,0.006923591386379179,26.413434620015323
1640,B,172737283423315.0,3.9829694102251736,-3.174199878035566,17.111489390979106,205,1970-01-02 23:58:57.283423315,-3.9343877,-3.28674,2.1401138,23.772033028098118,5.555371587793361,-80.84339141845703,2.8827457427978516,159.0929412841797,26463373.0,49939.0,-0.019597771877097554,-0.41841540357921814,0.6273589866835054,-0.004568701973842882,-0.011862755266368725,0.020022272209155836,26.463373920007143
1640,B,172737333362615.0,-1.8540944247748263,4.551889121964434,12.306326390979105,205,1970-01-02 23:58:57.333362615,-1.0144979,-1.8465024,1.2452917,15.777269692234851,2.447351327537397,-80.32574462890625,3.3928656578063965,159.22476196289062,26513313.0,49940.0,0.05315800838669517,-0.45501109957909613,0.7345628600754965,0.0008379991056446524,-0.021809459783863106,0.034007188513572276,26.513313219998963
1640,B,172737383305845.0,0.8369881752251738,9.582106521964434,11.559335390979104,205,1970-01-02 23:58:57.383305845,-0.837664,-1.0656636,0.97791034,10.784497644516287,1.671415124479815,-79.54161071777344,3.7767081260681152,159.33689880371094,26563256.0,49943.0,-0.02539866871062915,-0.13649432777763032,0.5959613731881694,0.0006931923507208826,-0.014770777779238494,0.033225185890943636,26.563256449997425
1640,B,172737433249075.0,4.105073695225173,13.985043221964435,9.497927390979106,205,1970-01-02 23:58:57.433249075,-0.59158796,-1.5982958,2.0772634,6.066880423115801,2.6869218469643217,-78.42071533203125,3.7651185989379883,159.50979614257812,26613199.0,49943.0,0.12341069799795085,0.09906567983051973,0.5258314375596694,0.0024475073893483537,-0.0009346494822112722,0.028012849173589656,26.61319968002499
1640,B,172737483192305.0,10.854328175225174,15.383257121964435,7.893812390979106,205,1970-01-02 23:58:57.483192305,0.25210148,-2.2257366,1.121721,8.013552488247269,2.505138034248562,-77.78036499023438,2.538153886795044,159.66419982910156,26663142.0,49943.0,0.3735587038079508,0.24392911203841972,0.43429782996516947,0.012410071417196073,0.008565094445155222,0.023975868003996516,26.663142910023453
1640,B,172737533135535.0,12.652374175225173,16.987372261964435,9.272872690979106,205,1970-01-02 23:58:57.533135535,1.0297445,1.02332,-0.38988918,10.153480104427876,1.5031869911495785,-77.00603485107422,1.2961140871047974,159.6337432861328,26713086.0,49944.0,0.587009371095446,0.3189081569754717,0.42868645986666054,0.02398730596648763,0.014055172281814897,0.021550443685680463,26.713086140021915
1640,B,172737583078765.0,-3.4390558247748264,5.942920121964436,10.869805090979106,205,1970-01-02 23:58:57.583078765,1.8223013,3.9868855,-0.5454178,14.707901711762295,4.4174108473911256,-76.51168823242188,2.006444215774536,159.4456024169922,26763029.0,49943.0,0.23007037918827083,0.08316239626527976,0.5029928782321695,0.020403706984209836,0.010040304820251426,0.023265430591334936,26.763029370020377
1640,B,172737633021995.0,-2.986551824774826,5.839969121964435,14.884881390979105,205,1970-01-02 23:58:57.633021995,0.8475843,1.5687352,-3.160642,16.81483125717231,3.628909908703925,-75.7938461303711,2.4216370582580566,159.35879516601562,26812972.0,49943.0,-0.16045706142072916,-0.19520498124523025,0.6431331534842194,0.0017383489646321671,-0.002797871410826834,0.028620486201005803,26.81297260001884
1640,B,172737682965225.0,-6.7574188247748275,5.693922121964436,11.616796390979104,205,1970-01-02 23:58:57.682965225,1.934154,2.4678185,-1.5233306,17.099255840399486,3.4859168035905004,-75.31756591796875,3.228931188583374,159.24000549316406,26862915.0,49943.0,-0.2433215630752292,-0.20142283480223025,0.6617866467321694,-0.010082957921600825,-0.00990439150842916,0.03258580479110355,26.8629158300173
1640,B,172737732908455.0,-5.2538608247748275,10.551758121964436,7.410183690979105,205,1970-01-02 23:58:57.732908455,0.37886795,1.2044148,-1.2346438,11.548833624427607,1.765927871368104,-75.09664916992188,4.2746663093566895,159.17959594726562,26912859.0,49944.0,-0.299945675408554,-0.08376407294860826,0.47514174660666036,-0.013566469479417035,-0.007121687460353939,0.028391375838457255,26.912859060015762
1640,B,172737782851685.0,0.11872777522517364,16.726404284964435,8.296038390979106,205,1970-01-02 23:58:57.782851685,-1.7537915,0.47470874,-2.3531716,5.686327186838508,2.9729698270166143,-74.15679168701172,5.104869842529297,159.20994567871094,26962802.0,49943.0,-0.1282319749468292,0.19173523254462427,0.39220792471961946,-0.010692238195849451,0.002696201811851914,0.021659022317524198,26.962802290014224
1640,B,172737832794915.0,2.670946875225174,16.661760838964437,2.3632064909791053,205,1970-01-02 23:58:57.832794915,-4.7535763,-0.1442099,0.5358256,2.1298483350766286,4.785853446230364,-76.66911315917969,6.883747577667236,158.98284912109375,27012745.0,49943.0,0.06966236053372085,0.3443111653921898,0.2661773335698195,-0.0014625711263169352,0.013385882626079154,0.016440867477374724,27.012745520012686
1640,B,172737882738145.0,0.4970117752251735,15.270729621964435,2.7151541909791055,205,1970-01-02 23:58:57.882738145,1.0180266,1.3002887,-0.6562053,3.9654110354456136,1.7770014792912638,-77.23213195800781,8.051257133483887,158.833251953125,27062688.0,49943.0,0.07910867943972086,0.30796078554508527,0.12681428376951948,0.0037150360246968,0.016288209022830166,0.009813590172389303,27.062688750011148
1640,B,172737932681375.0,-10.564199824774827,13.908428821964435,0.7543029909791055,205,1970-01-02 23:58:57.932681375,0.48326388,0.1370199,-0.06604879,15.134074268137587,0.5066368259109562,-77.57933807373047,9.381427764892578,158.7698974609375,27112631.0,49943.0,-0.25139278637932916,0.23920595508256975,0.08663755001926947,-0.004302192576442429,0.013663574263583488,0.005330212467456743,27.11263198000961
1640,B,172737982624605.0,-2.5747488247748263,-3.2244788780355655,5.018376190979105,205,1970-01-02 23:58:57.982624605,-4.686465,-2.8265457,-0.24820901,20.98761827965926,5.478496372460118,-78.0243148803711,9.558680534362793,158.86842346191406,27162575.0,49944.0,-0.32810582567655394,-0.2226516020002083,0.14415534453186044,-0.014471239340259515,0.00041339530517273,0.005763360162730816,27.16257521000807
1640,B,172738032567835.0,-5.0264118247748275,-3.2244788780355655,3.9864752609791054,205,1970-01-02 23:58:58.032567835,-2.1980066,-1.3138702,-0.3685839,21.852322039005973,2.587149397972759,-78.40507507324219,9.894152641296387,158.8819580078125,27212518.0,49943.0,-0.18981238316022916,-0.6504815486057303,0.22486464803257444,-0.012933194551967729,-0.021803444470356197,0.009214982744322786,27.212518440006534
1640,B,172738082511065.0,-0.16378782477482678,6.570200121964435,5.4253904909791055,205,1970-01-02 23:58:58.082511065,-0.63419855,-2.9895313,-0.026634008,11.015575649945246,3.0561764616729734,-78.50578308105469,10.15976333618164,159.01385498046875,27262461.0,49943.0,-0.12960707054872922,-0.4058937219572302,0.23502840562502444,-0.007976382888293256,-0.02637927506886297,0.011484219389410731,27.262461670004996
1640,B,172738132454295.0,5.455403375225174,12.167844121964436,5.408631090979105,205,1970-01-02 23:58:58.132454295,-0.3870572,-3.7085848,0.49214977,4.968769753516109,3.7610671213066555,-78.37625122070312,9.474968910217285,159.22303771972656,27312404.0,49943.0,0.13213957771807083,-0.021524328162730248,0.27054176993386947,6.32405027792141e-05,-0.010673269838570594,0.01262484563896892,27.312404900003457
1640,B,172738182397525.0,11.266131175225174,13.616336321964436,7.122879390979105,205,1970-01-02 23:58:58.182397525,0.90936965,-2.9650302,3.6964653,8.520424009135851,4.8251645527750915,-77.90155792236328,8.308390617370605,159.46888732910156,27362348.0,49944.0,0.4175701607938462,0.15443135404579175,0.3129368797554605,0.01372735159011959,0.003318954250351812,0.014570628840041948,27.36234813000192
1640,B,172738232340755.0,12.784055175225173,18.608246921964437,3.9385912309791054,205,1970-01-02 23:58:58.232340755,1.8862171,0.5908226,-1.5893769,9.054406804234919,2.5363369695797084,-77.72433471679688,5.374151706695557,159.4313201904297,27412291.0,49943.0,0.6005692284502708,0.3152547804757698,0.2762215136362295,0.02542446775850947,0.011728767308205176,0.014712168820580586,27.41229136000038
1640,B,172738282283985.0,6.788973875225174,7.743359121964435,8.224212390979105,205,1970-01-02 23:58:58.282283985,-0.017410416,3.105912,-3.27356,10.28036398530073,4.512558869192655,-77.4417724609375,4.725612163543701,159.2705535888672,27462234.0,49943.0,0.4887678949333209,0.16859773032596978,0.3037234506457294,0.02720238197657336,0.012082522973485641,0.014482095675566938,27.462234589998843
1640,B,172738332227215.0,1.4977880752251735,-3.2244788780355655,2.7558554909791053,205,1970-01-02 23:58:58.332227215,-4.694987,4.452406,-3.0210924,20.12282611532561,7.140995827497924,-78.09882354736328,4.68528938293457,158.9866943359375,27512177.0,49943.0,0.20693287604567087,-0.3765981819887303,0.27418876511431944,0.017372691802501894,-0.005194083278696624,0.014431334895852061,27.512177819997305
1640,B,172738382170445.0,-2.1198505247748263,1.2933801219644359,4.230683840979105,205,1970-01-02 23:58:58.382170445,1.5943347,2.9152296,0.3952107,16.5597516276648,3.3461408000463373,-78.29412078857422,5.149411201477051,158.8253631591797,27562121.0,49944.0,-0.015534143490153928,-0.5376745981366083,0.17446786019766045,0.0047796091493763695,-0.022831219865289958,0.011203853247290762,27.56212105002487
1640,B,172738432114345.0,-1.5500308247748262,11.873357121964435,4.7550140409791055,205,1970-01-02 23:58:58.432114345,0.8454538,3.0313435,0.24181263,7.340207701345699,3.156312546462123,-78.32872772216797,6.172228813171387,158.6727752685547,27612064.0,49943.0,-0.09164244212027915,-0.16064822091323022,0.22438635465931944,-0.0026763601075709296,-0.017438168275903044,0.009959988026301074,27.612064950022614
1640,B,172738482058245.0,-1.1454104247748265,16.544444951964437,3.8500057609791054,205,1970-01-02 23:58:58.482058245,2.3346934,3.8622496,-0.8468876,5.0858271437243445,4.5918388312023195,-78.3086166381836,7.5883073806762695,158.4661102294922,27662008.0,49944.0,-0.06731055888375392,0.22019815339015175,0.21488455449450045,-0.003969374341072715,0.0014870809138136844,0.010969473143389192,27.662008850020356
1640,B,172738532002145.0,-3.300192324774826,19.460582721964435,1.3791896909791053,205,1970-01-02 23:58:58.532002145,2.22071,3.0750191,-0.5028072,8.196647273524091,3.826239727178193,-78.99212646484375,10.35531997680664,158.19052124023438,27711952.0,49944.0,-0.11101559186175393,0.40966635107335175,0.13058346882630043,-0.004453160636416822,0.01572897640546261,0.00862702747836704,27.7119527500181
1640,B,172738581946045.0,-4.995287324774827,19.915481121964437,1.6880416909791052,205,1970-01-02 23:58:58.581946045,0.5588976,-0.89415604,0.84368706,9.783643800034206,1.3504404490260522,-79.48487091064453,13.20494556427002,158.13595581054688,27761896.0,49944.0,-0.20715471780855396,0.4938478663105918,0.07659490207026043,-0.00794534897308693,0.02256255703651184,0.005173658278028918,27.761896650015842
1640,B,172738631889945.0,-9.343156824774827,-1.134339878035565,-0.22253110902089457,205,1970-01-02 23:58:58.631889945,-2.4291692,-2.255564,-0.8021465,22.650563455050964,3.4105528830069316,-80.06885528564453,13.720173835754395,158.12857055664062,27811840.0,49944.0,-0.358059627302554,-0.020448540856608254,0.036596730252660435,-0.014114532626114588,0.011821727955236878,0.00282662144236798,27.811840550013585
1640,B,172738681833845.0,-0.25716182477482663,-3.2244788780355655,-1.8242526090208946,205,1970-01-02 23:58:58.681833845,-2.546348,-4.0260334,2.7984474,21.204890183417483,5.5248656929907645,-80.78524017333984,13.800459861755371,158.20443725585938,27861784.0,49944.0,-0.23973915731655393,-0.5982996219766084,-0.05111228300693956,-0.014928231249508365,-0.015451379122271087,-0.00036248238337985837,27.861784450011328
1640,B,172738731777745.0,-0.755155824774826,-1.3450298780355645,-0.698977209020895,205,1970-01-02 23:58:58.731777745,-0.15589479,-2.6358633,3.120157,19.252621739725452,4.08747577686829,-81.3378677368164,13.969491004943848,158.2242889404297,27911728.0,49944.0,-0.02527959634455393,-0.6035609726566084,-0.06301009501613958,-0.006618048316425185,-0.030012862769180693,-0.0028498640239923326,27.91172835000907
1640,B,172738781721645.0,4.466598175225173,9.694634121964434,3.1389278509791056,205,1970-01-02 23:58:58.781721645,-2.4909544,-3.8694396,1.9664757,7.0948046790020385,5.004442358506891,-81.8240966796875,13.602466583251953,158.3384552001953,27961672.0,49944.0,0.09268213837544607,-0.2809448828206083,0.06093044743098044,0.0016831762795954388,-0.022087880222977058,-5.193295949659405e-05,27.961672250006814
1640,B,172738831665545.0,9.389076775225174,11.322691121964436,6.423772590979105,205,1970-01-02 23:58:58.831665545,-1.2264855,-4.763197,2.7547715,8.016200607296227,5.637470918748185,-81.54143524169922,12.518563270568848,158.6649169921875,28011616.0,49944.0,0.3460039148626461,0.0353934459913917,0.23879975543658044,0.010954868121461639,-0.006131910480499197,0.00748486262600873,28.011616150004556
1640,B,172738881609445.0,15.846238675225173,15.560428121964435,5.679175790979105,205,1970-01-02 23:58:58.881609445,1.4292186,-2.5868611,2.5939164,12.075123139181638,3.9322917551306045,-81.09925842285156,9.782682418823242,158.87847900390625,28061560.0,49944.0,0.6301762974286461,0.18187405375939172,0.30223482699426046,0.024377172261338148,0.005425604003776564,0.01351071559246296,28.0615600500023
1640,B,172738931553345.0,12.319579675225173,16.170949471964434,5.810856890979105,205,1970-01-02 23:58:58.931553345,1.7338843,0.19880524,-3.321497,8.580671777566108,3.7520954958858583,-80.46930694580078,6.808168411254883,158.919677734375,28111503.0,49943.0,0.7033427329382708,0.3029386955867947,0.28692335111751943,0.033299970466807466,0.012106501570298295,0.014712163444718311,28.111503950000042
1640,B,172738981497245.0,5.910301775225173,4.099385121964435,6.1221031909791055,205,1970-01-02 23:58:58.981497245,-2.2416825,3.336009,-4.721254,12.924025267859932,6.200349652350523,-80.61259460449219,6.2172932624816895,158.7145538330078,28161447.0,49944.0,0.45523659958064605,0.01673959547959168,0.2979898791666604,0.028932043091662394,0.007983006284509802,0.01460645318665654,28.161447849997785
1640,B,172739031441145.0,-2.6705168247748268,-3.2244788780355655,1.6617053909791055,205,1970-01-02 23:58:59.031441145,-4.4286704,3.3104427,-1.9387836,21.135118797149783,5.859269086622359,-81.23831176757812,6.450888633728027,158.49143981933594,28211391.0,49944.0,0.08090390978264606,-0.46760304127660834,0.19437726790866044,0.01338850079982013,-0.0112589619684431,0.012295392396764913,28.21139175002463
1640,B,172739081385045.0,-0.7360023247748262,5.083401121964435,2.2602557909791052,205,1970-01-02 23:58:59.081385045,1.3226923,3.40099,-1.690577,12.657119873982186,4.021728296828155,-81.59971618652344,6.774998664855957,158.26260375976562,28261335.0,49944.0,-0.08506759620255394,-0.44303019372460833,0.09793921463586044,-0.00010397557727793973,-0.022740333144450384,0.007299727202101777,28.261335650022374
1640,B,172739131328945.0,-2.5843258247748264,4.580619121964435,3.7302956909791054,205,1970-01-02 23:58:59.131328945,-0.8078366,2.9194906,-2.355302,13.770745615299951,3.837117778618728,-81.88178253173828,7.205925941467285,158.0725555419922,28311279.0,49944.0,-0.08291523455055393,-0.2481212864686083,0.14959605160746042,-0.00419486724956661,-0.017259434763385005,0.006181450668628209,28.311279550020117
1640,B,172739181272845.0,-0.32180542477482676,12.232487621964435,3.4884812909791054,205,1970-01-02 23:58:59.181272845,2.691557,3.4521227,-1.3614104,6.202178181164825,4.584219507978697,-82.0547866821289,8.011488914489746,157.85369873046875,28361223.0,49944.0,-0.07257190956375394,-0.0695942983906083,0.18026729879346046,-0.003882824962822496,-0.007933993585104358,0.008237347586211795,28.36122345001786
1640,B,172739231216745.0,-7.841992824774827,15.601129521964435,-1.5393422090208944,205,1970-01-02 23:58:59.231216745,3.3253894,3.7642453,-0.59122413,13.092957705145004,5.05740084550342,-82.5508804321289,9.277697563171387,157.5673370361328,28411167.0,49944.0,-0.20386636988775397,0.2056098873181917,0.04867390115466045,-0.006903216714463056,0.0033965812866996125,0.005717119645104476,28.411167350015603
1640,B,172739281160645.0,-7.832415824774827,20.461359021964434,-0.6367281090208943,205,1970-01-02 23:58:59.281160645,1.522962,-0.63742733,2.5204132,13.219264930187565,3.0130067296986196,-83.40851593017578,12.109119415283203,157.44317626953125,28461111.0,49944.0,-0.391421332796554,0.41110126391899166,-0.05434082798213955,-0.01486552451143254,0.015400510868694943,-0.00014151449673580814,28.461111250013346
1640,B,172739331104545.0,-10.296049824774826,-3.2244788780355655,-2.5544836090208944,205,1970-01-02 23:58:59.331104545,-3.903495,-3.7533257,1.7427702,25.37131365657754,5.688758651526142,-84.07439422607422,12.734613418579102,157.53292846679688,28511055.0,49944.0,-0.452704044200554,-0.059011829045808345,-0.07969093902293956,-0.021079498914371782,0.008792377367653134,-0.0033470412856508353,28.51105515001109
1640,B,172739381048445.0,2.2782978752251735,-3.2244788780355655,1.2211723909791052,205,1970-01-02 23:58:59.381048445,0.39484692,-2.3258715,3.381147,20.202755625387987,4.122831231126825,-84.3807144165039,12.700096130371094,157.5909881591797,28560999.0,49944.0,-0.20021930168415392,-0.6504945730846083,-0.033295447736939564,-0.016304801793432928,-0.017717793874000767,-0.0028214960501677018,28.56099905000883
1640,B,172739430996545.0,4.059583865225173,1.8129221219644354,3.4860870909791055,205,1970-01-02 23:58:59.430996545,-1.8869495,-2.1650164,2.245575,14.906047462535115,3.6456112667760134,-84.65007781982422,12.477609634399414,157.66885375976562,28610947.0,49948.0,0.15828225858600695,-0.5247426184261204,0.11755909830242435,-0.0010473357143331223,-0.029350373620788937,0.002104400409222417,28.61094715000945
1640,B,172739480944645.0,6.3723826752251735,6.965244121964435,6.205900190979105,205,1970-01-02 23:58:59.480944645,-3.76288,-2.6614296,0.67430997,10.265132528958459,4.658021827535543,-84.63628387451172,11.86797046661377,157.8448486328125,28660895.0,49948.0,0.260527932381207,-0.2702644762241204,0.24204769037962434,0.0104593657092152,-0.019854507181795114,0.008980819940545485,28.66089525001007
1640,B,172739530892745.0,9.808062175225174,11.006656621964435,8.001551590979105,205,1970-01-02 23:58:59.530892745,1.1224226,-2.4228106,1.0791105,9.077458240789758,2.8799866610235143,-84.0133056640625,10.805781364440918,158.0787353515625,28710843.0,49948.0,0.404090429695147,-0.04066015082112043,0.3548169008026243,0.01659817897449486,-0.007765031635827844,0.014906096300185478,28.71084335001069
1640,B,172739580840845.0,11.993968175225174,13.099188721964435,8.904165390979106,205,1970-01-02 23:58:59.580840845,3.0079405,-1.0933605,1.4199951,10.064045033814066,3.5013610665746127,-83.21361541748047,9.633368492126465,158.25311279296875,28760791.0,49948.0,0.544483905972147,0.11252898161927956,0.42220337590742435,0.023689695458955,0.001794852180353226,0.019405304390556755,28.76079145001131
1640,B,172739630788945.0,14.687445175225173,14.248405421964435,6.624885490979105,205,1970-01-02 23:58:59.630788945,2.635098,0.8550081,-1.1132038,11.322180767437981,2.9856327672712952,-82.80378723144531,8.183781623840332,158.24620056152344,28810739.0,49948.0,0.666341617014147,0.19348841615047954,0.38782251672602436,0.03023915661105971,0.007642478491901964,0.020229586642627747,28.81073955001193
1640,B,172739680737045.0,3.851288315225174,3.1464921219644353,2.0543543909791055,205,1970-01-02 23:58:59.680737045,0.84864956,3.3264215,-5.112206,13.71064333928646,6.157916551706952,-83.17980194091797,7.762313365936279,157.99298095703125,28860687.0,49948.0,0.462986330190507,-0.05507022873792043,0.21675533681202433,0.02820383615348903,0.0034568558124412514,0.015098727314259229,28.86068765001255
1640,B,172739730685145.0,-0.1877298247748267,-3.2244788780355655,1.7670501909791052,205,1970-01-02 23:58:59.730685145,-2.2534006,2.9663622,-2.5619633,20.483424113885032,4.521147522058542,-83.64361572265625,7.75307035446167,157.78460693359375,28910635.0,49948.0,0.09149370974050697,-0.49143804124612045,0.09543575802982436,0.013847584517237142,-0.013648497534581437,0.00779666040258033,28.91063575001317
1640,B,172739780633245.0,-3.7910038247748266,4.113750121964435,2.3081398909791053,205,1970-01-02 23:58:59.780633245,0.9242833,3.3850112,-2.5779424,14.878535835761369,4.354123041497805,-83.92976379394531,8.219924926757812,157.55780029296875,28960583.0,49948.0,-0.09936489416385304,-0.4672817399541205,0.10177379710682434,-0.00019657495978864475,-0.023943067815694816,0.004925111429982664,28.96058385001379
1640,B,172739830581345.0,-4.588272824774826,8.224593121964435,4.101396944979105,205,1970-01-02 23:58:59.830581345,-1.8059894,2.6616967,-1.6426401,12.023006135296606,3.6117161480148545,-84.1469955444336,9.013042449951172,157.39859008789062,29010531.0,49948.0,-0.20926405504585302,-0.18135261582612044,0.16007177294122035,-0.0077076993775632,-0.016198994401255738,0.0065393312663798685,29.01053195001441
1640,B,172739880529445.0,-4.679251824774827,13.381704521964435,4.972886360979105,205,1970-01-02 23:58:59.880529445,-1.0805444,2.0331905,-1.3028208,9.27473781105362,2.645521091689546,-84.13297271728516,10.189955711364746,157.30294799804688,29060480.0,49949.0,-0.23145179436017782,0.05010628050830155,0.22662568842465333,-0.011006657980990917,-0.003277811601394868,0.009657575748882012,29.06048005001503
1640,B,172739930477545.0,-6.889100824774827,15.651407721964436,5.027952990979106,205,1970-01-02 23:58:59.930477545,0.3682153,0.046472427,0.4996066,10.914494000036637,0.6223736404997566,-84.0024185180664,11.586150169372559,157.3245849609375,29110428.0,49948.0,-0.2889080390698531,0.23558254517987962,0.24976096197580436,-0.012995466480081591,0.007134792732736636,0.01189728020710103,29.11042815001565
1640,B,172739980425645.0,-5.490886824774826,14.626689421964436,0.8189463909791055,205,1970-01-02 23:58:59.980425645,0.066745475,-1.9274626,1.472193,10.186008662504234,2.4262974389140206,-84.4754867553711,12.898605346679688,157.3250274658203,29160376.0,49948.0,-0.309177811559853,0.26667479807247957,0.14602046516502437,-0.01493659603362628,0.012543374890384417,0.009884245361415057,29.16037625001627
1640,B,172740030373745.0,-5.833256824774827,-3.2244788780355655,-3.5600484090208946,205,1970-01-02 23:59:00.030373745,-3.7074864,-4.8079376,1.350753,23.472775328069872,6.219827412291093,-85.20082092285156,13.264095306396484,157.44180297851562,29210324.0,49948.0,-0.28280916350385304,-0.20473159387592044,-0.06845628179857564,-0.014784282715240996,0.0015469695816048678,0.0019370879153936904,29.21032435001689
1640,B,172740080321845.0,-2.8476881247748262,-3.2244788780355655,-2.4994171090208948,205,1970-01-02 23:59:00.080321845,0.49604705,-3.262239,2.7622283,22.056576147251633,4.303274468385162,-85.68373107910156,13.529136657714844,157.49368286132812,29260272.0,49948.0,-0.21679791917005303,-0.6505466710001204,-0.15132909184757565,-0.01247718728269813,-0.021359719387014243,-0.0054889199214389825,29.26027245001751
1640,B,172740130269945.0,4.375618475225174,1.7243361219644342,2.2698325909791053,205,1970-01-02 23:59:00.130269945,-1.8038589,-3.3080451,2.0889812,15.097591323200312,4.308237663905818,-86.01846313476562,13.251729011535645,157.6052703857422,29310220.0,49948.0,0.038158532572146985,-0.5269549651901204,-0.00573364375357565,-0.004461340040896105,-0.029406925862215074,-0.0039224847589031525,29.31022055001813
1640,B,172740180218045.0,8.120150175225174,8.444861121964435,6.158016190979105,205,1970-01-02 23:59:00.180218045,-1.7133114,-2.7881963,1.0535442,9.492964818682962,3.437939781621733,-85.8396987915039,12.389222145080566,157.8035125732422,29360168.0,49948.0,0.312069326276347,-0.23552486803012046,0.21047709548062435,0.008746590546882288,-0.019042171354842298,0.005113262963431314,29.36016865001875
1640,B,172740230166145.0,12.647585175225172,10.523027821964435,7.084572390979105,205,1970-01-02 23:59:00.230166145,1.3109744,-1.461942,2.7664893,11.100587541192874,3.3925493859093416,-85.42158508300781,11.246227264404297,157.95608520507812,29410116.0,49948.0,0.5186534226421469,-0.015786341514320446,0.3307204072458243,0.020746469931490465,-0.006276246147162867,0.013515866433090327,29.41011675001937
1640,B,172740280114245.0,16.028198175225175,14.985819621964435,7.0749953909791055,205,1970-01-02 23:59:00.280114245,2.9823742,0.07629983,2.697247,12.579408745213515,4.021880022065884,-84.61548614501953,8.590399742126465,158.0727081298828,29460064.0,49948.0,0.7161490133941469,0.14756755606467956,0.3536210457866243,0.030837956037570405,0.003291104052180668,0.01709074344803237,29.46006485001999
1640,B,172740330062345.0,9.008398575225174,11.933212721964434,8.082954190979105,205,1970-01-02 23:59:00.330062345,2.2633207,1.8499651,-2.391521,8.03642728669963,3.77681931732344,-83.88096618652344,7.449114799499512,158.05613708496094,29510012.0,49948.0,0.6252639672457471,0.18278551375727953,0.3785546328598243,0.03350044777850071,0.008250237565733606,0.018285355398516407,29.51001295002061
1640,B,172740380010445.0,3.0971147752251738,-0.8087278780355653,2.073507990979105,205,1970-01-02 23:59:00.380010445,0.14983636,3.5810199,-5.7726703,17.64955316739402,6.794841929837379,-84.21577453613281,7.066734790802002,157.80584716796875,29559961.0,49949.0,0.3023291431708222,-0.2116717532652985,0.2536525647633154,0.02316617413609861,-0.0007214193885930197,0.015789058657039102,29.55996105002123
1640,B,172740429958545.0,-2.3472998247748262,-3.2244788780355655,0.40474959097910546,205,1970-01-02 23:59:00.429958545,-1.2680306,3.3583796,-1.8503667,21.217557105726144,4.038622545460446,-84.68678283691406,7.249810218811035,157.57989501953125,29609909.0,49948.0,0.01872587857254698,-0.5902157055261205,0.061892004851824355,0.008018028113018901,-0.020026337395856898,0.0078804100815685,29.60990915002185
1640,B,172740479909835.0,-3.5204588247748263,3.491257121964436,0.18687719097910538,205,1970-01-02 23:59:00.479909835,0.8710204,3.5384092,-2.6908603,15.663360323564035,4.529872554275329,-85.13836669921875,7.6596808433532715,157.32870483398438,29659860.0,49951.0,-0.14655020615182734,-0.4828568799687546,0.014776174692797295,-0.0031924764934563167,-0.02680052435902725,0.0019148261182166983,29.659860440006014
1640,B,172740529861125.0,-4.549965324774826,9.311561521964435,0.11505099097910554,205,1970-01-02 23:59:00.529861125,-0.88240486,3.5277567,-2.2413187,11.931126236837935,4.271675922435619,-85.76414489746094,8.458284378051758,157.06324768066406,29709811.0,49951.0,-0.20156287834707734,-0.1697630029585545,0.007540807308497297,-0.008694298341902393,-0.016299507886051008,0.0005573777839733332,29.709811730019283
1640,B,172740579812415.0,-7.885088824774828,13.934765121964436,2.1429398909791053,205,1970-01-02 23:59:00.579812415,0.19138168,2.6819365,-1.190968,12.291854370296422,2.9407167688330462,-86.02910614013672,9.725580215454102,156.8833465576172,29759763.0,49952.0,-0.31057791243915217,0.09107065425876745,0.05639558026778828,-0.01279122839067687,-0.001965420101125882,0.0015968752161053085,29.759763020003447
1640,B,172740629763705.0,-8.344775824774826,17.727180521964435,2.3488412909791054,205,1970-01-02 23:59:00.629763705,0.6622286,-0.66086316,1.5009552,12.440635099228205,1.7686586293884372,-86.18305206298828,11.21350383758545,156.88739013671875,29809714.0,49951.0,-0.40534898455482743,0.3012531234299455,0.1121844809099973,-0.01788063221587314,0.00979848250966445,0.0042103713179457835,29.809714310016716
