Subject-id_accel,Activity_accel,Timestamp_accel,accel_x,accel_y,accel_z,Segment_accel,DateTime,gyro_x,gyro_y,gyro_z,accel_magnitude,gyro_magnitude,Roll,Pitch,Yaw,Time_Difference,Difference_Microseconds,vx,vy,vz,dx,dy,dz,Time_diff
1624,B,518501495933745.0,-1.0100555,12.953134593202355,1.8311754182457398,120,1970-01-07 00:01:41.495933745,0.6035309,-0.77685547,0.7942047,3.112579884396701,1.2643239592864721,-101.5244369506836,-35.51280975341797,-103.63380432128906,15005463.0,50354.0,0.0830803360385,-0.02775644693478867,0.02890799565494598,0.011694750792395793,-0.008495956285232566,-0.00019487047758835968,15.005463727051392
1624,B,518501546287749.0,1.1446991,19.816415893202354,2.17776354824574,120,1970-01-07 00:01:41.546287749,0.3442688,-1.1928558,0.25476074,4.0913316748437145,1.267410352211322,-101.54708099365234,-35.488399505615234,-103.56514739990234,15055817.0,50354.0,0.0033899219171999997,0.3315697725962113,0.10093305635935598,0.002177061684550659,0.007649108100177638,0.0032690081665640806,15.05581773101585
1624,B,518501596641753.0,0.43243408,15.336389593202355,10.59864661824574,120,1970-01-07 00:01:41.596641753,-0.35923767,-1.3798065,-0.5531616,8.635770055632117,1.5293480430248174,-101.61720275878906,-35.50164794921875,-103.4753189086914,15106171.0,50354.0,0.03970748207286,0.39157298373121135,0.321671678761756,0.0010850633402577406,0.018206565176055522,0.010639919416144237,15.106171735038515
1624,B,518501646995757.0,4.174423,-2.005026106797647,0.10098131824573997,120,1970-01-07 00:01:41.646995757,-0.7148285,-1.8774719,-1.8407593,18.475282496333087,2.7247523410831946,-101.73191833496094,-35.57278823852539,-103.33946228027344,15156525.0,50354.0,0.11598684070316001,-0.1578254615027887,0.269384532557046,0.003919915964531857,0.005885061367144997,0.01488102223237348,15.156525739002973
1624,B,518501697349761.0,5.764496,-2.824117106797644,3.9138017182457396,120,1970-01-07 00:01:41.697349761,-2.0810394,1.6138153,-0.63609314,19.678679308040486,2.7091953214232283,-101.7840576171875,-35.620365142822266,-103.42864227294922,15206879.0,50354.0,0.250232163663,-0.6150525386886887,0.101080192509746,0.00922029587292681,-0.01945874941082083,0.009327190383006622,15.206879743025638
1624,B,518501747703764.0,12.607117,1.1192418932023553,-2.9500593817542597,120,1970-01-07 00:01:41.747703764,-1.354599,0.6875,0.16383362,20.040483450157932,1.5278861724105315,-101.98670196533203,-35.70774459838867,-103.37865447998047,15257233.0,50354.0,0.46254210050100003,-0.5363928432526887,0.02426414080584599,0.017945517648857028,-0.02898994038113806,0.0031557942798866594,15.257233746000566
1624,B,518501798057768.0,7.672928,2.788858893202354,-0.6168378817542601,120,1970-01-07 00:01:41.798057768,0.00491333,-0.9480438,0.27388,15.407592620693872,0.9868239163752208,-101.99820709228516,-35.53880310058594,-103.33646392822266,15307587.0,50354.0,0.510590692965,-0.3950749465006887,-0.089803772403354,0.024500564341093486,-0.023451564542620783,-0.0016500913047304594,15.307587750023231
1624,B,518501848411772.0,2.2940369,16.658670493202354,1.9539628912457399,120,1970-01-07 00:01:41.848411772,0.032989502,0.080566406,0.48405457,2.4187689862879265,0.4918211867699985,-101.99015808105469,-35.51597213745117,-103.34749603271484,15357941.0,50354.0,0.2509382752873,-0.00383875263848869,0.033664796363966985,0.019173014833688162,-0.01004345020322707,-0.0014134109997436472,15.357941754045896
1624,B,518501898765776.0,-3.9108582,21.002710393202356,0.5103594182457398,120,1970-01-07 00:01:41.898765776,0.46118164,-0.041275024,0.21730042,6.602981536144996,0.51147981896793,-101.96693420410156,-35.504913330078125,-103.34778594970703,15408295.0,50354.0,-0.0407067098701,0.4547313865770114,0.06204424278606699,0.005293000122508845,0.011352123844670187,0.0024096664786804056,15.408295758010354
1624,B,518501949119780.0,-3.0540771,14.450418493202354,0.66248951824574,120,1970-01-07 00:01:41.949119780,-0.7829437,1.3256836,-0.40870667,3.629720874184044,1.5929466365139604,-101.96281433105469,-35.53864669799805,-103.42225646972656,15458649.0,50354.0,-0.17535617604810003,0.39913422597301135,0.029528817674045988,-0.005439815278762522,0.021497774527171925,0.0023055349432042644,15.45864976203302
1624,B,518501999473784.0,-2.9488983,2.194513393202355,7.0891710182457395,120,1970-01-07 00:01:41.999473784,0.108306885,1.3546295,-1.5190125,14.91059992414449,2.0381733093053946,-101.92121887207031,-35.626953125,-103.48440551757812,15509003.0,50354.0,-0.1511369116458,-0.07439974989598867,0.195163557327246,-0.008220116468869323,0.0081758399041912,0.005657079925407529,15.509003766055685
1624,B,518502049827788.0,13.638992,11.349405393202353,2.61797961824574,120,1970-01-07 00:01:42.049827788,0.2548828,0.60398865,1.5558014,14.389497189649443,1.688278865385284,-101.87586212158203,-35.55707931518555,-103.54048156738281,15559357.0,50354.0,0.2691444890849,-0.15247395671468872,0.24439693157494602,0.002971076777184221,-0.005711999311337025,0.011066814429090488,15.559357770020142
1624,B,518502100181792.0,-1.2750702,2.475015893202354,0.34956221824573985,120,1970-01-07 00:01:42.100181792,1.4405365,0.53186035,0.70817566,13.577989048830213,1.6910155543787313,-101.78004455566406,-35.527862548828125,-103.58137512207031,15609711.0,50354.0,0.31128645915860004,-0.14541174527218872,0.074713800817346,0.014613509983926602,-0.007499868318923615,0.008034250909440738,15.609711774042808
1624,B,518502150535796.0,16.906998,0.5077148932023547,-3.78923168175426,120,1970-01-07 00:01:42.150535796,1.5309906,1.7645111,0.4807129,23.579000267348754,2.3850611169397693,-101.63833618164062,-35.52223205566406,-103.69352722167969,15660065.0,50354.0,0.39356504622060007,-0.4183729869906887,-0.08660055808275402,0.017746046350932125,-0.014194408204182465,-0.0002992728876711779,15.660065778007265
1624,B,518502200889800.0,7.2877502,6.765695893202354,-1.45271438175426,120,1970-01-07 00:01:42.200889800,1.779419,-0.28637695,0.37147522,12.17706445527895,1.8402004168368051,-101.77820587158203,-35.540252685546875,-103.55216979980469,15710419.0,50354.0,0.6091511754314001,-0.31034653663068873,-0.131976476040954,0.02524538631253241,-0.018346971446215422,-0.005503113988132597,15.71041978202993
1624,B,518502251243804.0,-0.21768188,11.528161893202356,-0.4852460817542603,120,1970-01-07 00:01:42.251243804,0.7684784,-0.5983429,1.1666412,5.023289548505543,1.5197450334791063,-101.75218963623047,-35.477046966552734,-103.53080749511719,15760773.0,50354.0,0.17800311009264,-0.03288474251168867,-0.04879203058975402,0.01981818344663876,-0.008641533914967636,-0.004551208691441336,15.760773786052596
1624,B,518502301597807.0,1.7799988,19.196481793202356,3.95770131824574,120,1970-01-07 00:01:42.301597807,0.21394348,-1.1565857,0.55241394,4.236428316041042,1.2994704518323315,-101.7778091430664,-35.4382209777832,-103.46822357177734,15811127.0,50354.0,0.03933445309484,0.2800851540926114,0.08742600548914599,0.005471907828371184,0.006223764762372893,0.0009726875860419917,15.811127789027523
1624,B,518502351951811.0,-1.6304321,15.219736153202355,2.9092546182457397,120,1970-01-07 00:01:42.351951811,-0.13813782,-1.9766998,-0.5175476,1.9883126526031658,2.0479940612463094,-101.85733032226562,-35.44329833984375,-103.34297180175781,15861481.0,50354.0,0.0037656408059000015,0.37302791923663137,0.172889349613046,0.0010851310641389312,0.016443427847210344,0.006553959695407888,15.861481793050189
1624,B,518502402305815.0,3.7030792,0.9511208932023543,4.61788801824574,120,1970-01-07 00:01:42.402305815,-0.95173645,-2.3914948,-1.2527618,15.616219160361634,2.862597033503822,-101.99748229980469,-35.479888916015625,-103.1834487915039,15911835.0,50354.0,0.052183036036700006,-0.08633553214266868,0.189510870158946,0.0014086198368661405,0.0072180542298647,0.009124150333199443,15.911835797014646
1624,B,518502452659819.0,6.963333,-3.201422106797647,6.14744431824574,120,1970-01-07 00:01:42.452659819,-2.2865753,1.2610931,-0.6432953,20.74490846196485,2.6893514557305056,-102.07258605957031,-35.52448272705078,-103.25094604492188,15962189.0,50354.0,0.2685482599594,-0.5501250336546888,0.271038772235846,0.00807505183929381,-0.01602416766508007,0.011595258346573678,15.962189801037312
1624,B,518502503013823.0,12.674606,0.5456788932023553,-5.13838338175426,120,1970-01-07 00:01:42.503013823,-1.3561401,1.2223358,-0.22499084,21.142858273691097,1.8395221273128397,-102.09940338134766,-35.54829025268555,-103.32150268554688,16012543.0,50354.0,0.4944243902030001,-0.5603328468886888,0.02540512719804599,0.01920936241313875,-0.027957998058440618,0.007463568056047099,16.01254380500177
1624,B,518502553367827.0,8.209335,3.525659893202354,-1.49698008175426,120,1970-01-07 00:01:42.553367827,-0.2024231,-0.71195984,0.39149475,15.248357309982126,0.8373350968781842,-102.22582244873047,-35.448673248291016,-103.2289810180664,16062897.0,50354.0,0.5257949825570001,-0.3909651033746887,-0.16705854592075403,0.025686063147978527,-0.023950828493781058,-0.0035664081231816204,16.062897809024435
1624,B,518502603721831.0,2.2934418,16.355432563202356,2.0342698982457397,120,1970-01-07 00:01:42.603721831,-0.5444946,0.026901245,0.5358734,2.3400068189491985,0.7644333504232205,-102.24807739257812,-35.42277908325195,-103.2375717163086,16113251.000000002,50354.00000000186,0.2644284114936098,0.007077064774901615,0.013527345709806484,0.01989545439201294,-0.009665149147827198,-0.003865455027711169,16.1132518130471
1624,B,518502654075835.0,-4.53862,23.178369593202355,1.35226305824574,120,1970-01-07 00:01:42.654075835,0.31599426,-0.005584717,0.030044556,8.607328251226015,0.3174684815255758,-102.23224639892578,-35.4212532043457,-103.23763275146484,16163605.0,50353.99999999814,-0.0565268515413979,0.5018733368917828,0.08526274024558282,0.005234337574916645,0.01281384426276164,0.0024872379940987445,16.163605817011558
1624,B,518502704429839.0,-2.665268,12.789072093202355,2.89465197824574,120,1970-01-07 00:01:42.704429839,-0.39619446,1.5461578,-0.71487427,4.189595533632746,1.7488908526673599,-102.2036361694336,-35.472537994384766,-103.32107543945312,16213959.0,50354.0,-0.181372288176,0.4120830793386113,0.10692457987374598,-0.005989586640664927,0.023010680691432635,0.004838700158644342,16.213959821034223
1624,B,518502754783843.0,4.092575,2.1292058932023554,2.58578356824574,120,1970-01-07 00:01:42.754783843,-0.37130737,0.99279785,-1.3231964,14.371541528429887,1.695395365970398,-102.19756317138672,-35.54770278930664,-103.36351776123047,16264313.000000002,50354.00000000186,0.035935308339001326,-0.11787171513629299,0.13798092575402107,-0.003661666841356251,0.007407359516522042,0.006165985915190519,16.26431382499868
1624,B,518502805137846.0,10.177765,10.276712493202353,2.8317247182457397,120,1970-01-07 00:01:42.805137846,0.561203,0.23109436,1.15271,11.65478671663886,1.3027255100491466,-102.15277862548828,-35.493804931640625,-103.39234161376953,16314667.0,50353.99999999814,0.3592843501799867,-0.18112539278548198,0.13639660612899093,0.009950445342532194,-0.00752785018614625,0.006908003120218337,16.314667828031816
1624,B,518502855491850.0,0.86026,1.8658088932023542,1.2334276182457398,120,1970-01-07 00:01:42.855491850,1.9571991,0.25891113,0.9289856,14.073879474248777,2.1818976912967405,-102.03895568847656,-35.45109939575195,-103.41983795166016,16365020.999999998,50353.99999999814,0.27790435542498976,-0.18775693905448176,0.10234834037584219,0.0160425000410159,-0.009287350468734424,0.0060108815181519615,16.36502183205448
1624,B,518502905845854.0,16.302444,0.5898988932023546,-2.25090138175426,120,1970-01-07 00:01:42.905845854,1.5392151,1.4459686,0.27546692,22.758533009274302,2.1297629774855835,-101.90959167480469,-35.452613830566406,-103.51016235351562,16415375.000000002,50354.000000003725,0.432105398608032,-0.4316418450617206,-0.025616936943855906,0.017875915577290707,-0.015594603187694778,0.0019318665442072615,16.41537583601894
1624,B,518502956199858.0,6.0862885,7.939584893202355,-0.7676863817542601,120,1970-01-07 00:01:42.956199858,1.5678864,-0.43798828,0.49649048,10.38807648827526,1.7019413307905031,-102.02198791503906,-35.43939208984375,-103.38621520996094,16465729.0,50353.99999999814,0.5636811181524792,-0.27872238670967836,-0.0759989841218512,0.025070917132478464,-0.01788484026330785,-0.0025583840446712133,16.465729840041604
1624,B,518503006553862.0,-0.50561523,12.513269493202355,0.14160021824573987,120,1970-01-07 00:01:43.006553862,0.83088684,-0.9795532,0.9417877,3.885911215329716,1.5927528007781733,-102.0075454711914,-35.38314437866211,-103.33948516845703,16516082.999999998,50353.99999999814,0.1405046109187848,0.021472314886510538,-0.01576297133865343,0.01772928410082656,-0.006476785058291657,-0.0023102907526290394,16.51608384400606
1624,B,518503056907866.0,0.8909607,17.341485993202355,3.15025191824574,120,1970-01-07 00:01:43.056907866,0.15196228,-1.3437805,0.40966797,2.057793906399421,1.4130344696315689,-102.0435562133789,-35.34911346435547,-103.2641372680664,16566437.0,50354.00000000186,0.009701842898190361,0.25818397888122085,0.08287896124044905,0.0037817478877501236,0.007040906508190434,0.001689779277757571,16.566437848028727
1624,B,518503107261870.0,-0.71110535,12.000848893202354,0.6666856182457399,120,1970-01-07 00:01:43.107261870,-0.24266052,-2.157135,-0.60466003,4.172444651130033,2.2533817448606595,-102.13499450683594,-35.3560791015625,-103.1270523071289,16616791.0,50354.0,0.004528218146950002,0.24528276543501137,0.09609903635624599,0.00035827024693349893,0.012675782221649778,0.004506129045491991,16.616791852051392
1624,B,518503157615874.0,3.2095184,0.8586518932023548,4.77862411824574,120,1970-01-07 00:01:43.157615874,-1.2198486,-1.7648773,-0.9291687,15.623586455434674,2.337985663779173,-102.26416778564453,-35.382843017578125,-103.00923156738281,16667145.000000002,50354.00000000186,0.06290254535985232,-0.16970554870069496,0.13709656323565106,0.001697704332810825,0.0019028075857199548,0.0058711656109254095,16.66714585601585
1624,B,518503207969878.0,4.9556427,-1.974523106797644,5.27326831824574,120,1970-01-07 00:01:43.207969878,-2.655075,1.4627075,-0.6502991,18.83007577769043,3.1002944062849997,-102.35105895996094,-35.430198669433594,-103.0884017944336,16717499.0,50353.99999999814,0.2055742610146924,-0.5215634895446694,0.25307649587353664,0.0067594405540916625,-0.017404080575902894,0.009823387109191655,16.717499860038515
1624,B,518503258323882.0,11.718628,3.825952893202354,-2.59111138175426,120,1970-01-07 00:01:43.258323882,-1.2815552,0.98561096,0.08590698,17.433854536860746,1.619009791302042,-102.57172393798828,-35.612850189208984,-103.03731536865234,16767852.999999998,50353.99999999814,0.41980811341388447,-0.44685575226767216,0.0675286651900435,0.015745252040987697,-0.02438189125110842,0.008071876140097458,16.767853864002973
1624,B,518503308677886.0,9.207306,4.457223893202354,-1.58397038175426,120,1970-01-07 00:01:43.308677886,-0.48583984,-0.5940552,0.45440674,15.110734715148897,0.8918673758668905,-102.72998809814453,-35.63459396362305,-102.93974304199219,16818207.0,50354.00000000186,0.5268522403180196,-0.28492365804869924,-0.1051160335598579,0.02383406772590903,-0.018424010213535964,-0.000946337173446852,16.818207868025638
1624,B,518503359031889.0,1.5091705,16.353830393202355,-0.09935138175426017,120,1970-01-07 00:01:43.359031889,-0.28877258,0.0730896,0.45077515,2.619633975602794,0.5403054029394292,-102.73831176757812,-35.61341857910156,-102.95024108886719,16868561.0,50354.0,0.26980872884050006,0.03049071376881131,-0.042380992039854015,0.020057533220504048,-0.006405858238134739,-0.0037135326135239468,16.868561871000566
1624,B,518503409385893.0,-3.4047852,21.961282893202355,1.9402910182457398,120,1970-01-07 00:01:43.409385893,0.15013123,0.37271118,0.09616089,6.958488380876237,0.4131584764759128,-102.71702575683594,-35.612831115722656,-102.97389221191406,16918915.0,50354.0,-0.047725891301900004,0.4711904072118114,0.046349337227945986,0.005591379600709334,0.012630825582929137,9.991102680059156e-05,16.91891587502323
1624,B,518503459739897.0,-2.8815918,12.195993493202355,5.20953231824574,120,1970-01-07 00:01:43.459739897,-0.51168823,1.438385,-0.6417999,5.685524880548646,1.6561048772905487,-102.69738006591797,-35.65995788574219,-103.0515365600586,16969269.0,50354.0,-0.15827211372900002,0.3665085475805114,0.180011102142846,-0.00518641177266297,0.02109074658480631,0.00569907678203843,16.969269879045896
1624,B,518503510093901.0,5.2504425,4.759454893202355,8.916807618245741,120,1970-01-07 00:01:43.510093901,-0.46115112,1.5253601,-0.7490082,14.123666110867788,1.7607944439418546,-102.67291259765625,-35.71324920654297,-103.13302612304688,17019623.0,50354.0,0.05964055407390001,-0.06658187597548866,0.35565886058104607,-0.002483246777436453,0.007551253810999658,0.013486562651499433,17.019623883010354
1624,B,518503560447905.0,8.982437,7.305398893202355,4.2381273182457395,120,1970-01-07 00:01:43.560447905,0.46713257,0.47261047,1.0742798,12.628370498570394,1.263190636046858,-102.6245346069336,-35.66600799560547,-103.1758804321289,17069977.0,50354.0,0.3583412071715,-0.18971237621968867,0.331201796896046,0.010523526802875436,-0.00645272038751798,0.01729309077330075,17.06997788703302
1624,B,518503610801909.0,4.768448,2.672036893202355,1.2095628682457398,120,1970-01-07 00:01:43.610801909,2.028839,0.28605652,0.80511475,14.076250957011958,2.201414495551229,-102.50680541992188,-35.62982940673828,-103.20384216308594,17120331.0,50354.0,0.346206031645,-0.24226729920568865,0.137156495825296,0.01773838583168302,-0.010875952288184726,0.011791856735845228,17.120331891055685
1624,B,518503661155913.0,14.0681305,1.3682648932023547,-3.0711377817542598,120,1970-01-07 00:01:43.661155913,1.7644653,0.98420715,0.45674133,20.8448858165755,2.0713797699952035,-102.5326156616211,-35.79240417480469,-103.18043518066406,17170685.0,50354.0,0.4742485368945001,-0.3917465219236887,-0.04686887159740401,0.020656584672118998,-0.015962565974574332,0.0022731715151856364,17.170685895020142
1624,B,518503711509917.0,5.324463,9.096094193202354,-1.37400948175426,120,1970-01-07 00:01:43.711509917,1.1925507,-0.3136139,0.71743774,9.266836683501717,1.4266210993532962,-102.47843170166016,-35.753997802734375,-103.1711654663086,17221039.0,50354.0,0.48824732654950004,-0.2300080312815887,-0.11191547265335403,0.024232758353929594,-0.01565391438604927,-0.003997713435201336,17.221039899042808
1624,B,518503761863921.0,-0.14782715,15.125574193202354,1.4596391582457398,120,1970-01-07 00:01:43.761863921,0.6636658,-1.0822296,0.9810486,0.9453576555862782,1.6044094105831466,-102.47560119628906,-35.69440460205078,-103.11911010742188,17271393.0,50354.0,0.13033216079544999,0.11635974496451132,0.002155898365025984,0.015573975752883808,-0.0028613229046050574,-0.0027634168018572354,17.271393903007265
1624,B,518503812217925.0,0.14056396,16.888757763202353,2.51545581824574,120,1970-01-07 00:01:43.812217925,0.25553894,-1.5973206,0.16186523,1.1339503653993144,1.6257101838038772,-102.51757049560547,-35.669219970703125,-103.02527618408203,17321747.0,50354.0,-0.00018286533463000008,0.31255563566640127,0.10008096622312598,0.003276768811817065,0.010798802538144487,0.0025740175397359023,17.32174790702993
1624,B,518503862571929.0,-0.5766754,10.824273893202355,1.41367971824574,120,1970-01-07 00:01:43.862571929,-0.41542053,-2.0389252,-0.65948486,5.133959528135625,2.1828216758383494,-102.61493682861328,-35.67923355102539,-102.89396667480469,17372101.0,50354.0,-0.01097997772488,0.20426179801330124,0.098923845402246,-0.0002810468997092833,0.013011912527753869,0.005010344142291991,17.372101911052596
1624,B,518503912925932.0,3.4252472,1.0079598932023544,4.43681201824574,120,1970-01-07 00:01:43.912925932,-1.4534454,-0.8616638,-0.89611816,15.468426118333475,1.912588767010145,-102.72486114501953,-35.71348571777344,-102.8301010131836,17422455.0,50354.0,0.0717184922086,-0.19556904995968868,0.14729783044964598,0.0015292135791566185,0.00021885731774580342,0.006199123132923085,17.422455914027523
1624,B,518503963279936.0,7.6703796,-0.7742671067976445,2.95446641824574,120,1970-01-07 00:01:43.963279936,-2.137497,1.2546692,-0.593277,18.372694367436655,2.5485419017874986,-102.79242706298828,-35.75627899169922,-102.89739990234375,17472809.0,50354.0,0.2793545959436,-0.4875855167166887,0.18609021719554597,0.00883896714040794,-0.017199782525211156,0.008393710875562998,17.47280991805019
1624,B,518504013633940.0,11.487656,3.0315038932023537,-2.60061778175426,120,1970-01-07 00:01:44.013633940,-0.7582092,0.1373291,0.07159424,17.84574992393139,0.7738644635028977,-102.98645782470703,-35.86650466918945,-102.81210327148438,17523163.0,50354.0,0.48234186230119996,-0.43663874942868863,0.008908847120945985,0.019177231729229333,-0.023269194348742167,0.004909491442296318,17.523163922014646
1624,B,518504063987944.0,5.957733,6.4604438932023545,-0.8974775817542602,120,1970-01-07 00:01:44.063987944,-0.088531494,-0.6320343,0.52127075,11.524448936853947,0.8240317813118161,-103.11534118652344,-35.71741485595703,-102.71912384033203,17573517.0,50354.0,0.439222558853,-0.2544904305816887,-0.08807154696705402,0.023202227431399294,-0.017400559365121273,-0.001993079294025462,17.57351792603731
1624,B,518504114341948.0,-0.46575928,18.453165093202355,0.4820848182457398,120,1970-01-07 00:01:44.114341948,-0.041259766,0.11303711,0.5063782,3.0084565748509315,0.5204792387432633,-103.10930633544922,-35.69403076171875,-102.73296356201172,17623871.0,50354.0,0.13827142234844,0.13378073345071134,-0.010458343606854019,0.014539565964708656,-0.0030391080446666168,-0.002480687054979283,17.62387193000177
1624,B,518504164695952.0,-4.2160645,20.796136893202355,2.49372731824574,120,1970-01-07 00:01:44.164695952,0.05757141,0.5430298,0.022247314,6.486065870193915,0.5465260962823667,-103.08724975585938,-35.699100494384766,-102.7658462524414,17674225.0,50354.0,-0.11787427730906001,0.4947104761117114,0.074922022160446,0.00051353892065647,0.015823523183153117,0.0016230020349437852,17.674225934024435
1624,B,518504215049956.0,-1.165863,8.686654893202356,8.00320301824574,120,1970-01-07 00:01:44.215049956,-0.6177521,1.6972046,-0.9585724,9.456610395222443,2.0447450103514937,-103.06647491455078,-35.764991760253906,-102.85431671142578,17724579.0,50354.0,-0.1355007886675,0.2488190488063114,0.26428121508184604,-0.006379224036091852,0.018719842848861058,0.008540119904049188,17.7245799380471
1624,B,518504265403960.0,7.774109,6.581231893202354,10.760389618245739,120,1970-01-07 00:01:44.265403960,-0.74549866,1.0862427,-0.13244629,14.967766158470376,1.3240972302289018,-103.06670379638672,-35.783714294433594,-102.91766357421875,17774933.0,50354.0,0.166375809542,-0.10906961437868867,0.47241097180894603,0.0007773404005572866,0.0035184715105842576,0.018547699189349474,17.774933942011558
1624,B,518504315757964.0,6.625122,8.630456893202354,5.448698618245739,120,1970-01-07 00:01:44.315757964,0.41256714,-0.0388031,1.174118,10.420469173373913,1.2450985517224689,-103.03789520263672,-35.72609329223633,-102.93167877197266,17825287.0,50354.0,0.362529438887,-0.11048451142468872,0.408096214530146,0.013316247439696933,-0.005527714225351634,0.022168529430459324,17.825287946034223
1624,B,518504366111968.0,8.15596,0.8574008932023549,0.9759966182457398,120,1970-01-07 00:01:44.366111968,1.5623169,0.6463165,0.6836548,17.13526542701513,1.8237168090909563,-102.93161010742188,-35.70004653930664,-102.97991180419922,17875641.0,50354.0,0.37214330151400005,-0.2545934045116887,0.16175455196914595,0.01849685558507598,-0.009191566689530176,0.014347132748152676,17.87564194999868
1624,B,518504416465971.0,13.894882,1.9943488932023552,-2.2060253817542606,120,1970-01-07 00:01:44.416465971,1.3722076,1.0378723,0.45666504,20.096219136124187,1.7800774048797015,-102.90899658203125,-35.89118194580078,-102.99832153320312,17925995.0,50354.0,0.5551740490340001,-0.42167069562768866,-0.03096843417885403,0.023347068934747,-0.017026301249209105,0.0032928020876061797,17.925995953031816
1624,B,518504466819975.0,4.902008,9.604745893202354,-0.55351388175426,120,1970-01-07 00:01:44.466819975,1.0537567,-0.48536682,0.66290283,8.369498213709425,1.3361977004821597,-103.09532928466797,-35.86090087890625,-102.84508514404297,17976349.0,50354.0,0.47324929953000006,-0.20143879056268868,-0.06947692003735402,0.025892614646795833,-0.01568802753381513,-0.0025289126831014703,17.97634995705448
1624,B,518504517173979.0,0.5031433,15.316827833202355,1.95126208624574,120,1970-01-07 00:01:44.517173979,0.7714081,-1.4359589,0.82014465,0.7659229420084351,1.824742630114845,-102.89009857177734,-35.942466735839844,-102.89368438720703,18026703.0,50354.0,0.1360854942801,0.13398126170969132,0.035191106544481994,0.01534122210375689,-0.0016983782039319145,-0.000863213926310039,18.02670396101894
1624,B,518504567527983.0,-1.2608948,16.002939283202355,2.14829882824574,120,1970-01-07 00:01:44.567527983,0.29296875,-1.9844513,-0.00869751,1.2753409512180796,2.005979386042751,-102.94561004638672,-35.92070770263672,-102.77413177490234,18077057.0,50354.0,-0.0190779095155,0.2950685766897213,0.103214645144152,0.002945899961618334,0.010802187781382012,0.0034846416102647386,18.077057965041604
1624,B,518504617881987.0,0.26071167,8.614587893202355,2.8326250182457398,120,1970-01-07 00:01:44.617881987,-0.6886139,-1.9681549,-0.7515869,7.33136265424218,2.2164624251087206,-103.0556411743164,-35.9351806640625,-102.64527893066406,18127411.0,50354.0,-0.02518161066401,0.12632628172034135,0.125404719683116,-0.0011143219395595234,0.010609458350190148,0.005755949748256127,18.12741196900606
1624,B,518504668235991.0,3.8340302,-0.34198610679764485,5.052427818245739,120,1970-01-07 00:01:44.668235991,-1.8407593,-0.25195313,-1.0176392,16.9599305687988,2.1183636896505584,-103.16496276855469,-35.98189163208008,-102.61587524414062,18177765.0,50354.0,0.10309331606099001,-0.28518990482368867,0.19852197526434598,0.001961583006779766,-0.003999709438872976,0.00815550239869225,18.177765973028727
1624,B,518504718589995.0,7.7898865,0.1258638932023537,1.5868211682457398,120,1970-01-07 00:01:44.718589995,-1.8639221,1.2038574,-0.49539185,17.591061592849346,2.273519588534392,-103.21968078613281,-36.019737243652344,-102.68132019042969,18228119.0,50354.0,0.2926553507559,-0.4989105089716887,0.16715637173289596,0.009963764184448842,-0.019741296118126216,0.00920668374234956,18.228119977051392
1624,B,518504768943999.0,10.4683075,3.463708893202355,-1.75497568175426,120,1970-01-07 00:01:44.768943999,-0.72592163,-0.16699219,0.30223083,16.676556156394255,0.8038607336008781,-103.34494018554688,-36.07587432861328,-102.62516784667969,18278473.0,50354.0,0.45968655033800004,-0.4030945259566887,-0.004233626186604015,0.018941712043841125,-0.02270978076439176,0.004101905964618993,18.27847398101585
1624,B,518504819298003.0,5.262848,8.712427193202355,-0.99311958175426,120,1970-01-07 00:01:44.819298003,-0.22434998,-0.6422119,0.4750824,9.389659254366228,0.8297423243497769,-103.61001586914062,-36.004432678222656,-102.45499420166016,18328827.0,50354.0,0.39606330202350004,-0.18691062175258866,-0.06918879444935401,0.02154521403290549,-0.014854559603876476,-0.0018485562843515153,18.328827985038515
1624,B,518504869652007.0,-1.5600128,19.622400293202354,0.25982531824573996,120,1970-01-07 00:01:44.869652007,0.05581665,0.040603638,0.23120117,4.397976249410846,0.24128434438526353,-103.60382080078125,-35.993675231933594,-102.46080017089844,18379181.0,50354.0,0.0932262818304,0.21991675162521135,-0.01846214967235401,0.012318843852689642,0.0008309953318030215,-0.002206787820152243,18.379181989002973
1624,B,518504920006011.0,-4.695694,18.815103593202355,0.7726579182457398,120,1970-01-07 00:01:44.920006011,0.07650757,1.1181946,-0.1051178,5.663468790065023,1.1257274641818529,-103.5614013671875,-36.01191711425781,-102.52645111083984,18429535.0,50354.0,-0.1574999301036,0.4742718353480114,0.025994830445145986,-0.0016182176425743563,0.01747758605422483,0.0001896503038165836,18.429535993025638
1624,B,518504970360014.0,-0.27972412,8.345468593202355,8.086516018245739,120,1970-01-07 00:01:44.970360014,-0.021148682,1.6587219,-1.1551208,9.705094194354624,2.021412790817993,-103.51360321044922,-36.08747482299805,-102.60945129394531,18479889.0,50354.0,-0.12526610200724,0.19035252593711138,0.22304742219904597,-0.007119200390454619,0.016733247544075538,0.006270136794822821,18.479889996000566
1624,B,518505020714018.0,9.685715,7.496118893202354,7.7021623182457395,120,1970-01-07 00:01:45.020714018,0.40411377,0.5900574,-0.14471436,14.033120361217355,0.7296697337758928,-103.47371673583984,-36.10139465332031,-102.64287567138672,18530244.0,50355.0,0.2368193353812,-0.09462743106104547,0.3975194488170142,0.002808631533272878,0.002410118576242149,0.015624322395006853,18.53024400002323
1624,B,518505071068022.0,4.9721985,6.554147893202355,4.8396898182457395,120,1970-01-07 00:01:45.071068022,1.2814331,-0.42573547,0.79312134,10.956553340794681,1.566002215884488,-103.41801452636719,-36.05787658691406,-102.628662109375,18580598.0,50354.0,0.3690422881895,-0.13972563311868869,0.31576621124044596,0.015253778096639517,-0.0059003070968531674,0.017958393063266676,18.580598004045896
1624,B,518505121422026.0,7.4829865,1.6145728932023538,1.65389881824574,120,1970-01-07 00:01:45.121422026,1.7389221,0.6754761,0.42086792,16.123883120300913,1.9123932225420446,-103.30360412597656,-36.04521179199219,-102.6753158569336,18630952.0,50354.0,0.31358419274500005,-0.2878053167606887,0.16348908110094598,0.017186486910487908,-0.010763946725113086,0.012066210495279226,18.630952008010354
1624,B,518505171776030.0,9.951706,3.825418893202354,-2.23701608175426,120,1970-01-07 00:01:45.171776030,1.8117828,0.63134766,0.41244507,16.203156289639796,1.9624647048878663,-103.33354949951172,-36.08222579956055,-102.633056640625,18681306.0,50354.0,0.43895325307250005,-0.3565065267936887,-0.014681143343354009,0.0189466352733472,-0.01622183928516856,0.003746537448922893,18.68130601203302
1624,B,518505222130034.0,2.4925995,8.836999893202353,-1.38403458175426,120,1970-01-07 00:01:45.222130034,1.1126556,-0.3622589,0.8215332,8.209393699246315,1.4297380157017614,-103.28388214111328,-36.0380859375,-102.62295532226562,18731660.0,50354.0,0.3133102795735,-0.17466748221468872,-0.09116719255515401,0.018939738961428344,-0.01337336802480392,-0.0026649435529167366,18.731660016055685
1624,B,518505272484038.0,0.11956787,15.589502393202354,1.9421373302457399,120,1970-01-07 00:01:45.272484038,0.35743713,-0.88726807,0.73072815,0.32984391246404693,1.2037315145606948,-103.2912826538086,-35.99233627319336,-102.57996368408203,18782014.0,50354.0,0.06576653787449,0.12151684806481128,0.014051352898769987,0.009544017032888045,-0.0013381735159914646,-0.0019415454950287806,18.782014020020142
1624,B,518505322838042.0,0.49691772,17.166788193202354,6.57874931824574,120,1970-01-07 00:01:45.322838042,-0.07180786,-1.2640228,-0.28593445,4.786535006250449,1.2979478099578665,-103.34193420410156,-35.99169158935547,-102.4998779296875,18832368.0,50354.0,0.015521257699430002,0.3312359280939113,0.21453036314907,0.0020465828291645837,0.011398956645348159,0.005755001864936468,18.832368024042808
1624,B,518505373192046.0,2.2876434,5.548547893202354,5.04823161824574,120,1970-01-07 00:01:45.373192046,-0.65037537,-1.6574249,-1.3751221,11.02639005268676,2.2496680223870937,-103.44463348388672,-36.03937911987305,-102.3805160522461,18882722.0,50354.0,0.07010689531823999,0.07843481664741131,0.29273249903804605,0.0021558600085258774,0.01031428034035228,0.012771357081285021,18.882722028007265
1624,B,518505423546050.0,6.1879425,-2.424764106797646,3.17550521824574,120,1970-01-07 00:01:45.423546050,-1.8208313,0.45147705,-0.97528076,19.370818937288792,2.1143393082858224,-103.52796173095703,-36.09205627441406,-102.39359283447266,18933076.0,50354.0,0.21338982620430003,-0.41482169560968873,0.20704902233234598,0.007137596957772991,-0.008469212451633259,0.01258299936354236,18.93307603202993
1624,B,518505473900054.0,10.972656,0.7365358932023547,-0.9793409817542602,120,1970-01-07 00:01:45.473900054,-1.5066528,1.3192902,-0.102005005,18.94574671100461,2.0052267484274515,-103.49595642089844,-36.09552764892578,-102.50768280029297,18983430.0,50354.0,0.4320523884345,-0.5359737217336887,0.055292826982145986,0.01625029863796107,-0.023938176222454217,0.006604980740190964,18.983430036052596
1624,B,518505524254057.0,9.439529,2.389611893202355,-1.1514905817542602,120,1970-01-07 00:01:45.524254057,-0.31550598,-0.12145996,0.47990417,16.7726814574176,0.5870302868526895,-103.50194549560547,-36.02465057373047,-102.51322937011719,19033784.0,50354.0,0.513917581745,-0.41476217718168873,-0.053647946274454024,0.023816685939209273,-0.02393667772699246,4.141316157756053e-05,19.033784039027523
1624,B,518505574608061.0,4.808655,12.317270293202355,0.39004381824573997,120,1970-01-07 00:01:45.574608061,-0.5417328,0.15545654,0.76390076,6.20269995504548,0.9493079234648729,-103.51704406738281,-35.98932647705078,-102.53360748291016,19084138.0,50354.0,0.358726528568,-0.12319402719288865,-0.019170945164854014,0.021970560765350405,-0.013544123357538735,-0.0018333612297674585,19.08413804305019
1624,B,518505624962065.0,-4.0549316,20.611581893202356,-0.88424818175426,120,1970-01-07 00:01:45.624962065,-0.10571289,0.524353,0.0914917,6.854157433688564,0.5426711848716882,-103.50304412841797,-35.99100875854492,-102.56643676757812,19134492.0,50354.0,0.018976494041800004,0.3355805114971114,-0.01244258326005401,0.009509429000246936,0.005347254515327416,-0.0007959338051539094,19.134492047014646
1624,B,518505675316069.0,-1.8683472,16.044473703202353,-0.91946538175426,120,1970-01-07 00:01:45.675316069,-0.50183105,1.439148,-0.34091187,3.4624385452469904,1.5617945677184948,-103.48017120361328,-36.024375915527344,-102.64801788330078,19184846.0,50354.0,-0.1491303903476,0.42942031175068135,-0.04541209638845401,-0.0032768846472911264,0.01926042572690968,-0.0014566072695104864,19.18484605103731
1624,B,518505725670073.0,8.340347,1.3933353932023547,-12.81555338175426,120,1970-01-07 00:01:45.725670073,-0.67318726,1.176117,-1.548706,22.33948955853538,2.0578927472420196,-103.48532104492188,-36.11338424682617,-102.69642639160156,19235200.0,50354.0,0.16294553896459998,-0.05443748037981871,-0.345806567408854,0.0003478239967302085,0.00944094274542421,-0.009849712298424825,19.23520005500177
1624,B,518505776024077.0,11.732391,11.162774893202354,-5.07829438175426,120,1970-01-07 00:01:45.776024077,0.3804779,-0.48191833,0.28189087,14.491638611673077,0.675626503156704,-103.48097229003906,-36.09405517578125,-102.67147064208984,19285554.0,50354.0,0.5053713246260001,-0.1773440113191887,-0.450513405141854,0.01682621367462054,-0.00583556261650591,-0.020048947948909174,19.285554059024435
1624,B,518505826378081.0,7.5501556,2.0125978932023543,-0.6177533817542602,120,1970-01-07 00:01:45.826378081,1.9267731,-0.48587036,1.439743,16.014886671760507,2.4538509513943874,-103.31273651123047,-35.82075500488281,-102.70797729492188,19335908.0,50354.0,0.4854766757482,-0.16175283935668872,-0.14340939454185403,0.02494658010542124,-0.008537441409466566,-0.014953194327636716,19.3359080630471
1624,B,518505876732085.0,7.798401,0.8804418932023541,-0.14778268175426001,120,1970-01-07 00:01:45.876732085,1.9168243,0.46510315,0.3400879,17.05186367978897,2.0015484298254744,-103.05594635009766,-35.598087310791016,-102.82330322265625,19386262.0,50354.0,0.3864306095182,-0.42063113729768875,-0.019273901470954015,0.021952009721152157,-0.014662681380227261,-0.004095877343714468,19.386262067011558
1624,B,518505927086089.0,7.4189453,5.362039893202354,-0.9132245817542599,120,1970-01-07 00:01:45.927086089,1.525238,-0.091796875,0.5066681,13.205230028765609,1.6098106057736654,-103.0389175415039,-35.537559509277344,-102.78983306884766,19436616.0,50354.0,0.3831271277951,-0.3363022360636887,-0.02671297987335401,0.019375155152336957,-0.0190573115411194,-0.001157811711605643,19.436616071034223
1624,B,518505977440093.0,1.1459808,11.455881193202355,-0.4658063817542599,120,1970-01-07 00:01:45.977440093,0.87615967,-0.8201294,0.79452515,5.199961250338942,1.4392839240613338,-103.01724243164062,-35.48961639404297,-102.75176239013672,19486970.0,50354.0,0.2156391444197,-0.07004440080758867,-0.034719862568254004,0.01507513843555202,-0.010230589276508151,-0.0015466946741523652,19.48697007499868
1624,B,518506027794096.0,-0.52342224,18.060297093202355,2.01273974724574,120,1970-01-07 00:01:46.027794096,0.20648193,-1.2397919,0.40049744,2.2298105771984265,1.3191349218971835,-103.0467300415039,-35.45613098144531,-102.68314361572266,19537324.0,50354.0,0.01567415686512,0.24965962071681136,0.03894714134297899,0.005823774986447913,0.0045221723916545,0.00010643019771125099,19.537324078031816
1624,B,518506078148100.0,-0.19465637,12.223245693202355,2.82266101824574,120,1970-01-07 00:01:46.078148100,-0.16677856,-1.5543518,-0.6730194,3.7675889871529216,1.7019928669108089,-103.11441040039062,-35.4713134765625,-102.5808334350586,19587678.0,50354.0,-0.018079065163970003,0.26897955673331136,0.121740885072779,-6.054837624014648e-05,0.01305777857066174,0.004045642441069539,19.58767808205448
1624,B,518506128502104.0,2.9881134,-0.5993711067976442,0.42217881824574,120,1970-01-07 00:01:46.128502104,-1.4316254,-0.7837982,-1.8264923,16.834100383304417,2.449482603777314,-103.22808074951172,-35.55131530761719,-102.50841522216797,19638032.0,50354.0,0.07033086764431,-0.20081490953808864,0.081695332563346,0.0013155436310475202,0.0017161813224341226,0.00512191365142472,19.63803208601894
1624,B,518506178856108.0,7.9061737,-2.771719106797647,3.21156181824574,120,1970-01-07 00:01:46.178856108,-2.1822357,1.4446411,-0.84924316,20.30673358636756,2.7514277208334015,-103.29386901855469,-35.609214782714844,-102.5828857421875,19688386.0,50354.0,0.27428546631670003,-0.5783431383076887,0.09148668800494601,0.00867640544013635,-0.019616862170613137,0.004360203731847889,19.688386090041604
1624,B,518506229210112.0,9.35022,0.7856538932023547,-2.49105968175426,120,1970-01-07 00:01:46.229210112,-1.1570892,0.6021576,0.30880737,18.323489372380205,1.3404518580541103,-103.41352844238281,-35.47924041748047,-102.57369995117188,19738740.0,50354.0,0.43446422418490005,-0.5434723638826887,0.018140082290445995,0.017844190957758785,-0.028243948898647137,0.0027600731957270848,19.73874009400606
1624,B,518506279564116.0,5.893097,4.295892893202355,-2.1417707817542597,120,1970-01-07 00:01:46.279564116,0.10090637,-0.6131897,0.61213684,13.649338381818385,0.8722930783732338,-103.42466735839844,-35.44235610961914,-102.54581451416016,19789094.0,50354.0,0.3837809921090001,-0.3655310965586887,-0.11664077257975401,0.020600959810631526,-0.022885980123532563,-0.0024799518794139082,19.789094098028727
1624,B,518506329918120.0,1.0185547,17.477182493202356,2.78497181824574,120,1970-01-07 00:01:46.329918120,-0.5509033,0.68803406,0.5930176,2.0437061844592264,1.062334781309891,-103.42350769042969,-35.421504974365234,-102.59532165527344,19839448.0,50354.0,0.1740146548509,0.054711519003511386,0.016193872495746005,0.014043621003509407,-0.0078255045041067,-0.0025289516034150694,19.839448102051392
1624,B,518506380272124.0,-5.6621704,20.893442193202354,1.23379381824574,120,1970-01-07 00:01:46.380272124,-0.15196228,0.5810394,-0.08679199,7.592105266230974,0.6068213645079732,-103.4117202758789,-35.43246841430664,-102.6287612915039,19889802.0,50354.0,-0.11691231247890001,0.4725880177296114,0.101180462429946,0.001437665673899844,0.013275820436329834,0.0029551336304241473,19.88980210601585
1624,B,518506430626128.0,1.5861816,11.613656893202354,-0.9031843817542602,120,1970-01-07 00:01:46.430626128,-0.77853394,1.7220306,-0.3182068,5.404450736158445,1.916444638030153,-103.39364624023438,-35.467899322509766,-102.72705078125,19940156.0,50354.0,-0.10262117001760002,0.3249620336984113,0.008323753782545986,-0.005527194488814381,0.020079917644803328,0.0027569876515819106,19.940156110038515
1624,B,518506480980132.0,3.3123627,-1.5741171067976438,-15.38966538175426,120,1970-01-07 00:01:46.480980132,0.7093353,0.57133484,-1.609314,24.8632146612934,1.8491813371921952,-103.35160827636719,-35.55278396606445,-102.73831176757812,19990510.0,50354.0,0.12333064984110001,-0.24070370679768868,-0.410205078495854,0.0005214025735162594,0.0021213718963794936,-0.010118166112306958,19.990510114002973
1624,B,518506531334136.0,12.192657,8.821298893202353,-6.340241381754261,120,1970-01-07 00:01:46.531334136,0.6434784,0.0513916,0.44377136,16.3734322596779,0.7833508586663894,-103.31401062011719,-35.53178787231445,-102.74768829345703,20040864.0,50354.0,0.3903698809869,-0.3110069041636887,-0.547093862584854,0.012933438264656557,-0.0138904180521746,-0.02410191543958899,20.040864118025638
1624,B,518506581688139.0,3.2951202,-1.7442221067976469,-2.13331738175426,120,1970-01-07 00:01:46.581688139,2.1305084,-0.108566284,0.97528076,18.410357618896843,2.3456396230704977,-103.20327758789062,-35.48307800292969,-102.75494384765625,20091218.0,50354.0,0.38993576656440004,-0.31528963774868873,-0.21333878898885406,0.019645755288399083,-0.015768268035727926,-0.01914541286867125,20.091218121000566
1624,B,518506632042143.0,10.399765,1.243310893202354,-1.21547068175426,120,1970-01-07 00:01:46.632042143,1.9307098,0.7173157,0.09446716,18.24969032941792,2.061821085739739,-103.05953979492188,-35.46812438964844,-102.81163787841797,20141572.0,50354.0,0.3447961246804,-0.5060806416246888,-0.08431243707495402,0.01849834482587033,-0.020679639523783527,-0.007493964918608496,20.14157212502323
1624,B,518506682396147.0,6.5148163,3.771905893202355,-1.01844918175426,120,1970-01-07 00:01:46.682396147,1.8058319,-0.42985535,0.5127716,14.086236215905437,1.9258087098016232,-103.00418853759766,-35.24102783203125,-102.77894592285156,20191926.0,50354.0,0.42585841339010005,-0.3672010869686887,-0.05624340040355401,0.019402769305000983,-0.021986614080795466,-0.003538774320196397,20.191926129045896
1624,B,518506732750151.0,-0.049926758,11.181177193202355,-0.18049758175426023,120,1970-01-07 00:01:46.732750151,0.5340271,-0.19430542,1.0574951,5.188557057608881,1.2005146505977327,-102.97577667236328,-35.18732452392578,-102.78190612792969,20242280.0,50354.0,0.16276652399893402,-0.11699542713358865,-0.030185882664854016,0.014819810048643712,-0.012190615635553037,-0.002176030059813309,20.242280133010354
1624,B,518506783104155.0,0.6882782,18.560922693202354,2.83895741824574,120,1970-01-07 00:01:46.783104155,0.06147766,-0.95895386,0.4109192,2.8827043693376395,1.045096453547047,-103.00236511230469,-35.15652084350586,-102.73039245605469,20292634.0,50354.0,0.016071774255233998,0.2553476488400113,0.06693204330334598,0.004502611835145188,0.0034832938859026036,0.0009251580863953123,20.29263413703302
1624,B,518506833458159.0,-1.318161,14.730844593202354,1.67640551824574,120,1970-01-07 00:01:46.833458159,-0.40086365,-1.5996552,-0.4943695,1.78530230584019,1.7216241248625126,-103.08122253417969,-35.16256332397461,-102.62826538085938,20342988.0,50354.0,-0.0158585592556,0.34471762496981134,0.11368329265204599,5.36811404578514e-06,0.015107843398709906,0.004547352313348904,20.342988141055685
1624,B,518506883812163.0,2.854416,2.228295893202354,3.7782426182457396,120,1970-01-07 00:01:46.883812163,-0.92871094,-2.5555115,-1.2311707,14.073403941728705,2.984782124250684,-103.22522735595703,-35.19342041015625,-102.45890045166016,20393342.0,50354.0,0.03867829213500001,-0.0664889199737887,0.137331676132446,0.000574532414704654,0.007004964105684863,0.006319803869087156,20.393342145020142
1624,B,518506934166167.0,4.830841,-3.219656106797647,5.01116811824574,120,1970-01-07 00:01:46.934166167,-2.5531464,1.0592651,-0.9216156,19.943516408331615,2.9137560649571084,-103.3239517211914,-35.25042724609375,-102.50904083251953,20443696.0,50354.0,0.19349171548900002,-0.5184286760976887,0.221290994112646,0.005845344281949449,-0.014726470316291589,0.009029042968760682,20.443696149042808
1624,B,518506984520171.0,13.019379,2.101159893202354,-2.27368298175426,120,1970-01-07 00:01:46.984520171,-1.6122589,1.4682007,-0.05911255,19.439893836916738,2.18139550510154,-103.4423599243164,-35.441139221191406,-102.54486846923828,20494050.0,50354.0,0.44941498894000004,-0.5216295791696888,0.06892166328144599,0.016186462097408934,-0.026185546692866768,0.0073066840752110535,20.494050153007265
1624,B,518507034874175.0,8.456726,2.3947848932023543,-0.4218763817542599,120,1970-01-07 00:01:47.034874175,-0.20666504,-0.78816223,0.70422363,16.110257641180695,1.0769591731384953,-103.38794708251953,-35.30452346801758,-102.55779266357422,20544404.0,50354.0,0.5407038955850001,-0.3802747981126887,-0.067866098095054,0.024928223155685932,-0.02270724650683842,2.657596469779087e-05,20.54440415702993
1624,B,518507085228179.0,2.5615845,13.290979393202354,-1.8904432817542602,120,1970-01-07 00:01:47.085228179,-0.22676086,0.44311523,0.8035126,5.329406206658797,0.9452005570484248,-103.37744140625,-35.270565032958984,-102.5955810546875,20594758.0,50354.0,0.27740800345850003,-0.09854871256118869,-0.05821727216815401,0.020597603282218203,-0.012055339528236212,-0.0031744010131167883,20.594758161052596
1624,B,518507135582182.0,-4.2583313,24.732309393202357,1.6944108882457398,120,1970-01-07 00:01:47.135582182,-0.13026428,0.70077515,0.046203613,9.81616218297605,0.7142754142175795,-103.35948181152344,-35.276424407958984,-102.63800811767578,20645112.0,50354.0,-0.042718994183600006,0.4638431417753114,-0.004935507571364019,0.005908765186514158,0.009197017844323968,-0.0015899975355018457,20.645112164027523
1624,B,518507185936186.0,-2.4382172,16.237237993202356,2.96298081824574,120,1970-01-07 00:01:47.185936186,-0.50704956,1.1242523,-0.22142029,2.647054373372993,1.2530241159591333,-103.3479232788086,-35.30017852783203,-102.70186614990234,20695466.0,50354.0,-0.16859900158450003,0.5380210945475115,0.117259150994336,-0.005320353179453455,0.025223935877899714,0.002827972370460166,20.69546616805019
1624,B,518507236290190.0,2.452774,-2.1615201067976457,3.61053331824574,120,1970-01-07 00:01:47.236290190,0.19909668,1.3476105,-0.938324,18.292036700666646,1.6541298246127094,-103.29916381835938,-35.36136245727539,-102.76898193359375,20745820.0,50354.0,0.00036649655359999534,-0.13908485077398863,0.16550136541444602,-0.004235589779162971,0.010044017809485984,0.007119061521623906,20.745820172014646
1624,B,518507286644194.0,7.921631,15.969553049202355,5.598707718245739,120,1970-01-07 00:01:47.286644194,-0.97857666,0.43943787,0.9581299,8.704524372515074,1.438308321035828,-103.32511138916016,-35.31980895996094,-102.8087158203125,20796174.0,50354.0,0.261196394685,-0.14582435460907667,0.231861061575746,0.006585368912714233,-0.007173159063929436,0.010004393824332065,20.79617417603731
1624,B,518507336998198.0,2.1022186,1.0746098932023553,1.6821428182457399,120,1970-01-07 00:01:47.336998198,2.0340881,-0.87457275,1.187561,14.969858015293898,2.512507317864999,-103.24386596679688,-35.25197219848633,-102.77330017089844,20846528.0,50354.0,0.2523704613792,-0.06434830959907664,0.183309973957246,0.012930072735128363,-0.005291517166768676,0.01045276116161414,20.84652818000177
1624,B,518507387352202.0,11.907166,2.170129893202354,-0.2433027817542599,120,1970-01-07 00:01:47.387352202,1.8633423,1.3721619,0.10612488,18.305463289519285,2.3164920239309943,-103.0094223022461,-35.39675521850586,-102.91060638427734,20896882.0,50354.0,0.35271427607420003,-0.4117763863976887,0.036225675598745996,0.015234218434864255,-0.011987391471110562,0.005527249048871211,20.896882184024435
1624,B,518507437706206.0,6.09256,5.653527893202355,-0.8928540817542601,120,1970-01-07 00:01:47.437706206,1.8382416,-0.035873413,0.27301025,12.259055221772675,1.8587505691554989,-102.98898315429688,-35.24419021606445,-102.87026977539062,20947236.0,50354.0,0.453179101502,-0.29649296791168867,-0.028605021352554008,0.02028997756723599,-0.017832097533447198,0.0001918652119563757,20.9472361880471
1624,B,518507488060210.0,0.7153168,9.189615293202355,-0.028993081754260075,120,1970-01-07 00:01:47.488060210,0.7425537,-0.5957489,0.9229431,7.037665734573822,1.3259437073543168,-102.96501922607422,-35.192527770996094,-102.84741973876953,20997590.0,50354.0,0.1714019141936,-0.11976338399588866,-0.023209346035654013,0.015725076232168123,-0.010480086171977075,-0.0013045303277329134,20.997590192011558
1624,B,518507538414214.0,0.38809204,18.943719893202356,2.98841721824574,120,1970-01-07 00:01:47.538414214,-0.014984131,-0.66049194,0.78889465,3.232899732171959,1.028994118440631,-102.98221588134766,-35.14668655395508,-102.81889343261719,21047944.0,50354.0,0.02778052436468,0.21484377998811138,0.07450942148444599,0.005014816255581816,0.0023938391298961915,0.0012915819995742356,21.047944196034223
1624,B,518507588768218.0,0.17176819,14.936349923202355,2.46705491824574,120,1970-01-07 00:01:47.588768218,0.025894165,-2.0740356,-0.7241974,1.0818768821633944,2.1969879499021308,-103.05781555175781,-35.158599853515625,-102.68534088134766,21098298.0,50354.0,0.01409560101071,0.35952931776762137,0.137352421980446,0.001054315208576194,0.014460991482196085,0.005334045632915586,21.09829819999868
1624,B,518507639122221.0,3.2678833,0.7797028932023551,4.82990891824574,120,1970-01-07 00:01:47.639122221,-0.736145,-2.8820038,-1.2973175,15.720785660027635,3.245132980333116,-103.20390319824219,-35.18902587890625,-102.4956283569336,21148652.0,50354.0,0.08660010556373,-0.09778613824137865,0.18371565851134602,0.002535215804424676,0.006589908030932213,0.008083531062541848,21.148652203031816
1624,B,518507689476225.0,4.4568787,-2.8534601067976446,5.72367721824574,120,1970-01-07 00:01:47.689476225,-2.79599,2.1451874,-0.5848999,19.626953463070926,3.572323747120181,-103.27473449707031,-35.2420654296875,-102.61521911621094,21199006.0,50354.0,0.19448633287400002,-0.5456801853666887,0.265707638158446,0.007076913260546729,-0.016200551629480312,0.011315130340255355,21.19900620705448
1624,B,518507739830229.0,14.034805,3.3102508932023547,-1.72377138175426,120,1970-01-07 00:01:47.739830229,-1.3034363,1.4185181,0.14115906,19.212059481333725,1.9315966629722117,-103.28997039794922,-35.25148010253906,-102.70172119140625,21249360.0,50354.0,0.4655651205149,-0.4819685783706887,0.100705629245346,0.016618115441972336,-0.025873112924615953,0.009225186833425271,21.24936021101894
1624,B,518507790184233.0,9.955933,2.1057528932023537,-1.18632638175426,120,1970-01-07 00:01:47.790184233,-0.3662567,-0.48068237,0.4859314,17.300450065942503,0.7754539551963527,-103.31311798095703,-35.219356536865234,-102.68441772460938,21299714.0,50354.0,0.604014810626,-0.3571104726696887,-0.073267531391854,0.02692881392633444,-0.021125493268043583,0.000690808989657368,21.299714215041604
1624,B,518507840538237.0,3.4171448,15.027689033202355,-1.5627301817542603,120,1970-01-07 00:01:47.840538237,0.30667114,0.1288147,0.8664398,5.00592715251928,0.9280939295507915,-103.28633117675781,-35.17867660522461,-102.70427703857422,21350068.0,50354.0,0.33669397977060006,-0.06210053261890868,-0.06921299709945401,0.023684225215815202,-0.010554475480151017,-0.0035872322658256624,21.35006821900606
1624,B,518507890892241.0,-3.1755981,21.370431893202355,1.57288989824574,120,1970-01-07 00:01:47.890892241,0.25646973,0.36869812,0.08911133,6.345332468166629,0.4578819228056249,-103.26013946533203,-35.17857360839844,-102.72747802734375,21400422.0,50354.0,0.006081421265899995,0.4229262905640914,0.0002557911821059852,0.008630056271895963,0.009084510107785866,-0.0017361355733810713,21.400422223028727
1624,B,518507941246245.0,-3.3996124,15.323465393202355,4.84850941824574,120,1970-01-07 00:01:47.941246245,-0.5253601,0.8053436,-0.605423,4.4769489066984285,1.1362739800162505,-103.26365661621094,-35.2172737121582,-102.7669448852539,21450776.0,50354.0,-0.16554407475850003,0.43037305197981135,0.16167157059130602,-0.004014791226983191,0.021483517547227843,0.004076845187369194,21.450776227051392
1624,B,518507991600249.0,4.4431763,2.419717893202355,5.97846861824574,120,1970-01-07 00:01:47.991600249,-1.2260742,0.97465515,-0.6679077,14.736442000133637,1.7027364156106055,-103.29688262939453,-35.26097106933594,-102.81563568115234,21501130.0,50354.0,0.026273808310300004,-0.04674907439818866,0.27259082602474605,-0.0035064074983663317,0.009658500883572516,0.010933424359602343,21.50113023101585
1624,B,518508041954253.0,8.193924,12.099542693202356,4.35030991824574,120,1970-01-07 00:01:48.041954253,-0.6464844,-0.18048096,0.79293823,9.332364062654293,1.038877515860948,-103.32896423339844,-35.22032165527344,-102.8160629272461,21551484.0,50354.0,0.3181642742531,-0.12791777621608863,0.260047657213246,0.008671917604698723,-0.00439758729791566,0.013410239092482925,21.551484235038515
1624,B,518508092308257.0,4.2374573,2.942300893202354,-1.05705398175426,120,1970-01-07 00:01:48.092308257,2.2589417,-0.769577,1.1039429,13.963118289836508,2.6294022684610847,-103.23347473144531,-35.15776062011719,-102.78575134277344,21601838.0,50354.0,0.3129848869901001,-0.11476070402508866,0.082914304713046,0.01589044243262005,-0.006109916097032121,0.008634753315418254,21.601838239002973
1624,B,518508142662261.0,14.882797,-0.7551171067976448,-1.5636609817542602,120,1970-01-07 00:01:48.142662261,1.7634125,0.7526245,0.19132996,22.611818848057535,1.926830152543317,-103.09059143066406,-35.30695343017578,-102.84913635253906,21652192.0,50354.0,0.48139064251110003,-0.43840247380968866,-0.06598174063625402,0.019999992706251715,-0.01392698932834619,0.0004263111657613919,21.652192243025638
1624,B,518508193016264.0,3.3015442,6.452462893202355,0.47952131824573985,120,1970-01-07 00:01:48.193016264,1.4691925,-0.08805847,0.25917053,10.114768632384594,1.4944732382399732,-103.01809692382812,-35.2933349609375,-102.84747314453125,21702546.0,50354.0,0.4578271583924,-0.3500271251356887,-0.02729538430815402,0.02364668657334742,-0.019850292012647767,-0.0023484381747253614,21.702546246000566
1624,B,518508243370268.0,0.0024108887,11.644174593202354,0.5173631182457399,120,1970-01-07 00:01:48.243370268,0.6756134,-0.4023285,0.8111725,4.497247046051558,1.1297444458496178,-102.99172973632812,-35.24929428100586,-102.83464050292969,21752900.0,50354.0,0.0831836772681999,-0.037850158004788664,0.025098559457545987,0.013621029809426925,-0.009765586357627799,-5.530945926375842e-05,21.75290025002323
1624,B,518508293724272.0,-0.70703125,17.699182593202355,2.6193681682457397,120,1970-01-07 00:01:48.293724272,0.19998169,-1.1577148,0.40548706,2.0387655133637743,1.2428660387595034,-103.01834106445312,-35.216514587402344,-102.77117919921875,21803254.0,50354.0,-0.0177402268364501,0.24530850388211134,0.07897348359999598,0.001647669751520165,0.005223178774153354,0.0026202218280597343,21.803254254045896
1624,B,518508344078276.0,-0.06555176,14.520090193202355,0.8695360182457399,120,1970-01-07 00:01:48.344078276,-0.003189087,-1.6273346,-0.5935974,1.7742878228342627,1.732219946750358,-103.07918548583984,-35.227046966552734,-102.66593170166016,21853608.0,50354.0,-0.01945132244277,0.3177154309433114,0.08784014070329599,-0.0009363716362029246,0.014175253607099668,0.004199866619083982,21.853608258010354
1624,B,518508394432280.0,0.9452057,6.882791893202354,2.33314379824574,120,1970-01-07 00:01:48.394432280,-0.8888092,-0.79444885,-1.1247711,9.065976482594717,1.6389755326624533,-103.15999603271484,-35.27280807495117,-102.60294342041016,21903962.0,50354.0,0.022147047247380005,0.04539116228941133,0.08063386973980599,6.787026340566607e-05,0.00914193469782026,0.004241670160925979,21.90396226203302
1624,B,518508444786284.0,0.77082825,-1.9180201067976448,2.24966296824574,120,1970-01-07 00:01:48.444786284,-2.473465,0.41630554,-1.570755,17.82945181281671,2.959495004031041,-103.28202819824219,-35.35402297973633,-102.60575866699219,21954316.0,50354.0,0.04320458675915,-0.3684711407336887,0.115381325959956,0.001645358089382406,-0.008134184617291573,0.004935074582132908,21.954316266055685
1624,B,518508495140288.0,10.114487,1.8900088932023547,-1.31723158175426,120,1970-01-07 00:01:48.495140288,-1.6309509,1.3134003,-0.09411621,17.587851511017103,2.0961581636974973,-103.31932067871094,-35.367488861083984,-102.68260192871094,22004670.0,50354.0,0.27405958204925,-0.4941744383246887,0.023475825017695993,0.007987759978089088,-0.021718827743952767,0.0034960064901643447,22.004670270020142
1624,B,518508545494292.0,10.479004,1.1609438932023544,-2.54199338175426,120,1970-01-07 00:01:48.545494292,-1.0925293,0.47225952,0.16322327,18.63851024743107,1.201370534622276,-103.45220184326172,-35.3375244140625,-102.65763092041016,22055024.0,50354.0,0.518482322907,-0.41665536169668876,-0.097163706906254,0.019953827541083508,-0.022931961875138223,-0.0018552398023082253,22.055024274042808
1624,B,518508595848296.0,2.6203766,13.718469693202355,0.5441576182457399,120,1970-01-07 00:01:48.595848296,-0.24249268,0.37257385,0.3014984,3.6999754599389982,0.5371361640775688,-103.4489974975586,-35.32719802856445,-102.68412780761719,22105378.0,50354.0,0.3298031053662,-0.11885020413508868,-0.05029951101785401,0.021357282227634358,-0.013482423630946662,-0.003712681437675268,22.105378278007265
1624,B,518508646202300.0,-3.0522003,21.677972893202355,3.1503130182457397,120,1970-01-07 00:01:48.646202300,0.2602539,0.28825378,0.32966614,6.642702889752352,0.5094134843248636,-103.42333984375,-35.31451416015625,-102.70600891113281,22155732.0,50354.0,-0.010872025294899995,0.3977070349979114,0.09301568721494599,0.008029727802955121,0.007020778430633288,0.001075465168114185,22.15573228202993
1624,B,518508696556304.0,-2.1474304,16.275598593202353,1.89007433824574,120,1970-01-07 00:01:48.696556304,-0.033813477,0.7307129,-0.19955444,2.183631200139165,0.7582260005941192,-103.4014663696289,-35.33269119262695,-102.74671936035156,22206086.0,50354.0,-0.1309111021339,0.46208786931321133,0.126901832474386,-0.0035696737992748978,0.02164705630584114,0.005536863393218312,22.206086286052596
1624,B,518508746910307.0,0.95462036,6.351464893202355,-6.336595381754259,120,1970-01-07 00:01:48.746910307,-0.68981934,0.5156555,-0.5997467,12.700801658013344,1.0494986520616287,-103.42311096191406,-35.367835998535156,-102.76893615722656,22256440.0,50354.0,-0.03003137837708001,0.0762123773972113,-0.11195006031241399,-0.004052048831824944,0.013552785311428311,0.00037644076772196924,22.256440289027523
1624,B,518508797264311.0,-5.0227966,1.2066438932023544,-12.64773738175426,120,1970-01-07 00:01:48.797264311,-0.82547,-1.7382355,-0.21739197,21.336049618225314,1.9365233391262628,-103.52615356445312,-35.358158111572266,-102.66219329833984,22306794.0,50354.0,-0.10242447319448002,-0.3031786950846887,-0.477968545986854,-0.003334840975017167,-0.005714330980417619,-0.01485238075079667,22.30679429305019
1624,B,518508847618315.0,7.78862,7.008294893202354,-1.6864179817542602,120,1970-01-07 00:01:48.847618315,0.65774536,0.19277954,0.30195618,12.374453812177908,0.7489796020482357,-103.69693756103516,-35.444618225097656,-102.55474853515625,22357148.0,50354.0,0.0696351357418,-0.2866416861746887,-0.36089102958705405,-0.0008255371490461249,-0.014849907738967346,-0.021119967534224286,22.357148297014646
1624,B,518508897972319.0,5.647354,-0.7536071067976451,-1.5434736817542603,120,1970-01-07 00:01:48.897972319,1.6748047,0.41375732,0.9635925,17.930306732366454,1.9760254069854268,-103.59081268310547,-35.402671813964844,-102.5933609008789,22407502.0,50354.0,0.338277517398,-0.3359949256016887,-0.08131898241215402,0.010270016868100744,-0.015676121974693855,-0.011133521472104063,22.40750230103731
1624,B,518508948326323.0,5.9868927,5.266107893202355,0.4538561182457399,120,1970-01-07 00:01:48.948326323,1.0557098,0.5939331,0.10185242,12.293752640330801,1.2155877691682762,-103.37377166748047,-35.25149917602539,-102.71279907226562,22457856.0,50354.0,0.2929154291659,-0.3798579677006887,-0.02743330139645402,0.01589154481563931,-0.018023028294673955,-0.0027380562494493245,22.45785630500177
1624,B,518508998680327.0,1.9245758,8.964746493202355,-0.8397840817542601,120,1970-01-07 00:01:48.998680327,0.8617859,-0.19360352,0.6235504,7.7278980468810206,1.0811902523309025,-103.3322525024414,-35.21892547607422,-102.71007537841797,22508210.0,50354.0,0.1991870424245,-0.13517897911348867,-0.009716508337254013,0.012389663927231502,-0.012967085209940544,-0.0009353207596655671,22.508210309024435
1624,B,518509049034331.0,-0.2978058,16.568201093202354,1.22453171824574,120,1970-01-07 00:01:49.049034331,0.06619263,-0.29406738,0.5936127,1.0645421376684392,0.6657575578599699,-103.33421325683594,-35.18666076660156,-102.70094299316406,22558564.0,50354.0,0.04095718829,0.14937382138291136,0.00968679124394599,0.0060461112966989665,0.00035738354381725513,-7.481872582160965e-07,22.5585643130471
1624,B,518509099388335.0,-0.06896973,16.031610543202355,2.05254992824574,120,1970-01-07 00:01:49.099388335,-0.034744263,-1.3292999,-0.27114868,0.1664459056403356,1.3571171631871604,-103.38374328613281,-35.18449401855469,-102.61799621582031,22608918.0,50354.0,-0.00923430751881,0.32729625756976133,0.08250708461371599,0.0007986869691762507,0.012001122577791441,0.002321165212468356,22.608918317011558
1624,B,518509149742339.0,-0.9819641,3.902185893202354,0.98516711824574,120,1970-01-07 00:01:49.149742339,-0.77368164,-1.0213165,-1.2951355,12.072877921410374,1.8218250839763925,-103.46808624267578,-35.235626220703125,-102.53878784179688,22659272.0,50354.0,-0.02645936103791,0.00840399287936132,0.07648060207951599,-0.0008986594932525395,0.008451925205557561,0.004002832987875502,22.659272321034223
1624,B,518509200096343.0,2.9834137,-1.173620106797646,1.31201037824574,120,1970-01-07 00:01:49.200096343,-2.09198,0.9026947,-1.3511505,17.338644054202835,2.6489329390262677,-103.55280303955078,-35.31186294555664,-102.57322692871094,22709626.0,50354.0,0.0503904965792,-0.4247720991956887,0.05783603782916599,0.0006025141995230584,-0.010482899812726175,0.0033816900429808863,22.70962632499868
1624,B,518509250450346.0,9.553223,1.4555908932023538,1.7547441382457398,120,1970-01-07 00:01:49.250450346,-1.6502075,1.1829987,-0.08377075,17.31346004039163,2.03216344219984,-103.59526824951172,-35.32981491088867,-102.64249420166016,22759980.0,50354.0,0.3156349021959,-0.48637002151068875,0.07721167846170598,0.009215421464960693,-0.022939825173024467,0.003400096353055284,22.759980328031816
1624,B,518509300804350.0,8.039185,2.319848893202355,-2.50291578175426,120,1970-01-07 00:01:49.300804350,-0.48506165,-0.08113098,0.5638428,16.402970269662855,0.7481883073988278,-103.7434310913086,-35.1545524597168,-102.57320404052734,22810334.0,50354.0,0.442924056216,-0.3984149524976887,-0.01883671746861402,0.01909823889593641,-0.022276231290608923,0.0014697063929230765,22.81033433205448
1624,B,518509351158354.0,3.9763794,11.422433893202355,-0.91775638175426,120,1970-01-07 00:01:49.351158354,-0.26182556,0.27041626,0.5944214,6.652926581448676,0.7035725821261523,-103.74231719970703,-35.12889862060547,-102.59790802001953,22860688.0,50354.0,0.3025158648988,-0.14747974628668867,-0.08612226306065401,0.01876794089390732,-0.013743990831294269,-0.0026425522527853814,22.86068833601894
1624,B,518509401512358.0,-1.1239624,19.600152993202354,1.41419848824574,120,1970-01-07 00:01:49.401512358,-0.40924072,0.7590027,0.30274963,3.916702292243773,0.9139039358589859,-103.73431396484375,-35.12320327758789,-102.64736938476562,22911042.0,50354.0,0.071815302809,0.2875864700390113,0.01249892291513599,0.009424535809379282,0.0035274669839122264,-0.0018536148348437074,22.911042340041604
1624,B,518509451866362.0,-2.0844574,15.123147993202355,2.34342821824574,120,1970-01-07 00:01:49.451866362,-0.28373718,0.8005066,-0.3720703,2.249709943661655,0.9272291583529944,-103.72425079345703,-35.15077590942383,-102.68952178955078,22961396.0,50354.0,-0.08077838530459999,0.38075934893471136,0.09460576758933599,-0.00022566352799172093,0.016826942684301415,0.0026965747928310913,22.96139634400606
1624,B,518509502220366.0,5.3430786,3.590509893202354,1.43913134824574,120,1970-01-07 00:01:49.502220366,-0.8794098,1.5705872,-0.734787,13.423949840134446,1.9442267574819765,-103.72057342529297,-35.2050895690918,-102.77217864990234,23011750.0,50354.0,0.08204230595240002,-0.022315435393988673,0.095233502205556,3.18217301496612e-05,0.009024542411214776,0.004779583295625996,23.011750348028727
1624,B,518509552574370.0,8.08165,3.5656068932023537,0.84799061824574,120,1970-01-07 00:01:49.552574370,0.15577698,0.54818726,0.28829956,14.784555395383387,0.6386645252559606,-103.47682189941406,-35.15305709838867,-102.93270111083984,23062104.0,50354.0,0.3379943919622,-0.31329964766868873,0.05758286975035599,0.010575263943395885,-0.008449780946269029,0.0038474577967339964,23.062104352051392
1624,B,518509602928374.0,7.451538,4.1943298932023545,0.9849535182457398,120,1970-01-07 00:01:49.602928374,1.8278198,0.020462036,1.3511963,13.906663809526705,2.273120181011773,-103.15396881103516,-35.026206970214844,-103.0793685913086,23112458.0,50354.0,0.391079074276,-0.2980972715286887,0.04614803452444599,0.018355882659479163,-0.01539314023463237,0.0026116329769266893,23.11245835601585
1624,B,518509653282378.0,11.47847,0.3453008932023547,-0.7060865817542603,120,1970-01-07 00:01:49.653282378,1.479599,0.9973602,0.6379852,19.513094300900423,1.894984349477346,-102.95915222167969,-35.032588958740234,-103.19440460205078,23162812.0,50354.0,0.476600811416,-0.3791749156906887,0.007021032860045981,0.021845576482067485,-0.017051681857622267,0.0013386376095393545,23.162812360038515
1624,B,518509703636382.0,6.4962616,5.126443893202355,-0.6934369817542603,120,1970-01-07 00:01:49.703636382,1.4599457,-0.028625488,0.2671051,12.857982194401256,1.4844547820522314,-102.91259002685547,-34.902366638183594,-103.18052673339844,23213166.0,50354.0,0.4525498174932,-0.3557070815126887,-0.035235804758454024,0.02339322538404693,-0.018502124043589432,-0.0007103633120862193,23.213166364002973
1624,B,518509753990386.0,0.9948273,10.827478493202355,0.11901721824573985,120,1970-01-07 00:01:49.753990386,0.7657776,-0.60609436,0.705246,5.491355033223567,1.20463173891508,-102.88938903808594,-34.861228942871094,-103.15409851074219,23263520.0,50354.0,0.18860314523530003,-0.09179729607748867,-0.014462166385854019,0.016142308142615445,-0.011266817714587896,-0.0012512458195002437,23.263520368025638
1624,B,518509804344389.0,-0.29170227,17.913522893202355,1.6220689682457399,120,1970-01-07 00:01:49.804344389,0.24066162,-1.0725708,0.35066223,2.0747650617574696,1.1538154687393636,-102.9110336303711,-34.83216857910156,-103.09518432617188,23313874.0,50354.0,0.017702578880310002,0.23014299190551132,0.04383532691729599,0.005194159216058715,0.0034831295838621264,0.0007395280627001145,23.313874371000566
1624,B,518509854698393.0,-0.31251526,16.620126793202356,7.05210761824574,120,1970-01-07 00:01:49.854698393,-0.17382813,-1.4958038,-0.22576904,5.1219562779925285,1.522700524166278,-102.97220611572266,-34.8264274597168,-103.00331115722656,23364228.0,50354.0,-0.01521238475281,0.3759844981546114,0.218389743918096,6.269561754806754e-05,0.01526047181724371,0.006602040608422665,23.36422837502323
1624,B,518509905052397.0,3.983139,4.811486893202355,5.38415391824574,120,1970-01-07 00:01:49.905052397,-0.8217163,-1.7178345,-1.2408905,12.254461095922606,2.2728797328644976,-103.0812759399414,-34.86750793457031,-102.88428497314453,23414582.0,50354.0,0.09241529390198,0.04611453778261138,0.313107756704246,0.001943737643648653,0.010627187427791458,0.013381512573168705,23.414582379045896
1624,B,518509955406401.0,5.4456787,-2.3883271067976466,2.4868913582457397,120,1970-01-07 00:01:49.955406401,-1.7776794,0.2785492,-1.091217,19.08150027875707,2.1043973596006054,-103.16934204101562,-34.92380905151367,-102.88572692871094,23464936.0,50354.0,0.2373893432329,-0.4324613060576887,0.198169306926226,0.008303491349144874,-0.009727052584861623,0.012872422631024394,23.464936383010354
1624,B,518510005760405.0,7.995407,0.014688893202354336,0.04592761824573999,120,1970-01-07 00:01:50.005760405,-1.994339,1.6823273,-0.06021118,17.883787570905948,2.60983497130437,-103.0445556640625,-34.74154281616211,-103.08067321777344,23515290.0,50354.0,0.33840621466890003,-0.5532302893036888,0.06376878337112599,0.01449680476129362,-0.0248167572964134,0.006594815299416431,23.51529038703302
1624,B,518510056114409.0,8.369949,3.401956893202355,-2.05511608175426,120,1970-01-07 00:01:50.056114409,-0.88879395,0.36938477,0.22805786,15.571002155835014,0.9891461880694558,-103.20037078857422,-34.68144989013672,-103.03417205810547,23565644.0,50354.0,0.412030568012,-0.40744830903568874,-0.050585337945754025,0.01889374687755702,-0.02418700507039051,0.0003319196054745899,23.565644391055685
1624,B,518510106468413.0,3.218872,12.933984893202354,1.34414538824574,120,1970-01-07 00:01:50.106468413,-0.62065125,0.41789246,0.3177185,4.419907009099182,0.8128881395946579,-103.21482849121094,-34.67076110839844,-103.06332397460938,23615998.0,50354.0,0.291771746317,-0.0821791936436887,-0.017900109150464017,0.017719630867861234,-0.012327351634958687,-0.0017242581015414816,23.615998395020142
1624,B,518510156822417.0,-1.7108917,20.729165893202357,0.5824266182457398,120,1970-01-07 00:01:50.156822417,-0.45108032,0.42633057,0.10273743,5.320027200418612,0.6291154023951664,-103.22222900390625,-34.67063903808594,-103.08999633789062,23666352.0,50354.0,0.03796642001310001,0.35406794734931135,0.04850530340743599,0.008301817813692929,0.006845343152046462,0.0007705469758077833,23.666352399042808
1624,B,518510207176421.0,-1.209732,17.908472093202356,0.6552873182457399,120,1970-01-07 00:01:50.207176421,-0.47224426,0.8050842,-0.24325562,2.7040642413150486,0.9645457515608952,-103.22064208984375,-34.69168472290039,-103.1342544555664,23716706.0,50354.0,-0.07353254289490001,0.4793106115837114,0.03116192377904599,-0.0008954482757950787,0.020981971978256714,0.0020057817788740567,23.716706403007265
1624,B,518510257552114.0,1.9599304,4.027658893202355,-9.78529538175426,120,1970-01-07 00:01:50.257552114,-1.2873077,0.13806152,-0.6786041,16.832180959699908,1.4617542961526777,-103.28573608398438,-34.726295471191406,-103.13296508789062,23767082.0,50376.0,0.018895997299199996,0.05884246728556183,-0.22996664310365258,-0.0013761853104644918,0.013554999750559254,-0.00500749327034819,23.767082096019294
1624,B,518510307906118.0,8.0729065,7.726480893202355,-8.26985338175426,120,1970-01-07 00:01:50.307906118,-0.09649658,-0.6799469,-0.07104492,15.400039785363616,0.6904250556208927,-103.31405639648438,-34.721927642822266,-103.09170532226562,23817436.0,50354.0,0.2525967346313,-0.19753522259768866,-0.454574480418854,0.006835372511814199,-0.003491867500493417,-0.01723469186692615,23.81743610004196
1624,B,518510358260121.0,6.738571,3.8013098932023546,-1.5485243817542602,120,1970-01-07 00:01:50.358260121,1.6356659,-0.14408875,1.2993927,14.288029401242811,2.0939402792612456,-103.3072509765625,-34.49384689331055,-103.05553436279297,23867790.0,50354.0,0.3729085690175,-0.20323401137068867,-0.24719729695185402,0.01574834702996584,-0.010090167003621836,-0.01766850803886232,23.867790103016887
1624,B,518510408614125.0,8.409805,0.2076058932023539,-0.37603898175426,120,1970-01-07 00:01:50.408614125,1.6300354,0.46792603,0.71315,17.954363090499776,1.8397154935763085,-103.0785140991211,-34.30305862426758,-103.16413116455078,23918144.0,50354.0,0.38139066255200005,-0.3925367272456887,-0.04845473180305401,0.018990991753225304,-0.014999719886144534,-0.0074436311279623205,23.918144107039552
1624,B,518510458968129.0,4.9699554,5.916696893202355,0.26492171824573996,120,1970-01-07 00:01:50.458968129,1.476059,-0.14962769,0.3325348,11.27859239950509,1.5204334942070883,-102.91893768310547,-34.083038330078125,-103.20930480957031,23968498.0,50354.0,0.33686222759080003,-0.3392776287466887,-0.002797599343354009,0.01808345301512528,-0.018424890040820086,-0.001290379941273115,23.96849811100401
1624,B,518510509322133.0,0.11946106,11.659982893202354,0.18807851824573985,120,1970-01-07 00:01:50.509322133,0.8711395,-0.49165344,0.73461914,4.602693316145791,1.2410771186265674,-102.88603973388672,-34.041751861572266,-103.19027709960938,24018852.0,50354.0,0.12813623821342,-0.05094113301768868,0.011405186954145987,0.011707266373552848,-0.009824537764941731,0.00021671323327690967,24.018852115026675
1624,B,518510559676137.0,-0.49456787,17.692941693202354,1.36291371824574,120,1970-01-07 00:01:50.559676137,0.14987183,-0.6757355,0.38243103,1.969802881007383,0.7907803260670184,-102.89791107177734,-34.015567779541016,-103.15567779541016,24069206.0,50354.0,-0.00944406415537,0.2455493823119113,0.03904933153814599,0.002988312866259525,0.004899651892480644,0.0012702934120804353,24.06920611904934
1624,B,518510610030141.0,-1.5121613,15.531580023202354,1.90066393824574,120,1970-01-07 00:01:50.610030141,-0.4945221,-1.1928711,-0.3171997,1.5573898636353936,1.3297026804078085,-102.96427154541016,-34.01768493652344,-103.08126831054688,24119560.0,50354.0,-0.05052342031309,0.34302458325392127,0.08216709465748599,-0.0015098013564624174,0.014818526731050968,0.0030518659623274265,24.119560123013798
1624,B,518510660384145.0,3.7939758,3.432214893202355,6.28640611824574,120,1970-01-07 00:01:50.660384145,-0.9028015,-1.9289093,-1.0018768,13.715225063123166,2.353613978206065,-103.08047485351562,-34.04475402832031,-102.95425415039062,24169914.0,50354.0,0.05744924366650001,-0.016017735389678687,0.206125862812286,0.00017437145456880395,0.008233051408678036,0.00725835179021645,24.169914127036463
1624,B,518510710738149.0,5.363632,-2.835165106797646,6.40034361824574,120,1970-01-07 00:01:50.710738149,-2.0575256,1.1691589,-0.6164093,19.973607498289063,2.445466121873509,-103.14958190917969,-34.08803939819336,-103.0145492553711,24220268.0,50354.0,0.23056109158060004,-0.47843727752768866,0.31941429811564603,0.0072512362105162384,-0.012448893860220559,0.013231524631682545,24.22026813100092
1624,B,518510761092153.0,9.12648,1.8718358932023538,-1.06446968175426,120,1970-01-07 00:01:50.761092153,-1.7761536,1.6875153,0.049041748,17.00655001663901,2.4504764009420588,-103.16070556640625,-34.064125061035156,-103.12660217285156,24270622.0,50354.0,0.364817549824,-0.5177229396106888,0.13434129809904602,0.014989848054643616,-0.02508032578689293,0.011424204645897303,24.270622135023586
1624,B,518510811446157.0,9.954727,1.8092898932023544,-1.9879316817542603,120,1970-01-07 00:01:50.811446157,-0.55944824,-0.22227478,0.1347351,17.699768164665393,0.6168808298489717,-103.26025390625,-34.0596809387207,-103.07882690429688,24320976.0,50354.0,0.480407548639,-0.4007894960756887,-0.07685030912905402,0.02128023230400295,-0.02312538759327593,0.0014474506292974886,24.32097613904625
1624,B,518510861800160.0,4.411316,11.042779893202354,0.8070360182457399,120,1970-01-07 00:01:50.861800160,-0.47746277,0.38363647,0.26020813,6.66233386520944,0.6654741984241243,-103.27999877929688,-34.235992431640625,-103.09905242919922,24371330.0,50354.0,0.36169386461100006,-0.1698926389876887,-0.02973141012015402,0.021201587281395252,-0.014368064114490653,-0.002683407945537311,24.37133014202118
1624,B,518510912154164.0,-1.587143,19.982889193202354,0.5972276182457399,120,1970-01-07 00:01:50.912154164,-0.049316406,0.53074646,0.2572174,4.603433217011808,0.5918485478279459,-103.26287841796875,-34.22956466674805,-103.13386535644531,24421684.0,50354.0,0.071104203621,0.2876640705884113,0.03535514557594599,0.010896556963877067,0.0029651313334113937,0.00014158878757047447,24.421684146043845
1624,B,518510962508168.0,-3.676773,16.733240193202356,2.2927690482457397,120,1970-01-07 00:01:50.962508168,-0.43930054,1.1020203,-0.0049743652,3.783582471213814,1.186363540558089,-103.24838256835938,-34.24244689941406,-103.19866180419922,24472038.0,50354.0,-0.132529613132,0.4309327895615114,0.07276144607225599,-0.0015465075352584473,0.018092113147994603,0.0027220514279267813,24.472038150008302
1624,B,518511012862172.0,-0.06913757,6.234613893202354,4.049177618245739,120,1970-01-07 00:01:51.012862172,-0.27789307,1.3222504,-0.9980774,9.87524272716633,1.6798003378511819,-103.2261962890625,-34.30615234375,-103.26271057128906,24522392.0,50354.0,-0.09431079042089001,0.08479246233341135,0.15967119122225598,-0.0057111608402511125,0.012984414666958469,0.005851956509163928,24.522392154030968
1624,B,518511063216176.0,8.033859,9.575067593202355,5.43942121824574,120,1970-01-07 00:01:51.063216176,-0.7971344,1.0760956,0.063827515,10.786320429466716,1.3407009150715885,-103.22981262207031,-34.315364837646484,-103.32701110839844,24572746.0,50354.0,0.20052779144311,-0.09542884921678867,0.238894452906346,0.002674225434736433,-0.00026779231256279063,0.010034687222225813,24.572746158053633
1624,B,518511113570180.0,4.510147,4.761392893202354,3.55171071824574,120,1970-01-07 00:01:51.113570180,0.92741394,-0.015136719,0.99061584,12.111375061668209,1.3570723926258739,-103.1762466430664,-34.26697540283203,-103.3398208618164,24623100.0,50354.0,0.315820439062,-0.13252013433378868,0.22636972876504602,0.013000099399427156,-0.005739071558852887,0.011713956301940638,24.62310016201809
1624,B,518511163924184.0,11.923218,0.6555428932023553,-0.3421949817542602,120,1970-01-07 00:01:51.163924184,1.635849,1.1839294,0.6148071,19.488123233133706,2.1108478261579564,-102.94339752197266,-34.33854293823242,-103.47840881347656,24673454.0,50354.0,0.41374283060500006,-0.3570870077056887,0.080805977697646,0.01836821444040606,-0.012326839015127922,0.007733762761611197,24.673454166040756
1624,B,518511214278188.0,9.8697815,3.701608893202355,-1.53602738175426,120,1970-01-07 00:01:51.214278188,1.6616058,0.6368866,0.23908997,16.07746031780201,1.795472748221983,-102.91358947753906,-34.423274993896484,-103.47620391845703,24723808.0,50354.0,0.5486823484115001,-0.38376918947368865,-0.047288004446054015,0.024230978732098427,-0.018652536476385186,0.0008438820125553313,24.723808170005213
1624,B,518511264632192.0,1.9065094,8.354013493202356,-0.9650586817542601,120,1970-01-07 00:01:51.264632192,1.0076599,-0.19296265,0.79089355,8.319362945271616,1.295424897782436,-102.86361694335938,-34.38257598876953,-103.47550201416016,24774162.0,50354.0,0.2964916759893,-0.18994479517748866,-0.06296984382095401,0.021278946412338948,-0.014444396991562691,-0.0027759618458184612,24.77416217402788
1624,B,518511314986196.0,0.3307495,16.366876653202354,2.52020131824574,120,1970-01-07 00:01:51.314986196,0.41497803,-0.65441895,0.891037,0.7831908150276519,1.1808547170887633,-102.85789489746094,-34.33186340332031,-103.4488754272461,24824516.0,50354.0,0.0563274673253,0.12892865121603134,0.03915382615894599,0.008882927571231684,-0.0015362034565176111,-0.000599615876676376,24.824516178050544
1624,B,518511365340200.0,-1.0922394,16.684061093202356,1.4301744182457399,120,1970-01-07 00:01:51.365340200,0.055725098,-1.513443,0.0008087158,1.460898862437383,1.5144687698389012,-102.90545654296875,-34.31495666503906,-103.35957336425781,24874870.0,50354.0,-0.0191720312123,0.33865425964123136,0.099458609917646,0.000935462415017001,0.011772334946653303,0.0034898453031003565,24.874870182015
1624,B,518511415694203.0,-0.42486572,8.101495893202355,1.20442065824574,120,1970-01-07 00:01:51.415694203,-0.47401428,-1.7662506,-0.6716614,7.842586275285925,1.9481939728615933,-102.99305725097656,-34.3278923034668,-103.24624633789062,24925224.0,50354.0,-0.038196155606240005,0.13055676824671136,0.06633120024082599,-0.0014443588395303816,0.011813326049134735,0.00417409005035985,24.925224185048137
1624,B,518511466048207.0,-5.1055603,-1.7764951067976469,3.9910722182457397,120,1970-01-07 00:01:51.466048207,-2.5590363,0.78448486,-1.3699036,18.50058315416215,3.0067788667575583,-103.1054458618164,-34.403472900390625,-103.2738037109375,24975578.0,50354.0,-0.13923953590554,-0.3342246552006887,0.130806924151426,-0.004467298405192085,-0.005127746389840288,0.004963346557823729,24.975578189012595
1624,B,518511516402211.0,10.14856,1.7524818932023543,0.11663681824573979,120,1970-01-07 00:01:51.516402211,-1.7232056,1.7728271,-0.23083496,17.506007256785274,2.483070326254166,-102.99727630615234,-34.46344757080078,-103.45272827148438,25025932.0,50354.0,0.1269676034469,-0.49407378067868873,0.103419790411746,-0.0003089704435111793,-0.020854069720135086,0.005897125992556982,25.02593219303526
1624,B,518511566756215.0,10.11264,2.4772128932023545,-1.56446968175426,120,1970-01-07 00:01:51.566756215,-0.6505585,-0.49406433,0.45516968,17.172424896117477,0.9351499140201539,-103.08811950683594,-34.47639465332031,-103.40408325195312,25076286.0,50354.0,0.5101162324,-0.3869781743626887,-0.03645208800455402,0.0160398597351174,-0.02218224507207676,0.0016860458435058725,25.076286196999718
1624,B,518511617110219.0,3.0719147,8.111627593202353,-1.4725660817542603,120,1970-01-07 00:01:51.617110219,0.23464966,-0.43399048,0.53157043,9.054599309108708,0.7252415609430632,-103.08677673339844,-34.445594787597656,-103.38575744628906,25126640.0,50354.0,0.33194753368190005,-0.2268739630737887,-0.07646344941785402,0.021200639438644,-0.015454955264238191,-0.0028428744856839674,25.126640201022383
1624,B,518511667464223.0,-1.9274902,20.502496893202355,2.04440173424574,120,1970-01-07 00:01:51.667464223,-0.16592407,0.6301117,0.4552002,4.996643554737907,0.7948451255196166,-103.07049560546875,-34.43054962158203,-103.42920684814453,25176994.0,50354.0,0.028813175636500005,0.22694861219421134,0.014397106222777983,0.009082872378509358,1.879440904880462e-06,-0.0015626443226224294,25.176994205045048
1624,B,518511717818227.0,-5.2437286,19.126077693202355,2.90411241824574,120,1970-01-07 00:01:51.717818227,-0.6904297,0.50590515,-0.16156006,6.227575910523856,0.8710538699907234,-103.08937072753906,-34.44414520263672,-103.45685577392578,25227348.0,50354.0,-0.1805497757276,0.5042594223619113,0.124588740817278,-0.0038202723804936244,0.0184096246860195,0.0034992466709274895,25.227348209009506
1624,B,518511768172231.0,0.5213623,5.825799893202355,8.40423461824574,120,1970-01-07 00:01:51.768172231,-0.86183167,1.743988,-0.77641296,11.947342937708548,2.094532180706458,-103.08016967773438,-34.5016975402832,-103.5492172241211,25277702.0,50354.0,-0.11889501633510001,0.13474422199291133,0.284710253337746,-0.007539121529762599,0.016088194753921373,0.010304920775841041,25.27770221303217
1624,B,518511818526235.0,3.4614868,9.036722193202355,4.853163318245739,120,1970-01-07 00:01:51.818526235,-1.838501,1.0810394,0.100479126,8.196160035686542,2.1351412520287933,-103.1351318359375,-34.509056091308594,-103.61449432373047,25328056.0,50354.0,0.10027619179069999,-0.11927548143058868,0.33378150784704597,-0.0004687661455543593,0.00038945648113759753,0.015571767071349508,25.328056217054836
1624,B,518511868880239.0,2.2742615,4.7968998932023545,-0.0787366817542603,120,1970-01-07 00:01:51.868880239,1.3865204,-0.6569061,1.0015106,11.514337241206883,1.8322084831551595,-103.07996368408203,-34.45283508300781,-103.58944702148438,25378410.0,50354.0,0.1444089349491,-0.14518009673058868,0.12020573942694597,0.006160437435927945,-0.006658198091363963,0.011430036924617295,25.378410221019294
1624,B,518511919234243.0,14.13826,-0.1492521067976469,-1.5073407817542601,120,1970-01-07 00:01:51.919234243,1.5423737,0.93930054,0.8435364,21.667578932182817,1.9931773109838828,-102.94688415527344,-34.579002380371094,-103.66682434082031,25428764.0,50354.0,0.41321805380550003,-0.37645537168168874,-0.039932672298754024,0.014039374695874567,-0.013133216188215911,0.002021035011086489,25.42876422504196
1624,B,518511969588246.0,6.2239075,5.576501893202355,-0.5168623817542599,120,1970-01-07 00:01:51.969588246,1.8856049,0.043655396,-0.09298706,12.306817047899195,1.8884009706180969,-102.87077331542969,-34.47920227050781,-103.65737915039062,25479118.0,50354.0,0.5126582911475001,-0.3568273321276887,-0.05096336304765401,0.023310788736881683,-0.018461858633808698,-0.002288489481916515,25.479118228016887
1624,B,518512019942250.0,-0.66581726,9.065423893202354,-0.5959027817542601,120,1970-01-07 00:01:52.019942250,1.4454651,-0.49176025,0.79330444,7.331660369382099,1.7206189099628617,-102.80888366699219,-34.435054779052734,-103.63898468017578,25529472.0,50354.0,0.13993603797248003,-0.12482943447568869,-0.02801608852165401,0.016430367424253738,-0.012126672412773232,-0.001988465652160468,25.529472232039552
1624,B,518512070296254.0,0.5628967,14.966684393202355,1.9871965342457398,120,1970-01-07 00:01:52.070296254,0.21875,-0.37174988,0.65663147,1.0838519295977633,0.7856299530786586,-102.80538940429688,-34.39892578125,-103.62583923339844,25579826.0,50354.0,-0.0025912309391199987,0.11158719032681133,0.03502860280647799,0.0034579302066789054,-0.0003333999809362852,0.0001765540721490133,25.57982623600401
1624,B,518512120650258.0,0.3841095,18.988519693202356,2.34503039824574,120,1970-01-07 00:01:52.120650258,0.018875122,-1.4601593,-0.20503235,3.139315219359059,1.4746049356195465,-102.854736328125,-34.3927116394043,-103.53681945800781,25630180.0,50354.0,0.0238427750974,0.36142097328341133,0.109072477479338,0.0005350501272730157,0.011908926535214578,0.003628032898355989,25.630180240026675
1624,B,518512171004262.0,1.4557648,14.177133593202354,8.02357361824574,120,1970-01-07 00:01:52.171004262,-0.60321045,-0.8470917,-0.48213196,6.437918154522976,1.1462453585736057,-102.9168472290039,-34.406768798828125,-103.48025512695312,25680534.0,50354.0,0.046322515251100004,0.34154245279181134,0.261050343323206,0.0017665515151041845,0.017698510178295882,0.009318582259345651,25.68053424404934
1624,B,518512221358266.0,3.3498993,-2.9497271067976456,-1.5789350817542602,120,1970-01-07 00:01:52.221358266,-1.3132477,-1.9450226,-2.2950287,19.46831951001662,3.2825126305758126,-103.06522369384766,-34.49672317504883,-103.33406066894531,25730888.0,50354.0,0.12099220504570002,-0.21079678689178868,0.162256664433246,0.004212482712912535,0.0032917836303648705,0.010657600534284191,25.730888248013798
1624,B,518512271712270.0,5.7714233,0.5723208932023542,0.75512561824574,120,1970-01-07 00:01:52.271712270,-1.5682678,2.0597992,-0.43704224,16.41823152867616,2.6254985348275666,-103.07803344726562,-34.54130172729492,-103.44982147216797,25781242.0,50354.0,0.22964753910020003,-0.5533251562396888,-0.020741050862754015,0.008828056838361326,-0.01923829816222121,0.0035629386028642766,25.781242252036463
1624,B,518512322066274.0,14.06926,1.402032893202355,-2.8740857817542604,120,1970-01-07 00:01:52.322066274,-1.375946,0.4055786,0.12046814,20.77510054391166,1.439525605346782,-103.2548599243164,-34.74415969848633,-103.40569305419922,25831596.0,50354.0,0.49952888344410007,-0.4437608947196887,-0.053349060036654024,0.018358474790397844,-0.02510363550500425,-0.0018653667221143963,25.83159625600092
1624,B,518512372420278.0,3.8046265,6.005227893202354,-2.09820688175426,120,1970-01-07 00:01:52.372420278,0.14126587,-0.7773285,0.13893127,11.356421006590832,0.8021829845633225,-103.27293395996094,-34.728485107421875,-103.36160278320312,25881950.0,50354.0,0.45001084041050005,-0.3069765951806887,-0.12518741238915404,0.02390656162748727,-0.0189013177832218,-0.00449501276626457,25.881950260023586
1624,B,518512422774282.0,-1.2294159,20.416009893202354,4.62766891824574,120,1970-01-07 00:01:52.422774282,-0.19911194,0.39450073,0.07148743,5.377590038730128,0.44764589048610887,-103.26900482177734,-34.729530334472656,-103.38595581054688,25932304.0,50354.0,0.06483607727620001,0.17173830374831126,0.06368426569274599,0.01296230084659805,-0.003404894463392967,-0.0015484647243754657,25.93230426404625
1624,B,518512473128285.0,-5.7359314,19.197595693202356,1.89169177324574,120,1970-01-07 00:01:52.473128285,0.010848999,0.5673981,0.046783447,6.620571560742896,0.5694269009944242,-103.24894714355469,-34.733760833740234,-103.42021179199219,25982658.0,50354.0,-0.17536654897210002,0.5038825478489114,0.164137944129681,-0.002782825685887675,0.017010106180663277,0.005735879776699244,25.98265826702118
1624,B,518512523482289.0,3.972046,10.062494293202356,-0.7585767817542601,120,1970-01-07 00:01:52.523482289,-0.97213745,1.7884369,-0.11853027,7.571963023436282,2.0390211357120323,-103.23811340332031,-34.760009765625,-103.52448272705078,26033012.0,50354.0,-0.0444093427158,0.2432120855877114,0.02852843614078099,-0.0055332976250262594,0.018809601586033856,0.004850761456069421,26.033012271043845
1624,B,518512573836293.0,2.514511,-2.933309106797644,-17.13595738175426,120,1970-01-07 00:01:52.573836293,-0.74279785,-0.97428894,-1.1106415,26.95580195956939,1.6536360319287906,-103.3170394897461,-34.8028678894043,-103.45123291015625,26083366.0,50354.0,0.163312045589,-0.3139777045618886,-0.45053068663465407,0.002993613350238557,-0.0017816659889128598,-0.010624750660684242,26.083366275008302
1624,B,518512624190297.0,7.3688354,10.944925393202354,-1.40408458175426,120,1970-01-07 00:01:52.624190297,0.4274292,-0.25912476,0.7173004,9.50333375242316,0.8742775452325523,-103.29869842529297,-34.764991760253906,-103.44593811035156,26133720.0,50354.0,0.24883301231280003,-0.29176073675718867,-0.4667826365152541,0.01037657612279362,-0.015250676737090409,-0.02309519753694524,26.133720279030968
1624,B,518512674544301.0,4.3215637,-3.1575981067976464,-3.77971038175426,120,1970-01-07 00:01:52.674544301,2.083603,0.8231354,1.8356323,20.369243906308544,2.896290608544911,-103.15219116210938,-34.68505859375,-103.52023315429688,26184074.0,50354.0,0.29432917814070003,-0.2974076609101887,-0.130512405796254,0.013675194469047771,-0.014833492748071561,-0.01503809728027684,26.184074283053633
1624,B,518512724898305.0,12.223038,2.4845068932023544,-2.0316023817542597,120,1970-01-07 00:01:52.724898305,1.372467,1.101471,-0.3527069,18.58424857952737,1.7947997624352445,-103.13043975830078,-34.87661361694336,-103.53441619873047,26234428.0,50354.0,0.4165434370009001,-0.5104156174846888,-0.146311421446854,0.017897639831420065,-0.020338566680147833,-0.006969593498499731,26.23442828701809
1624,B,518512775252309.0,3.9989624,7.793328893202354,-0.5849164817542603,120,1970-01-07 00:01:52.775252309,1.8683624,-0.8446808,0.75914,9.39326887663877,2.186448547581763,-103.0596694946289,-34.83007049560547,-103.49475860595703,26284782.0,50354.0,0.4084213040708,-0.23470412840568872,-0.06587609542655401,0.020770137285962192,-0.018759879842282036,-0.005342245112321794,26.284782291040756
1624,B,518512825606313.0,-1.8014984,11.838510593202354,-0.16760388175426,120,1970-01-07 00:01:52.825606313,0.6145325,-0.6386719,1.0891724,4.934159554456879,1.404225233474894,-103.04200744628906,-34.769805908203125,-103.47183990478516,26335136.0,50354.0,0.05532555112800001,0.0008016227492112947,-0.018946205192054016,0.01167575457334019,-0.005888963384913132,-0.0021355710626746946,26.335136295005213
1624,B,518512875960317.0,1.4442444,19.346368893202353,2.9891344182457398,120,1970-01-07 00:01:52.875960317,-0.031066895,-0.89590454,0.35794067,3.8739190057138004,0.9652624617157768,-103.07102966308594,-34.742252349853516,-103.42364501953125,26385490.0,50354.0,-0.008994583958,0.2916725108292113,0.07103767431724599,0.0011664747604390902,0.0073636212611039465,0.0013115069181649584,26.38549029902788
1624,B,518512926314321.0,-1.6726227,13.752710393202355,0.6849046182457399,120,1970-01-07 00:01:52.926314321,-0.5026703,-1.7665253,-0.6260834,3.0142522407963037,1.9404302331693712,-103.16075897216797,-34.752689361572266,-103.31031036376953,26435844.0,50354.0,-0.005749880459099998,0.3398663191938113,0.092501280821746,-0.00037122138062932664,0.01590025312348964,0.004117420273534401,26.435844303050544
1624,B,518512976668325.0,2.9888306,2.228967893202354,1.5462175182457398,120,1970-01-07 00:01:52.976668325,-1.0516663,-1.6315613,-0.9985962,13.994084247153845,2.1829312066274147,-103.27640533447266,-34.78264617919922,-103.19973754882812,26486198.0,50354.0,0.0331381662983,-0.0910984857831887,0.056172962030445986,0.0006895548725735385,0.006263227741779245,0.003743171412289638,26.486198307015
1624,B,518513027022328.0,5.316986,-2.7153071067976455,4.94888161824574,120,1970-01-07 00:01:53.027022328,-2.6104736,1.5691376,-0.63352966,19.577550237192522,3.1109685074154054,-103.35891723632812,-34.83154296875,-103.2838363647461,26536552.0,50354.0,0.2091155445382,-0.5057137623806888,0.163527110959446,0.006099221677730561,-0.015025941972021943,0.00553138873766651,26.536552310048137
1624,B,518513077376332.0,10.365265,2.5481508932023544,-4.27070738175426,120,1970-01-07 00:01:53.077376332,-1.1499786,0.8337097,-0.12382507,18.020499051882247,1.4257823439405313,-103.68075561523438,-34.86806106567383,-103.1648941040039,26586906.0,50354.0,0.394832033427,-0.4976776919896887,0.017074392752145992,0.015205588170429843,-0.025262386646682997,0.004547004058946752,26.586906314012595
1624,B,518513127730336.0,8.648712,2.927850893202354,-1.3581403817542603,120,1970-01-07 00:01:53.127730336,-0.33569336,-0.71780396,0.19465637,15.940948762606228,0.8159801831670596,-103.74081420898438,-34.79991149902344,-103.11347198486328,26637260.0,50354.0,0.47871489892900004,-0.3555999030236887,-0.14171750014185402,0.021993291115927016,-0.021482970009651804,-0.0031381395147506794,26.63726031803526
1624,B,518513178084340.0,1.140213,14.767572493202355,1.1946703182457399,120,1970-01-07 00:01:53.178084340,-0.021514893,0.013824463,0.3940277,1.7893183882072106,0.3948567268837265,-103.73817443847656,-34.78092575073242,-103.11997985839844,26687614.0,50354.0,0.246455764725,-0.04795152540048868,-0.004115685788954019,0.01825762179881676,-0.010160214313435514,-0.0036716421221799542,26.687614321999718
1624,B,518513228438344.0,-3.3167114,20.627084893202355,2.4938036182457397,120,1970-01-07 00:01:53.228438344,0.18804932,0.21897888,0.4071808,5.802178375609885,0.49910970790714615,-103.71803283691406,-34.76375961303711,-103.13880920410156,26737968.0,50354.0,-0.0547977002168,0.3976620890175114,0.09286470829904599,0.0048253750901229514,0.00880466286018578,0.0022344341397365856,26.737968326022383
1624,B,518513278792348.0,-3.4998474,15.112268493202354,3.56826651824574,120,1970-01-07 00:01:53.278792348,-0.6742401,1.3672485,-0.21762085,3.9171319955933743,1.5399113635384938,-103.7074203491211,-34.79053497314453,-103.21652221679688,26788322.0,50354.0,-0.1716205009076,0.40634050020951135,0.152624739826446,-0.005700531049709019,0.02024237318896875,0.006180687835455513,26.788322330045048
1624,B,518513329146352.0,5.06723,8.486627593202353,7.44651661824574,120,1970-01-07 00:01:53.329146352,-1.0907135,2.2635803,-0.45387268,10.50165698994402,2.553321782165484,-103.68921661376953,-34.83937454223633,-103.3438949584961,26838676.0,50354.0,0.039461991720200006,0.10068020676741128,0.277319195027446,-0.00332735478581117,0.012765260339557981,0.01082469844781644,26.838676334009506
1624,B,518513379500356.0,7.7963715,7.019540893202354,5.46073781824574,120,1970-01-07 00:01:53.379500356,-0.86517334,0.72062683,1.0818481,12.310732239089733,1.5614811071019126,-103.69922637939453,-34.795352935791016,-103.40213775634766,26889030.0,50354.0,0.32386689496550003,-0.10307039601778872,0.324965944947546,0.00914753138008587,-6.017779475675286e-05,0.015163732969150374,26.88903033803217
1624,B,518513429854360.0,3.6403046,5.474008893202354,1.1867357182457399,120,1970-01-07 00:01:53.429854360,1.1465912,0.64108276,1.0441284,11.06584388549092,1.6780532175033118,-103.61170959472656,-34.752197265625,-103.45506286621094,26939384.0,50354.0,0.2879411941697,-0.1789190970276887,0.16736344122824598,0.015403492260156932,-0.007099649466405985,0.012395376955747914,26.939384342054836
1624,B,518513480208364.0,17.00415,-0.8771571067976467,-2.2172713817542604,120,1970-01-07 00:01:53.480208364,1.3854828,2.0050354,0.9892273,24.250587374311493,2.630266183376559,-103.47664642333984,-34.97068786621094,-103.58240509033203,26989738.0,50354.0,0.5197654334642,-0.37773426257368875,-0.025945796400154025,0.0203356297639387,-0.01401486163468388,0.0035604720438368715,26.989738346019294
1624,B,518513530562368.0,7.262146,6.141595893202355,-1.9409193817542603,120,1970-01-07 00:01:53.530562368,1.5149841,0.2427826,0.23205566,12.77857254148244,1.551763526911754,-103.6030044555664,-34.9610710144043,-103.47846984863281,27040092.0,50354.0,0.610952534392,-0.3609264246746887,-0.10469076885285403,0.02846808627671555,-0.0185972601228524,-0.0032890368033749837,27.04009235004196
1624,B,518513580916371.0,1.6686249,10.919916193202354,-1.3580945817542602,120,1970-01-07 00:01:53.580916371,1.1388245,-0.7614441,0.9498596,6.22381021603991,1.6670187818189752,-103.56412506103516,-34.90597915649414,-103.44694519042969,27090446.0,50354.0,0.22485001894930004,-0.06391151020058866,-0.08305927455925402,0.021043000885473912,-0.01069614468635486,-0.004726982842986644,27.090446353016887
1624,B,518513631270375.0,-0.5081482,17.198862093202354,3.3454424182457396,120,1970-01-07 00:01:53.631270375,0.5309601,-1.3718109,0.60147095,1.9484444412422748,1.5891982496984833,-103.5791244506836,-34.86063766479492,-103.3742446899414,27140800.0,50354.0,0.029217321875899996,0.2144772809168113,0.05003545647934598,0.0063966534399560624,0.003790794409322338,-0.0008314406677978448,27.140800357039552
1624,B,518513681624379.0,-0.5424652,15.091119793202354,2.06274279824574,120,1970-01-07 00:01:53.681624379,0.12677002,-1.8659058,-0.2097168,0.9706483123543163,1.8819288585508966,-103.63764190673828,-34.8488655090332,-103.26073455810547,27191154.0,50354.0,-0.026451293571800004,0.3194956739540113,0.136161879195606,6.96402946123255e-05,0.013443837084782702,0.0046878903202882665,27.19115436100401
1624,B,518513731978383.0,0.058380127,4.750390893202354,2.93580491824574,120,1970-01-07 00:01:53.731978383,-0.87960815,-1.444046,-1.0258789,11.18258136463088,1.977727702472621,-103.73896026611328,-34.881622314453125,-103.16043853759766,27241508.0,50354.0,-0.012187809882921,0.0060805145516113135,0.12584843585810598,-0.0009728167076795108,0.00819703169800606,0.0065966337021073065,27.241508365026675
1624,B,518513782332387.0,-0.2584076,-2.5235501067976465,3.18968061824574,120,1970-01-07 00:01:53.782332387,-2.239441,0.19697571,-1.4780731,18.45717601552282,2.690463809783475,-103.85658264160156,-34.955753326416016,-103.15061950683594,27291862.0,50354.0,-0.005036091687721,-0.43740402952068874,0.154221349352246,-0.00043364616984405363,-0.010859432136376464,0.007051316982241032,27.29186236904934
1624,B,518513832686391.0,9.755249,0.033380893202354045,0.9977556182457399,120,1970-01-07 00:01:53.832686391,-1.5311737,1.1098175,-0.13513184,18.64609596702414,1.8959030558179197,-103.63124084472656,-34.90126037597656,-103.36632537841797,27342216.0,50354.0,0.2391019759278,-0.5561641902906888,0.10542708212614599,0.005893076767512469,-0.025015067070191053,0.0065371685593314756,27.342216373013798
1624,B,518513883040395.0,6.9500732,2.5008488932023543,-2.47119278175426,120,1970-01-07 00:01:53.883040395,-0.71813965,-0.28677368,0.27374268,15.734281579380083,0.8203040627087296,-103.80525207519531,-34.67068099975586,-103.27880096435547,27392570.0,50354.0,0.4205898970294,-0.4296648966676887,-0.03709672746565401,0.016609062285443427,-0.024820218922351072,0.0017203533392872066,27.392570377036463
1624,B,518513933394399.0,1.7761536,12.983026593202354,-0.34143198175426015,120,1970-01-07 00:01:53.933394399,-0.14764404,-0.50997925,0.2837677,4.131037064878723,0.6019980943004505,-103.8274154663086,-34.65081787109375,-103.25282287597656,27442924.0,50354.0,0.21970021214360003,-0.1036316668787887,-0.07081345367085401,0.016120584078648623,-0.013426807580409662,-0.0027168546304738627,27.44292438100092
1624,B,518513983748403.0,-3.0917206,21.663186893202354,3.7523943182457398,120,1970-01-07 00:01:53.983748403,-0.30329895,0.02645874,0.19667053,6.779021670227736,0.3624494659452142,-103.8400650024414,-34.64158248901367,-103.25724029541016,27493278.0,50354.0,-0.033122030359,0.3788185169472113,0.08587779874584599,0.004697478882790876,0.006928379324172676,0.00037927501595307305,27.493278385023586
1624,B,518514034102407.0,-2.7820587,15.983072333202355,1.7468400882457398,120,1970-01-07 00:01:54.034102407,-0.20788574,0.7319641,-0.30967712,2.794267490084155,0.8215155769890502,-103.82845306396484,-34.665374755859375,-103.29594421386719,27543632.0,50354.0,-0.14788414143610001,0.45435066854319134,0.138454224652236,-0.004557192387285233,0.020976700583091867,0.005648007353093511,27.54363238904625
1624,B,518514084456410.0,2.9857025,4.502496893202354,-6.42941438175426,120,1970-01-07 00:01:54.084456410,-1.1866302,1.0335541,-0.5652008,14.476547072376453,1.672057790119555,-103.85774993896484,-34.70518493652344,-103.34873962402344,27593986.0,50354.0,0.005127139952600002,0.022295976413191306,-0.117893172987664,-0.00359419302635008,0.012000532580066847,0.0005176655977589294,27.59398639202118
1624,B,518514134810414.0,2.9068756,1.506616893202354,-10.26695338175426,120,1970-01-07 00:01:54.134810414,-0.89016724,-0.5939636,-0.48327637,19.12299713649896,1.1742003760408843,-103.92623138427734,-34.72150802612305,-103.30660247802734,27644340.0,50354.0,0.1483574388237,-0.3421777421996887,-0.420364451181854,0.0038642812398509054,-0.008053663217206646,-0.013551712203715956,27.644340396043845
1624,B,518514185164418.0,6.835541,5.827951893202355,-3.02797068175426,120,1970-01-07 00:01:54.185164418,1.2884827,-0.15109253,1.0076752,13.161480818979408,1.6426886282908673,-103.85852813720703,-34.6707878112793,-103.31240844726562,27694694.0,50354.0,0.24528482273820001,-0.3088067616646887,-0.334726303146954,0.009910731219343957,-0.01638983685379343,-0.0190109199217364,27.694694400008302
1624,B,518514235518422.0,6.3874054,-1.2109581067976443,-2.0220503817542603,120,1970-01-07 00:01:54.235518422,2.1551514,0.5768738,1.0317383,18.693601027341927,2.4580367893372324,-103.72290802001953,-34.627567291259766,-103.36139678955078,27745048.0,50354.0,0.33291412151280003,-0.37722714743968866,-0.12714438031595401,0.014557314819407429,-0.01727227572952091,-0.011628518197545637,27.745048404030968
1624,B,518514285872426.0,7.958603,4.585519893202354,-0.40692268175425994,120,1970-01-07 00:01:54.285872426,1.5818329,0.10534668,0.1855011,14.033864516159692,1.5961528450028344,-103.59507751464844,-34.618106842041016,-103.39509582519531,27795402.0,50354.0,0.3611894534868,-0.40850785790368865,-0.06115425481995402,0.017475445707764933,-0.019782450229530214,-0.0047407947368167565,27.795402408053633
1624,B,518514336226430.0,1.3240204,10.676721593202355,0.78275931824574,120,1970-01-07 00:01:54.336226430,1.2897797,-0.8317108,0.817276,5.515702003901474,1.7387393679170924,-103.5518569946289,-34.56863021850586,-103.35765075683594,27845756.0,50354.0,0.23370860934180002,-0.10921174609678866,0.009462438996945993,0.014977748527835663,-0.013034626469920018,-0.001301444846975873,27.84575641201809
1624,B,518514386580434.0,-0.91500854,16.579233223202355,2.27424487824574,120,1970-01-07 00:01:54.386580434,0.5448761,-0.8994446,0.6276398,1.1781957000574006,1.2246723118305607,-103.54964447021484,-34.527584075927734,-103.3134994506836,27896110.0,50354.0,0.010297691599220001,0.19275397441262135,0.076966194655066,0.006143346638792062,0.0021033426823077197,0.002176013709456706,27.896110416040756
1624,B,518514436934438.0,-0.36198425,16.402338093202353,3.99204881824574,120,1970-01-07 00:01:54.436934438,-0.14888,-1.3993073,-0.28172302,2.0957175246567807,1.4351285775954747,-103.60614013671875,-34.52484893798828,-103.2269287109375,27946464.0,50354.0,-0.03215084747383,0.3369078210331213,0.15776647639656602,-0.000550196905455056,0.013335295023937464,0.00590986445906694,27.946464420005213
1624,B,518514487288442.0,1.8677979,6.720925893202354,4.89201221824574,120,1970-01-07 00:01:54.487288442,-0.8101196,-1.8326569,-1.0071106,9.799263208678985,2.2425870863924393,-103.71611785888672,-34.5521354675293,-103.10440063476562,27996818.0,50354.0,0.03791187026605,0.08870521738571127,0.22367400471574603,0.00014504527083972302,0.010715659468270949,0.00960352699296468,27.99681842402788
1624,B,518514537642446.0,5.6881866,-3.290533106797646,3.49095021824574,120,1970-01-07 00:01:54.537642446,-1.5269012,-0.6275177,-1.1099396,20.065071722530806,1.9892640986110641,-103.82256317138672,-34.59857177734375,-103.05134582519531,28047172.0,50354.0,0.1902370217565,-0.4071022008166887,0.211057845263546,0.005744104654451742,-0.00801628085184172,0.010945243786928637,28.047172428050544
1624,B,518514587996450.0,8.221741,-1.741628106797645,0.4361864182457398,120,1970-01-07 00:01:54.587996450,-1.6533813,1.0325775,-0.2830658,19.519040048084754,1.969774673363829,-103.87297821044922,-34.624664306640625,-103.1081314086914,28097526.0,50354.0,0.3502102471852,-0.6201639228746887,0.098873519096946,0.013606840890145182,-0.02586347919617781,0.007803141960504108,28.097526432015
1624,B,518514638350453.0,9.495987,1.343179893202354,-3.5301223817542597,120,1970-01-07 00:01:54.638350453,-0.57318115,0.040115356,0.11930847,18.23069521287005,0.5868393166072551,-104.077880859375,-34.54347229003906,-103.01090240478516,28147880.0,50354.0,0.44607923785600007,-0.5035009306736887,-0.07789602575325402,0.020048180364882297,-0.028290510017787502,0.000528150349914133,28.147880435048137
1624,B,518514688704457.0,4.205368,9.172784893202355,0.34826521824573997,120,1970-01-07 00:01:54.688704457,-0.36486816,-0.116485596,0.4345703,8.096035591430583,0.5792659267550189,-104.08766174316406,-34.43980026245117,-103.0154037475586,28198234.0,50354.0,0.344959014835,-0.2287087545726887,-0.080109617805654,0.01991597008800131,-0.018434843245448047,-0.003978108087882627,28.198234439012595
1624,B,518514739058461.0,-0.8889313,19.524957693202353,2.10639819424574,120,1970-01-07 00:01:54.739058461,-0.19387817,0.26530457,0.3129425,3.741023019295089,0.45377116256069405,-104.08592224121094,-34.4278564453125,-103.03561401367188,28248588.0,50354.0,0.08349792679590001,0.2290538650979113,0.061801060736298,0.010787260419441171,8.688847693530029e-06,-0.0004609545413351759,28.24858844303526
1624,B,518514789412465.0,-3.7082214,17.596597693202355,0.6201463182457398,120,1970-01-07 00:01:54.789412465,0.0657959,0.84342957,-0.062042236,4.305186153835707,0.8482639795812825,-104.05511474609375,-34.441123962402344,-103.08431243896484,28298942.0,50354.0,-0.11574251352789999,0.44114019996351134,0.068646211190998,-0.0008118219601515635,0.01687347597605144,0.0032842709653135315,28.298942446999718
1624,B,518514839766469.0,-3.3134003,6.472757393202354,3.07067741824574,120,1970-01-07 00:01:54.839766469,0.061843872,1.5182037,-0.8949127,10.043993437115907,1.7634159690268578,-104.00889587402344,-34.5029296875,-103.16046905517578,28349296.0,50354.0,-0.17678336954090001,0.11252495301041134,0.092923869213646,-0.007364924158023178,0.013939627556424453,0.004067849914347722,28.349296451022383
1624,B,518514890120473.0,4.7107697,4.7361848932023545,2.11518725824574,120,1970-01-07 00:01:54.890120473,0.2203064,1.421463,-0.34007263,12.111099783248573,1.4780870623630655,-103.9532699584961,-34.53660202026367,-103.23918914794922,28399650.0,50354.0,0.0351815693838,-0.2112616600551887,0.130564514960026,-0.0035651085225553067,-0.0024858940732663598,0.00562676704834054,28.399650455045048
1624,B,518514940474477.0,7.652771,5.967858893202354,-0.3931440817542602,120,1970-01-07 00:01:54.940474477,0.8670044,0.9864807,0.71788025,12.757687967207456,1.496727381466616,-103.86024475097656,-34.57169723510742,-103.31394958496094,28450004.0,50354.0,0.31127686420390005,-0.22397348958968868,0.043355881054525994,0.008722783982437525,-0.010957915362609079,0.004378793810458376,28.450004459009506
1624,B,518514990828481.0,9.675171,1.034600893202354,-1.50755438175426,120,1970-01-07 00:01:54.990828481,1.8645935,0.7388153,0.48236084,18.07269859812513,2.062820629071235,-103.72283172607422,-34.50202178955078,-103.37324523925781,28500358.0,50354.0,0.43626559573400003,-0.3171682699576887,-0.04785388521575402,0.018820876513856513,-0.013624326080124323,-0.00011324625076723797,28.50035846303217
1624,B,518515041182485.0,11.5820465,2.967080893202354,-2.17433298175426,120,1970-01-07 00:01:55.041182485,1.933609,0.18685913,0.52801514,17.848700315903947,2.0130971380970606,-103.7111587524414,-34.62886047363281,-103.33775329589844,28550712.0,50354.0,0.5351929649975001,-0.39271885766368875,-0.09269887815105401,0.02445841218353698,-0.01787282821212342,-0.003538696923286126,28.550712467054836
1624,B,518515091536489.0,1.0992279,8.971017893202355,-0.19931168175425995,120,1970-01-07 00:01:55.091536489,1.3889313,-0.67562866,0.884552,7.343099584943397,1.7798978855645302,-103.6571273803711,-34.577884674072266,-103.31057739257812,28601066.0,50354.0,0.3192764455688,-0.1929036868546887,-0.05976125169315401,0.021512976349827743,-0.01474421880333919,-0.003838488689087626,28.601066471019294
1624,B,518515141890493.0,-0.26693726,15.245859193202355,2.31793078824574,120,1970-01-07 00:01:55.141890493,0.29197693,-0.5516052,0.7413635,0.7722344062137783,0.9690916692715478,-103.65496826171875,-34.53535461425781,-103.28865814208984,28651420.0,50354.0,0.020954581443280003,0.11623911440441134,0.053340473244135996,0.008565996567083138,-0.0019301839405806332,-0.0001616559390109265,28.65142047504196
1624,B,518515192244496.0,0.060684204,16.556802793202355,1.49874743824574,120,1970-01-07 00:01:55.192244496,-0.35142517,-1.1285553,-0.15180969,0.8291224394591887,1.191714268289809,-103.71150207519531,-34.529388427734375,-103.21992492675781,28701774.0,50354.0,-0.005192833190912001,0.3072264208317114,0.09609250770837599,0.0003968335357498692,0.010661591780639863,0.0037622741614413945,28.701774478016887
1624,B,518515242598500.0,2.6467285,10.783090693202354,1.9013963632457398,120,1970-01-07 00:01:55.242598500,-0.5399475,-1.7100372,-0.80874634,5.75529337946199,1.967191188116571,-103.8022689819336,-34.5483283996582,-103.10743713378906,28752128.0,50354.0,0.06816452964860802,0.19486729830721133,0.08560542049015099,0.0015854384017154127,0.01264121356676066,0.004574608738254314,28.752128482039552
1624,B,518515292952504.0,2.1005554,1.1152288932023549,5.17394881824574,120,1970-01-07 00:01:55.292952504,-1.5146332,-0.8188324,-1.0448914,15.261667813611577,2.0140502147727,-103.91401672363281,-34.5892448425293,-103.04396057128906,28802482.0,50354.0,0.11952236675030001,-0.1939052077730887,0.178135965634411,0.004725392990635307,2.4222553377605552e-05,0.006640216878458098,28.80248248600401
1624,B,518515343306508.0,5.552063,1.6960848932023538,2.03747424424574,120,1970-01-07 00:01:55.343306508,-1.6324921,0.67022705,-0.5610657,15.243912155934407,1.8517638820407427,-103.97785949707031,-34.624542236328125,-103.07526397705078,28852836.0,50354.0,0.19266997345680004,-0.42268875279968865,0.181561998444348,0.00786006654939416,-0.015523986145340818,0.009056115641610915,28.852836490026675
1624,B,518515393660512.0,10.823929,3.141091893202354,-0.68487678175426,120,1970-01-07 00:01:55.393660512,-0.82185364,0.099349976,0.1635437,16.939003452457595,0.8438366933963823,-103.96458435058594,-34.74537658691406,-103.11176300048828,28903190.0,50354.0,0.41229835058400005,-0.3716836000486887,0.03405434631314799,0.015231287494375226,-0.019999912727663598,0.005428572711959477,28.90319049404934
1624,B,518515444014516.0,5.267807,7.687219893202354,0.042601218245739814,120,1970-01-07 00:01:55.444014516,-0.379776,-0.31785583,0.52459717,9.943931731262236,0.7214321379124982,-103.97431945800781,-34.64723205566406,-103.10955810546875,28953544.0,50354.0,0.40514163727200003,-0.2208447941536887,-0.016170571862454016,0.020580686574250516,-0.014918087380833259,0.0004502597893451223,28.953544498013798
1624,B,518515494368520.0,-1.0081177,19.995706593202353,2.0066667492457397,120,1970-01-07 00:01:55.494368520,0.036331177,0.046142578,0.47885132,4.224879415810918,0.4824393004227929,-103.96697235107422,-34.62455749511719,-103.11931610107422,29003898.0,50354.0,0.10724619750610002,0.20350384014821127,0.05159441961753298,0.012900388516208224,-0.0004365931989959056,0.0008918662149296232,29.003898502036463
1624,B,518515544722524.0,-4.268051,19.902170193202355,3.19320541824574,120,1970-01-07 00:01:55.544722524,-0.20985413,0.72006226,0.08114624,5.977810706756791,0.7543958685070472,-103.95265197753906,-34.629302978515625,-103.16295623779297,29054252.0,50354.0,-0.13283809935989999,0.5110396438513113,0.130917181560933,-0.0006443273129731217,0.017990061296655983,0.004595094582870237,29.05425250600092
1624,B,518515595076528.0,0.8131561,9.611825893202354,9.872175618245741,120,1970-01-07 00:01:55.595076528,-0.88645935,1.8152313,-0.5413666,10.110153086106324,2.091399686166581,-103.94058990478516,-34.67744827270508,-103.26211547851562,29104606.0,50354.0,-0.0869838888973,0.24960467946741136,0.32894709835574604,-0.005534458198351524,0.01915074212819548,0.011578002975462227,29.104606510023586
1624,B,518515645430532.0,4.767517,8.624261893202355,11.84196361824574,120,1970-01-07 00:01:55.645430532,-1.5631866,1.8412323,0.20358276,13.137360874179068,2.423867708673901,-103.95523834228516,-34.689762115478516,-103.3737564086914,29154960.0,50354.0,0.1405046066387,-0.03433921780168866,0.5466968835571461,0.0013474911105752284,0.0054197385283579,0.022046088532620883,29.15496051404625
1624,B,518515695784535.0,2.930832,8.237207493202355,5.00912341824574,120,1970-01-07 00:01:55.695784535,0.07637024,0.3642273,0.61798096,8.735230056358093,0.7213836749923506,-103.93403625488281,-34.66416549682617,-103.404296875,29205314.0,50354.0,0.193821332773,-0.06894798525848865,0.42425981831774606,0.008417324176568371,-0.002600461911446084,0.02444577688310416,29.20531451702118
1624,B,518515746138539.0,13.207504,1.0919588932023547,-0.86021558175426,120,1970-01-07 00:01:55.746138539,1.372879,1.2041931,0.9814148,20.040936418379637,2.073174565825958,-103.74729919433594,-34.79539108276367,-103.5294189453125,29255668.0,50354.0,0.406314885472,-0.2585887778894887,0.104457052599346,0.015109629566754369,-0.008246393085776627,0.013311504659079628,29.255668521043845
1624,B,518515796492543.0,13.152405,3.1620428932023543,-1.28379958175426,120,1970-01-07 00:01:55.796492543,1.6961975,0.6465454,0.67666626,18.595404879943914,1.9372620216919025,-103.6351089477539,-34.77017593383789,-103.57740783691406,29306022.0,50354.0,0.6636634288930001,-0.3863661970236887,-0.05397986977165401,0.02693884402076761,-0.016238031403389065,0.0012708640320528012,29.306022525008302
1624,B,518515846846547.0,2.903473,8.327478493202355,-1.13821538175426,120,1970-01-07 00:01:55.846846547,1.6639252,-0.8652344,0.8305359,8.686881603651587,2.0511137265708137,-103.57431030273438,-34.719642639160156,-103.53813171386719,29356376.0,50354.0,0.404238840406,-0.20419752005448868,-0.06097907073625401,0.026886575434140927,-0.014868622704877273,-0.0028943212451676007,29.356376529030968
1624,B,518515897200551.0,-1.2578125,13.989603093202355,1.6480394182457399,120,1970-01-07 00:01:55.897200551,0.7563324,-0.95407104,1.1410522,2.307096659623634,1.6686193010334267,-103.55931854248047,-34.65298843383789,-103.49801635742188,29406730.0,50354.0,0.0414327944085,0.06840796310091134,0.01283583976674599,0.011220674749724668,-0.0034187736754202175,-0.0012121021261193036,29.406730533053633
1624,B,518515947554555.0,0.16661072,17.441858393202356,1.5169816882457399,120,1970-01-07 00:01:55.947554555,0.013168335,-1.2061005,-0.026870728,1.6286172739941185,1.2064716561818485,-103.59939575195312,-34.640140533447266,-103.42637634277344,29457084.0,50354.0,-0.02747318721506,0.2978807058432114,0.07968573639813599,0.00035146103030923886,0.00922204981800618,0.0023294157231032336,29.45708453701809
1624,B,518515997908559.0,1.683075,13.849130693202355,3.20413071824574,120,1970-01-07 00:01:55.997908559,-0.32243347,-0.98158264,-0.7292938,2.9119985887646735,1.2646490692852506,-103.65443420410156,-34.66401672363281,-103.35796356201172,29507438.0,50354.0,0.046569537372440004,0.2943440322284114,0.11886344705823601,0.0004807888079123564,0.014910442230429248,0.004998872791881079,29.507438541040756
1624,B,518516048262563.0,-0.023834229,1.1057988932023548,1.96601733524574,120,1970-01-07 00:01:56.048262563,-1.4024963,-1.6738586,-1.8113098,14.787135481291143,2.8371890447912858,-103.79571533203125,-34.73213195800781,-103.23291778564453,29557792.0,50354.0,0.04177470489146701,-0.11694893780308867,0.130168817542755,0.002224242987478387,0.00446627629234635,0.006269885325859151,29.557792545005213
1624,B,518516098616567.0,4.9765167,0.9526458932023552,1.3275743182457398,120,1970-01-07 00:01:56.098616567,-1.549118,0.8589325,-0.7742462,15.761273385120782,1.933129275474015,-103.85064697265625,-34.77998352050781,-103.27242279052734,29608146.0,50354.0,0.12469368657236701,-0.44164373561268866,0.08292275705995499,0.004191174691884949,-0.014063687738589027,0.00536500657377243,29.60814654902788
1624,B,518516148970571.0,11.218674,2.439706893202354,-1.35890338175426,120,1970-01-07 00:01:56.148970571,-1.0933838,0.3914795,0.16462708,17.83460923071397,1.172964794225307,-103.8939437866211,-34.8815803527832,-103.29611206054688,29658500.0,50354.0,0.40774631625390007,-0.40805993389668876,-0.0007887718319540122,0.013405241951156926,-0.021392989287237596,0.0020678873460853804,29.658500553050544
1624,B,518516199324575.0,4.8561707,7.061685893202355,-2.12057638175426,120,1970-01-07 00:01:56.199324575,0.039901733,-0.86798096,0.5073395,10.885002757347767,1.0061692022116235,-103.91704559326172,-34.846519470214844,-103.252197265625,29708854.0,50354.0,0.4047163650119,-0.25425263381668867,-0.08760286200585402,0.020455372926229048,-0.016675043517319705,-0.002225436165134493,29.708854557015
1624,B,518516249678578.0,-0.72880554,19.977151893202354,3.72065601824574,120,1970-01-07 00:01:56.249678578,0.10525513,-0.21679688,0.31700134,4.494627694495202,0.39820770852765636,-103.91645812988281,-34.82854080200195,-103.24402618408203,29759208.0,50354.0,0.10391467263332001,0.18728761894831134,0.040285205007945996,0.012805803634793705,-0.0016859781793411362,-0.0011913166502363303,29.759208560048137
1624,B,518516300032582.0,-7.035858,19.486703893202353,4.48739491824574,120,1970-01-07 00:01:56.300032582,0.0043029785,0.53126526,-0.33369446,8.285369948545224,0.6273860731172877,-103.90107727050781,-34.85110855102539,-103.27053833007812,29809562.0,50354.0,-0.19549093394658001,0.5001122971343113,0.206654098428046,-0.0023056155310839472,0.01730666768721219,0.00621719084260797,29.809562564012595
1624,B,518516350386586.0,3.0803528,10.021951893202354,0.37794361824573985,120,1970-01-07 00:01:56.350386586,-1.2819519,1.8691406,-0.12928772,6.823538316597177,2.27019879548571,-103.94309997558594,-34.68036651611328,-103.35637664794922,29859916.0,50354.0,-0.09958775442040001,0.24947022673431127,0.122494628333246,-0.007429196137015457,0.018872239203440312,0.00828697749366905,29.85991656803526
1624,B,518516400740590.0,11.629089,6.280282893202354,4.6473222182457405,120,1970-01-07 00:01:56.400740590,-1.8426819,1.5770111,0.34805298,15.319608469771973,2.450220698426511,-103.9793930053711,-34.68251037597656,-103.45454406738281,29910270.0,50354.0,0.3703396161986,-0.08302783478268869,0.126521117965346,0.0068167196239897416,0.004190520102166002,0.006269469444559652,29.910270571999718
1624,B,518516451094594.0,5.0584106,10.985895193202355,0.8717790182457399,120,1970-01-07 00:01:56.451094594,0.6286011,-0.700058,0.5609894,7.135848113524461,1.0954130057642961,-103.96675872802734,-34.6468391418457,-103.4214859008789,29960624.0,50354.0,0.4201411774292001,-0.05875863431858867,0.138954411831146,0.019901934941167123,-0.00356975793256286,0.00668387741368628,29.960624576022383
1624,B,518516501448598.0,14.892975,-0.2715811067976439,-3.47326798175426,120,1970-01-07 00:01:56.501448598,2.1961517,0.5609741,1.6598816,22.648545408209802,2.8094449907948476,-103.93205261230469,-34.736488342285156,-103.41767120361328,30010978.0,50354.0,0.5023160352512,-0.22371491424658865,-0.06549768763425401,0.023224705243654435,-0.007111836532225469,0.00184941994510515,30.010978580045048
1624,B,518516551802602.0,11.895233,3.674462893202355,-2.3047651817542603,120,1970-01-07 00:01:56.551802602,1.8802795,0.5110779,0.2720337,17.585393469789462,1.967397761492157,-103.94038391113281,-34.927249908447266,-103.38240814208984,30061332.0,50354.0,0.674446712816,-0.4077948452636886,-0.14547354095765402,0.0296273557080879,-0.01589952121519025,-0.005311622622258469,30.061332584009506
1624,B,518516602156606.0,2.1891174,8.611078293202354,-0.9893353817542603,120,1970-01-07 00:01:56.602156606,1.7984924,-1.1546783,0.78816223,8.167222733345769,2.2779500850868577,-103.88296508789062,-34.8751220703125,-103.32563781738281,30111686.0,50354.0,0.3546016900208,-0.1841561295498887,-0.08293556988745403,0.025908351638222114,-0.014903549692881437,-0.005750656183747286,30.11168658803217
1624,B,518516652510610.0,-1.2879791,14.077737893202354,2.9755235582457398,120,1970-01-07 00:01:56.652510610,0.7958832,-1.1417084,1.0908813,2.4334380681007466,1.768318452474692,-103.87261962890625,-34.8084716796875,-103.2740478515625,30162040.0,50354.0,0.022687958979100007,0.0777671251251113,0.050006259719525985,0.009499021492870484,-0.0026785559644026207,-0.0008290612420979244,30.162040592054836
