Subject-id_accel,Activity_accel,Timestamp_accel,accel_x,accel_y,accel_z,Segment_accel,DateTime,gyro_x,gyro_y,gyro_z,accel_magnitude,gyro_magnitude,Roll,Pitch,Yaw,Time_Difference,Difference_Microseconds,vx,vy,vz,dx,dy,dz,Time_diff
1634,B,78146020091935.0,1.690806816078117,15.861694,3.5549784139983185,175,1970-01-01 21:42:26.020091935,3.1981506,2.586258,-1.893631,16.09906027335519,4.527994707042551,110.09701538085938,40.3935661315918,-151.2630615234375,15005505.0,50354.0,0.10966587166619751,0.061988744885999966,0.20474988264839133,0.006827251603037551,-0.006221587904348444,0.009838443168186543,15.005505100998562
1634,B,78146070445939.0,-6.957310283921882,17.690643,-4.591155026001681,175,1970-01-01 21:42:26.070445939,2.4638672,3.0206146,-2.6944427,22.310522706170886,4.738647022574301,110.4616470336914,40.2227897644043,-150.96372985839844,15055859.0,50354.0,-0.13259475780990249,0.351277988649,-0.02608781856040867,-0.0005772805664400601,0.010404816550210695,0.00449817478754314,15.055859105006675
1634,B,78146120799943.0,-2.1901898839218825,9.296936,-6.103682326001682,175,1970-01-01 21:42:26.120799943,0.87435913,3.323349,-1.6625977,14.524600270924559,3.8175101278268597,111.3306655883789,39.97710037231445,-150.29115295410156,15106213.0,50354.0,-0.23030661172580247,0.18599707648299998,-0.2692639200113887,-0.009136767780800444,0.013526974314828364,-0.007436070722022143,15.106213109000237
1634,B,78146171153947.0,8.756556916078118,1.4562073,2.3618936739983187,175,1970-01-01 21:42:26.171153947,-0.37228394,0.73846436,0.090652466,4.654352846304836,0.8319512080428842,111.33190155029297,37.09527587890625,-150.25331115722656,15156567.0,50354.0,0.16532142276859754,-0.2227373111359,-0.09420701289148868,-0.0016361321023755486,-0.0009250088878560639,-0.009151107677695745,15.156567112993798
1634,B,78146221507951.0,6.8011279160781175,-3.9589996,3.426545173998319,175,1970-01-01 21:42:26.221507951,-1.6706085,-1.7785034,0.086761475,4.672293749892279,2.4416254130451676,114.5546646118164,38.16460037231445,-148.30215454101562,15206921.0,50354.0,0.3916958310191976,-0.5564820017371002,0.14573552487601135,0.014024023398615318,-0.019618404640203528,0.0012973333462343274,15.206921117001912
1634,B,78146271861955.0,1.1496539160781172,1.6793365,-0.0817708260016814,175,1970-01-01 21:42:26.271861955,-0.8556824,-1.5637207,-0.038726807,4.714589098200281,1.7829510825759256,115.24549865722656,38.44545364379883,-147.9027862548828,15257275.0,50354.0,0.20017683418819754,-0.5508642778687001,0.08421138375951134,0.014901578091926588,-0.027879657281635235,0.005789373318716555,15.257275120995473
1634,B,78146322215959.0,6.262721516078117,0.7234802,12.634827673998318,175,1970-01-01 21:42:26.322215959,0.8145447,-2.592682,0.6230469,9.921025905101068,2.7881302804965373,111.52531433105469,38.62651062011719,-150.34854125976562,15307629.0,50354.0,0.18662137625539751,-0.43297348394410007,0.31604831226201135,0.009738418544338394,-0.02477008332916087,0.010077338366733878,15.307629125003587
1634,B,78146372569962.0,10.205577316078116,-1.5279388,10.90472507399832,175,1970-01-01 21:42:26.372569962,0.24668884,-4.352417,0.45928955,10.004203669919338,4.3835300861758375,107.86647033691406,37.88103485107422,-152.78684997558594,15357983.0,50354.0,0.4146223596971975,-0.5137230541722,0.5926553195363113,0.015137513540078487,-0.023834978740154087,0.022878431337786373,15.357983128007618
1634,B,78146422923966.0,1.0522723160781169,12.068985,2.1738443739983184,175,1970-01-01 21:42:26.422923966,-2.1243744,-2.5369263,1.4968872,12.539491923870067,3.6317534239718,107.22090148925781,37.32420349121094,-153.22898864746094,15408337.0,50354.0,0.2834388801887975,-0.22807727982260004,0.3292791429922114,0.017575087836609698,-0.01867630700898708,0.02321154396308062,15.40833713200118
1634,B,78146473277970.0,-2.071171283921883,16.540161,-2.058547026001681,175,1970-01-01 21:42:26.473277970,-2.7323303,-2.1711884,2.176056,18.436322901421,4.112773717544967,106.96885681152344,36.836456298828125,-153.4062042236328,15458691.0,50354.0,-0.025652819313402502,0.22682326884199996,0.002902841330511337,0.006490279654659819,-3.157223445856805e-05,0.00836334581929319,15.45869113599474
1634,B,78146523631974.0,0.05463741607811734,7.1647797,-2.563536626001681,175,1970-01-01 21:42:26.523631974,-2.4451447,-1.6366577,1.6999359,10.003399249284827,3.398111695488568,107.33271789550781,36.547489166259766,-153.19798278808594,15509045.0,50354.0,-0.05077027319070249,0.10335009200390001,-0.11637020010648866,-0.0019241041999758515,0.008312774706017224,-0.0028567676919027812,15.509045140002854
1634,B,78146573985978.0,3.443904376078117,1.5033875,0.8435831739983186,175,1970-01-01 21:42:26.573985978,-1.1971741,-0.119644165,0.9010925,2.7282157542143284,1.503166073820723,108.2593765258789,36.25149154663086,-152.62779235839844,15559399.0,50354.0,0.08808278670111752,-0.2752307544056,-0.04330326806108866,0.0009394171526517192,-0.004327439437287602,-0.004020098908055094,15.559399143996416
1634,B,78146624339982.0,4.3353991260781175,1.8974915,3.7181406439983187,175,1970-01-01 21:42:26.624339982,1.3396301,0.86151123,-0.4300232,2.0578216959942424,1.6497667582965667,107.20436096191406,35.634986877441406,-153.248291015625,15609753.0,50354.0,0.19585952427378753,-0.40784526941700006,0.11485052056570134,0.007148815563415185,-0.017197805051781603,0.001801345176308634,15.609753148004529
1634,B,78146674693986.0,-0.6192212839218829,13.476791,-0.4077138260016815,175,1970-01-01 21:42:26.674693986,3.2288666,2.4729462,-1.6482239,14.752054710445872,4.388357831036709,107.3709945678711,35.286834716796875,-153.12986755371094,15660107.0,50354.0,0.09356220953196752,-0.10639088949750003,0.08334661599670135,0.007286770992027495,-0.01294692377299037,0.004990009307231613,15.66010715199809
1634,B,78146725047990.0,0.5241503160781171,19.613052,-0.4696493260016812,175,1970-01-01 21:42:26.725047990,4.182068,1.8593597,-1.342041,20.272691544526193,4.7694848040736115,107.43022918701172,34.73966598510742,-153.12789916992188,15710461.0,50354.0,-0.0023936017574024914,0.33963377721099997,-0.022089372077988664,0.0022953520379402235,0.005872356183962788,0.001542273630141429,15.710461156006204
1634,B,78146775401994.0,-7.610340283921883,14.780624,-4.282134026001682,175,1970-01-01 21:42:26.775401994,2.4361877,2.2761688,-2.0276184,20.345558195925943,3.9022033893357344,107.85858154296875,34.84226989746094,-152.83871459960938,15760815.0,50354.0,-0.1784090048204025,0.372460380652,-0.11963564945338867,-0.004552067225809397,0.017928394612516753,-0.0035682108670954875,15.760815159999765
1634,B,78146825755998.0,0.0927997160781171,4.008026,-3.360167326001681,175,1970-01-01 21:42:26.825755998,0.22912598,1.7241974,-0.78330994,8.593350705030081,1.907597926970074,108.90100860595703,34.8867073059082,-152.17214965820312,15811169.0,50354.0,-0.1892691188766025,-0.020427358950000023,-0.1924102211393887,-0.009257032120319496,0.008863135387391254,-0.007856378883914356,15.811169164007879
1634,B,78146876110002.0,11.725978316078116,-3.0764618,4.549485273998319,175,1970-01-01 21:42:26.876110002,-0.8663788,-0.8351135,0.5664215,8.136246312501495,1.3299849994018504,108.38009643554688,32.03323745727539,-152.474609375,15861523.0,50354.0,0.2975613745155975,-0.4700152081366,0.029943457976711357,0.0027264741202229774,-0.012347872511539331,-0.004090425696146727,15.86152316800144
1634,B,78146926464005.0,5.708781716078117,2.163269,5.196198473998319,175,1970-01-01 21:42:26.926464005,-2.0924072,-2.2385406,0.46728516,3.4113032224022595,3.0996108351237295,106.81133270263672,31.262710571289062,-153.33859252929688,15911877.0,50354.0,0.43895495332959755,-0.5164606551256001,0.24536707972331134,0.018543271586158476,-0.024836502809352415,0.006931493407673471,15.911877171005472
1634,B,78146976818009.0,2.820491316078117,5.0923767,1.8487863739983186,175,1970-01-01 21:42:26.976818009,0.32125854,-2.1858673,-0.18856812,5.430588920351009,2.2173815275257787,106.62918853759766,30.943016052246094,-153.5281219482422,15962231.0,50354.0,0.2147415071305975,-0.3107938082111001,0.17737158351801136,0.01645811578500633,-0.020827785623428106,0.010643291324426781,15.962231174999033
1634,B,78147027172013.0,16.156886716078116,15.429642,-3.8410177260016813,175,1970-01-01 21:42:27.027172013,2.393402,0.28556824,1.1503754,20.56001472425151,2.670821205963787,106.9118423461914,29.580551147460938,-153.4495849609375,16012585.000000002,50354.00000000186,0.47779344671561513,0.02321366480990083,-0.050158408749390516,0.017435952532986743,-0.007240405270412261,0.0032028461011496855,16.012585179007147
1634,B,78147077526017.0,6.329051516078117,3.465866,6.471955373998319,175,1970-01-01 21:42:27.077526017,-0.5710907,-1.3209686,1.8953247,5.333074753298263,2.3797811555356385,105.48397064208984,28.740802764892578,-154.210205078125,16062939.0,50353.99999999814,0.5661284668709765,-0.017736995083999393,0.06623911716360889,0.026282822018368644,0.00013788611368901536,0.000404863995744761,16.062939183000708
1634,B,78147127880021.0,-6.160938783921883,13.515564,0.33374127399831854,175,1970-01-01 21:42:27.127880021,-3.0501556,-1.5986023,1.1593933,17.32935908052857,3.6336168375134905,105.17523956298828,28.92409324645996,-154.3668670654297,16113292.999999998,50353.99999999814,0.00423257425749735,-0.0659277368899976,0.171347024506605,0.014359979932491055,-0.0021064269569092443,0.005981706288830753,16.11329318699427
1634,B,78147178234025.0,-1.2890057839218834,13.246658,1.3859262739983187,175,1970-01-01 21:42:27.178234025,-3.1120605,-2.2960358,1.5777588,14.487152674994594,4.17684375833228,104.72370910644531,28.736379623413086,-154.6243896484375,16163647.000000002,50354.000000003725,-0.18756725438461636,0.18032326329401324,0.04329606985591453,-0.004615817241560817,0.0028801361682741144,0.005404069186765554,16.163647191002383
1634,B,78147228588029.0,-0.00760328392188292,5.0499573,-0.6085347260016811,175,1970-01-01 21:42:27.228588029,-2.4722595,-1.1122589,1.3062286,7.5596543974228645,3.0092224994884345,105.02257537841797,28.887901306152344,-154.48263549804688,16214001.0,50353.99999999814,-0.0326447265011013,-0.03281531659189884,0.01957238700391062,-0.005544277042759508,0.0037138075741189967,0.0015828391383597591,16.214001194995944
1634,B,78147278942033.0,3.286952516078117,0.40795898,2.0150614139983185,175,1970-01-01 21:42:27.278942033,-0.16644287,0.31736755,0.64837646,1.4719074731836876,0.7408221275373535,105.87972259521484,29.478015899658203,-154.0546112060547,16264354.999999998,50353.99999999814,0.08256417561799445,-0.3560552418184269,0.03541212242369003,0.0012568219704159724,-0.009790594049096409,0.0013843449938586504,16.264355199004058
1634,B,78147329296037.0,2.4983172160781173,0.9121704,3.930863373998319,175,1970-01-01 21:42:27.329296037,2.1440735,0.9319,-0.78382874,2.314672121954317,2.465740512919443,105.14533233642578,30.326906204223633,-154.42514038085938,16314709.0,50354.00000000186,0.1456557360465029,-0.46023230259975706,0.14970054838739688,0.0057458927159772626,-0.020551671505817378,0.004660581713010907,16.31470920299762
1634,B,78147379650041.0,0.27376871607811726,15.396683,4.2069864739983185,175,1970-01-01 21:42:27.379650041,3.1999664,2.6197662,-1.7336731,15.984350903461605,4.48425939497873,104.84693908691406,30.035789489746094,-154.52725219726562,16365063.0,50354.0,0.06979280751389752,-0.08286119794820003,0.20488664562301134,0.005424347981220202,-0.013673465063295918,0.008927441783600049,16.365063207005733
1634,B,78147430004045.0,2.369273716078117,18.812683,1.9549417739983186,175,1970-01-01 21:42:27.430004045,4.1207275,1.3464508,-1.8964386,18.94367100713303,4.731786581160106,104.76585388183594,29.54360580444336,-154.5933074951172,16415417.000000002,50354.00000000186,0.06654387931439996,0.36782000778201357,0.15513886749981706,0.0034325487642761724,0.0071744079551861895,0.009064362343893786,16.415417210999294
1634,B,78147480358048.0,-11.664891283921882,14.748383,-5.707106326001682,175,1970-01-01 21:42:27.480358048,1.87117,2.6352081,-2.9966278,23.434064499688272,4.407422951219732,105.2782974243164,30.01019287109375,-154.24087524414062,16465771.0,50353.99999999814,-0.2340357635055938,0.35149775868198696,-0.09446824692578519,-0.004216943168281531,0.01811026340626347,0.0015275042141923438,16.465771214003325
1634,B,78147530712052.0,2.939204716078117,3.5447235,-3.710921326001681,175,1970-01-01 21:42:27.530712052,-0.03630066,1.8436127,-0.6806793,7.656414067277595,1.9655914720425034,106.51041412353516,29.760726928710938,-153.54124450683594,16516124.999999998,50353.99999999814,-0.21968661071859438,-0.03290365764949881,-0.2371176821944799,-0.011423368215841962,0.008021243681694656,-0.008348338937460604,16.516125217996887
1634,B,78147581066056.0,13.898448716078118,-2.8114471,7.025345673998318,175,1970-01-01 21:42:27.581066056,-1.151947,-1.887207,0.4723816,10.74699184218651,2.260901706770235,104.97725677490234,27.18682289123535,-154.32818603515625,16566479.000000002,50354.000000003725,0.42392160046142885,-0.47500750007723513,0.0834472618095175,0.005142024336755723,-0.012787679218086925,-0.0038689601740324845,16.566479222005
1634,B,78147631420060.0,3.601161456078117,1.433136,1.1537790739983187,175,1970-01-01 21:42:27.631420060,-2.1272736,-2.0067139,0.24708557,2.4033791267957594,2.9348330318115874,105.71569061279297,27.106082916259766,-154.03172302246094,16616833.0,50353.99999999814,0.4405876853043612,-0.5281709385646806,0.20592582378030372,0.02176575028772449,-0.02525702354968658,0.0072855461758946595,16.616833225998562
1634,B,78147681774064.0,3.283458216078117,6.7090607,2.2198953739983187,175,1970-01-01 21:42:27.681774064,0.68722534,-1.7171173,-0.11210632,6.832958845638223,1.8529269594027034,105.44120788574219,26.702281951904297,-154.24380493164062,16667186.999999998,50353.99999999814,0.17333406948587107,-0.28847311368408934,0.0849390015772082,0.015456708020353106,-0.020560647303466517,0.0073231037080258065,16.667187230006675
1634,B,78147732128068.0,14.075328716078118,17.63301,2.308426873998319,175,1970-01-01 21:42:27.732128068,1.9565887,-0.38346863,0.98228455,20.136113399542403,2.2226494254223876,105.19985961914062,25.494564056396484,-154.42213439941406,16717541.0,50354.00000000186,0.4370421785909137,0.11939111401390436,0.11400956923781556,0.01536744279782978,-0.004256977505696405,0.005008928167410038,16.717541234000237
1634,B,78147782482072.0,6.304652716078117,-1.3829346,7.135590673998319,175,1970-01-01 21:42:27.782482072,-0.72636414,-1.384079,1.1755524,4.837186993138797,1.9558126155807207,102.02151489257812,24.892030715942383,-155.8339385986328,16767895.0,50354.0,0.5131067925173975,-0.08434105165420008,0.23777202980591133,0.023921900645593956,0.0008824554200302745,0.008856805319123914,16.767895237993798
1634,B,78147832836076.0,-9.307926283921883,15.934509,-3.7795858260016817,175,1970-01-01 21:42:27.832836076,-2.985672,-1.1587524,0.97691345,22.0444328332345,3.3483285837684247,102.07318115234375,25.198179244995117,-155.8098602294922,16818249.0,50354.0,-0.07561341861760253,-0.12710421133120006,0.08449413405801134,0.01101477067467514,-0.00532355738618342,0.008113695207601983,16.81824924200191
1634,B,78147883190080.0,-1.555347983921883,14.13475,-2.3432303260016814,175,1970-01-01 21:42:27.883190080,-2.576645,-2.7990112,2.2664185,16.206443908678317,4.428342350235885,102.08313751220703,25.02907371520996,-155.89605712890625,16868603.0,50354.0,-0.27350465624150255,0.26358453384299996,-0.15415414225898869,-0.008789745770727688,0.003436165079879586,-0.0017538300264760066,16.868603245995473
1634,B,78147933544084.0,-0.16650828392188277,5.7453766,-2.884810326001681,175,1970-01-01 21:42:27.933544084,-2.0430908,-0.98269653,1.4772034,9.345045023090021,2.705927266592774,102.7091293334961,25.152999877929688,-155.64492797851562,16918957.0,50354.0,-0.04335117525550249,0.007052747408199978,-0.13162637949548867,-0.007977479269600097,0.006813834830061462,-0.007195096196212476,16.918957250003587
1634,B,78147983898087.0,1.875758716078117,-1.145401,2.7095652039983187,175,1970-01-01 21:42:27.983898087,0.2574768,0.49639893,0.3825531,2.7543510747907103,0.6775345559917921,102.99909210205078,26.539981842041016,-155.505859375,16969311.0,50354.0,0.04303379813039751,-0.37765561431880007,-0.0044121464366786555,-7.990603878768147e-06,-0.009330668380208178,-0.0034250419673941767,16.969311253007618
1634,B,78148034252091.0,2.782619016078117,1.052063,3.7207498739983187,175,1970-01-01 21:42:28.034252091,2.4946136,1.1843567,-1.201294,2.0660667311103795,3.0114622827749065,102.3691635131836,27.307418823242188,-155.78314208984375,17019665.0,50354.0,0.11728397616249751,-0.495819170826,0.16189604271872135,0.004036320603372218,-0.021991474665590635,0.0039649720566929895,17.01966525700118
1634,B,78148084606095.0,-0.9145398839218828,17.934296,2.5415964539983187,175,1970-01-01 21:42:28.084606095,3.4419556,2.4548035,-1.8686218,18.70099446657922,4.622214405176252,102.31441497802734,27.11372947692871,-155.76280212402344,17070019.0,50354.0,0.04703262831029751,-0.015449639457000031,0.15766709349997135,0.004136999150811561,-0.012872214836495094,0.008045641080578026,17.07001926099474
1634,B,78148134960099.0,-1.7243542839218833,16.954102,-3.2980489260016816,175,1970-01-01 21:42:28.134960099,3.3974152,2.2472382,-2.4996643,19.060396878643918,4.779208216998374,102.7614974975586,27.006013870239258,-155.51539611816406,17120373.0,50354.0,-0.0664394384638025,0.38491599644599994,-0.019045203887628672,-0.0004886052592347951,0.009302054469912053,0.0034900833147699516,17.120373265002854
1634,B,78148185314103.0,-3.0293622839218832,17.846283,-3.667128326001681,175,1970-01-01 21:42:28.185314103,0.6864624,4.5833893,-2.0703888,20.412950821015393,5.075943053771751,103.11664581298828,26.917076110839844,-155.15045166015625,17170727.0,50354.0,-0.11968432202860252,0.382700093145,-0.17536226767368868,-0.004686037917917282,0.019326270287632605,-0.004894596911499287,17.170727268996416
1634,B,78148235668107.0,8.257396216078117,0.9481354,-2.9023273260016818,175,1970-01-01 21:42:28.235668107,-1.0254211,1.2708435,-0.6756897,7.066017287275514,1.7672261328147991,104.33114624023438,26.02117347717285,-154.52386474609375,17221081.0,50354.0,0.13162621030989752,-0.020282127943200046,-0.16539918495048866,0.0003006609212581642,0.009124597109885717,-0.008579351092718913,17.22108127300453
1634,B,78148286022111.0,10.446147416078116,-3.5136871,8.560196873998319,175,1970-01-01 21:42:28.286022111,-1.3785553,-3.0112915,0.676178,9.001590174087173,3.380163886679807,101.65270233154297,24.309906005859375,-155.77151489257812,17271435.0,50354.0,0.4708991180267975,-0.5580620951509001,0.14244818160991132,0.015169780191532973,-0.014560972504840161,-0.0005778374111057158,17.27143527699809
1634,B,78148336376115.0,4.4754290360781175,4.4491425,1.8110666739983188,175,1970-01-01 21:42:28.336376115,-1.7452545,-2.0737915,0.82980347,4.587070202887785,2.83462488771734,101.58163452148438,23.671592712402344,-155.8646697998047,17321789.0,50354.0,0.3756805303359375,-0.4699172393942001,0.26111730234791136,0.02131433580682858,-0.02588143570584199,0.010160568189606102,17.321789281006204
1634,B,78148386730119.0,-0.2232862839218832,5.678833,0.8659219739983186,175,1970-01-01 21:42:28.386730119,1.0368652,-1.7226868,-0.082229614,7.58893545256302,2.0123371892612503,101.77733612060547,24.034364700317383,-155.88287353515625,17372143.0,50354.0,0.10705619807103751,-0.23847716083650006,0.06739854319061134,0.012153862611102411,-0.01783524581460834,0.008271043443123386,17.372143284999765
1634,B,78148437084123.0,8.719829016078117,19.335419,-16.47727832600168,175,1970-01-01 21:42:28.437084123,3.7997742,4.0362244,0.17147827,27.73304734217134,5.546061320903619,102.89830017089844,23.29324722290039,-155.33145141601562,17422497.0,50354.0,0.2139174563674975,0.13631462260400004,-0.3930471188743887,0.008081153697798996,-0.0025721462250796532,-0.008198854189990463,17.42249728900788
1634,B,78148487438127.0,-0.1270489839218829,7.276825,10.845307373998319,175,1970-01-01 21:42:28.487438127,-1.9519958,-2.8474731,2.2898407,11.66013470234472,4.14267559553216,101.47795104980469,23.454673767089844,-156.00732421875,17472851.0,50354.0,0.21634042286959754,0.17654726718799998,-0.14179613265858865,0.010832602625552343,0.007876923799293185,-0.01346574854384577,17.47285129300144
1634,B,78148537792130.0,-7.320103283921884,12.652405,-2.9330129260016817,175,1970-01-01 21:42:28.537792130,-3.1184998,-2.1235657,0.9750366,18.195253141438993,3.896828024965445,101.54911804199219,23.84736442565918,-156.0210723876953,17523205.0,50354.0,-0.18749695264750252,0.008289023709999977,0.19920783731721134,0.0007261920497816863,0.004653623295938945,0.0014454544881901436,17.52320529600547
1634,B,78148588146134.0,0.5347857160781171,9.320236,0.5265054739983186,175,1970-01-01 21:42:28.588146134,-2.7232208,-2.4543,2.0961761,10.359978492995593,4.2229698386045635,101.4235610961914,23.71705436706543,-156.14581298828125,17573559.0,50354.0,-0.1708339404056025,0.05973598245699995,-0.06058863811908868,-0.009021696894398027,0.0017126655802665572,0.0034900155782111343,17.573559299999033
1634,B,78148638500138.0,0.2863421160781172,3.3356628,-1.5260913260016813,175,1970-01-01 21:42:28.638500138,-2.0899963,-0.57463074,1.0228424,6.899772559587468,2.396766904937649,102.1433334350586,24.10077476501465,-155.8471221923828,17623913.0,50354.0,0.020673535430197513,-0.17483163591240006,-0.025166572995888665,-0.003780588516065772,-0.0028977632670466086,-0.0021590589502417847,17.623913304007147
1634,B,78148688854142.0,4.122432206078117,-0.42973328,3.2914743739983185,175,1970-01-01 21:42:28.688854142,0.4557953,0.84454346,0.09233093,0.6187043041576554,0.9641203306462978,100.48506164550781,26.504911422729492,-156.52857971191406,17674267.0,50354.0,0.11099971110892752,-0.42030661247496004,0.04444704899941134,0.0033151373281155513,-0.014983795679648566,0.00048542454434069045,17.674267308000708
1634,B,78148739208146.0,-0.8196606839218825,1.5827332,3.140717543998319,175,1970-01-01 21:42:28.739208146,2.4463196,1.2112274,-1.8794098,5.431534354503189,3.314171479599533,100.49781799316406,27.63290023803711,-156.50877380371094,17724621.0,50354.0,0.08315387861332753,-0.4644401210141601,0.16194329591940135,0.004888204928437215,-0.02227526850905558,0.005196289714020947,17.72462131199427
1634,B,78148789562150.0,-2.280567683921883,19.613052,-0.6151571260016815,175,1970-01-01 21:42:28.789562150,3.2890167,3.0438538,-2.27742,21.010443597561043,5.026859722038534,100.74373626708984,27.488388061523438,-156.32029724121094,17774975.0,50354.0,-0.0780544496172025,0.04017708398039996,0.06358603464390135,0.00012838832383543997,-0.01068167048339898,0.005678151955592273,17.774975316002383
1634,B,78148839916154.0,2.385188516078117,19.613052,3.0106821439983187,175,1970-01-01 21:42:28.839916154,3.992096,2.1814117,-2.1545105,19.713581742106616,5.033617285086654,100.70306396484375,27.056238174438477,-156.31820678710938,17825329.0,50354.0,0.0026340386911975,0.494126420408,0.06031213337810134,-0.001898859685884028,0.013452159329986745,0.0031193841762899616,17.825329319995944
1634,B,78148890270158.0,-8.854801283921883,12.149979,-4.698225926001681,175,1970-01-01 21:42:28.890270158,0.7581177,3.6724396,-1.9747009,19.509906196030315,4.238041848207998,101.27702331542969,27.536102294921875,-155.8952178955078,17875683.0,50354.0,-0.16288544065600252,0.306228631487,-0.042487289799498666,-0.004034649547267896,0.020150539141560415,0.0004487760867784795,17.875683324004058
1634,B,78148940624162.0,7.216273716078117,0.7950592,-1.5585317260016809,175,1970-01-01 21:42:28.940624162,-0.88539124,0.8469238,0.03262329,5.367044641408323,1.2256679199218692,102.51960754394531,26.642667770385742,-155.27232360839844,17926037.0,50354.0,-0.04125320857560251,-0.16755197323860005,-0.15752638740448865,-0.0051395987717041194,0.0034914622247199665,-0.005035744350964789,17.92603732799762
1634,B,78148990978166.0,14.147258716078117,-4.615387,6.409424773998319,175,1970-01-01 21:42:28.990978166,-1.6716766,-2.4407349,0.6548767,11.358851970357358,3.029942738612144,101.27325439453125,23.950809478759766,-155.8804168701172,17976391.0,50354.0,0.5378696560443975,-0.5896535930206,0.12213093426941138,0.012503312297921853,-0.01906416454170788,-0.0008911513235818406,17.976391332005733
1634,B,78149041332170.0,1.497844216078117,8.130386,4.4433450739983185,175,1970-01-01 21:42:29.041332170,-2.1316528,-1.1642151,0.41392517,8.756375638038618,2.4638738817511294,100.58855438232422,23.860172271728516,-156.17047119140625,18026745.0,50354.0,0.3938967565228975,-0.4049720701770001,0.27324018646301135,0.02345908296920679,-0.02504169032232598,0.009954258706680208,18.026745335999294
1634,B,78149091686173.0,1.098079216078117,2.2965393,4.770035773998319,175,1970-01-01 21:42:29.091686173,1.518158,-1.0819244,-0.11831665,4.404862841584645,1.8679836589078025,99.84086608886719,24.59486198425293,-156.5556640625,18077099.0,50354.0,0.0653575642513975,-0.23095050172190004,0.23196528961001134,0.011562646034134426,-0.016010622592698608,0.012719558271090493,18.077099339003325
1634,B,78149142040177.0,-14.538746283921881,-5.5288544,8.772828173998318,175,1970-01-01 21:42:29.142040177,0.28605652,-0.96424866,-1.1902008,20.552213444132864,1.5582624154060014,99.46369171142578,26.046472549438477,-156.7568817138672,18127453.0,50354.0,-0.3383956747671025,-0.5748491972727001,0.34096868561871135,-0.006874280508453905,-0.020287619021587048,0.014424758694333552,18.127453342996887
1634,B,78149192394181.0,-5.244602283921883,18.98146,0.26399327399831884,175,1970-01-01 21:42:29.192394181,-2.8677216,-1.2531738,2.653885,21.443764994230936,4.103337341888673,99.24256896972656,25.940807342529297,-156.86593627929688,18177807.0,50354.0,-0.49808536689260247,-0.15477294880880008,0.22752005359621133,-0.021060083185866392,-0.018369696771893932,0.01431284098721411,18.177807347005
1634,B,78149242748185.0,-2.9713024839218827,12.545227,-4.290434826001681,175,1970-01-01 21:42:29.242748185,-2.8606873,-1.7549591,1.2968597,16.22740962191758,3.5979519664023014,99.55341339111328,25.950626373291016,-156.75462341308594,18228161.0,50354.0,-0.2068518343400025,0.30027819859899996,-0.10137371895478865,-0.017748203915433296,0.0036633856739678628,0.0031759862672670986,18.228161350998562
1634,B,78149293102189.0,0.33494131607811717,8.965958,4.869385773998319,175,1970-01-01 21:42:29.293102189,-2.2666016,-2.3437042,1.769104,10.023608080804307,3.709469120108186,98.835693359375,25.866697311401367,-157.1357421875,18278515.0,50354.0,-0.06637566512280249,0.048117904744999995,0.014576248017711365,-0.006879048753975042,0.008771568693891887,-0.002185299925782795,18.278515355006675
1634,B,78149343456193.0,-0.7091107839218829,2.4046936,-0.12051292600168129,175,1970-01-01 21:42:29.343456193,-1.5702972,-0.5930176,0.7436981,6.391918906726897,1.835916674084423,99.4005355834961,26.57985496520996,-156.88339233398438,18328869.0,50354.0,-0.00942046469190249,-0.20719030466680002,0.11956237169401136,-0.0019083191603448276,-0.004004965812831159,0.003377208028482043,18.328869359000237
1634,B,78149393810197.0,5.556849916078117,1.3493958,3.063965833998319,175,1970-01-01 21:42:29.393810197,0.84861755,0.7457886,-0.27146912,1.8015873055014417,1.1619156015698977,99.14521789550781,25.27884864807129,-156.97914123535156,18379223.0,50354.0,0.12205152813029752,-0.3989524911762001,0.07410731386463135,0.0028357122841884716,-0.015260857170939215,0.004876021673309948,18.379223362993798
1634,B,78149444164201.0,1.8220477160781172,5.438568,3.2726450339983186,175,1970-01-01 21:42:29.444164201,2.763092,2.012497,-1.4598389,6.016696773477973,3.7169814620772876,99.01717376708984,25.343536376953125,-156.9925537109375,18429577.0,50354.0,0.18577850568479753,-0.32256863540740005,0.15953685182355135,0.007750236761362649,-0.0181657374039953,0.0058824591595313756,18.42957736700191
1634,B,78149494518205.0,-0.41531808392188285,19.613052,-2.772887326001681,175,1970-01-01 21:42:29.494518205,3.120575,3.3986816,-2.2693481,20.97677348177938,5.141883482516613,99.4529037475586,25.131122589111328,-156.705810546875,18479931.0,50354.0,0.03541723194879751,0.13725543673999996,0.012582399814231345,0.0055690450864010225,-0.004665630402849132,0.004333446398484455,18.479931370995473
1634,B,78149544872209.0,-3.0454602839218827,17.729462,3.6932688139983187,175,1970-01-01 21:42:29.544872209,3.0519867,2.5426636,-1.8017578,19.2338287773052,4.3618908938214735,99.36922454833984,25.15007781982422,-156.6792449951172,18530285.0,50354.0,-0.08713201696720249,0.446703274978,0.023172444723291347,-0.0013020231424083822,0.014702328484924086,0.0009001997209212089,18.530285375003587
1634,B,78149595226212.0,-2.072788783921883,6.5958405,-1.7105093260016813,175,1970-01-01 21:42:29.595226212,0.48216248,3.2647705,-0.8980713,10.319926980529052,3.420195774319606,100.01130676269531,25.546987533569336,-156.26217651367188,18580639.0,50354.0,-0.1288621567811025,0.11896894104250004,0.04991993562929135,-0.005438085312461075,0.014241929382748129,0.0018402468601369747,18.580639378007618
1634,B,78149645580216.0,8.617122116078118,-2.0794067,0.6279001739983188,175,1970-01-01 21:42:29.645580216,-1.0534058,-0.26921082,0.56617737,5.254934387585491,1.2258446310111364,101.95695495605469,23.315828323364258,-155.45091247558594,18630993.0,50354.0,0.16476668030369754,-0.37975894621740003,-0.02725685061998866,0.0009039681887283755,-0.006565909960288457,0.0005705884912792137,18.63099338200118
1634,B,78149695934220.0,8.981608716078117,-3.3710327,1.8901987739983186,175,1970-01-01 21:42:29.695934220,-1.5897217,-2.3103485,0.31471252,5.803632350482782,2.822050539084637,103.34254455566406,20.82768440246582,-155.00543212890625,18681347.0,50354.0,0.44308324616119754,-0.6306949127738001,0.06339817721371134,0.015303837598606665,-0.025440196807821443,0.0009099301796501561,18.68134738599474
1634,B,78149746288224.0,-3.4815869839218827,9.40509,3.1944284739983186,175,1970-01-01 21:42:29.746288224,-0.79315186,-0.74627686,-0.43951416,12.255684051195557,1.174389935938411,102.9852523803711,21.337446212768555,-155.14906311035156,18731701.0,50354.0,0.13847404715049752,-0.34154973935790006,0.12801566022281136,0.014641867973708547,-0.024478203606719814,0.004819226185139332,18.731701390002854
1634,B,78149796642228.0,1.711421416078117,2.1099548,5.660523473998319,175,1970-01-01 21:42:29.796642228,1.7771454,-0.099227905,-0.87231445,4.361701057306974,1.9821766948359199,101.96332550048828,22.019256591796875,-155.55429077148438,18782055.0,50354.0,-0.04456745850160249,-0.20355491707040005,0.22294112519471135,0.0023642861824132305,-0.013724099934895312,0.00883603898645697,18.782055393996416
1634,B,78149846996232.0,-11.370045283921883,14.144836,-8.772124326001682,175,1970-01-01 21:42:29.846996232,1.0653687,-0.03387451,0.4570923,24.17937573479781,1.1597807206910797,102.55963897705078,22.4996280670166,-155.35427856445312,18832409.0,50354.0,-0.2431751731207025,-0.08422233202840003,-0.07834077465088868,-0.007244496236354774,-0.00724536780056049,0.0036406030256418234,18.83240939800453
1634,B,78149897350236.0,-5.2690167839218836,17.48021,-2.2030323260016815,175,1970-01-01 21:42:29.897350236,-2.0325928,-1.5464172,2.9756317,20.60997703511254,3.9213803259965196,102.5037612915039,22.50678062438965,-155.4364013671875,18882763.0,50354.0,-0.41892166568210254,0.302754583142,-0.2763215190274887,-0.01666961211053822,0.0055019864862871064,-0.008929332567940507,18.88276340199809
1634,B,78149947704240.0,-3.7766312839218825,13.012894,-4.763716626001681,175,1970-01-01 21:42:29.947704240,-2.4255676,-2.0937042,2.179428,17.16998973122352,3.875162172922754,102.75365447998047,22.59214210510254,-155.41033935546875,18933117.0,50354.0,-0.22774228140410252,0.27425567940799994,-0.17540183836458867,-0.016281058195789386,0.01452738738022135,-0.011373038969060332,18.933117406006204
1634,B,78149998058244.0,2.644893116078117,6.600006,2.7675638639983187,175,1970-01-01 21:42:29.998058244,-2.5763702,-1.0834961,1.2400055,6.823896427451869,3.0576561033238354,102.30109405517578,22.355735778808594,-155.5952911376953,18983471.0,50354.0,-0.028493771851802484,0.00032478329999995867,-0.05025713808895866,-0.00645125511282392,0.006913112309599314,-0.005681416050170961,18.983471409999765
1634,B,78150048412248.0,1.9309649160781173,2.594223,5.211884573998319,175,1970-01-01 21:42:30.048412248,-1.5114441,-0.57577515,0.42521667,4.2340641565193184,1.6723604597180062,101.18788146972656,22.83746337890625,-156.02450561523438,19033825.0,50354.0,0.11520637767559752,-0.26198609646700005,0.20089857332344135,0.0021831632768256875,-0.006587846881605562,0.0037926994148985713,19.03382541400788
1634,B,78150098766252.0,5.037898516078117,3.4122162,2.0883493739983185,175,1970-01-01 21:42:30.098766252,1.5439758,1.4045868,-1.0785828,3.575362416832113,2.3494821144617637,101.36518096923828,22.08491325378418,-155.91357421875,19084179.0,50354.0,0.17545507463139753,-0.34224508026160005,0.18379799010871134,0.007317983384733214,-0.015212728336495967,0.009685505377531309,19.08417941800144
1634,B,78150149120255.0,0.5317950160781169,8.596725,1.6458749739983187,175,1970-01-01 21:42:30.149120255,3.6135712,2.7104797,-1.8809204,9.501457738252377,4.893103163915277,101.53553771972656,22.194643020629883,-155.7770233154297,19134533.0,50354.0,0.14022817405909752,-0.1911200874076001,0.09401656640951134,0.007947957152280593,-0.013428534826407454,0.006994537089459293,19.13453342100547
1634,B,78150199474259.0,-8.339680283921883,19.33603,-3.5832663260016813,175,1970-01-01 21:42:30.199474259,3.4324188,4.8215485,-2.3347015,24.03715334218185,6.362362756912556,101.9759292602539,22.505184173583984,-155.43406677246094,19184887.0,50354.0,-0.1965791273885025,0.209793772635,-0.04877770206938866,-0.0014187479519744293,0.0004701473729702473,0.0011389788874912688,19.184887424999033
1634,B,78150249828263.0,-4.254261283921882,14.298737,-8.112975326001681,175,1970-01-01 21:42:30.249828263,1.8447266,4.1006317,-1.645401,20.01607912499076,4.788062344894169,102.76588439941406,22.66453742980957,-154.96490478515625,19235241.0,50354.0,-0.31707766685360245,0.353353328759,-0.29447627607248866,-0.012932337108633478,0.014178354571796737,-0.008642105407678045,19.235241429007147
1634,B,78150300182267.0,4.185130576078117,1.8251495,-0.2672413260016815,175,1970-01-01 21:42:30.300182267,-0.85272217,2.5532074,-0.005645752,3.6798331418135564,2.691846021068054,103.91421508789062,22.325572967529297,-154.39418029785156,19285595.0,50354.0,-0.001740503831382479,-0.08751810958950006,-0.21098871464748867,-0.008026885083335865,0.0066929333130305,-0.01272609207135687,19.285595433000708
1634,B,78150350536271.0,10.171687716078118,-1.6569519,3.5106058739983186,175,1970-01-01 21:42:30.350536271,-1.9993744,-1.9428864,0.7238617,6.060733344945185,2.8803265987396656,103.66504669189453,19.451234817504883,-154.5403289794922,19335949.0,50354.0,0.36146161414161754,-0.4892344890248001,0.08165818922491133,0.009056698394280789,-0.014520900175312237,-0.00325615463856423,19.33594943699427
1634,B,78150400890275.0,6.335002416078117,3.0727234,4.646103873998319,175,1970-01-01 21:42:30.400890275,-1.352478,-2.8599854,0.32737732,4.033243067962765,3.1805485593443694,102.6496810913086,18.50295639038086,-154.98269653320312,19386303.0,50354.0,0.4155889374572976,-0.45782432094450004,0.20536148132531137,0.01956380173760589,-0.02384409965859707,0.007226294245442957,19.386303441002383
1634,B,78150451244279.0,-1.832386283921883,12.061996,9.807084073998318,175,1970-01-01 21:42:30.451244279,0.76805115,-2.976532,0.17123413,15.211072014045564,3.0787930172905713,101.70767211914062,18.77102279663086,-155.43540954589844,19436657.0,50354.0,0.11336236635929751,-0.11242236966620002,0.36388791296671136,0.013317406976190414,-0.014357100929505597,0.014331992000090256,19.436657444995944
1634,B,78150501598283.0,7.728038316078117,13.225983,17.06611767399832,175,1970-01-01 21:42:30.501598283,0.9242554,-2.9970856,0.7308502,19.65275748091543,3.2203900622434793,100.4331283569336,18.2916202545166,-156.00132751464844,19487011.0,50354.0,0.14843483121359752,0.14320624728299997,0.6765866004093114,0.006591268043292779,0.0007750456867581723,0.026196026823268125,19.487011449004058
1634,B,78150551952287.0,3.873683416078117,6.980606,5.145127373998319,175,1970-01-01 21:42:30.551952287,-1.7083588,-2.908081,1.5391846,7.3427707003366365,3.7073594545141697,99.58916473388672,17.936105728149414,-156.38592529296875,19537365.0,50354.0,0.2920965480504975,0.015272091252999945,0.5592125165734114,0.011091258535732122,0.00399000912932087,0.031113714368274013,19.53736545299762
1634,B,78150602306291.0,-3.3769572839218833,18.547562,-2.7854909260016814,175,1970-01-01 21:42:30.602306291,-2.6403656,-2.1670532,2.1356049,20.895799172963024,4.028456076736795,99.5997085571289,17.948070526123047,-156.46060180664062,19587719.0,50354.0,0.012506073829297498,0.14925348573599995,0.05940856685121135,0.0076689802110676,0.004142260451852051,0.015575023017381728,19.587719457005733
1634,B,78150652660295.0,-1.6357312839218832,12.372253,-2.969283026001681,175,1970-01-01 21:42:30.652660295,-2.533371,-2.1908264,2.1524048,14.962452014258721,3.9812730830277143,99.80926513671875,18.01850128173828,-156.4766845703125,19638073.0,50354.0,-0.12620446007260253,0.284998982255,-0.14488794378958866,-0.0028625842704476908,0.010933174386609406,-0.002152114273177526,19.638073460999294
1634,B,78150703014298.0,2.430079916078117,3.264557,0.12161357399831862,175,1970-01-01 21:42:30.703014298,-1.8670349,0.12695313,1.1916351,4.719364755341109,2.2185424554393403,100.4186019897461,18.171184539794922,-156.26226806640625,19688427.0,50354.0,0.0199993155117975,-0.09978123463000003,-0.07169577379308867,-0.0026739269246073886,0.004663227231954624,-0.0054529282575790676,19.688427464003325
1634,B,78150753368302.0,2.834865116078117,0.64686584,2.9640818039983188,175,1970-01-01 21:42:30.753368302,0.35133362,0.45062256,0.17993164,1.6678248728510923,0.5990587610546628,100.29972076416016,19.243791580200195,-156.286376953125,19738781.0,50354.0,0.1325555210745975,-0.39499130715732006,0.07768855253182134,0.0038408731207356674,-0.01245688828457936,0.0001508801903050726,19.738781467996887
1634,B,78150803722306.0,2.7948565160781174,4.0451813,4.654923473998319,175,1970-01-01 21:42:30.803722306,2.4461975,1.4431763,-1.2454376,4.674441580496987,3.1012505312182856,99.66230010986328,19.37672233581543,-156.45993041992188,19789135.0,50354.0,0.14173950153279755,-0.37533752915622004,0.19182369588412135,0.0069059257841863845,-0.019394569111866,0.006785509878368189,19.789135472005
1634,B,78150854076310.0,2.016795716078117,13.32193,5.128418973998318,175,1970-01-01 21:42:30.854076310,3.4893494,2.877945,-1.9721375,13.707091234026498,4.9343138304339345,99.40401458740234,19.23943519592285,-156.4537811279297,19839489.0,50354.0,0.12114296824899752,-0.05621743879990003,0.24631521281321136,0.006618591941696255,-0.010865259428231236,0.011031023304272747,19.839489475998562
1634,B,78150904430314.0,-4.271458283921883,19.374542,-3.2791280260016813,175,1970-01-01 21:42:30.904430314,3.6779938,3.2352448,-2.62117,22.10286572269562,5.555625930321937,99.8545150756836,19.440357208251953,-156.1942901611328,19889843.0,50354.0,-0.05676563947060251,0.3297298755440001,0.046559598197711334,0.0016208280066536513,0.006886222619906207,0.007373709116822002,19.889843480006675
1634,B,78150954784318.0,-6.820378283921882,12.381393,-7.898589326001682,175,1970-01-01 21:42:30.954784318,1.9038391,3.3996582,-2.017868,19.89113929662537,4.387946041252109,100.67037200927734,19.931116104125977,-155.7769012451172,19940197.0,50354.0,-0.2792591692686025,0.306049975495,-0.2814213897713887,-0.008460096609626966,0.016007029309608903,-0.005913115326450475,19.940197484000237
1634,B,78151005138322.0,9.033442716078117,-1.7727661,0.2646646739983187,175,1970-01-01 21:42:31.005138322,-0.80877686,1.7459869,-0.32460022,5.651586588668284,1.9513983619617798,102.45225524902344,17.62187957763672,-155.10595703125,19990551.0,50354.0,0.05571832320839752,-0.22637580053870007,-0.19219932096348868,-0.005628087881257781,0.0020059567028747637,-0.011924348634172008,19.990551487993798
1634,B,78151055492326.0,9.815379716078116,-4.4366302,3.8421793339983186,175,1970-01-01 21:42:31.055492326,-2.2053833,-1.9324341,0.28744507,7.082672543510258,2.9462928773339905,102.36024475097656,14.764758110046387,-155.1911163330078,20040905.0,50354.0,0.4745568023743975,-0.6498031706451001,0.10339801158933133,0.01335073683679803,-0.02205955795749454,-0.0022357505661131597,20.04090549200191
1634,B,78151105846330.0,4.414424396078117,3.446991,3.4347696739983187,175,1970-01-01 21:42:31.105846330,-1.55896,-2.9289398,0.24378967,3.4850934445698902,3.326932226063938,101.71902465820312,14.424434661865234,-155.4736785888672,20091259.0,50354.0,0.3582637781317575,-0.5183853461384,0.18321174517433134,0.02096792375540347,-0.029411482287058185,0.007215973846038736,20.091259495995473
1634,B,78151156200334.0,-0.495518283921883,2.578354,6.383439073998319,175,1970-01-01 21:42:31.156200334,1.0500183,-2.5379791,0.19126892,6.504904000476038,2.7532635438928956,100.84455871582031,15.376213073730469,-155.83384704589844,20141613.0,50354.0,0.09866629918575752,-0.341769088935,0.24719304164831135,0.011504128556623078,-0.021656108211842995,0.010836301317833676,20.141613500003587
1634,B,78151206554337.0,4.275065876078117,1.88591,5.2987376739983185,175,1970-01-01 21:42:31.206554337,0.7397766,-2.2626038,0.03326416,3.0351093562433933,2.380704071912867,99.53589630126953,15.258841514587402,-156.29681396484375,20191967.0,50354.0,0.09515766972771751,-0.3810724252720001,0.29412216398431135,0.004879906065334561,-0.018198980803189643,0.013628692932212543,20.191967503007618
1634,B,78151256908341.0,5.213069416078117,16.867569,1.2214059739983187,175,1970-01-01 21:42:31.256908341,-2.2690277,-2.021347,1.0856018,16.97401348867507,3.2268965998214956,99.2959976196289,14.77757453918457,-156.43394470214844,20242321.0,50354.0,0.2388827822506175,-0.02131285921700007,0.16415765662561133,0.008410136459458541,-0.010130854307579557,0.011538111043496023,20.24232150700118
1634,B,78151307262345.0,0.7660784160781171,18.159897,0.20257667399831858,175,1970-01-01 21:42:31.307262345,-3.3018951,-2.299942,2.4410553,18.713100756825913,4.706484402654077,99.0763931274414,14.583812713623047,-156.57627868652344,20292675.0,50354.0,0.1505370049701975,0.388417311482,0.03585161112861134,0.00980442198285846,0.009242588794675904,0.005035633334248064,20.29267551099474
1634,B,78151357616349.0,1.270396716078117,11.667374,-1.3701923260016815,175,1970-01-01 21:42:31.357616349,-2.7673492,-2.0723267,1.9848022,12.813009360040795,3.98650214089976,99.18441009521484,14.494354248046875,-156.6284942626953,20343029.0,50354.0,0.05127233440229751,0.25749200196699995,-0.02939705927048867,0.005080953737381307,0.016262058784705474,0.00016250625213195453,20.343029515002854
1634,B,78151407970353.0,1.8322711160781169,3.832428,0.9133463739983188,175,1970-01-01 21:42:31.407970353,-1.5900269,-0.71195984,1.3225555,5.017248015823301,2.1872872255551363,99.498046875,14.843243598937988,-156.57342529296875,20393383.0,50354.0,0.07811586801019751,-0.10323068504600003,-0.011502010533588665,0.0032576067721393873,0.0038838371761200155,-0.0010297158804572551,20.393383518996416
1634,B,78151458324357.0,2.645228816078117,0.95751953,2.5608377739983186,175,1970-01-01 21:42:31.458324357,0.5913391,-0.22381592,0.13464355,2.0069910842605756,0.6464552442287548,99.67182159423828,15.845785140991211,-156.5467529296875,20443737.0,50354.0,0.11273001579189751,-0.37287269103719006,0.08746953429411135,0.0048049268164853465,-0.011986854699646478,0.0019126343457186797,20.44373752300453
1634,B,78151508678361.0,4.018916586078117,3.0621185,2.930329362498319,175,1970-01-01 21:42:31.508678361,2.2069092,1.2531891,-1.144455,3.082369049658134,2.7840094081070292,99.55028533935547,15.666472434997559,-156.54119873046875,20494091.0,50354.0,0.1677831887900875,-0.39226677331869003,0.13825111499557582,0.007062480951760638,-0.019263916294087993,0.005682968787166454,20.49409152699809
1634,B,78151559032365.0,-0.2370037839218826,12.819885,0.7474526739983185,175,1970-01-01 21:42:31.559032365,2.7963715,3.3231964,-2.1296692,13.795645825209062,4.83723255389007,99.74334716796875,15.839759826660156,-156.35177612304688,20544445.0,50354.0,0.09521721861988751,-0.09360799788050005,0.09259551833287584,0.0066215612573609405,-0.01223286911448201,0.005812025687310428,20.544445531006204
1634,B,78151609386369.0,-3.7460062839218837,19.613052,-2.9430379260016815,175,1970-01-01 21:42:31.609386369,3.2797089,3.1721344,-2.337082,22.0221017334285,5.1264880176517105,100.12443542480469,16.07449722290039,-156.12234497070312,20594799.0,50354.0,-0.1002802444781025,0.32309485484899997,-0.05527824988968867,-0.000127471802032279,0.0057777905978959225,0.0009395368675941234,20.594799534999765
1634,B,78151659740373.0,-3.896107283921883,13.359512,-2.566573326001681,175,1970-01-01 21:42:31.659740373,1.789444,2.8859406,-2.0134277,16.64218915414009,3.947740376340831,100.53497314453125,16.49475860595703,-155.8784942626953,20645153.0,50354.0,-0.19240549329760254,0.336681043828,-0.13871548249168866,-0.007368948819978927,0.016611177800990827,-0.004884180200165938,20.64515353900788
1634,B,78151710094377.0,1.3152270160781172,2.2419891,-0.7341909260016815,175,1970-01-01 21:42:31.710094377,-0.59143066,1.5376434,-0.89927673,5.266885962756595,1.876921971812118,101.43698120117188,17.097448348999023,-155.5290985107422,20695507.0,50354.0,-0.0649788225035025,-0.10067020680530003,-0.08310334157268867,-0.006480164918924422,0.0059420448437205176,-0.005584732533468828,20.69550754300144
1634,B,78151760448380.0,9.812510716078117,-4.3428802,3.7601480739983186,175,1970-01-01 21:42:31.760448380,-1.6391449,-1.5386963,0.4566803,7.011833388111586,2.2941096755032855,101.36381530761719,14.226240158081055,-155.6011505126953,20745861.0,50354.0,0.28016305288249754,-0.5463633352247,0.07618452311511134,0.005417693368251958,-0.01629036348768931,-0.00017419509230642445,20.74586154600547
1634,B,78151810802384.0,4.5852160160781175,1.9810028,1.4793863739983186,175,1970-01-01 21:42:31.810802384,-1.44133,-1.5996552,0.30337524,2.460273830480262,2.174480504403775,101.88577270507812,13.787710189819336,-155.53602600097656,20796215.0,50354.0,0.36249156593549753,-0.5529341872998,0.13191575879721135,0.016180115337980663,-0.02767701372459934,0.005239340797706549,20.796215549999033
1634,B,78151861156388.0,-0.3884167839218833,3.299652,2.554017103998319,175,1970-01-01 21:42:31.861156388,0.5891876,-0.14985657,-0.20205688,5.803543897015117,0.6406449893047313,101.83256530761719,14.745685577392578,-155.56124877929688,20846569.0,50354.0,0.10566281426799752,-0.36051815410040006,0.10154899936552135,0.011786722830383395,-0.022997989599432837,0.005877942216263122,20.846569554007147
1634,B,78151911510392.0,-8.561131283921881,5.019623,6.453217573998319,175,1970-01-01 21:42:31.911510392,1.4321442,0.4453125,-1.4420319,14.314910772600967,2.080575937779609,101.44774627685547,15.956149101257324,-155.64598083496094,20896923.0,50354.0,-0.22532277170410248,-0.284014813325,0.22677514748792135,-0.003012678748368815,-0.0162274065208693,0.008266217045329127,20.896923558000708
1634,B,78151961864396.0,-9.624088783921884,13.824509,5.791260673998319,175,1970-01-01 21:42:31.961864396,-1.3375854,-0.8005371,0.79470825,19.880261771618407,1.7497301373033594,100.94922637939453,16.636899948120117,-155.8127899169922,20947277.0,50354.0,-0.4578492856481025,-0.01903048863599999,0.30827922884981135,-0.017200222887956466,-0.0076297715674720976,0.013471064033055096,20.94727756199427
1634,B,78152012218400.0,-5.9731792839218825,14.597702,1.6441049739983187,175,1970-01-01 21:42:32.012218400,-3.2198944,-1.9792328,2.2893524,17.937154488271062,4.418847908124125,100.62538146972656,17.001161575317383,-155.97433471679688,20997631.0,50354.0,-0.39269241814410255,0.22211680634699998,0.18720020091961137,-0.02141408847637635,0.005113104221009847,0.012474685603304756,20.997631566002383
1634,B,78152062572404.0,-1.5190932839218831,11.421555,2.0604410739983186,175,1970-01-01 21:42:32.062572404,-2.7344208,-1.9766998,2.0684814,12.88003425011008,3.9576526518807382,100.30635833740234,17.173574447631836,-156.13922119140625,21047985.0,50354.0,-0.1886329464406025,0.16161763348899996,0.09326935585041135,-0.01463602870414912,0.009661281991750972,0.007061382030798862,21.047985569995944
1634,B,78152112926408.0,-1.5364727839218828,6.015564,2.674866713998319,175,1970-01-01 21:42:32.112926408,-1.923523,-1.5845032,1.593399,8.43525070521764,2.9579573180727676,100.03251647949219,17.76858139038086,-156.2811279296875,21098339.0,50354.0,-0.0769299868901025,-0.05445485493700004,0.11922084417839135,-0.006686077972467161,0.0026980372756037025,0.005349865766125166,21.098339574004058
1634,B,78152163280412.0,2.871318316078117,1.5353394,0.35452367399831886,175,1970-01-01 21:42:32.163280412,-0.066085815,0.24809265,0.50416565,3.3471156165392197,0.5657740720182918,101.04981231689453,18.09441566467285,-155.95945739746094,21148693.0,50354.0,0.03360740596309751,-0.30336010509820005,0.07627096179859136,-0.0010907326199992046,-0.009008707248806234,0.004921897199082494,21.14869357799762
1634,B,78152213634416.0,5.490230016078117,2.3714294,0.09167577399831872,175,1970-01-01 21:42:32.213634416,1.927887,1.6701508,-0.8500061,3.858668990726473,2.688617181665484,102.07875061035156,17.391345977783203,-155.5901641845703,21199047.0,50354.0,0.21051870235869752,-0.39510848192240006,0.011233963502211345,0.006146363029217834,-0.01758534361541765,0.0022031115042983095,21.199047582005733
1634,B,78152263988420.0,-0.25769478392188283,13.660034,7.806611073998319,175,1970-01-01 21:42:32.263988420,3.5382385,2.5762177,-1.5640564,15.227607352561037,4.647827636978,101.54744720458984,17.50924301147461,-155.6665496826172,21249401.0,50354.0,0.1317395395399975,-0.08984504597820005,0.19885516797201133,0.008617035756283446,-0.012209674971953409,0.005289414063126505,21.249401585999294
1634,B,78152314342423.0,3.301265216078117,19.613052,1.8346414739983188,175,1970-01-01 21:42:32.314342423,4.3807373,1.6678619,-2.1011505,19.672343095571435,5.136872203270503,101.58040618896484,17.244068145751953,-155.6246337890625,21299755.0,50354.0,0.07662797277039751,0.34424728622199996,0.24273781540091136,0.005246068857438816,0.006405085202618151,0.011117986542380075,21.299755589003325
1634,B,78152364696427.0,-5.647602283921883,12.248062,-3.287566326001681,175,1970-01-01 21:42:32.364696427,2.3213806,2.12471,-2.219986,16.99898380681457,3.851173628175229,102.05743408203125,17.80600929260254,-155.39471435546875,21350109.0,50354.0,-0.059073728357102506,0.3086980671779999,-0.036580288998888655,0.00044196321159352837,0.016439205162551797,0.005190428042223726,21.350109592996887
1634,B,78152415050431.0,2.199382316078117,0.22229004,-2.8030080260016814,175,1970-01-01 21:42:32.415050431,-0.2445221,2.0420685,-0.28570557,6.127862929415871,2.0764061473636812,103.44470977783203,18.174949645996094,-154.8645782470703,21400463.0,50354.0,-0.08681583413040252,-0.17950314668892006,-0.15334239046038867,-0.003673061514747914,0.0032527405131535635,-0.004781683300746226,21.400463597005
1634,B,78152465404435.0,11.967128216078116,-5.215744,2.9443521899983187,175,1970-01-01 21:42:32.465404435,-1.5402527,-0.4953308,0.9469452,9.213948393603788,1.8746829580195605,103.9721908569336,15.331846237182617,-154.7218017578125,21450817.0,50354.0,0.35667023566809747,-0.61918939035092,0.0035586220169433374,0.0067941242675145464,-0.020108682005052055,-0.003771105938100623,21.450817600998562
1634,B,78152515758439.0,0.7035937160781169,6.133957,2.662125623998319,175,1970-01-01 21:42:32.515758439,-1.8455353,-0.8035431,-0.15463257,7.1517406507897645,2.0188098694053647,103.61390686035156,15.738665580749512,-154.82916259765625,21501171.0,50354.0,0.3190107660858975,-0.47035135129900013,0.14115429192299334,0.01701162058116033,-0.02743136725252004,0.003643437034265786,21.501171605006675
1634,B,78152566112443.0,2.704600816078117,4.029251,5.306702673998318,175,1970-01-01 21:42:32.566112443,0.4453888,0.30015564,-0.5328522,4.9696587694101915,0.7565686078830456,102.66319274902344,15.959233283996582,-155.0747833251953,21551525.0,50354.0,0.08580811373609751,-0.23759011218400003,0.20063119005866134,0.01019212493727837,-0.017823842226111497,0.00860513307985212,21.551525609000237
1634,B,78152616466447.0,-9.203266283921884,14.17308,-9.920470326001682,175,1970-01-01 21:42:32.616466447,1.7838287,1.4014587,-0.45489502,23.454160607524884,2.313668255815898,103.37403869628906,16.482213973999023,-154.83021545410156,21601879.0,50354.0,-0.16361690048390254,-0.03518911241300002,-0.11616082817448871,-0.0019589918239494874,-0.00686776253767867,0.0021267103011578144,21.601879612993798
1634,B,78152666820451.0,-3.648152283921882,12.676086,-6.9777213260016815,175,1970-01-01 21:42:32.666820451,-1.0447998,-0.8397217,1.4247131,17.97264745860556,1.9561560706759928,103.86217498779297,16.7044734954834,-154.73095703125,21652233.0,50354.0,-0.3235601652826025,0.18251225238199997,-0.42544577122248867,-0.012265656984803298,0.003709154694999512,-0.013636029353017701,21.65223361700191
1634,B,78152717174455.0,-4.175114283921883,16.568436,-6.370192326001682,175,1970-01-01 21:42:32.717174455,-2.4818726,-2.88031,2.083191,20.830637168334913,4.33538487809465,104.05134582519531,16.838912963867188,-154.79852294921875,21702587.0,50354.0,-0.19696638237860248,0.24282013039399997,-0.3360604220164887,-0.013105296890466158,0.01070859340115135,-0.019172441427177736,21.702587620995473
1634,B,78152767528459.0,-3.5617262839218826,10.213333,-1.0507803260016813,175,1970-01-01 21:42:32.767528459,-2.1259308,-2.3416443,1.9262848,13.529132369539482,3.703167957954671,104.05531311035156,17.244373321533203,-154.8976593017578,21752941.0,50354.0,-0.1947904349766025,0.180815398113,-0.18683782845948868,-0.009863261390551995,0.010665871701220738,-0.013165009252233684,21.752941625003587
1634,B,78152817882462.0,-0.7977795839218826,5.2557983,-0.3130941260016815,175,1970-01-01 21:42:32.817882462,-2.106079,-0.87327576,1.2795868,8.050809918671725,2.614483062859428,104.2795181274414,17.76085662841797,-154.85430908203125,21803295.0,50354.0,-0.10975927923470248,-0.10400288125990002,-0.034338267078088666,-0.007667648154698026,0.0019339087368104978,-0.005568550557349585,21.803295628007618
1634,B,78152868236466.0,4.477351642078117,0.8126831,2.2016458739983187,175,1970-01-01 21:42:32.868236466,-0.41308594,0.56370544,0.5670166,1.0915360427122431,0.8999509106539296,104.94974517822266,17.206523895263672,-154.62728881835938,21853649.0,50354.0,0.09264058570819952,-0.34068304379220005,0.04754806735931134,-0.000430997346916765,-0.011195857535036725,0.0003325831416803432,21.85364963200118
1634,B,78152918590470.0,2.398143316078117,-0.119155884,4.3348093739983184,175,1970-01-01 21:42:32.918590470,2.0384521,1.0379486,-0.8211212,2.4295904813527054,2.4304041403284784,104.24293518066406,18.42665672302246,-154.81568908691406,21904003.0,50354.0,0.17310433656149954,-0.4760082652827681,0.16456833377881133,0.006690659907984213,-0.020561837088580472,0.005340454631454514,21.90400363599474
1634,B,78152968944474.0,-1.752033783921883,14.8467865,2.8949900069983188,175,1970-01-01 21:42:32.968944474,3.2147064,2.0632477,-2.035492,16.060088754395675,4.328343331093347,104.10442352294922,18.612226486206055,-154.79188537597656,21954357.0,50354.0,0.01626709969109751,-0.12267164398096803,0.18202465901535234,0.004767804650531636,-0.015072964075533083,0.00872617177957866,21.954357640002854
1634,B,78153019298478.0,2.499934616078117,19.613052,-1.421111026001681,175,1970-01-01 21:42:33.019298478,3.7121887,1.7284698,-2.3802795,20.175303908304965,4.73642093695651,104.28522491455078,18.377347946166992,-154.6868438720703,22004711.0,50354.0,0.018829899251197508,0.3741261539145,0.03710785110455235,0.0008836371423701617,0.006330870196596535,0.005517099207288841,22.004711643996416
1634,B,78153069652482.0,-9.474400283921884,14.302673,-3.731368026001681,175,1970-01-01 21:42:33.069652482,1.724472,2.6527557,-2.813446,20.989358429096445,4.2339573542470275,104.63774871826172,19.04340934753418,-154.44602966308594,22055065.0,50354.0,-0.17559612211930253,0.36042700832499996,-0.12972396509228865,-0.00394690319315028,0.01849384496570389,-0.0023317959018692366,22.05506564800453
1634,B,78153120006486.0,2.6701159160781174,3.1351013,-1.7563923260016812,175,1970-01-01 21:42:33.120006486,0.0756073,2.0832825,-0.40022278,5.883623300856108,2.1227248319672687,105.64028930664062,19.089601516723633,-154.01971435546875,22105419.0,50354.0,-0.17131146752920254,-0.054438356448900015,-0.13816534238238865,-0.008734092384580413,0.007703876288284569,-0.006744649094289951,22.10541965199809
1634,B,78153170360490.0,12.998851716078118,-4.574463,5.5157938739983186,175,1970-01-01 21:42:33.170360490,-1.2094727,-0.8592987,0.95584106,10.103469705779942,1.7648939344473094,104.99256134033203,16.24264907836914,-154.24783325195312,22155773.0,50354.0,0.39449759807479756,-0.5297080095209,0.09465045277391135,0.005619157208746446,-0.014707053056021657,-0.001095574375672633,22.155773656006204
1634,B,78153220714494.0,1.8039355160781172,2.7038116,2.563889543998319,175,1970-01-01 21:42:33.220714494,-2.5211487,-1.7877045,0.42541504,3.7459409781178157,3.1197846244717184,104.69788360595703,16.898258209228516,-154.3848114013672,22206127.0,50354.0,0.3726897741439975,-0.5405665902978001,0.20342218941490137,0.019315476470352606,-0.026946303599635412,0.007504574912387737,22.206127659999765
1634,B,78153271068498.0,5.312541466078117,5.698593,0.7497263739983189,175,1970-01-01 21:42:33.271068498,0.24674988,-0.9950714,0.0736084,6.170968938085036,1.0278476496682445,104.85421752929688,16.28924560546875,-154.39068603515625,22256481.0,50354.0,0.17917154097974752,-0.28192185938580006,0.08342690796740135,0.01389421233087053,-0.020707791697684,0.007221999724794235,22.25648166400788
1634,B,78153321422502.0,19.105784716078116,17.208878,16.05542067399832,175,1970-01-01 21:42:33.321422502,1.6898651,-2.4787598,1.6835632,26.18611645473498,3.4400987268810024,103.92887115478516,15.259310722351074,-154.80165100097656,22306835.0,50354.0,0.6147801982881475,0.08327219736699991,0.42310318722741136,0.019989322939547794,-0.005001402540647331,0.012752908206719801,22.30683566800144
1634,B,78153371776505.0,18.306575716078118,2.0337524,8.009064673998319,175,1970-01-01 21:42:33.371776505,0.03703308,-2.6624146,0.72450256,14.97304912604613,2.759479463731158,102.81232452392578,12.590950965881348,-155.2039794921875,22357189.0,50354.0,0.9419309986003975,-0.00899749441920005,0.6058715476065114,0.0391933178040629,0.0018700141961167573,0.025906496898913677,22.35718967100547
1634,B,78153422130509.0,-2.3546492839218827,16.316788,5.6251688739983186,175,1970-01-01 21:42:33.422130509,-3.420639,-1.6939087,2.2213898,17.8545078579757,4.416409231015705,102.10271453857422,12.758951187133789,-155.42703247070312,22407543.0,50354.0,0.40162165178239756,-0.031457644349200044,0.34326909803791134,0.03382662507868763,-0.0010185390287720092,0.023896514035389633,22.407543674999033
1634,B,78153472484513.0,-1.7630202839218834,14.946976,-3.8745260260016816,175,1970-01-01 21:42:33.472484513,-3.3886414,-1.9925842,2.1854095,17.52845196274874,4.497699080037909,102.20027160644531,12.8725004196167,-155.48533630371094,22457897.0,50354.0,-0.10367056670960251,0.29365858622799995,0.04407593498401133,0.007501514468877761,0.0066014331136825454,0.009752185896392948,22.457897679007147
1634,B,78153522838517.0,1.9542651160781173,7.084015,-1.5008840260016814,175,1970-01-01 21:42:33.522838517,-2.3558197,-0.81077576,1.6481476,8.694486131928848,2.9872452700267895,102.54714965820312,12.900176048278809,-155.4373321533203,22508251.0,50354.0,0.004814971139197501,0.061205060406999974,-0.13533669887928867,-0.002488887329676087,0.008934402031329393,-0.002297672252591398,22.508251683000708
1634,B,78153573192521.0,3.732539616078117,-0.17170715,1.6123056739983186,175,1970-01-01 21:42:33.573192521,-0.2154541,0.13719177,0.84558105,1.4679190371872466,0.8833172493966397,103.8563232421875,13.436431884765625,-155.13909912109375,22558605.0,50354.0,0.14317668274149753,-0.31943802526055004,0.0028052628316113356,0.003725985869754259,-0.00650153135611783,-0.0033367439653723724,22.55860568699427
1634,B,78153623546525.0,1.6827654160781171,0.09439087,2.393235273998319,175,1970-01-01 21:42:33.623546525,2.3341064,0.8495636,-0.80944824,2.7420563996798473,2.6124734353108776,104.25169372558594,14.80471420288086,-155.0202178955078,22608959.0,50354.0,0.1363411347945975,-0.49541579198156,0.10084750444771134,0.007037420092106265,-0.020515574556704604,0.0026096657217915074,22.608959691002383
1634,B,78153673900529.0,4.011638136078117,7.7416077,6.254868573998319,175,1970-01-01 21:42:33.673900529,3.0466003,1.8340912,-1.5459442,8.435988522723692,3.877577515329793,103.53109741210938,14.625473022460938,-155.1378631591797,22659313.0,50354.0,0.14336799823263754,-0.29618226400311004,0.21773331058101134,0.007042236842226698,-0.01993006425552604,0.008020909179978152,22.659313694995944
1634,B,78153724254533.0,3.873408766078117,18.471176,-2.9642173260016818,175,1970-01-01 21:42:33.724254533,3.4469604,1.3178406,-2.2668304,19.392973265721817,4.33090751558385,103.83367919921875,14.394935607910156,-155.01791381835938,22709667.0,50354.0,0.19852182585558753,0.16649005521489996,0.08284872647081135,0.008607760101069244,-0.0032652607406607657,0.00756775394685374,22.709667699004058
1634,B,78153774608537.0,-11.157414283921884,18.456207,-8.648528326001681,175,1970-01-01 21:42:33.774608537,2.5033417,2.8011932,-2.901825,26.752060256548784,4.746998140015449,104.38214111328125,15.031052589416504,-154.74440002441406,22760021.0,50354.0,-0.18338940692275255,0.43625152179099996,-0.2923740972804887,0.00038098891147198645,0.015175224684277544,-0.0052752202608752465,22.76002170299762
1634,B,78153824962541.0,0.24224421607811664,6.219696,-2.903166726001681,175,1970-01-01 21:42:33.824962541,0.22311401,2.7794952,-0.6283264,9.469733220707456,2.8583504846708845,105.07476806640625,15.335247039794922,-154.42832946777344,22810375.0,50354.0,-0.27481123679810254,0.12779600983099992,-0.29083702632428865,-0.01153611760695997,0.014201024703647093,-0.01468350645899748,22.810375707005733
1634,B,78153875316545.0,8.140025616078116,-5.465622,1.5080118739983186,175,1970-01-01 21:42:33.875316545,-1.6843414,-0.68995667,0.75149536,6.787882583442178,1.9692108658884093,107.2368392944336,13.45856761932373,-153.909912109375,22860729.0,50354.0,0.21104040756419748,-0.47448387890200006,-0.03512581370888866,-0.0016055581676220278,-0.00872856047960057,-0.008206766423515305,22.860729710999294
1634,B,78153925670548.0,6.4538683160781165,-1.6234283,3.471451773998319,175,1970-01-01 21:42:33.925670548,-2.8118896,-2.7526245,0.277771,2.6967880657253844,3.9447207111568003,106.99100494384766,10.622565269470215,-154.06033325195312,22911083.0,50354.0,0.3674304675298975,-0.6719502194031001,0.12536795626561134,0.014564161222244031,-0.028863771293027512,0.002272026423150607,22.911083714003325
1634,B,78153976024552.0,-4.258625283921883,10.174179,-2.9592273260016815,175,1970-01-01 21:42:33.976024552,0.2730713,-2.0346527,-0.2927704,14.580483302396084,2.073666813067408,107.25231170654297,11.2923583984375,-154.10458374023438,22961437.0,50354.0,0.0552696338205975,-0.2781869496261001,0.01289627492721134,0.010642320451701414,-0.023921603504648174,0.003481078548741697,22.961437717996887
1634,B,78154026378556.0,3.8940386560781173,-10.13382,8.10814007399832,175,1970-01-01 21:42:34.026378556,1.6108551,-1.414032,-0.2926941,11.39350392464472,2.163333188945896,105.58097839355469,13.633938789367676,-154.54312133789062,23011791.0,50354.0,-0.009179197529222485,-0.492453081457,0.12963417625631138,0.0011604189145079488,-0.01940240406257921,0.0035884891694475517,23.011791722005
1634,B,78154076732560.0,6.1666064160781175,7.0957794,10.586884673998318,175,1970-01-01 21:42:34.076732560,-0.4495697,-3.8934174,-0.17868042,10.59778797690391,3.923358084380296,104.22423553466797,13.301227569580078,-155.03372192382812,23062145.0,50354.0,0.25329686098167753,-0.5699579481862002,0.47068463808031136,0.006146150412742461,-0.02674832249332685,0.015114226788553151,23.062145725998562
1634,B,78154127086564.0,-6.542927283921883,19.487091,7.543274873998319,175,1970-01-01 21:42:34.127086564,-3.2326965,-1.627243,3.274002,22.80840968917753,4.880300763084715,103.43533325195312,13.571313858032227,-155.2957305908203,23112499.0,50354.0,-0.009474630489702485,0.1758077280608,0.45646302693991136,0.006138712297096456,-0.0099235200920972,0.02334279676221415,23.112499730006675
1634,B,78154177440568.0,0.47738211607811687,15.007507,-1.6730793260016816,175,1970-01-01 21:42:34.177440568,-3.0602417,-2.5195313,1.6385956,16.171286646099542,4.289302131400625,103.33778381347656,13.530512809753418,-155.42030334472656,23162853.0,50354.0,-0.1527122306908025,0.375001293846,0.14779391331191136,-0.004083378603941574,0.013867718744547505,0.015213376984720143,23.162853734000237
1634,B,78154227794572.0,2.574916316078117,7.782486,2.1644297039983185,175,1970-01-01 21:42:34.227794572,-2.2456512,-1.3744507,1.7390594,8.023087848365511,3.1553750388060515,103.01051330566406,13.449629783630371,-155.5548858642578,23213207.0,50354.0,0.0768477176263975,0.08031445376099995,0.012370728466821326,-0.001910040845422525,0.011463484577501439,0.0040324651860631534,23.213207737993798
1634,B,78154278148576.0,-0.16197628392188257,1.8542633,3.9969949739983184,175,1970-01-01 21:42:34.278148576,-0.88082886,-0.6590729,1.0819855,5.014546634233904,1.54302598498326,102.52320098876953,14.55920124053955,-155.7056427001953,23263561.0,50354.0,0.06075059118959752,-0.25084476287390006,0.15512618911792134,0.003464312621060307,-0.004293441592535487,0.0042170698940310666,23.26356174200191
1634,B,78154328502580.0,2.647426116078117,0.4644165,-0.26963702600168116,175,1970-01-01 21:42:34.328502580,1.8501587,0.8028259,-0.7276306,3.6577192076510325,2.1440762418703443,103.85155487060547,15.122692108154297,-155.34307861328125,23313915.0,50354.0,0.06257617042419752,-0.4350917986754001,0.09384369105671134,0.003104997877150518,-0.017269824810126733,0.006268314673156727,23.313915745995473
1634,B,78154378856584.0,5.7614855160781175,4.65007,4.768738773998319,175,1970-01-01 21:42:34.378856584,2.9273682,2.0938416,-1.5427246,5.192603938280759,3.915821295170013,103.20152282714844,14.508801460266113,-155.43153381347656,23364269.0,50354.0,0.21171116816279753,-0.3647017733895,0.11327388470931135,0.006905732323604775,-0.02013640276387799,0.005214599205061153,23.364269750003587
1634,B,78154429210587.0,-0.48239568392188303,19.613052,2.1768350739983187,175,1970-01-01 21:42:34.429210587,3.3376617,4.0468597,-2.2960968,20.218532764731016,5.726178443787901,103.151611328125,14.565415382385254,-155.269775390625,23414623.0,50354.0,0.13291164470419753,0.11740342259399995,0.17486871277101135,0.008676568559552334,-0.006226230577978305,0.007254566176762085,23.414623753007618
1634,B,78154479564591.0,-6.518925283921884,19.37526,-7.292327326001681,175,1970-01-01 21:42:34.479564591,3.3208313,3.2138062,-1.9487457,24.461172898963984,5.015384393791429,103.70048522949219,14.927635192871094,-154.9989013671875,23464977.0,50354.0,-0.1762722580074025,0.488139531224,-0.12879274842868865,-0.001091690161134792,0.015245754948275785,0.0011600545542466585,23.46497775700118
1634,B,78154529918595.0,-0.2597546839218827,5.3518524,0.4585733739983189,175,1970-01-01 21:42:34.529918595,0.26966858,3.4251404,-0.9878998,7.494204947264627,3.574948099985707,103.98591613769531,15.505061149597168,-154.75540161132812,23515331.0,50354.0,-0.17066682555040252,0.1290853088948,-0.17205342324958867,-0.008734885306734858,0.015539869799671027,-0.007574404064343988,23.51533176099474
1634,B,78154580272599.0,8.516017416078117,-3.6239471,-0.2814779260016813,175,1970-01-01 21:42:34.580272599,-1.5631561,-0.6615906,0.5487976,6.3699011039149624,1.7839108499982084,106.1789779663086,13.662477493286133,-154.219482421875,23565685.0,50354.0,0.20786792680749752,-0.44996572826190007,0.004458732094211344,0.0009366121263498808,-0.00807880631840548,-0.004219531539218935,23.565685765002854
1634,B,78154630626603.0,8.137523116078118,-4.5670013,4.170197573998319,175,1970-01-01 21:42:34.630626603,-1.8068085,-2.618332,0.72068787,6.049486446463375,3.261841569399315,106.14512634277344,10.801347732543945,-154.33724975585938,23616039.0,50354.0,0.4192861899780976,-0.6996927078668,0.09790629457761135,0.015789859198310927,-0.028944950446412283,0.00257724427651648,23.616039768996416
1634,B,78154680980607.0,-7.221424283921883,11.581696,-6.843474326001681,175,1970-01-01 21:42:34.680980607,0.35942078,-0.98947144,-0.6557312,19.07642649329334,1.2402501498991731,106.62757110595703,11.506675720214844,-154.28501892089844,23666393.0,50354.0,0.023064620297197518,-0.31686023153810006,-0.06730508878518865,0.011137066350301105,-0.025593753355397167,0.0007704465582358264,23.66639377300453
1634,B,78154731334611.0,1.967982716078117,15.769211,15.307663673998318,175,1970-01-01 21:42:34.731334611,3.1076202,-0.9720917,-0.3048401,20.194912732867802,3.270350603104343,105.58866882324219,11.536117553710938,-154.5648956298828,23716747.0,50354.0,-0.1322658983536025,0.19514458553900005,0.21310289521451134,-0.002749360577626108,-0.003064434819319341,0.0036707513724710578,23.71674777699809
1634,B,78154781688615.0,-3.002918783921883,4.861038,11.972794673998319,175,1970-01-01 21:42:34.781688615,-1.6208191,-3.6234741,1.7543945,12.645888035056979,4.33987547861985,104.30391693115234,12.262906074523926,-155.0076904296875,23767101.0,50354.0,-0.026056585380102505,0.025938579072999946,0.6868400998275114,-0.003986085172963491,0.0055662108354363245,0.022657864786173005,23.767101781006204
1634,B,78154832042619.0,-6.4091232839218835,16.863815,2.8614969639983188,175,1970-01-01 21:42:34.832042619,-3.5988007,-1.5825043,1.4309998,20.01538175704629,4.1837120796535485,103.80157470703125,12.717723846435547,-155.17030334472656,23817455.0,50354.0,-0.23696698314210254,0.05349742398099996,0.37348296056984137,-0.006622144384683557,0.0019999602488905556,0.026695753691624153,23.817455784999765
1634,B,78154882396623.0,0.21313041607811734,15.624191,1.1017770739983186,175,1970-01-01 21:42:34.882396623,-3.1717224,-3.5250854,2.201416,16.270326078234874,5.228028544777747,103.42167663574219,12.70672607421875,-155.41159057617188,23867809.0,50354.0,-0.15599651243370252,0.32448132706199995,0.09978335045464135,-0.009893641928112045,0.009516371015009609,0.011915425912663402,23.86780978900788
1634,B,78154932750627.0,0.3919329160781171,4.7984314,-1.434905026001681,175,1970-01-01 21:42:34.932750627,-2.4174652,-0.30012512,1.2424316,7.605956416256714,2.734565662320913,103.89830780029297,13.14522647857666,-155.30667114257812,23918163.0,50354.0,0.015233679513697515,0.020711164164799963,-0.008387162447588654,-0.0035439858444269666,0.008690911351617142,0.0023010818254535657,23.91816379300144
1634,B,78154983104630.0,0.717051916078117,0.9623413,0.9281626739983186,175,1970-01-01 21:42:34.983104630,-0.11282349,0.66796875,0.83639526,4.273117630146908,1.0763217092592763,104.48754119873047,14.180974006652832,-155.14442443847656,23968517.0,50354.0,0.02792091111919751,-0.34843022573210003,-0.012758252196388653,0.001086503128364398,-0.008250982813079915,-0.0005323781044914167,23.96851779600547
1634,B,78155033458634.0,1.7130084160781172,-0.031402588,2.5513468139983186,175,1970-01-01 21:42:35.033458634,1.8069305,1.0150757,-0.9906616,2.6845527285205346,2.2971257941774326,104.79801940917969,15.582993507385254,-155.0271453857422,24018871.0,50354.0,0.06118162898269751,-0.47003095604797607,0.08760361037929133,0.002243334652145411,-0.020606397173676978,0.001884381582970941,24.018871799999033
1634,B,78155083812638.0,4.845607256078117,6.9141846,1.7276621739983187,175,1970-01-01 21:42:35.083812638,2.7693176,2.526703,-1.4644165,7.032679835891295,4.0246569674136214,104.84616088867188,15.146017074584961,-154.91592407226562,24069225.0,50354.0,0.16512626677787753,-0.32018139728387607,0.10773260929079136,0.005697753891563998,-0.01989517641983604,0.0049179800026336725,24.069225804007147
1634,B,78155134166642.0,-2.046680983921883,19.613052,-8.723647326001682,175,1970-01-01 21:42:35.134166642,3.74234,4.356079,-2.4980621,23.696022486912664,6.262654962976757,105.48963928222656,15.236966133117676,-154.56207275390625,24119579.0,50354.0,0.07046856675407752,0.17440703587819995,-0.1761379181719887,0.0059315711238340325,-0.003670161097110708,-0.0017222404617019058,24.119579808000708
1634,B,78155184520646.0,-2.0568585839218834,17.75998,-3.0992879260016815,175,1970-01-01 21:42:35.184520646,3.544159,1.8246002,-2.1579132,19.824356286693703,4.5328598352315375,105.77836608886719,15.408851623535156,-154.4197235107422,24169933.0,50354.0,-0.1033148156996025,0.447471626664,-0.2976660408396887,-0.0008269700097014827,0.01565703908682497,-0.011928962276037002,24.16993381199427
1634,B,78155234874650.0,-4.727986283921884,4.4611816,-1.6874227260016812,175,1970-01-01 21:42:35.234874650,0.57136536,1.8890839,-1.6069031,11.13358585849265,2.5450410465524422,106.27145385742188,16.398500442504883,-154.18350219726562,24220287.0,50354.0,-0.17082203923770253,0.06599298560319992,-0.12051501408548868,-0.006901943596756529,0.012927498543051292,-0.01052854441985119,24.220287816002383
1634,B,78155285228654.0,8.118968416078117,-6.194153,-1.7830493260016813,175,1970-01-01 21:42:35.285228654,-1.3409882,-0.20724487,0.7779083,8.634455792276922,1.564078358615529,108.98796844482422,15.362476348876953,-153.4410858154297,24270641.0,50354.0,0.08537475714129748,-0.5371002209378001,-0.08737607485328866,-0.00215130622134119,-0.011861066864019228,-0.0052340739462115975,24.270641819995944
1634,B,78155335582658.0,8.371028416078117,-3.075348,3.8705454239983186,175,1970-01-01 21:42:35.335582658,-1.535614,-2.2261047,0.985199,5.133412789456694,2.8782407060492856,108.98350524902344,12.489646911621094,-153.53875732421875,24320995.0,50354.0,0.4151686502431975,-0.7268474266770001,0.05255688925926134,0.012602181367719432,-0.031822409923997826,-0.0008766426357008259,24.320995824004058
1634,B,78155385936662.0,-6.081333283921883,10.749084,-0.12238972600168152,175,1970-01-01 21:42:35.385936662,-0.36878967,-0.8798218,-0.71728516,15.299616394509915,1.1935619888427138,108.89881896972656,13.267443656921387,-153.58287048339844,24371349.0,50354.0,0.057647654342297495,-0.30026754872800004,0.09436731600846134,0.011904096100549008,-0.02585967373577169,0.003699110716025454,24.37134982799762
1634,B,78155436290666.0,0.818751716078117,3.0662231,6.005433073998319,175,1970-01-01 21:42:35.436290666,2.0252533,0.40370178,-0.51034546,5.614980897739366,2.12722320053131,107.97881317138672,14.0541353225708,-153.79676818847656,24421703.0,50354.0,-0.13249601613360248,-0.14564121314330003,0.14811738237251132,-0.001884457204819686,-0.011226644897633723,0.006105037251137748,24.421703832005733
1634,B,78155486644670.0,2.018901316078117,1.3149109,1.3507547739983188,175,1970-01-01 21:42:35.486644670,-0.55856323,-0.71214294,0.7778473,3.120071915331917,1.1933930077795691,108.45635223388672,14.882023811340332,-153.71517944335938,24472057.0,50354.0,0.07144359039059751,-0.38316538928200006,0.18520674144901136,-0.0015371169229316363,-0.013313763829261782,0.008392101465454476,24.472057835999294
1634,B,78155536998673.0,-5.747471283921883,18.465897,-0.2558583260016811,175,1970-01-01 21:42:35.536998673,-3.2821808,-1.0481262,2.3146973,21.295240137254474,4.150795456974768,108.07174682617188,15.126209259033203,-153.85604858398438,24522411.0,50354.0,-0.0938742060804025,0.004552200498299945,0.02756620787121135,-0.0005647356112222203,-0.009532344254007218,0.005356984545035248,24.522411839003325
1634,B,78155587352677.0,-1.2426648839218828,13.124435,-1.8451680260016814,175,1970-01-01 21:42:35.587352677,-3.2723083,-2.128769,2.212326,15.049995074267256,4.487097658385194,107.91682434082031,15.223119735717773,-153.98472595214844,24572765.0,50354.0,-0.1759906582978025,0.301880588764,-0.05289754046438866,-0.006794387690450068,0.007715058335256926,-0.0006377669606984252,24.572765842996887
1634,B,78155637706681.0,3.1029620160781173,7.0354767,3.1754312939983187,175,1970-01-01 21:42:35.637706681,-2.4868774,-1.3204346,1.8678589,7.1534068724810735,3.378905681698903,107.26910400390625,15.05056381225586,-154.20953369140625,24623119.0,50354.0,0.04683670089629752,0.014096896870899973,0.03349203829835134,-0.003251709185497691,0.007955365155829877,-0.0004885723280343217,24.623119847005
1634,B,78155688060685.0,1.2864794160781172,1.5821228,2.931611100998319,175,1970-01-01 21:42:35.688060685,-0.99658203,-0.631485,0.72462463,3.467134962586085,1.3845684895109227,107.0020980834961,16.094141006469727,-154.3077850341797,24673473.0,50354.0,0.11051296693739751,-0.2765038973885,0.15375700637883036,0.00396159258704894,-0.006606621052031616,0.004714369197837404,24.673473850998562
1634,B,78155738414689.0,4.450816606078117,2.2813568,1.7592630739983186,175,1970-01-01 21:42:35.738414689,1.5482635,0.96032715,-0.76657104,2.5620842172393616,1.9766080187599295,107.35432434082031,15.682960510253906,-154.1779327392578,24723827.0,50354.0,0.14444790194982754,-0.3961983741108,0.11810213910389035,0.0064191497959736644,-0.016936625089537877,0.00684459770581846,24.723827855006675
1634,B,78155788768693.0,2.633006516078117,8.016129,4.220658373998319,175,1970-01-01 21:42:35.788768693,2.8367462,2.6517944,-1.7241669,8.304567902336311,4.248752057032912,106.88861083984375,15.675653457641602,-154.19554138183594,24774181.0,50354.0,0.17834941474652752,-0.23420940001340004,0.15055648229621135,0.00812706804246413,-0.015871776529124984,0.006764018110990361,24.774181859000237
1634,B,78155839125416.0,2.203822616078117,19.613052,0.6144418739983188,175,1970-01-01 21:42:35.839125416,3.0181274,3.2453613,-2.2509613,19.867024793615457,4.970743379441966,106.83081817626953,15.50809383392334,-154.0708770751953,24824538.0,50357.0,0.12178410230399574,0.20216273380849994,0.12174057159418333,0.0075569117590566,-0.0008068869850400771,0.0068560313713793035,24.824538582004607
1634,B,78155889479420.0,-3.0303542839218833,15.91124,-0.7103109260016813,175,1970-01-01 21:42:35.889479420,3.056137,1.8293915,-1.6822815,17.92078038139247,3.939126510824894,106.92124938964844,15.784183502197266,-153.97950744628906,24874892.0,50354.0,-0.0208095878013025,0.40092589968399994,-0.0024136951222886575,0.002542235351634308,0.01518396252544067,0.0030042927689328926,24.874892585998168
1634,B,78155939833424.0,-3.2492566839218826,3.681427,-1.090407326001681,175,1970-01-01 21:42:35.939833424,0.5483551,2.3325195,-0.7941284,9.366666403556463,2.5242782036183766,107.42660522460938,16.713512420654297,-153.72706604003906,24925246.0,50354.0,-0.1581017653374025,-0.00018462294100006794,-0.04533668343068866,-0.004504451137973176,0.010089463124558508,-0.00120221128082831,24.92524659000628
1634,B,78155990187428.0,9.616496716078117,-3.8640442,0.3901529739983185,175,1970-01-01 21:42:35.990187428,-1.2534027,-0.792984,0.6894989,6.9895222113155295,1.6356193584463656,109.27259063720703,14.507658958435059,-153.25827026367188,24975600.0,50354.0,0.16030800228959755,-0.49806695324440015,-0.017630303820388663,5.5546427745414656e-05,-0.012544479933619823,-0.001585319838020374,24.975600593999843
1634,B,78156040541431.0,4.473857376078117,-1.6158295,1.1940927739983187,175,1970-01-01 21:42:36.040541431,-1.4116211,-2.5845795,0.21809387,2.3683718403525185,2.953013758504528,112.12440490722656,14.710272789001465,-152.6427459716797,25025954.0,50354.0,0.3547528449782175,-0.6314359801449,0.03988655519731134,0.012967686951661781,-0.02843749535394241,0.0005603456409167822,25.025954597003874
1634,B,78156090895435.0,-6.8515057839218825,3.710785,-2.012785826001681,175,1970-01-01 21:42:36.090895435,0.28282166,-0.98568726,-0.8075104,12.809597788255784,1.3052358070477623,112.49917602539062,15.829456329345703,-152.57708740234375,25076308.0,50354.0,-0.05986205396428249,-0.4407245053765001,-0.02061223497028865,0.007424465445357842,-0.026993784543972294,0.0004852695603557502,25.076308600997436
1634,B,78156141249439.0,-3.6049389839218833,-5.6472473,8.235993473998318,175,1970-01-01 21:42:36.141249439,1.2561798,-1.9241333,-1.0582123,11.124213202033133,2.529839899671167,111.7135238647461,18.667816162109375,-152.89329528808594,25126662.0,50354.0,-0.26326190992000253,-0.5422235113271001,0.15668169895361136,-0.008135292038714645,-0.024747682216546545,0.0034258208947081157,25.12666260500555
1634,B,78156191603443.0,-12.45369428392188,9.853531,11.887589673998319,175,1970-01-01 21:42:36.191603443,-0.86260986,-2.8522034,-0.17375183,21.46048616464923,2.984853380648558,110.77652740478516,19.664636611938477,-153.30960083007812,25177016.0,50354.0,-0.40430820978450244,-0.38756759528510004,0.5066514529171113,-0.016807412903800324,-0.023409350691175366,0.016700738764649187,25.17701660899911
1634,B,78156241957447.0,-5.018208283921884,13.9543,1.9991312439983187,175,1970-01-01 21:42:36.241957447,-3.0806122,-1.6721649,2.360962,16.844684855587634,4.226162389807667,110.20941162109375,19.951921463012695,-153.56300354003906,25227370.0,50354.0,-0.43989009095060244,0.10594056108699998,0.34962597255240135,-0.021254380617607736,-0.0070905238400055665,0.021558496741045922,25.227370613007224
1634,B,78156292311451.0,0.329494016078117,10.209412,0.3856058739983186,175,1970-01-01 21:42:36.292311451,-2.9104156,-1.7404327,1.6782074,11.269737944649226,3.783649696439591,109.86881256103516,19.93213653564453,-153.7335205078125,25277724.0,50354.0,-0.11804775912150252,0.11490057702399997,0.060040526419801336,-0.014047201251265387,0.005560117334220646,0.010314173444623148,25.277724617000786
1634,B,78156342665455.0,3.009379816078117,7.8788757,0.24379067399831866,175,1970-01-01 21:42:36.342665455,-2.0014648,-1.8879852,1.8596039,8.432580367639783,3.3209149531346465,109.69703674316406,19.6122989654541,-153.8706817626953,25328078.0,50354.0,0.08406282647219751,-0.038060380577100025,0.015846316888911336,-0.0008556386493115523,0.0019346056259436002,0.001910603053983459,25.328078620994347
1634,B,78156393019459.0,0.7955737160781169,1.9060669,-1.731032326001681,175,1970-01-01 21:42:36.393019459,-1.2817078,-0.41549683,0.5519867,6.170689572618899,1.4560569416399136,110.54663848876953,20.111244201660156,-153.5876922607422,25378432.0,50354.0,0.09579731507909751,-0.24711370015980003,-0.037444283072488656,0.004528338783836955,-0.007179827830712933,-0.0005437719946039262,25.37843262500246
1634,B,78156443373463.0,4.070521816078117,2.7999268,4.620301273998319,175,1970-01-01 21:42:36.443373463,0.79429626,1.1317444,-0.583725,3.2882113639218526,1.5008287081497167,109.41740417480469,19.935245513916016,-153.9286346435547,25428786.0,50354.0,0.12251368721309752,-0.3749863966151,0.07274312430371135,0.005496416104710594,-0.01566261413650166,0.000888718925678494,25.428786628996022
1634,B,78156493727467.0,5.8740191160781166,12.822159,7.183152273998319,175,1970-01-01 21:42:36.493727467,2.6729584,2.3490906,-1.4409332,13.594748821994942,3.839169407827839,108.67378234863281,19.430744171142578,-154.0980224609375,25479140.0,50354.0,0.2503737070488975,-0.10015194581340008,0.29717554997791135,0.009388185925334249,-0.011962558047322347,0.009313442462388416,25.479140633004135
1634,B,78156544081471.0,2.078486916078117,19.613052,5.505799373998318,175,1970-01-01 21:42:36.544081471,3.4835052,2.4849243,-1.8448792,19.91489068181945,4.6597464005834235,108.2347412109375,19.20886993408203,-154.16236877441406,25529494.0,50354.0,0.20022024437159752,0.32315210734699995,0.31946973564161135,0.011344603914913804,0.005614475066931444,0.015525278356042723,25.529494636997697
1634,B,78156594435474.0,-3.3067362839218832,14.090027,1.5034341739983186,175,1970-01-01 21:42:36.594435474,2.9835358,2.1700134,-1.452179,16.10898710596775,3.964753192079199,108.13953399658203,19.484146118164062,-154.1242218017578,25579848.0,50354.0,-0.0309236343342025,0.35507321998299995,0.17647147303791133,0.004262380750911495,0.017075679066187406,0.012486311810924343,25.579848640001728
1634,B,78156644789478.0,1.364146716078117,2.7642822,-1.5675039260016814,175,1970-01-01 21:42:36.644789478,0.54208374,2.3804016,-0.25575256,6.070184771922483,2.4547048560675275,109.0628433227539,19.808361053466797,-153.7124481201172,25630202.0,50354.0,-0.048908577549602504,-0.06912825727160006,-0.0016130841461886665,-0.0020099355985985588,0.007199236326184916,0.004402409657126902,25.63020264399529
1634,B,78156695143482.0,9.354548716078117,-4.424286,0.6063699739983188,175,1970-01-01 21:42:36.695143482,-1.1290131,-0.30082703,0.75717163,7.05473867690368,1.3922917651221989,111.15559387207031,17.770797729492188,-153.04408264160156,25680556.0,50354.0,0.26986459489539755,-0.5352631156726,-0.024198469509588663,0.005563009648715082,-0.015216761596616127,-0.0006498574863915058,25.680556648003403
1634,B,78156745497486.0,4.894023416078117,0.19993591,0.4708414739983189,175,1970-01-01 21:42:36.745497486,-1.3520966,-1.5698547,0.18826294,2.514788228418619,2.0803970605202013,112.38500213623047,17.31746482849121,-152.72579956054688,25730910.0,50354.0,0.3587363005712975,-0.5998256622159301,0.02712095262621135,0.01582628474516498,-0.028578130160899523,7.35793574272094e-05,25.730910651996965
1634,B,78156795851490.0,-0.22945068392188261,5.9093475,0.14305217399831882,175,1970-01-01 21:42:36.795851490,0.5393677,-0.48727417,-0.46502686,7.988483456637753,0.8629041737492863,112.4678726196289,17.787704467773438,-152.7218780517578,25781264.0,50354.0,0.1174399476774975,-0.33965577158643007,0.015456000375611349,0.011988689402159913,-0.023653324058842025,0.00107195994572689,25.781264656005078
1634,B,78156846205494.0,-3.617298583921883,3.0507965,10.574769073998318,175,1970-01-01 21:42:36.846205494,1.2267761,-1.3024597,-0.55618286,11.475401214940378,1.873691608406538,111.427001953125,18.78842544555664,-153.1144256591797,25831618.0,50354.0,-0.0968496063165025,-0.2678796545120001,0.26984258556081137,0.0005184030244457714,-0.015295919422880177,0.007182962498121315,25.83161865999864
1634,B,78156896559498.0,-10.622776283921883,13.566071,12.651932673998319,175,1970-01-01 21:42:36.896559498,-1.668045,-2.0730743,0.51919556,22.43943822540658,2.711009997190937,110.35755920410156,19.517969131469727,-153.53878784179688,25881972.0,50354.0,-0.3585223649477025,-0.0751063269525,0.5847786699093114,-0.01146490012051889,-0.00863535805533172,0.02151679934897128,25.881972664006753
1634,B,78156946913502.0,-3.752598283921883,15.859085,2.0728617139983188,175,1970-01-01 21:42:36.946913502,-3.4941864,-1.4628143,1.8468475,17.839139780406004,4.214262683137549,109.74443054199219,19.663660049438477,-153.7809295654297,25932326.0,50354.0,-0.36192880549460255,0.247367952612,0.3707261483065914,-0.018138799118225916,0.004337030949229232,0.024056744808221783,25.932326668000314
1634,B,78156997267506.0,0.5573382160781173,10.8676605,1.3233652739983186,175,1970-01-01 21:42:36.997267506,-2.8552399,-1.8986511,1.7959747,11.628073578052,3.8707616833284,109.27574920654297,19.606416702270508,-154.00308227539062,25982680.0,50354.0,-0.0804470627281025,0.17943007145349996,0.08550680687679134,-0.011137697234243045,0.010745493851897093,0.011486577112652028,25.982680671993876
1634,B,78157047621510.0,1.9760547160781172,6.3802795,4.348298073998318,175,1970-01-01 21:42:37.047621510,-1.793457,-1.2214203,1.6018982,6.962689454260087,2.697115756370929,108.4021224975586,19.62949562072754,-154.34552001953125,26033034.0,50354.0,0.06378323385289753,-0.059217814620000045,0.14279546811251131,-0.0004195452195910355,0.0030265839902970273,0.005747966377405674,26.03303467600199
1634,B,78157097975514.0,1.5186572160781169,1.2478333,3.0508280239983185,175,1970-01-01 21:42:37.097975514,0.3194275,-0.08590698,-0.06700134,3.1165172355159636,0.33749535779143097,108.16376495361328,20.692293167114258,-154.43588256835938,26083388.0,50354.0,0.08798636231589751,-0.30141620403440006,0.18628779776926135,0.003821103122741753,-0.009079682687661832,0.008285329385105391,26.08338867999555
1634,B,78157148329517.0,4.265941116078117,5.3111877,4.471131373998318,175,1970-01-01 21:42:37.148329517,2.8826904,1.024353,-1.1653748,5.533330820839302,3.27372898012896,107.46942138671875,20.3385066986084,-154.6676483154297,26133742.0,50354.0,0.1456388322086975,-0.3283327282830001,0.18938037176336134,0.0058819815225457294,-0.015855188868955185,0.009458197504322842,26.133742682999582
1634,B,78157198683521.0,2.299022216078117,12.107895,5.4586343739983185,175,1970-01-01 21:42:37.198683521,3.718872,2.2501678,-1.79216,12.543044203945058,4.701606272981697,106.9682388305664,20.18347930908203,-154.7799835205078,26184096.0,50354.0,0.1652860818136975,-0.05490895486210007,0.2500017122373113,0.007828156560341838,-0.009648875856544187,0.011062322728884936,26.184096687007695
1634,B,78157249037525.0,-5.234608283921882,17.071655,-2.678145326001681,175,1970-01-01 21:42:37.249037525,3.0518951,2.9694824,-2.0910492,20.37372885107147,4.743877757924882,107.21297454833984,20.43791961669922,-154.58575439453125,26234450.0,50354.0,-0.07390925043010248,0.24118433034999995,0.07000437276141135,0.002300594483744772,0.004689855128658856,0.008056793202012842,26.234450691001257
1634,B,78157299391529.0,-3.266621283921883,11.495575,-4.35204982600168,175,1970-01-01 21:42:37.299391529,1.418396,2.903061,-1.0971222,15.601641037910987,3.412226180116119,107.69017791748047,20.68231773376465,-154.29779052734375,26284804.0,50354.0,-0.21403545682960248,0.22576794970999994,-0.17699922334198864,-0.007249583894677592,0.011756457555070618,-0.002693809353067195,26.28480469499482
1634,B,78157349745533.0,5.675380216078117,0.49224854,0.16063027399831853,175,1970-01-01 21:42:37.349745533,-0.54164124,1.0779419,0.27537537,3.093673726458875,1.237402750541223,108.90229797363281,19.86941909790039,-153.82403564453125,26335158.0,50354.0,0.0606453236348975,-0.19165176673342002,-0.10552737006078865,-0.0038619033834430875,0.0008589431388013528,-0.007113172042101725,26.335158699002932
1634,B,78157400099537.0,8.172236916078116,-2.2348785,2.2314463039983186,175,1970-01-01 21:42:37.400099537,-2.0440521,-1.7886047,0.41435242,4.4628935032226575,2.7475341104955104,110.04585266113281,17.283510208129883,-153.51077270507812,26385512.0,50354.0,0.3486414565362975,-0.5373433945029201,0.060225312004221335,0.010304613264370177,-0.018353911174447336,-0.0011405699156901952,26.385512702996493
1634,B,78157450453541.0,4.3974413630781175,4.0029297,2.931061783998319,175,1970-01-01 21:42:37.450453541,-0.91111755,-2.6789703,-0.37931824,4.003022147462914,2.8549780008603904,109.44743347167969,16.937559127807617,-153.78724670410156,26435866.0,50354.0,0.3164667900343165,-0.4489549749376001,0.12997646613149136,0.01674543032390835,-0.02483203404740398,0.004788710168122839,26.435866707004607
1634,B,78157500807545.0,10.829555016078118,10.7026825,4.558930473998319,175,1970-01-01 21:42:37.500807545,0.5166168,-2.0688019,0.21008301,12.606759434797182,2.1426546829987583,108.84012603759766,15.942749977111816,-154.0633087158203,26486220.0,50354.0,0.38337008783801657,-0.12322600164060005,0.18857553507958139,0.01761979307419173,-0.014405800447309347,0.008020183734491178,26.486220710998168
1634,B,78157551161549.0,17.627848716078116,3.4911041,3.2218790439983187,175,1970-01-01 21:42:37.551161549,0.076690674,-0.8374939,1.018219,13.711531002734583,1.3206238768009553,108.52690887451172,13.058775901794434,-154.1967315673828,26536574.0,50354.0,0.7164720537644975,-0.13611223477180007,0.19589744123460134,0.0276907255991265,-0.006529358778154998,0.00967987612466218,26.53657471500628
1634,B,78157601515553.0,0.777766716078117,10.281143,4.663224273998319,175,1970-01-01 21:42:37.601515553,-2.2775116,-1.0801544,1.3370972,11.029373025647939,2.853352683812809,107.74019622802734,13.195889472961426,-154.42025756835938,26586928.0,50354.0,0.4633981797353975,-0.14672533476330005,0.19852324623720136,0.029705592868826857,-0.007121001488185215,0.009930329648477577,26.586928718999843
1634,B,78157651869556.0,-1.6512492839218833,17.086838,1.5463571739983186,175,1970-01-01 21:42:37.651869556,-3.2192993,-2.5454254,1.8398285,18.169441031280936,4.497560156280058,107.22845458984375,13.307914733886719,-154.64613342285156,26637282.0,50354.0,-0.021991670610602507,0.195574457637,0.15633863211621135,0.011113291680234963,0.0012298743665911435,0.008934357511303873,26.637282722003874
1634,B,78157702223560.0,2.287990116078117,10.916183,-0.35337732600168126,175,1970-01-01 21:42:37.702223560,-2.2014923,-2.0604858,1.9147034,11.586050713179352,3.5718705448171675,107.07537078857422,13.173169136047363,-154.77920532226562,26687636.0,50354.0,0.0160312239311975,0.21156285971699998,0.03003565363301134,-0.00015006616604737992,0.010250496239021656,0.0046923453923081795,26.687636725997436
1634,B,78157752577564.0,-1.268970983921883,3.427246,2.5127115739983186,175,1970-01-01 21:42:37.752577564,-1.3045197,-0.8835449,1.1490326,6.61285359820661,1.9500510644254574,106.85834503173828,14.152993202209473,-154.87315368652344,26737990.0,50354.0,0.025655844690297507,-0.13234468806700003,0.05436555836181134,0.0010495553266833798,0.001994475907632049,0.0021249693143936504,26.73799073000555
1634,B,78157802931568.0,1.2462420160781171,1.0260773,2.8381815339983185,175,1970-01-01 21:42:37.802931568,0.4746399,0.6899109,-0.2383728,3.2905452949743084,0.8706788595059949,106.79393005371094,15.366410255432129,-154.8599853515625,26788344.0,50354.0,-0.0005722472234024936,-0.3813478792759,0.13471943578003132,0.0006315297334240158,-0.012933237767992194,0.004760592897509173,26.78834473399911
1634,B,78157853285572.0,6.010081716078117,11.059265,5.989197673998319,175,1970-01-01 21:42:37.853285572,2.5569763,1.5458374,-1.2480469,11.592925161309244,3.2381108891759807,106.16265106201172,14.890381813049316,-154.96990966796875,26838698.0,50354.0,0.18269246260449754,-0.18919653691290003,0.22224692631973136,0.00458524066264983,-0.014364596766385419,0.008987342098585725,26.838698738007224
1634,B,78157903639576.0,5.033244586078117,17.29187,3.9866342739983187,175,1970-01-01 21:42:37.903639576,3.902298,1.8159485,-1.6281891,17.337205360168863,4.601803818158165,105.88836669921875,14.54411506652832,-154.98353576660156,26889052.0,50354.0,0.27803782630938756,0.22032732589499995,0.2511615209547114,0.011599806483984886,0.0007837798742023297,0.011919004477028646,26.889052742000786
1634,B,78157953993580.0,-3.9708447839218826,18.80632,-4.7900686260016805,175,1970-01-01 21:42:37.953993580,3.2622223,2.66687,-2.1103668,21.971784352332097,4.712529889778899,106.24578094482422,14.804230690002441,-154.7818603515625,26939406.0,50354.0,0.026748039818887525,0.41537492962999994,-0.02022806668038864,0.007673593751511582,0.016005075687352925,0.005814211578264624,26.939406745994347
1634,B,78158004347584.0,-2.176151783921883,7.4374084,-6.097273326001682,175,1970-01-01 21:42:38.004347584,1.0129547,2.8964996,-1.037323,13.399490557635758,3.2391088532775876,107.06655883789062,15.223848342895508,-154.4337158203125,26989760.0,50354.0,-0.1547629325886025,0.16726914992679992,-0.2741106083255887,-0.0032230309552631143,0.01466922999100155,-0.007410564820625492,26.98976075000246
1634,B,78158054701588.0,4.736125446078117,-1.0238953,-1.2727803260016812,175,1970-01-01 21:42:38.054701588,-1.1243286,0.50035095,0.5783844,4.333897940194975,1.359777330340237,108.48993682861328,15.045881271362305,-154.03240966796875,27040114.0,50354.0,0.0644524568921075,-0.33199618068130005,-0.1855558407964887,-0.0022737468466106545,-0.00414733245330605,-0.011573022189546544,27.040114753996022
1634,B,78158105055592.0,9.011058316078117,-0.5192871,2.6367655239983185,175,1970-01-01 21:42:38.105055592,-2.158844,-1.6202087,0.70861816,4.6771951222847425,2.7906671862788435,108.65168762207031,12.187897682189941,-154.0513458251953,27090468.0,50354.0,0.3461128455798075,-0.5323219032848,0.03434105532996134,0.010336802620335404,-0.021760936400014502,-0.0038071346536907597,27.090468758004135
1634,B,78158155409596.0,2.341014316078117,6.3565826,1.7572641739983186,175,1970-01-01 21:42:38.155409596,-0.041534424,-2.0482178,-0.34635925,6.774023386162951,2.0777117207818834,108.42864227294922,12.370988845825195,-154.1877899169922,27140822.0,50354.0,0.2858111326597975,-0.3465036111965001,0.11062848570646133,0.015909950000138538,-0.022126189978095692,0.003649898134674014,27.140822761997697
1634,B,78158205763599.0,7.1162677160781165,10.64534,-11.115920326001682,175,1970-01-01 21:42:38.205763599,1.3812103,0.87112427,-0.062072754,17.83079652039235,1.6341518942247284,109.32381439208984,11.892961502075195,-153.97311401367188,27191176.0,50354.0,0.23810598972359748,-0.06541179469980006,-0.23562288593898867,0.013190661390246735,-0.010370794174251149,-0.003146984014654341,27.191176765001728
1634,B,78158256117603.0,3.519221756078117,16.61795,1.8921976739983186,175,1970-01-01 21:42:38.256117603,-1.4817963,-0.28707886,1.6529083,16.671669101398443,2.2383566281451848,108.84423828125,11.607176780700684,-154.09552001953125,27241530.0,50354.0,0.26776971844047753,0.19293865233000002,-0.2322256652094887,0.012736432704446918,0.003210743694555544,-0.011779022972265215,27.24153076899529
1634,B,78158306471607.0,-0.7495465839218829,14.615463,1.2362222739983186,175,1970-01-01 21:42:38.306471607,-3.245575,-0.9905548,1.56073,15.578241957369306,3.735081528605238,108.37356567382812,11.744064331054688,-154.22872924804688,27291884.0,50354.0,0.06973211180937751,0.29289443910100005,0.07876422903071134,0.0084972835802006,0.01223181974295829,-0.003863698578673078,27.291884773003403
1634,B,78158356825611.0,0.29236931607811734,10.626114,0.9194040739983187,175,1970-01-01 21:42:38.356825611,-2.7302704,-1.8855286,1.5347748,11.557124585183406,3.655834821931806,108.02970886230469,11.9251708984375,-154.3827362060547,27342238.0,50354.0,-0.011510352072502486,0.14203798412899996,0.054272204563511346,0.0014658492448953026,0.01095029361966171,0.0033494582886017445,27.342238776996965
1634,B,78158407179615.0,-1.4027602839218831,6.222992,-0.050002026001681354,175,1970-01-01 21:42:38.407179615,-2.0735931,-0.9018097,1.2815247,8.994726917622819,2.5991065072620225,108.0592041015625,12.552909851074219,-154.41641235351562,27392592.0,50354.0,-0.027956313397402493,-0.06925925823800007,0.02188893536241134,-0.0009936522365357977,0.0018323499817577043,0.0019175090199149557,27.392592781005078
1634,B,78158457533619.0,1.120082316078117,1.8551788,1.3704386739983188,175,1970-01-01 21:42:38.457533619,-0.25213623,0.54185486,-0.058242798,4.052553391433061,0.6004761371637523,108.38008880615234,13.496309280395508,-154.31532287597656,27442946.0,50354.0,-0.007116983196402499,-0.2900850937684001,0.033244633486611344,-0.0008830403883422285,-0.009047212750465137,0.001388097862911844,27.44294678499864
1634,B,78158507887623.0,3.176066816078117,3.9930573,3.7802744339983185,175,1970-01-01 21:42:38.507887623,2.0563202,1.5685272,-1.31781,4.255504404795121,2.902645954670993,107.78790283203125,13.64862060546875,-154.3857421875,27493300.0,50354.0,0.10816414670029752,-0.3462281597103001,0.12967950392003133,0.002544064435537565,-0.016020458782833234,0.0041019410074870435,27.493300789006753
1634,B,78158558241627.0,4.183619956078117,15.846298,6.490418473998319,175,1970-01-01 21:42:38.558241627,3.0723114,2.7847595,-2.066269,16.244065013390436,4.632866325696352,107.23410034179688,13.429255485534668,-154.39212036132812,27543654.0,50354.0,0.1852948338625775,0.006026248388099993,0.25858523534463135,0.0073884167536315045,-0.008565263521359032,0.009775341340466412,27.543654793000314
1634,B,78158608595631.0,-2.4441722839218833,19.613052,4.004075073998319,175,1970-01-01 21:42:38.608595631,3.7578125,1.7940216,-1.6131744,20.791724169673035,4.465646642003616,106.96329498291016,13.641838073730469,-154.39256286621094,27594008.0,50354.0,0.043794074041877504,0.39929085495,0.2642198640579113,0.005767771434310464,0.010204668710743344,0.013162663987657816,27.594008796993876
1634,B,78158658949635.0,-5.331684283921883,7.749817,-0.6089925260016815,175,1970-01-01 21:42:38.658949635,1.8541107,2.8009949,-1.849762,12.91066496963791,3.8346992547427368,107.22461700439453,14.514233589172363,-154.1944580078125,27644362.0,50354.0,-0.19577274080860252,0.19544575281299997,0.08547799331091134,-0.0038263668931858355,0.014973683573649052,0.008804342954974849,27.64436280100199
1634,B,78158709303639.0,-0.6821179839218825,2.0419617,-0.6759176260016813,175,1970-01-01 21:42:38.709303639,-0.58377075,0.7193146,-0.021209717,6.53138172979279,0.9266345743732761,107.84896850585938,15.410696983337402,-153.9923858642578,27694716.0,50354.0,-0.1514094996975025,-0.24694158767010005,-0.03235018289698867,-0.008741007269222207,-0.0012965106341972087,0.001337598882791331,27.69471680499555
1634,B,78158759657642.0,8.251262116078117,-5.643875,1.4682169739983186,175,1970-01-01 21:42:38.759657642,-1.6935425,-1.7398987,1.2827301,7.001469482061123,2.7460390010001587,110.06082916259766,13.604696273803711,-153.51443481445312,27745070.0,50354.0,0.19056834181529753,-0.5841545711541001,0.01994772068451134,0.0009859021679997253,-0.020924507990716885,-0.00031225679112354174,27.745070807999582
1634,B,78158810011646.0,-4.425160283921882,5.675949,-0.48405352600168117,175,1970-01-01 21:42:38.810011646,-1.1278839,-2.3619385,-0.23109436,11.009289079511213,2.6275996979915472,110.1458511352539,14.569565773010254,-153.58444213867188,27795424.0,50354.0,0.09632976582819751,-0.49266167290200014,0.024778283130211343,0.007223233656140275,-0.027111002576600436,0.001126066598043273,27.795424812007695
1634,B,78158860365650.0,-1.715977283921883,17.50293,17.260285673998318,175,1970-01-01 21:42:38.860365650,1.7139282,-1.3889465,-0.2986908,23.430310200446964,2.226193713184486,108.98365020751953,14.787264823913574,-153.95863342285156,27845778.0,50354.0,-0.15461542054560248,0.09010543658299994,0.4223751967901114,-0.0014674579288201052,-0.010135158361803467,0.011257983163953966,27.845778816001257
1634,B,78158910719654.0,-2.376041883921883,-2.034729,5.4586343739983185,175,1970-01-01 21:42:38.910719654,0.17814636,-2.7243805,1.3894958,7.490116330222091,3.0634431302994902,108.24686431884766,17.548681259155273,-154.31251525878906,27896132.0,50354.0,-0.10302476658880251,-0.10402630342300008,0.5719942500484113,-0.0064866069914829155,-0.00035048566443068364,0.025035239563053487,27.89613281999482
1634,B,78158961073658.0,-8.904713283921883,14.256317,2.212922133998319,175,1970-01-01 21:42:38.961073658,-3.0599976,-0.9748993,0.8019104,19.49374652028307,3.310147163914984,107.78157806396484,18.150516510009766,-154.4651336669922,27946486.0,50354.0,-0.2840155728608025,-0.18576627892400008,0.19314677820183135,-0.009744514626322705,-0.007296107845750424,0.01926395566825636,27.946486824002932
1634,B,78159011427662.0,-0.7556347839218827,17.547318,1.8266000739983186,175,1970-01-01 21:42:39.011427662,-3.4317017,-2.0868683,1.8442383,18.313873013238823,4.41959395946219,107.21336364746094,18.059221267700195,-154.70941162109375,27996840.0,50354.0,-0.24321858330410248,0.30725091839499996,0.10170305063073135,-0.013274174349763813,0.003058618767961364,0.007423434140517432,27.996840827996493
1634,B,78159061781666.0,1.771296916078117,9.267166,1.3400888739983188,175,1970-01-01 21:42:39.061781666,-2.5052032,-0.59051514,1.7127075,9.754293531753884,3.0916206404434083,106.88082122802734,17.92458724975586,-154.82421875,28047194.0,50354.0,0.02557132550129751,0.18163906366799998,0.07972772764371135,-0.005479705009701221,0.01230878307840015,0.004567882704615644,28.047194832004607
1634,B,78159112135670.0,1.3393817160781172,2.5381622,3.0981150039983185,175,1970-01-01 21:42:39.112135670,-1.0454865,0.054473877,0.9128723,3.9581911453124654,1.3890087332572647,106.4792709350586,18.65891456604004,-154.9442901611328,28097548.0,50354.0,0.07831755592179751,-0.19624645190860004,0.11174065903632133,0.0026156103675892633,-0.0003677702137335879,0.004820599571443184,28.097548835998168
1634,B,78159162489674.0,1.538478316078117,0.65789795,4.212662773998319,175,1970-01-01 21:42:39.162489674,1.4383698,1.1222992,-0.7631836,3.1817421018089087,1.977602685875411,105.89277648925781,19.84903907775879,-155.09947204589844,28147902.0,50354.0,0.07245588202959752,-0.41300199360345,0.18406345211662137,0.0037960228473022726,-0.015339048112656885,0.007447460106497638,28.14790284000628
1634,B,78159212843678.0,4.3669390440781175,16.390533,5.187043273998318,175,1970-01-01 21:42:39.212843678,3.2422638,1.4161377,-1.848526,16.54621375621115,3.99183778563555,105.47594451904297,19.47341537475586,-155.2069091796875,28198256.0,50354.0,0.14868069287665353,-0.06424085397184999,0.23665639917041137,0.005567555546414683,-0.012015543173403328,0.010592463695853623,28.198256843999843
1634,B,78159263197681.0,0.22536801607811707,19.522903,-2.9629813260016813,175,1970-01-01 21:42:39.263197681,4.834427,1.3773346,-1.5211487,20.80805475386414,5.251916639303964,105.78181457519531,19.329349517822266,-155.10415649414062,28248610.0,50354.0,0.11562051485355353,0.410723378172,0.05599520766471133,0.006654311507023423,0.008723390511787178,0.007368089505287885,28.248610847003874
1634,B,78159313551685.0,-8.115666283921882,13.872223,-4.023390726001681,175,1970-01-01 21:42:39.313551685,2.6174774,1.8674927,-2.8980865,19.91524415422197,4.328697527611083,106.18185424804688,19.927427291870117,-154.89112854003906,28298964.0,50354.0,-0.1986540394895025,0.34731988730200003,-0.1758958891532887,-0.0020905350497592875,0.0190852552948389,-0.0030187394578379124,28.298964850997436
1634,B,78159363905689.0,2.991237116078117,0.8048401,-4.164641326001682,175,1970-01-01 21:42:39.363905689,0.44883728,2.1308136,-0.42573547,7.265151955658007,2.218799718829728,107.62443542480469,19.9824275970459,-154.30465698242188,28349318.0,50354.0,-0.12901775315880248,-0.12394478233130005,-0.20615008297328868,-0.008249792723506375,0.005623915017847314,-0.00961877144023084,28.34931885500555
1634,B,78159414259693.0,10.084636216078117,-3.9848022,2.9624796309983186,175,1970-01-01 21:42:39.414259693,-1.4649353,-1.3328094,0.931015,6.965577829215282,2.1884252923368095,108.35350036621094,17.204254150390625,-154.12002563476562,28399672.0,50354.0,0.32921126288369756,-0.5735311057917001,-0.030266824995099688,0.005040271994343684,-0.017560350435272775,-0.005952268491920114,28.39967285899911
1634,B,78159464613697.0,4.047465776078117,6.0449524,3.876709973998319,175,1970-01-01 21:42:39.464613697,-2.5052795,-1.3029022,0.040740967,6.128358567819283,2.824117444844882,107.52295684814453,16.917476654052734,-154.38633728027344,28450026.0,50354.0,0.3558039318565175,-0.4416007984146001,0.17219027668500034,0.017246627557974393,-0.025557975952202022,0.0035732067431966286,28.450026863007224
1634,B,78159514967701.0,1.8928790160781173,2.5871735,2.851670303998319,175,1970-01-01 21:42:39.514967701,1.0251923,0.30732727,-1.1051788,3.5836361904074883,1.5384698511294859,107.28575897216797,17.62386131286621,-154.44174194335938,28500380.0,50354.0,0.14956006083211754,-0.27613816621570003,0.16940043025912135,0.012723549243921765,-0.018070513912497067,0.008600229228732152,28.500380867000786
1634,B,78159565321705.0,-7.1423992839218835,4.132324,-3.937163326001681,175,1970-01-01 21:42:39.565321705,1.5673065,2.2661133,-0.6930084,14.025136209066705,2.8411229814722385,107.9764633178711,18.557222366333008,-154.1380615234375,28550734.0,50354.0,-0.1321671717835025,-0.3242924114425001,-0.027329457814978655,0.00043790076757698046,-0.015117040653700507,0.0035769208732261805,28.550734870994347
1634,B,78159615675709.0,-2.776005283921883,17.698242,0.3211984739983187,175,1970-01-01 21:42:39.615675709,-2.2419586,-0.942688,1.5439606,19.26351799915187,2.8807730496882806,107.60690307617188,18.58436393737793,-154.28517150878906,28601088.0,50354.0,-0.2497156718046025,0.05615896018199999,-0.09103914707888866,-0.00961466435301772,-0.006750795902385611,-0.0029801663654128977,28.60108887500246
1634,B,78159666029713.0,-1.4528392839218833,9.978531,-1.8715810260016812,175,1970-01-01 21:42:39.666029713,-3.5026245,-0.9414978,1.2839203,12.509169157596043,3.8474989060631555,107.5975341796875,18.76955795288086,-154.2932891845703,28651442.0,50354.0,-0.10646961968460252,0.20334891382099998,-0.03903398151178866,-0.008967677083823716,0.006533629743773531,-0.0032748511585274833,28.651442878996022
1634,B,78159716383717.0,1.881175516078117,11.6840515,1.5871591739983186,175,1970-01-01 21:42:39.716383717,-2.418686,-2.6931152,2.1894836,12.020924590195937,4.230455044287316,107.13822174072266,18.543405532836914,-154.55416870117188,28701796.0,50354.0,0.010784221316997494,0.051929639602499994,-0.00716088896788866,-0.002409071274701192,0.006427148139543459,-0.001163048254066836,28.701796883004135
1634,B,78159766737721.0,-3.8646892839218827,4.572235,2.4678659739983186,175,1970-01-01 21:42:39.766737721,-1.8967896,-1.251709,1.1839447,9.431237010924033,2.562481465300237,106.86940002441406,19.473421096801758,-154.68479919433594,28752150.0,50354.0,-0.04993892613300249,-0.08418467478950002,0.10209336815111135,-0.0009857980031525578,-0.0008120850209030997,0.0023901150283959977,28.752150886997697
1634,B,78159817091724.0,3.470561476078117,1.9472656,1.6479349739983187,175,1970-01-01 21:42:39.817091724,0.19618225,0.45547485,-0.5625458,2.4956972700219047,0.7499350580518457,107.28863525390625,19.553388595581055,-154.51980590820312,28802504.0,50354.0,-0.009922955818082491,-0.32932773339380006,0.10362352046771135,-0.0015071426018824666,-0.010411001900830948,0.0051793341047560995,28.802504890001728
1634,B,78159867445728.0,6.178309916078117,3.8036041,6.642655373998318,175,1970-01-01 21:42:39.867445728,2.539795,1.7402954,-1.4273529,5.6187473017620695,3.393600303869707,106.18976593017578,18.943326950073242,-154.8262939453125,28852858.0,50354.0,0.24292963504031753,-0.3486795535631001,0.20873219319151134,0.005866409162778211,-0.017070189463713876,0.00786417980279825,28.85285889399529
1634,B,78159917799732.0,1.3703112160781172,19.325699,1.5513620739983187,175,1970-01-01 21:42:39.917799732,3.7137146,3.2090607,-2.1348572,19.605371733743223,5.352323044335935,106.12393188476562,18.75929069519043,-154.73394775390625,28903212.0,50354.0,0.19005163424429752,0.08885726414869996,0.2063007772882113,0.010901169416778754,-0.006541545780586352,0.010449285097767979,28.903212898003403
1634,B,78159968153736.0,-7.928028283921884,19.613052,-1.3787833260016815,175,1970-01-01 21:42:39.968153736,4.193405,2.0202942,-1.4923248,23.546851566389698,4.888074002843418,106.2896499633789,19.11927604675293,-154.63609313964844,28953566.0,50354.0,-0.1651036426171025,0.48689173392699997,0.004345015138311335,0.0006281155851978891,0.014495632524551898,0.005303429115922561,28.953566901996965
1634,B,78160018507740.0,-3.6742142839218834,8.733871,-2.8875723260016817,175,1970-01-01 21:42:40.018507740,1.1161652,3.6835022,-0.5813141,13.220198527644015,3.892549202509159,106.77010345458984,19.562591552734375,-154.32052612304688,29003920.0,50354.0,-0.29210966113060255,0.22022128037099997,-0.10741403625048868,-0.011511259348455972,0.017802984360980746,-0.002594968744541289,29.003920906005078
1634,B,78160068861744.0,7.4454455160781166,-3.2501373,-4.731383326001682,175,1970-01-01 21:42:40.068861744,-1.4607849,0.8060913,0.7793274,8.86543168022726,1.841474111790459,109.59071350097656,18.633249282836914,-153.34722900390625,29054274.0,50354.0,0.09494828873199748,-0.35540523663510004,-0.19182244645048868,-0.00496393187287968,-0.0034035264668612476,-0.007533876924962508,29.05427490999864
1634,B,78160119215748.0,8.754527716078117,-1.2265015,3.5497599039983188,175,1970-01-01 21:42:40.119215748,-2.42836,-2.3226013,0.7276764,4.594328730400217,3.438156778199425,109.28926086425781,15.776631355285645,-153.51284790039062,29104628.0,50354.0,0.4078667260659975,-0.6061775350676001,-0.02974973289577867,0.01265937362756912,-0.024209769443158884,-0.005578522759400973,29.104628914006753
1634,B,78160169569752.0,-1.258594983921883,9.856308,3.0984964739983187,175,1970-01-01 21:42:40.169569752,-0.6049652,-3.000595,-0.5496216,11.352382272654015,3.1099255859943984,108.77130126953125,16.21746826171875,-153.77491760253906,29154982.0,50354.0,0.18872509839749751,-0.2761965617495,0.16738315082882135,0.015020392364517415,-0.022215532635564132,0.0034651965633002157,29.154982918000314
1634,B,78160219923756.0,-3.889378283921883,9.013153,11.668839673998319,175,1970-01-01 21:42:40.219923756,2.3242188,-2.1361694,-0.46940613,15.032518596496098,3.1914816074436927,107.7465591430664,16.8741455078125,-154.18907165527344,29205336.0,50354.0,-0.1296105229645025,-0.01839278040300001,0.37179722219811134,0.0014883276656765152,-0.007416875867373494,0.013574944251699085,29.205336921993876
1634,B,78160270277760.0,-2.1975142839218833,-1.2213593,-6.359786326001682,175,1970-01-01 21:42:40.270277760,-0.22116089,-3.047821,1.6286926,11.43712479831625,3.4627683394361446,108.89289093017578,17.568035125732422,-154.00909423828125,29255690.0,50354.0,-0.15324969418060252,-0.2972952100151,0.13366603614251132,-0.007121571687062309,-0.007948076534756505,0.012726048455241858,29.25569092600199
1634,B,78160320631764.0,-11.311329283921882,19.613052,-0.35119532600168135,175,1970-01-01 21:42:40.320631764,-2.4994812,-1.4054108,1.4170074,25.324756100900835,3.1985146173755155,108.54550170898438,18.03408432006836,-154.162841796875,29306044.0,50354.0,-0.3401121545076025,-0.030421552892100034,-0.1689623850524887,-0.012421371264422939,-0.008250924939714575,-0.0008886561765065004,29.30604492999555
1634,B,78160370985767.0,-1.8404582839218833,19.146805,1.3426523739983187,175,1970-01-01 21:42:40.370985767,-2.7617188,-3.046936,2.3243408,20.191231816859137,4.723713568043058,108.0060043334961,17.980361938476562,-154.4593505859375,29356398.0,50354.0,-0.3311225555956025,0.482387719689,0.02496191409741134,-0.016899676296268394,0.011379152181445551,-0.003625499857235983,29.356398932999582
1634,B,78160421339771.0,2.213267716078117,7.963028,1.9715586139983188,175,1970-01-01 21:42:40.421339771,-2.2592773,-0.98854065,1.612915,8.304976925508994,2.946700075036941,107.58769989013672,17.853605270385742,-154.62158203125,29406752.0,50354.0,0.009386223073397496,0.18907506544100003,0.08344189004479134,-0.008100355643911556,0.01690541854121801,0.0027292825768882372,29.406752937007695
1634,B,78160471693775.0,-2.317173283921883,1.862793,1.6397409739983186,175,1970-01-01 21:42:40.471693775,-0.7744751,-0.76779175,0.8604431,7.060819762804408,1.3891285686449915,107.67385864257812,18.98118019104004,-154.62969970703125,29457106.0,50354.0,-0.002616030481602495,-0.24608450468300003,0.09092168972699134,0.00017045313888362274,-0.0014353266517958341,0.0043899518479141725,29.457106941001257
1634,B,78160522047779.0,2.558436816078117,0.5862274,2.235566173998319,175,1970-01-01 21:42:40.522047779,1.5095978,0.97476196,-1.096405,2.0256333567725973,2.105029767118005,108.13079833984375,20.053857803344727,-154.4419403076172,29507460.0,50354.0,0.006074291949097509,-0.4318102133892,0.09756860806511135,8.706864896712197e-05,-0.01706735531690378,0.00474562022751177,29.50746094499482
1634,B,78160572401783.0,4.482432816078117,11.30127,7.749451673998319,175,1970-01-01 21:42:40.572401783,3.0069427,2.283615,-1.7975769,12.289396283287475,4.181851812381914,107.32691955566406,19.721084594726562,-154.63873291015625,29557814.0,50354.0,0.17726797472879752,-0.19417767796020002,0.25139279435901135,0.0046160082481493635,-0.015760497140503846,0.008785801228832138,29.557814949002932
1634,B,78160622755787.0,1.3973040160781172,19.613052,3.4338999239983186,175,1970-01-01 21:42:40.622755787,3.379425,2.9735718,-2.5079498,19.843878557404793,5.152907410355854,107.07489776611328,19.546329498291016,-154.61167907714844,29608168.0,50354.0,0.14803413422319753,0.284860684994,0.2815632431827613,0.00819013119708438,0.0022831260680899828,0.01341823415718921,29.608168952996493
1634,B,78160673109791.0,-8.792713283921884,17.872025,-9.854369326001681,175,1970-01-01 21:42:40.673109791,2.4786377,3.8705597,-2.9325104,25.61170406777642,5.45201746927076,107.69532775878906,19.931659698486328,-154.2286834716797,29658522.0,50354.0,-0.18619421913650255,0.450292583629,-0.16164815813423866,-0.0009607564578622806,0.01850895384412127,0.0030191020962666553,29.658522957004607
1634,B,78160723463795.0,1.932979116078117,3.4798126,-2.1893913260016817,175,1970-01-01 21:42:40.723463795,0.26289368,3.6866608,-0.18519592,6.647447346407922,3.7006591939849347,108.64765930175781,20.016965866088867,-153.7401123046875,29708876.0,50354.0,-0.17270752714380253,0.04410601525519996,-0.30322576193548867,-0.009036069266099242,0.012447473524107503,-0.011704130685595525,29.708876960998168
1634,B,78160773817799.0,8.190730516078117,-2.439331,1.9250955739983187,175,1970-01-01 21:42:40.773817799,-1.7412262,0.055221558,0.5805664,4.640186003556156,1.8362939429305287,110.091552734375,17.51958656311035,-153.2518768310547,29759230.0,50354.0,0.2548846374087975,-0.46727299475680006,-0.006654174148188673,0.002068973105141779,-0.010654075042911786,-0.007801847150778745,29.75923096500628
1634,B,78160824171803.0,6.559855916078117,-3.751114,1.0176096739983187,175,1970-01-01 21:42:40.824171803,-2.1739502,-2.2588043,0.08828735,4.74220371365331,3.13624791653156,112.72603607177734,16.480670928955078,-152.55133056640625,29809584.0,50354.0,0.37137551460239754,-0.649326033765,0.07408849002881135,0.01576735184718586,-0.02811261374109336,0.0016977937709264372,29.809584968999843
1634,B,78160874525806.0,-4.247456283921882,13.095886,2.496857673998319,175,1970-01-01 21:42:40.874525806,-0.44326782,-1.7011108,-0.35183716,15.68347072254442,1.7927782074983671,112.23670196533203,16.966535568237305,-152.75457763671875,29859938.0,50354.0,0.05821928553879753,-0.258195875356,0.08848374442051135,0.010815908283154868,-0.02284867910593942,0.0040930811467305974,29.859938972003874
1634,B,78160924879810.0,4.616527056078117,7.7008667,7.548295073998318,175,1970-01-01 21:42:40.924879810,2.1872559,-0.2776184,-0.074417114,8.98666701347687,2.2060594404864657,111.14517974853516,16.684490203857422,-153.11337280273438,29910292.0,50354.0,0.009292094830577522,0.03013064272789994,0.2529068107363113,0.0016997340235597558,-0.005741998361877676,0.008595190007183326,29.910292975997436
1634,B,78160975233814.0,0.38109921607811703,3.1376038,5.000672373998318,175,1970-01-01 21:42:40.975233814,-0.44326782,-3.008072,1.2727203,5.485140168155084,3.2961796794870937,110.23204040527344,17.511207580566406,-153.5318603515625,29960646.0,50354.0,0.12582523665407752,-0.22058902822150006,0.31594535343821134,0.0034018490547891604,-0.004795170771572371,0.014321990937421957,29.96064698000555
1634,B,78161025587818.0,-8.513783283921882,19.566574,1.4561624739983188,175,1970-01-01 21:42:41.025587818,-2.6205444,-1.8824768,1.9192352,23.47411030580078,3.7542556662844153,109.71654510498047,17.856155395507812,-153.764892578125,30011000.0,50354.0,-0.2047565867761025,0.07815388447059997,0.16256373096801136,-0.0019872546020222232,-0.0035860896142164123,0.01204742321809547,30.01100098399911
1634,B,78161075941822.0,-2.333271483921883,17.23996,-1.9787740260016817,175,1970-01-01 21:42:41.075941822,-2.507141,-2.9226074,2.6442719,19.136220186073995,4.671141604527246,109.43798828125,17.84773826599121,-153.98526000976562,30061354.0,50354.0,-0.2730962978900025,0.433208906518,-0.01315779104478867,-0.012030902077238526,0.012874580988719981,0.0037615933494469776,30.061354988007224
1634,B,78161126295826.0,1.220454716078117,6.404602,1.4556894739983186,175,1970-01-01 21:42:41.126295826,-2.1630554,-0.75379944,1.5613403,7.2870020506833,2.77214822684819,109.15531158447266,17.98273277282715,-154.09762573242188,30111708.0,50354.0,-0.028017387764002498,0.10182993747399999,-0.013169699765788674,-0.007581139263710884,0.013470672975186584,-0.0006628472361379058,30.111708992000786
1634,B,78161176649830.0,2.6361804160781173,2.4355927,2.6125650739983186,175,1970-01-01 21:42:41.176649830,-0.8195343,-0.2010498,0.72727966,3.0066346509967814,1.1139987409356644,108.85305786132812,18.384435653686523,-154.1996612548828,30162062.0,50354.0,0.09709850272229752,-0.2708996180381001,0.10242644475491133,0.001739255231304994,-0.004256667347562348,0.002247217068591141,30.162062995994347
1634,B,78161227003834.0,3.808604716078117,1.9804688,2.1995554339983188,175,1970-01-01 21:42:41.227003834,1.5683594,0.5432129,-0.6388397,2.1822059816156534,1.7784677744032529,108.97404479980469,18.32013511657715,-154.15211486816406,30212417.0,50355.0,0.16226357766486357,-0.38229361158375,0.12115716409008533,0.006530088778947747,-0.01644577253880413,0.005629276311694903,30.21241700000246
