Subject-id_accel,Activity_accel,Timestamp_accel,accel_x,accel_y,accel_z,Segment_accel,DateTime,gyro_x,gyro_y,gyro_z,accel_magnitude,gyro_magnitude,Roll,Pitch,Yaw,Time_Difference,Difference_Microseconds,vx,vy,vz,dx,dy,dz,Time_diff
1615,B,168993318276352.0,12.093374247386606,17.854714130233653,-14.720932,76,1970-01-02 22:56:33.318276352,-0.79003906,-0.2755432,-0.37025452,18.091283475830068,0.9149722296181202,-85.20259094238281,-7.662525177001953,2.639920949935913,15005493.0,50354.0,0.5388313434899052,0.2819460132042853,-0.524682436104,0.022518789823964946,0.008836258515371046,-0.026468839714813314,15.005493656994076
1615,B,168993368630356.0,1.546667117386607,15.57312834723365,-8.364243,76,1970-01-02 22:56:33.368630356,-1.2059631,-1.5105133,-0.32017517,8.368851820522554,1.9592114657491746,-88.1617202758789,-7.609925746917725,3.098447799682617,15055847.0,50354.0,0.3434153214408952,0.3481435900551943,-0.581215450975,0.022212324282962766,0.01586376594126392,-0.02784319110298799,15.055847660987638
1615,B,168993418984360.0,3.246297847386607,6.84882413023365,1.5630798,76,1970-01-02 22:56:33.418984360,-2.4409485,-0.44262695,-0.086746216,8.99399996835765,2.4822717624202375,-88.08074188232422,-7.654181003570557,3.0933167934417725,15106201.0,50354.0,0.12067247891809521,0.07104829752519419,-0.1712328858864,0.011684338549638303,0.010553994153611442,-0.01894439177715947,15.1062016649812
1615,B,168993469338364.0,1.7853756173866069,-2.0862188697663484,-0.9475708,76,1970-01-02 22:56:33.469338364,-5.0442657,-5.091507,-2.300415,17.70262032815098,7.527281657774637,-88.49208068847656,-7.583561897277832,3.3626086711883545,15156555.0,50354.0,0.1266824428225952,-0.3735610873572148,0.015496670092999997,0.006227654864665363,-0.007616364509600784,-0.003920970705030433,15.156555668974761
1615,B,168993519692367.0,1.5948391173866068,-3.795371869766349,-5.0398407,76,1970-01-02 22:56:33.519692367,-6.0610046,4.893921,1.5955353,20.03205178575771,7.951853394587217,-89.16331481933594,-7.300640106201172,3.1691670417785645,15206909.0,50354.0,0.0851036663773852,-0.6415500100492147,-0.1507450593355,0.005332138871327907,-0.025557452099401683,-0.003405148695958423,15.206909671978792
1615,B,168993570046371.0,3.031377847386607,-3.795371869766349,-2.1775818,76,1970-01-02 22:56:33.570046371,-3.7338715,-5.513748,-3.0646057,19.54560810110027,7.330417551714823,-89.56703186035156,-7.364392280578613,3.4681711196899414,15257263.0,50354.0,0.11647426452209521,-0.6845813551302148,-0.1817130462825,0.005075127566256219,-0.0333880093811225,-0.008370297725144388,15.257263676001457
1615,B,168993620400375.0,-2.2267857526133925,29.45372813023365,11.470093,76,1970-01-02 22:56:33.620400375,-2.3342133,-5.891205,-0.58807373,18.443047753951813,6.364014361536121,-86.88860321044922,-6.8477678298950195,3.4137091636657715,15307617.0,50354.0,0.020257215170105224,0.1525312355697852,0.23395755448240002,0.0034424884642105303,-0.013395425860172937,0.0013153599829488825,15.307617679995019
1615,B,168993670754379.0,-4.382440752613393,23.44300143023365,11.444321,76,1970-01-02 22:56:33.670754379,1.8518219,1.3541412,0.61053467,15.203423826733804,2.3739619462259833,-84.16181945800781,-5.6357808113098145,3.062729835510254,15357971.0,50354.0,-0.16640049572209478,0.8383117601438852,0.576916201278,-0.003679449374457441,0.02494645410308308,0.02041536854877959,15.35797168398858
1615,B,168993721108383.0,1.8429470273866069,19.728615430233653,4.816681,76,1970-01-02 22:56:33.721108383,3.1429596,2.0327454,-0.34457397,6.349866153736749,3.7588535658169606,-81.1227035522461,-5.837926387786865,2.6719374656677246,15408325.0,50354.0,-0.06393683352003479,0.5934625976959852,0.4094032473540001,-0.0057992029383290965,0.036047783007334425,0.02483256475820787,15.408325687982142
1615,B,168993771462387.0,1.897176767386607,2.78917713023365,-17.494476,76,1970-01-02 22:56:33.771462387,3.962326,2.3334808,-0.16577148,21.678290078392884,4.601373725076678,-82.19182586669922,-5.765955924987793,2.6842188835144043,15458679.0,50354.0,0.09416509678100521,0.07346126329488525,-0.31918884471500003,0.0007610569841214523,0.016791142048167146,0.0022713280152421044,15.458679691975703
1615,B,168993821816391.0,12.272283247386607,15.68204558023365,-8.265808,76,1970-01-02 22:56:33.821816391,-3.4120789,-1.3268738,-1.0628967,13.323015211246808,3.8121681358280277,-84.14507293701172,-8.08432388305664,2.9608685970306396,15509033.0,50354.0,0.35674449479194525,-0.028419225818564823,-0.648566670268,0.011352550787032175,0.0011340233775413197,-0.024365180600726993,15.509033695998369
1615,B,168993872170395.0,-6.653985752613393,11.16590183023365,17.610596,76,1970-01-02 22:56:33.872170395,-3.0193787,5.6181335,-0.38575745,20.039641286250447,6.38974808330238,-83.02752685546875,-7.40824556350708,2.510389804840088,15559387.0,50354.0,0.1414518760259052,0.18248157195333525,0.23527372747600003,0.012543090028081022,0.0038788276886351156,-0.010405476420674182,15.55938769999193
1615,B,168993922524399.0,-5.235956152613393,5.7642901302336504,2.7186127,76,1970-01-02 22:56:33.922524399,1.2698975,3.3710785,0.51216125,12.40140431930569,3.63856002556919,-82.76924896240234,-6.40318489074707,2.3246936798095703,15609741.0,50354.0,-0.2993530673478948,-0.0672177570113148,0.5118284874399001,-0.003975478293913732,0.002901997068795249,0.01880979246493762,15.609741703985492
1615,B,168993972878403.0,-8.837960752613395,-3.3987798697663507,16.058426,76,1970-01-02 22:56:33.972878403,3.259613,3.3172455,2.3627777,27.058402615179652,5.216503913221626,-81.87053680419922,-5.579338073730469,2.1003212928771973,15660095.0,50354.0,-0.35433900592289486,-0.43391274817221487,0.47274950334990007,-0.01645800532873867,-0.012616962729005726,0.024788720074114798,15.660095707979053
1615,B,168994023232407.0,-3.3030643526133927,-3.7938298697663484,7.4093933,76,1970-01-02 22:56:34.023232407,7.898758,1.1050262,0.15254211,21.376499162523324,7.977137954214763,-81.16173553466797,-5.089721202850342,2.019455671310425,15710449.0,50354.0,-0.30567458907429484,-0.6745575354122149,0.5908492865161001,-0.016617162281244244,-0.02790795632980519,0.02677822673245629,15.710449712001719
1615,B,168994073586410.0,20.934377247386607,-3.648200869766349,-19.64598,76,1970-01-02 22:56:34.073586410,5.7306213,5.221756,1.6416473,33.486190021050824,7.924756277965082,-81.81341552734375,-5.722939968109131,1.8618690967559814,15760803.0,50354.0,0.4439035647517052,-0.6808372079292148,-0.30808054334590007,0.0034801909206301613,-0.03412477345310718,0.007119268646796128,15.760803714976646
1615,B,168994123940414.0,0.8258266473866068,17.74936733023365,-3.7417908,76,1970-01-02 22:56:34.123940414,0.917511,0.8830414,0.319458,4.433460803681413,1.3128754560120925,-84.57550811767578,-5.09597110748291,2.0856661796569824,15811157.0,50354.0,0.5478566534587052,-0.13844413202481481,-0.5888339054316001,0.024969547013883504,-0.020627046296022602,-0.022581615076871123,15.811157718999311
1615,B,168994174294418.0,15.050131247386606,10.65218413023365,4.857315,76,1970-01-02 22:56:34.174294418,-1.3397675,1.6525574,0.24157715,14.930543724057406,2.141093747072541,-84.2128677368164,-6.293776988983154,1.962932825088501,15861511.0,50354.0,0.3997089919167052,0.22159666112018517,0.028085552783399997,0.02385686025361671,0.0020935312250341394,-0.014117961274623735,15.861511722992873
1615,B,168994224648422.0,4.628591547386607,18.36122953023365,-4.7130585,76,1970-01-02 22:56:34.224648422,-2.5340881,-0.3896637,-1.2487793,6.144433878514546,2.851822231095022,-86.6966323852539,-8.013545989990234,2.2714414596557617,15911865.0,50354.0,0.49545120380400526,0.2370015157295852,0.0036319459005000007,0.022537448247660328,0.011546126298546669,0.0007985514643645503,15.911865726986434
1615,B,168994275002426.0,-6.0116824526133925,9.76555713023365,-9.024185,76,1970-01-02 22:56:34.275002426,-2.776596,-1.8135529,-0.8412323,13.295345870759176,3.4214224017033765,-87.86160278320312,-7.1430840492248535,2.4929773807525635,15962219.0,50354.0,-0.03482207972089477,0.21467890775058518,-0.34586257959949995,0.011597259457040474,0.01137195802196025,-0.008616340664639724,15.962219730979996
1615,B,168994325356430.0,5.617223747386607,-3.183646869766349,0.667984,76,1970-01-02 22:56:34.325356430,-3.2888489,-0.7172394,-1.4870605,19.165670971128097,3.679987550876201,-88.03277587890625,-7.325394630432129,2.5268893241882324,16012573.0,50354.0,-0.009931286821494781,-0.3277564453722148,-0.21038407257699998,-0.001126755509437742,-0.0028469531646997696,-0.01400462196184774,16.01257373500266
1615,B,168994375710434.0,-9.446420752613394,-3.795371869766349,-1.4113617,76,1970-01-02 22:56:34.375710434,-4.200577,0.54585266,-3.0329895,22.468654571566137,5.209781911603242,-88.37190246582031,-6.606362819671631,2.5090224742889404,16062926.999999998,50353.99999999814,-0.09640769300059124,-0.66917995480519,-0.018716020352899307,-0.002677296494980561,-0.02509986774726559,-0.005768053039695862,16.062927738996223
1615,B,168994426064438.0,14.464651247386605,-2.9633248697663497,-10.405975,76,1970-01-02 22:56:34.426064438,-1.7884674,-3.8819427,-2.434784,24.74545971873582,4.9189702066186625,-89.12252807617188,-7.337118625640869,2.7791433334350586,16113281.0,50354.00000000186,0.12634398916690984,-0.6636329078112393,-0.297525086095911,0.0007537061285794312,-0.03355622944209508,-0.007962002337061992,16.113281742989784
1615,B,168994476418442.0,1.5695400473866068,6.32395213023365,18.926361,76,1970-01-02 22:56:34.476418442,-5.137375,-9.953751,-0.17022705,21.074857387724215,11.202622822766894,-88.15621185302734,-7.255992889404297,3.117032527923584,16163635.0,50354.0,0.40369283422850516,-0.40885868746321485,0.214517758322,0.013344737102626365,-0.02700212089422493,-0.002089875491363757,16.163635746983346
1615,B,168994526772446.0,-4.305856752613393,26.55352113023365,15.093231,76,1970-01-02 22:56:34.526772446,0.47019958,-1.5054779,-0.13749695,19.635568833896233,1.5831793213909435,-85.38741302490234,-6.415482997894287,2.864790916442871,16213989.000000002,50354.00000000186,-0.06889224568749736,0.33428694427879757,0.8565112677840317,0.008429274417697264,-0.0018774927781541435,0.02696529779027256,16.213989750976907
1615,B,168994577126449.0,-2.293756452613393,21.08513713023365,4.412735,76,1970-01-02 22:56:34.577126449,2.517517,1.9033966,0.2556305,8.161631503868861,3.1664108095303756,-82.92862701416016,-4.703653812408447,2.5473384857177734,16264343.0,50353.99999999814,-0.16615846166798864,0.705929299023759,0.49110170598198183,-0.005917871659088852,0.0261895243576275,0.03392885184050567,16.26434375398094
1615,B,168994627480453.0,-0.23914525261339326,12.299660330233651,-2.710434,76,1970-01-02 22:56:34.627480453,3.3509216,1.9667816,-0.04156494,4.736557487793734,3.8856959576995114,-83.6919174194336,-3.9993081092834473,2.521476984024048,16314696.999999998,50353.99999999814,-0.06377086623249244,0.34705984566217235,0.04285883227699841,-0.005788930688550198,0.026511107695756715,0.013443524471745849,16.3146977579745
1615,B,168994677834457.0,1.2256374473866067,0.822899130233651,-19.355667,76,1970-01-02 22:56:34.677834457,1.3374634,2.4424744,0.4563446,24.353560029694815,2.821832726251519,-84.84662628173828,-3.8769736289978027,2.486860752105713,16365051.000000002,50354.000000003725,0.024836913987807033,-0.16308252046382682,-0.5555582248770411,-0.0009802401156645169,0.0046319971165190875,-0.012908232607492229,16.365051761997165
1615,B,168994728188461.0,6.954443047386607,12.966026930233651,-13.093796,76,1970-01-02 22:56:34.728188461,-1.8929443,-1.6799316,-0.5276642,14.305991911320628,2.585311936989943,-86.28035736083984,-4.411362171173096,2.665180206298828,16415405.0,50353.99999999814,0.20594988661689761,-0.14630540857560936,-0.8169801299509698,0.005810519278824433,-0.007789459889425597,-0.03455639815950355,16.415405765990727
1615,B,168994778542465.0,-9.673608752613394,-1.656241869766351,4.6466827,76,1970-01-02 22:56:34.778542465,1.6961517,2.1616974,-0.7507324,21.242615329922167,2.8484145370695977,-85.95024108886719,-3.577655553817749,2.538740873336792,16465758.999999998,50353.99999999814,-0.06846043496049227,-0.2087227415326071,-0.21267297155409207,0.0034615719243531896,-0.008938543735274234,-0.02592357613659198,16.465759769984288
1615,B,168994828896469.0,-5.156732752613393,2.5688101302336506,10.428787,76,1970-01-02 22:56:34.828896469,1.5652161,1.6500397,2.0156708,18.084920097294045,3.038990165375324,-85.11580657958984,-2.85080885887146,2.4218039512634277,16516113.0,50354.00000000186,-0.37338350807710863,-0.4704934689062322,0.379555100636914,-0.01112430495385809,-0.01710062653021929,0.0042015913639183635,16.51611377397785
1615,B,168994879250473.0,-5.203744752613393,-3.795371869766349,4.736023,76,1970-01-02 22:56:34.879250473,7.3901825,-0.11364746,3.782669,21.157668658406152,8.302788561202295,-84.53948211669922,-2.121351957321167,2.436920166015625,16566467.0,50354.0,-0.2608457421490948,-0.5243503449162148,0.38180442137,-0.015967989832945124,-0.02504718270060775,0.019168748685568077,16.566467778000515
1615,B,168994929604477.0,-2.256372452613393,-0.526282869766348,-15.602554,76,1970-01-02 22:56:34.929604477,6.718628,1.4853058,1.6203918,22.800299887269247,7.069071021527855,-85.27394104003906,-1.743807315826416,2.4079513549804688,16616821.000000002,50354.00000000186,-0.18782337087600173,-0.6022755013772371,-0.27358665098701007,-0.011296142258633271,-0.02836505893213129,0.002724598804932638,16.616821781994076
1615,B,168994979958481.0,3.718252247386607,8.97232883023365,-13.027512,76,1970-01-02 22:56:34.979958481,0.79237366,3.4287262,1.3804016,14.734706882916411,3.780149196646978,-86.544921875,-1.8300158977508545,2.2837002277374268,16667175.0,50353.99999999814,0.03680574759300385,-0.28082310085330436,-0.7208191716819733,-0.003802170701395897,-0.022233773508357518,-0.025036155397336068,16.667175785987638
1615,B,168995030312485.0,10.922231247386605,13.95185153023365,-8.811813,76,1970-01-02 22:56:35.030312485,-0.51423645,1.8171539,0.1798706,12.771699003849141,1.8970611101222261,-87.56564331054688,-2.8319218158721924,2.2342917919158936,16717528.999999998,50353.99999999814,0.36860345294789154,0.08369288893548209,-0.5498486855249797,0.010206987442017746,-0.004963147345454827,-0.03199160464089827,16.7175297899812
1615,B,168995080666489.0,8.058187547386607,15.831993700233651,-5.6641846,76,1970-01-02 22:56:35.080666489,-0.6790161,-1.1765594,-0.34902954,8.426665808877747,1.4025606958631707,-89.53083038330078,-4.973789691925049,2.4243741035461426,16767883.000000002,50354.000000003725,0.47787000399604057,0.2563986713674942,-0.3644621915752269,0.021311662225478954,0.008562485213748668,-0.023019604952753604,16.76788379397476
1615,B,168995131020492.0,0.18456074738660688,10.935509130233651,2.2516022,76,1970-01-02 22:56:35.131020492,-2.1896667,-2.3446655,-0.41740417,5.4249634388409556,3.235169671765691,-89.06375122070312,-4.4577202796936035,2.493098258972168,16818237.0,50353.99999999814,0.20752767381749754,0.1804562187626686,-0.0859185870847968,0.01725625733431081,0.010998695568806702,-0.011339236864322996,16.818237796978792
1615,B,168995181374496.0,3.709127447386607,0.525979130233651,-0.17881775,76,1970-01-02 22:56:35.181374496,-4.1249084,-2.7844849,-0.76631165,15.183567795836098,5.035420440404584,-89.32115936279297,-4.564881324768066,2.6354751586914062,16868591.0,50354.0,0.09803138767980521,-0.2049033100662148,0.05218649409765001,0.007693060491317591,-0.0006155044177493825,-0.0008492729051373947,16.868591801001457
1615,B,168995231728500.0,0.7631588473866069,-3.795371869766349,-8.30011,76,1970-01-02 22:56:35.231728500,-5.3341217,0.63464355,-0.16548157,21.115100342367864,5.374291664580287,-90.16563415527344,-4.396831512451172,2.648498058319092,16918945.0,50354.0,0.11259875204350522,-0.5757827010032148,-0.21347396396175003,0.005303035027813787,-0.01965533170069503,-0.004060734628768447,16.91894580499502
1615,B,168995282082504.0,4.438711247386607,-3.795371869766349,-6.9656982,76,1970-01-02 22:56:35.282082504,-3.7233276,2.9768066,-0.22380066,20.76510075298187,4.772277515625192,-90.8183364868164,-4.486308574676514,2.5364041328430176,16969299.0,50354.0,0.1309674833761052,-0.6845813551302148,-0.38434725305140005,0.0061322671091595315,-0.031732185841271354,-0.01505134478074008,16.96929980898858
1615,B,168995332436508.0,9.370534947386608,13.466210130233652,2.0293732,76,1970-01-02 22:56:35.332436508,-2.9644775,-5.314392,-2.5332947,8.098534268614323,6.591545434472733,-90.62492370605469,-5.911205768585205,2.773965358734131,17019653.0,50354.0,0.3476753914458052,-0.24998650511621476,-0.12428185452500001,0.01205079165939124,-0.023529615017424357,-0.012805755041451023,17.019653812982142
1615,B,168995382790512.0,-3.205865752613393,30.813057130233652,13.110016,76,1970-01-02 22:56:35.382790512,-1.0317688,-4.004135,0.3388672,20.70945743286388,4.14879198491733,-87.91551971435547,-5.158524513244629,2.7062180042266846,17070007.0,50354.0,0.15520787631680522,0.6213499118167853,0.3811644018884,0.012661092032459246,0.009349816490500266,0.006467531894968322,17.070007816975703
1615,B,168995433144516.0,-0.566522552613393,22.62383313023365,8.83606,76,1970-01-02 22:56:35.433144516,2.4603882,0.79574585,-0.022460938,11.543422036977425,2.5859671394330017,-84.9692611694336,-4.6009955406188965,2.426957845687866,17120361.0,50354.0,-0.0949774203606948,0.8519113860877853,0.552536355452,0.001516422189606992,0.03709229969734338,0.02350778396755925,17.12036182099837
1615,B,168995483498520.0,2.5974178473866067,13.51574013023365,-4.1845093,76,1970-01-02 22:56:35.483498520,3.5876312,2.2815552,-0.35861206,4.734472739662976,4.266754547362424,-86.10116577148438,-4.800965309143066,2.419276237487793,17170715.0,50354.0,0.05113185083650521,0.41641683597878515,0.11711209197389999,-0.0011038999039105213,0.03193269964697004,0.016859738960841884,17.17071582499193
1615,B,168995533852524.0,2.7106228073866068,2.37125413023365,-9.482834,76,1970-01-02 22:56:35.533852524,0.99705505,0.5617676,-0.054336548,16.29330482744229,1.145711163247011,-86.962890625,-4.786797523498535,2.467355966567993,17221069.0,50354.0,0.1336405395652252,-0.09348234550421482,-0.34410270226410006,0.004652014473144367,0.008130521666678258,-0.005714942595276367,17.22106982898549
1615,B,168995584206528.0,-6.436853752613392,-3.2305368697663503,1.45784,76,1970-01-02 22:56:35.584206528,-2.8829346,2.5247345,-0.32336426,20.606144526177744,3.845797790837781,-87.06513977050781,-4.11468505859375,2.3367886543273926,17271423.0,50354.0,-0.09381531650797478,-0.5151033615332149,-0.202045273938,0.001002679640912394,-0.01532236234608137,-0.013750367596840275,17.271423832979053
1615,B,168995634560532.0,-9.448236752613393,1.8327261302336506,9.813644,76,1970-01-02 22:56:35.634560532,-1.0618134,3.4556274,-0.36254883,20.31393461889934,3.6332148406314606,-86.46463012695312,-3.2579944133758545,2.1213324069976807,17321777.0,50354.0,-0.39993892365009476,-0.5286618809892148,0.28378215266800005,-0.012431250504459718,-0.026278877510987217,0.0020578893957852113,17.32177783700172
1615,B,168995684914535.0,-7.086557752613392,0.8294611302336499,10.599609,76,1970-01-02 22:56:35.684914535,4.812042,1.4530792,1.7169952,20.23977791106676,5.311803826202515,-85.53585052490234,-2.47556471824646,2.02143931388855,17372131.0,50354.0,-0.4162965212580948,-0.4264433113432149,0.5139444707809999,-0.02055035979645349,-0.024046683427353586,0.020084363198575473,17.372131839976646
1615,B,168995735268539.0,-9.988839752613394,-3.795371869766349,0.75527954,76,1970-01-02 22:56:35.735268539,7.290268,3.7631683,1.5569458,22.714302162248362,8.350660057150364,-85.21268463134766,-1.5857964754104614,1.844373345375061,17422485.0,50354.0,-0.4299072829890948,-0.5681419346892148,0.28588202877158,-0.021304873179531492,-0.025040672739358484,0.020137231779235307,17.42248584399931
1615,B,168995785622543.0,0.20755574738660676,4.116997130233651,-8.980072,76,1970-01-02 22:56:35.785622543,3.780075,5.5196533,0.56422424,14.659680710839586,6.713709001053699,-85.98490142822266,-1.3495659828186035,1.5968226194381714,17472839.0,50354.0,-0.24626338739959483,-0.48537164081721484,-0.20707559976542,-0.01702394896837604,-0.026524311290525383,0.0019841094630880895,17.472839847992873
1615,B,168995835976547.0,6.830419547386607,12.179772130233651,-10.468674,76,1970-01-02 22:56:35.835976547,0.4165802,3.8499756,0.46429443,12.095277963520074,3.9001821113066533,-87.22429656982422,-1.8999009132385254,1.4421076774597168,17523193.0,50354.0,0.17719510399650523,-0.08316544032921477,-0.48966107804200004,-0.0017389321712395869,-0.01431405809202366,-0.017541739337157414,17.523193851986434
1615,B,168995886330551.0,10.558813247386606,14.69435943023365,-4.546631,76,1970-01-02 22:56:35.886330551,-0.47660828,1.684372,0.3649292,9.888189340993016,1.7881380841426084,-87.90951538085938,-3.1392781734466553,1.3882523775100708,17573547.0,50354.0,0.43780871407400523,0.18314081029788523,-0.37804033398500003,0.015483951127561242,0.002517079889701216,-0.021846118450603785,17.573547855979996
1615,B,168995936684555.0,4.505682047386607,15.255211480233651,2.0600586,76,1970-01-02 22:56:35.936684555,-1.2585144,-1.2810364,0.029296875,3.3983950290933107,1.7960431676374278,-87.11177825927734,-4.259393692016602,1.397298812866211,17623901.0,50354.0,0.3792787980365052,0.2605711468128352,-0.06260443331479999,0.020571812292406323,0.01117133594417661,-0.011094113306307066,17.62390186000266
1615,B,168995987038559.0,-1.8675479526133933,11.03261613023365,0.14169312,76,1970-01-02 22:56:35.987038559,-2.4857025,-2.0173645,-0.023330688,5.86726493342881,3.2014091843076002,-87.26419067382812,-3.2841615676879883,1.498497724533081,17674255.0,50354.0,0.0664203021041052,0.16837943574873518,0.055433503054439996,0.011221366244240149,0.010799688817152658,-0.00018054251116508363,17.674255863996223
1615,B,168996037392563.0,5.414648047386607,0.28647713023365107,-10.792755,76,1970-01-02 22:56:36.037392563,-2.9894867,-1.0719147,-0.6143341,19.06844547004033,3.234723827465923,-88.28307342529297,-3.5222063064575195,1.602401852607727,17724609.0,50354.0,0.0893053390861052,-0.2084883889812148,-0.26816178495276,0.003920704468245928,-0.0010098231155341395,-0.005355859953354003,17.724609867989784
1615,B,168996087746567.0,-9.607507752613394,-3.795371869766349,-7.1870575,76,1970-01-02 22:56:36.087746567,-4.07605,-1.0200653,0.107284546,23.62539337560203,4.203121077553503,-88.96087646484375,-2.7547965049743652,1.6780369281768799,17774963.0,50354.0,-0.10556362879849482,-0.5818126428572149,-0.45267773931250005,-0.0004093349600888334,-0.019897409078596145,-0.018148576702426453,17.774963871983346
1615,B,168996138100571.0,9.820913247386606,-3.795371869766349,-1.768692,76,1970-01-02 22:56:36.138100571,-1.8199005,-1.5034943,-2.1479034,21.045494015321403,3.191554786583539,-89.20034790039062,-3.343731164932251,1.7595317363739014,17825317.0,50354.0,0.005372910141905171,-0.6845813551302148,-0.22547890516150002,-0.0025225017236169575,-0.03188400168732952,-0.0170739498379219,17.825317875976907
1615,B,168996188454574.0,-0.9556522526133933,15.28414213023365,13.747833,76,1970-01-02 22:56:36.188454574,-3.9103546,-5.7916107,-0.9540405,14.029340750400934,7.052929949583783,-88.00702667236328,-3.1113831996917725,1.9693340063095093,17875671.0,50354.0,0.22320067606540517,-0.2042164311522148,0.301598832957,0.005754797179941452,-0.02237726186523273,0.0019164714221073036,17.87567187898094
1615,B,168996238808578.0,-7.746957752613393,27.57311313023365,14.534027,76,1970-01-02 22:56:36.238808578,-0.5335846,-3.1080017,-0.10820007,21.128387997482864,3.1553279302963193,-85.58109283447266,-1.6532225608825684,2.0219128131866455,17926025.0,50354.0,-0.2191056121015948,0.5855479156927852,0.7120523892200001,0.0001031014254168538,0.009600782786277942,0.025520696820750335,17.9260258829745
1615,B,168996289162582.0,3.708425547386607,22.54389253023365,7.9036713,76,1970-01-02 22:56:36.289162582,1.9781189,0.6942444,-0.36393738,10.69405539465055,2.1277641048833007,-82.69711303710938,-2.348392963409424,1.8880573511123657,17976379.0,50354.0,-0.10167812533099481,0.7683266515135853,0.5649139300991001,-0.00807637215734031,0.03408649997855479,0.03215018102149699,17.976379886997165
1615,B,168996339516586.0,-1.348489752613393,14.922798730233652,-2.1944122,76,1970-01-02 22:56:36.339516586,3.2083282,1.5568085,-0.28379822,3.914756369628588,3.5773683028537415,-83.36188507080078,-1.1874061822891235,1.8361940383911133,18026733.0,50354.0,0.0594161035050052,0.4498296858647852,0.14374201636070003,-0.0010640309235129405,0.030669522106175236,0.01784183076401839,18.026733890990727
1615,B,168996389870590.0,2.803915047386607,-0.30510686976634993,-3.700348,76,1970-01-02 22:56:36.389870590,-0.47802734,1.4287415,-0.051635742,16.35049907271105,1.5074742656050935,-83.86736297607422,-1.2399390935897827,1.775164008140564,18077087.0,50354.0,0.03664324264650521,-0.1254395720290148,-0.14841237755540002,0.0024184861580565774,0.008167169896043193,-0.00011758568379896166,18.077087894984288
1615,B,168996440224594.0,15.899511247386606,20.343315730233652,15.016647,76,1970-01-02 22:56:36.440224594,-0.98031616,0.04408264,-0.33068848,21.123685660479854,1.0355278477719592,-81.80120086669922,-3.189347743988037,1.6902834177017212,18127441.0,50354.0,0.4708961638235052,0.011032784479985224,0.284910459923,0.012778319636695453,-0.0028804196901219175,0.0034366122197690653,18.12744189897785
1615,B,168996490578598.0,0.6706600473866069,9.421578130233652,8.604111,76,1970-01-02 22:56:36.490578598,-0.8078003,4.451874,1.0032959,10.649975815876477,4.634471501639955,-80.80192565917969,-2.8958899974823,1.4221595525741577,18177795.0,50354.0,0.41718720268850523,0.2559215327249853,0.5946998241660001,0.02235927491867289,0.006721108844269544,0.022145948122508755,18.177795903000515
1615,B,168996540932602.0,-10.135781752613394,-2.3038248697663484,9.576538,76,1970-01-02 22:56:36.540932602,1.3070221,-0.17515564,2.6505585,23.55770981441789,2.9604808106175033,-80.3367691040039,-1.9813154935836792,1.435460090637207,18228149.0,50354.0,-0.23830336917249484,-0.3142655261612148,0.457734199873,0.004503758276432594,-0.0014689267227439497,0.026497131423229903,18.228149906994076
1615,B,168996591286606.0,-4.618860252613393,-3.795371869766349,7.4022675,76,1970-01-02 22:56:36.591286606,6.9097443,1.9625244,0.53041077,21.728600563415757,7.202597024470399,-79.7219467163086,-1.4673246145248413,1.336677074432373,18278503.0,50354.0,-0.37147762176559485,-0.6470286763112147,0.42747538607350005,-0.015352456008848285,-0.02420250413564836,0.022286921745375034,18.278503910987638
1615,B,168996641640610.0,14.685003247386605,-3.795371869766349,-16.621689,76,1970-01-02 22:56:36.641640610,4.39122,3.1362,0.30622864,28.59233896741863,5.404844078079981,-80.49092864990234,-2.0485284328460693,1.214377999305725,18328857.0,50354.0,0.2534352821794052,-0.6845813551302148,-0.23211737510549998,-0.0029719519837614968,-0.03352594576160087,0.004918528642141338,18.3288579149812
1615,B,168996691994614.0,4.437200547386607,17.59000453023365,-10.212494,76,1970-01-02 22:56:36.691994614,1.1718597,0.13545227,0.3174286,10.72944570153717,1.2216232602689763,-83.19243621826172,-2.8054072856903076,1.3268389701843262,18379211.0,50354.0,0.48143972494100523,-0.14616173350741482,-0.6756042253910001,0.018501948054270575,-0.0209156187426296,-0.022853706735700384,18.37921191897476
1615,B,168996742348617.0,7.149770747386607,9.63643713023365,3.583664,76,1970-01-02 22:56:36.742348617,-0.5150299,1.6854401,0.542923,8.755868639691567,1.844106697702446,-82.74614715576172,-3.5875396728515625,1.2203292846679688,18429565.0,50354.0,0.29172517628850525,0.19201092168558515,-0.16689405290999998,0.019465972718255387,0.0011543450107617944,-0.02121157915278428,18.429565921978792
1615,B,168996792702621.0,2.261266727386607,18.24630033023365,-5.8013306,76,1970-01-02 22:56:36.792702621,-2.596878,-1.6351471,-0.9790802,6.395118163905689,3.221192236355112,-85.73172760009766,-3.9792983531951904,1.484028935432434,18479919.0,50354.0,0.2369416905023652,0.2085344810421852,-0.0558341919882,0.013310245705193747,0.010084531604477075,-0.0056076290218019815,18.479919926001457
1615,B,168996843056625.0,-3.185174752613393,12.447121230233652,-10.22435,76,1970-01-02 22:56:36.843056625,-2.8416138,-1.7337646,-0.38494873,11.811476981737382,3.3509542225002433,-87.14616394042969,-3.3769466876983643,1.6497238874435425,18530273.0,50354.0,-0.02326123235113479,0.2792990746278853,-0.40347856046620006,0.005379832894873528,0.012282185431105364,-0.01156411716854443,18.53027392999502
1615,B,168996893410629.0,7.692937847386607,-3.3049238697663483,-4.7790833,76,1970-01-02 22:56:36.893410629,-2.8055878,-1.2016602,-1.0973358,20.35538440658717,3.243371085419385,-87.69300079345703,-3.7693886756896973,1.7327189445495605,18580627.0,50354.0,0.1134919514371052,-0.26329609705551477,-0.3777414401941,0.002271738814427477,0.00040290696633957246,-0.019668775956624376,18.58062793398858
1615,B,168996943764633.0,-17.588602752613394,-3.795371869766349,7.2765656,76,1970-01-02 22:56:36.943764633,-5.184784,-3.8332825,-2.4684448,28.383452280011895,6.904292837221585,-87.6349868774414,-2.857748508453369,1.8984596729278564,18630981.0,50354.0,-0.24914315531889486,-0.6722333458342148,0.06287911186709999,-0.003415290360131818,-0.023553824783634724,-0.00792728884028888,18.630981937982142
1615,B,168996994118637.0,20.96521524738661,-3.7655858697663476,12.274841,76,1970-01-02 22:56:36.994118637,-2.6661987,1.8943787,-1.5649261,29.862054360868978,3.6257798975333,-87.2115249633789,-3.8010752201080322,1.7694737911224365,18681335.0,50354.0,0.08501297278090526,-0.6838314330082148,0.4922457639682,-0.004132305605758965,-0.03414164293691585,0.013976378998905348,18.681335941975703
1615,B,168997044472641.0,-4.075372752613393,3.7624291302336506,16.29454,76,1970-01-02 22:56:37.044472641,-4.985367,-9.114609,-1.4306946,20.981584375761617,10.486985667294446,-86.41561126708984,-3.4384572505950928,2.153412342071533,18731689.0,50354.0,0.42523556449090527,-0.4935486772312148,0.719291305437,0.012846527422892374,-0.029642899035498122,0.030502868796414725,18.73168994599837
1615,B,168997094826645.0,1.671285647386607,34.68233513023365,17.858154,76,1970-01-02 22:56:37.094826645,-0.55174255,-3.0626678,-0.5955353,26.142240180006887,3.168440655619643,-83.58596801757812,-3.6161017417907715,2.1283321380615234,18782043.0,50354.0,-0.060527701048294795,0.47445462978578534,0.8598623768379999,0.009182249877894604,-0.0004807308325335779,0.03975835225863767,18.78204394999193
1615,B,168997145180649.0,-0.8480472526133933,21.04734113023365,9.499878,76,1970-01-02 22:56:37.145180649,2.973236,1.0970917,0.20065308,11.276448886802275,3.1755321079180376,-80.64441680908203,-2.9313933849334717,1.9164025783538818,18832397.0,50354.0,0.0207266730652052,0.9096368592097854,0.6887931716640001,-0.001002070481530247,0.03484727141844149,0.03899050074463485,18.83239795398549
1615,B,168997195534653.0,-1.0095004526133933,11.286308930233652,2.3999329,76,1970-01-02 22:56:37.195534653,3.235138,1.967865,0.038253784,5.6848444596823,3.7868290018509314,-80.05781555175781,-2.1402173042297363,1.80207359790802,18882751.0,50354.0,-0.04676747857449481,0.32059510757238524,0.29960153902930003,-0.0006556293603073844,0.03097355022767471,0.02488481363112522,18.882751957979053
1615,B,168997245888657.0,7.602315947386607,-1.9468148697663494,-5.5045776,76,1970-01-02 22:56:37.245888657,-1.5447693,2.6087036,0.45896912,19.268262543838443,3.066316897515491,-80.75877380371094,-2.4796512126922607,1.703014612197876,18933105.0,50354.0,0.16598731571190523,-0.2583287580396148,-0.07816563961190001,0.0030015978396085823,0.0015676798821865614,0.00557509163963188,18.93310596200172
1615,B,168997296242660.0,8.361135547386606,15.638527517233651,-0.31271362,76,1970-01-02 22:56:37.296242660,-0.66807556,-1.045929,-0.032928467,6.544986059243912,1.2415219332936829,-80.86109924316406,-3.9198508262634277,1.7585864067077637,18983459.0,50354.0,0.4019118182839052,-0.14875295067471578,-0.14646194104594001,0.014297996496612519,-0.010249096180300702,-0.005655448598222439,18.983459964976646
1615,B,168997346596664.0,-2.3585147526133925,4.932030130233651,3.4626312,76,1970-01-02 22:56:37.346596664,-1.7359467,2.5878906,0.133255,11.962223242899224,3.1190456229164476,-80.7328872680664,-3.3022918701171875,1.6181803941726685,19033813.0,50354.0,0.15112798375000522,0.024435729890284228,0.07930547491166001,0.013923883095807764,-0.003129934667689633,-0.0016907983478627678,19.03381396899931
1615,B,168997396950668.0,-9.137536752613395,2.1697011302336513,10.875977,76,1970-01-02 22:56:37.396950668,1.6597748,-0.42118835,1.5755463,20.458946101949753,2.3269289108897278,-80.05091857910156,-2.4013302326202393,1.6224445104599,19084167.0,50354.0,-0.28943608874709487,-0.3146689120552148,0.36100313865140005,-0.003482183159511726,-0.007307200827366456,0.011085649963677164,19.084167972992873
1615,B,168997447304672.0,-4.058786352613393,-3.3322668697663502,10.436798,76,1970-01-02 22:56:37.447304672,7.132904,-2.4844055,1.3330078,22.39689391798106,7.6699087319541865,-79.25080108642578,-1.9273061752319336,1.740920066833496,19134521.0,50354.0,-0.33224382682029485,-0.5227391176242149,0.5365917361750001,-0.015652035234240174,-0.021083421963239004,0.02259874616350428,19.134521976986434
1615,B,168997497658676.0,17.88300124738661,1.803277130233651,-17.586548,76,1970-01-02 22:56:37.497658676,7.7200317,-10.240921,2.292328,27.51882056450705,13.028051275491276,-79.92029571533203,-2.7243571281433105,2.305210590362549,19184875.0,50354.0,0.3480522584057053,-0.5319645746722148,-0.18000925575000004,0.000398008882025879,-0.026554274860947212,0.008977677109660227,19.184875980979996
1615,B,168997548012680.0,3.753149047386607,13.63309543023365,-7.8559265,76,1970-01-02 22:56:37.548012680,1.6626282,0.12934875,1.0904999,8.322937940164518,1.9925495382704572,-81.22927856445312,-2.995863199234009,2.3776512145996094,19235229.0,50354.0,0.5447333559715053,-0.1048276480451148,-0.6405651804865,0.022477663413175034,-0.016032517791354207,-0.020659602581126365,19.23522998500266
1615,B,168997598366684.0,6.7067622473866075,11.999291130233651,-9.051743,76,1970-01-02 22:56:37.598366684,-0.4554596,1.0681915,0.29133606,10.893926545804042,1.1972273083089666,-82.49980926513672,-3.599334955215454,2.3990533351898193,19285583.0,50354.0,0.2633491866685052,0.15187739643288523,-0.42568439500150007,0.020345094176047546,0.0011845715151588962,-0.026844965562061382,19.285583988996223
1615,B,168997648720688.0,4.583532247386607,17.33879913023365,-6.396454,76,1970-01-02 22:56:37.648720688,-1.7307587,0.32063293,-0.66204834,7.182313610910136,1.8805954264335618,-85.17924499511719,-4.859139919281006,2.571094274520874,19335937.0,50354.0,0.2842557444949052,0.2451758984877852,-0.388939255869,0.013787049351901183,0.00999661080621772,-0.02050977965796658,19.335937992989784
1615,B,168997699074692.0,3.9241085473866066,12.86927093023365,-3.2671509,76,1970-01-02 22:56:37.699074692,-1.77388,-2.8015442,-0.14448547,4.742709033143667,3.3190625498768114,-86.33755493164062,-5.445438861846924,2.806081771850586,19386291.0,50354.0,0.2141968722900052,0.2670793799123852,-0.2433005805673,0.012549541532793689,0.01289705114428109,-0.015917902361956726,19.386291996983346
1615,B,168997749428696.0,1.4578151873866068,1.3436821302336508,-1.3055878,76,1970-01-02 22:56:37.749428696,-3.5335999,-1.0734558,-0.7883911,14.311674645797105,3.776267487134996,-86.74146270751953,-5.3172383308410645,2.8780100345611572,19436646.0,50355.0,0.13550338483225258,-0.13563237432008454,-0.11513012861925,0.008804578223695644,0.003309506983300149,-0.009024389180544363,19.436646000976907
1615,B,168997799782699.0,-4.861810752613393,-3.795371869766349,-7.9061127,76,1970-01-02 22:56:37.799782699,-6.461151,-2.518692,-1.3844757,21.978049390138658,7.071566629789716,-87.6635513305664,-4.844088077545166,3.0510056018829346,19487000.0,50354.0,-0.0857023963457148,-0.5551953925722147,-0.23192298348850005,0.0012538394871255615,-0.01739297068704742,-0.008737756203536822,19.48700000398094
1615,B,168997850136703.0,3.967504547386607,-3.795371869766349,-3.4316711,76,1970-01-02 22:56:37.850136703,-4.032715,3.3049011,-1.3894043,19.80410387185589,5.395887865853468,-88.1571273803711,-4.944417476654053,2.9087493419647217,19537354.0,50354.0,-0.022515947328994795,-0.6845813551302148,-0.2854513827326,-0.002724613238698164,-0.03121385917690407,-0.013025934418348638,19.5373540079745
1615,B,168997900490707.0,9.460256647386606,8.41097313023365,4.910202,76,1970-01-02 22:56:37.900490707,-3.629837,-6.014969,-1.9202423,11.574891391659637,7.283055623036206,-87.7852783203125,-5.91409158706665,3.154318332672119,19587708.0,50354.0,0.3380707436008052,-0.37726220706521485,0.037224972469300004,0.007944723105735371,-0.026734035365394333,-0.006249596331199104,19.587708011997165
1615,B,168997950844711.0,-0.22457315261339317,31.69941013023365,11.777679,76,1970-01-02 22:56:37.950844711,-1.3844452,-4.0235596,-0.14143372,20.05968665684183,4.257431604113944,-84.9976806640625,-5.828295707702637,3.0616672039031982,19638062.0,50354.0,0.23252680334790518,0.5163899193487852,0.42015077993699995,0.014365934439527682,0.003502818412163451,0.011515349318333415,19.638062015990727
1615,B,168998001198715.0,-0.8828525526133932,22.36107713023365,9.896698,76,1970-01-02 22:56:38.001198715,2.670868,0.37973022,-0.42303467,12.292468600417902,2.7306939128044463,-82.04206085205078,-5.276917934417725,2.768526554107666,19688416.0,50354.0,-0.027881656980494805,0.8676116877567853,0.545695789729,0.005152350850092292,0.03484500846209695,0.024317119084480882,19.688416019984288
1615,B,168998051552719.0,-0.48798555261339316,11.09430753023365,-3.4558105,76,1970-01-02 22:56:38.051552719,3.4322205,3.176178,-0.70703125,6.124299093873768,4.729496531004205,-82.80563354492188,-4.66657018661499,2.6889989376068115,19738770.0,50354.0,-0.0345135909752948,0.3488370195965852,0.16216222458750001,-0.001570925157782915,0.030626529105035813,0.017821741226446523,19.73877002397785
1615,B,168998101906723.0,-0.46546365261339306,3.5646291302336515,-17.1129,76,1970-01-02 22:56:38.101906723,1.4348755,2.4850159,-0.3846283,21.04103619849015,2.895187498749252,-83.98600006103516,-4.460811138153076,2.6634929180145264,19789124.0,50354.0,-0.024004990639994797,-0.1244011516994148,-0.5178584242585,-0.0014733223293281464,0.0056506218460470594,-0.008955363219116767,19.789124028000515
1615,B,168998152260727.0,-0.2979678526133933,4.8820731302336515,-0.4265442,76,1970-01-02 22:56:38.152260727,-2.8957062,2.6569061,-0.43571472,10.9254078938315,3.953999461072337,-84.32394409179688,-4.083435535430908,2.543417453765869,19839478.0,50354.0,-0.019220915007094802,-0.2808065771882148,-0.4415905866234,-0.0010882986264767749,-0.01020191499020385,-0.024156047746973597,19.839478031994076
1615,B,168998202614731.0,-10.882196752613394,1.19382513023365,12.381378,76,1970-01-02 22:56:38.202614731,-1.6593323,4.230011,-0.44441223,22.847733051558002,4.565509716572495,-83.7091064453125,-3.219285726547241,2.28623104095459,19889832.0,50354.0,-0.28148300426579487,-0.3404963094962148,0.3009868505826,-0.007570822575533543,-0.015642542778053884,-0.003539980262299222,19.889832035987638
1615,B,168998252968735.0,-9.980462752613393,2.8713151302336506,6.9039,76,1970-01-02 22:56:38.252968735,2.1969452,0.9688873,1.3252716,18.67603524598184,2.7425636958274806,-83.17768859863281,-2.1862289905548096,2.226513147354126,19940186.0,50354.0,-0.5252591783630949,-0.39112116366221483,0.485545444206,-0.020311347932047558,-0.018419933121709784,0.019802523585892583,19.9401860399812
1615,B,168998303320186.0,-9.151330752613394,-3.795371869766349,6.9821014,76,1970-01-02 22:56:38.303320186,5.792618,3.708023,2.1508636,23.345960190509942,7.20625229146593,-82.5987548828125,-1.3366557359695435,2.048577308654785,19990537.0,50351.0,-0.481652467390837,-0.5167033904461055,0.34958702824570004,-0.02534950413767811,-0.022854937061954017,0.021024877560207773,19.990537490986753
1615,B,168998353674189.0,-0.19442175261339334,-2.8340218697663495,-8.902512,76,1970-01-02 22:56:38.353674189,5.7751617,1.6917267,0.9242859,20.562311722958437,6.088409998807455,-83.08880615234375,-1.1118096113204956,1.9878758192062378,20040891.0,50354.0,-0.23529801082409485,-0.6603774461802149,-0.048350177676199986,-0.01805066219001734,-0.02963536422374087,0.0075842401867883035,20.040891493990785
1615,B,168998404028193.0,4.761983847386607,7.81931363023365,-12.774429,76,1970-01-02 22:56:38.404028193,1.8317871,0.5842743,0.77674866,15.238693923792052,2.073682453554231,-84.27693176269531,-1.3345710039138794,1.9906939268112183,20091245.0,50354.0,0.1149975108601052,-0.3679545093467148,-0.545760343557,-0.0030288056875933675,-0.02589031364430151,-0.014957920593088276,20.091245497984346
1615,B,168998454382197.0,7.9512386473866075,14.129189130233652,0.75183105,76,1970-01-02 22:56:38.454382197,-0.11001587,1.5947571,0.39160156,6.344101503715248,1.6458145343405801,-84.14359283447266,-2.682037115097046,1.9085257053375244,20141599.0,50354.0,0.3200808027509052,0.05912825400028525,-0.30269294858715,0.01095396670178441,-0.007775318630857057,-0.021361508536313266,20.141599501977907
1615,B,168998504736201.0,7.058355247386607,13.49306553023365,1.6745605,76,1970-01-02 22:56:38.504736201,-1.7507324,0.64367676,-0.44024658,5.882686477133352,1.9165596152939135,-83.87491607666016,-3.9479310512542725,1.8546675443649292,20191953.0,50354.0,0.3778965454887052,0.20197630558658525,0.06108926005435,0.017572975696628673,0.006573829496718639,-0.006082856066190306,20.191953506000573
1615,B,168998555090205.0,1.226995487386607,12.68860683023365,-2.8529816,76,1970-01-02 22:56:38.555090205,-2.9628143,-1.0268555,-1.1164703,4.113326260823246,3.3285442350893923,-85.1240234375,-3.738401412963867,1.9731802940368652,20242307.0,50354.0,0.20860027544938523,0.16570676501948517,-0.029669108034700006,0.014766230460758303,0.009257156668649036,0.000791065167398728,20.242307509994134
1615,B,168998605444209.0,5.140417147386607,2.13356813023365,-6.146347,76,1970-01-02 22:56:38.605444209,-3.3282166,-2.0103607,-1.2852173,15.161778050679082,4.095162925799087,-85.9852294921875,-4.043199062347412,2.1152596473693848,20292661.0,50354.0,0.16031234790568522,-0.12029130102031481,-0.2265760961622,0.00928811311821061,0.0011434251371071123,-0.006451485506065352,20.292661513987696
1615,B,168998655798213.0,-5.103219752613393,-3.795371869766349,-5.0352173,76,1970-01-02 22:56:38.655798213,-3.602417,0.375412,-1.4053802,21.19357592331028,3.8850271451027263,-86.59577178955078,-3.554478883743286,2.11942458152771,20343015.0,50354.0,0.00093651880820521,-0.5353084327502149,-0.2815182443811,0.00405976271725562,-0.016506034497140627,-0.012792291211858667,20.343015517981257
1615,B,168998706152217.0,0.4522304473866068,-3.795371869766349,-0.6118622,76,1970-01-02 22:56:38.706152217,-2.9533691,0.4703064,-2.5093079,19.444440168831296,3.9038702959650413,-86.87155151367188,-3.4893205165863037,2.096346616744995,20393369.0,50354.0,-0.1170979577376948,-0.6845813551302148,-0.14217652057150001,-0.0029245965479277594,-0.030713165189465576,-0.010667363097211613,20.39336952197482
1615,B,168998756506221.0,3.9212552473866067,5.276589130233651,11.84462,76,1970-01-02 22:56:38.756506221,-4.476425,-5.666809,-1.627243,15.845536763891213,7.402636341476933,-86.09258270263672,-3.7165191173553467,2.311732769012451,20443723.0,50354.0,0.1101112493373052,-0.4561765930332148,0.28280714313060007,-0.00017590435739660873,-0.02872086286091067,0.0035406571841704623,20.443723525997484
1615,B,168998806860225.0,-4.087930752613393,21.046471130233652,18.714325,76,1970-01-02 22:56:38.806860225,-2.2352753,-4.9405975,-0.7174225,20.3699990007783,5.469977547239348,-83.4681625366211,-2.9589436054229736,2.3951590061187744,20494077.0,50354.0,-0.004196389195094799,0.1692664881777853,0.7693825582650001,0.0026666184338004317,-0.0072235357099451475,0.026490980112037026,20.494077529991046
1615,B,168998857214229.0,-5.4137517526133925,24.181176130233652,10.724426,76,1970-01-02 22:56:38.857214229,1.689148,0.6370697,-0.14503479,15.530192487374455,1.8111084613772954,-80.91393280029297,-1.505995750427246,2.2675678730010986,20544431.0,50354.0,-0.2392238604340948,0.6452272750767853,0.7411794339269999,-0.006128591624914107,0.020506509477460327,0.03803141927741799,20.544431533984607
1615,B,168998907568232.0,-1.9336947526133932,18.14350193023365,4.382065,76,1970-01-02 22:56:38.907568232,3.7593231,2.0821838,-0.02772522,6.311624373227675,4.297530480985574,-78.4712142944336,0.2790260314941406,2.143359899520874,20594785.0,50354.0,-0.1849866606620948,0.5721392195283853,0.380336123907,-0.010680348289638767,0.030649636234674385,0.028236397199586618,20.59478553698864
1615,B,168998957922236.0,-7.2542972526133935,2.61049713023365,-12.219345,76,1970-01-02 22:56:38.957922236,2.8120422,2.121811,0.17449951,20.005428184725545,3.527054484026591,-79.37479400634766,0.9542860984802246,2.030744791030884,20645139.0,50354.0,-0.23132607471559483,0.029054234345385198,-0.19731919856000002,-0.010481505738604093,0.015136247588179922,0.004607817129461419,20.6451395409822
1615,B,168999008276240.0,11.255163247386607,13.165123630233651,-1.8327637,76,1970-01-02 22:56:39.008276240,-0.8124542,-0.23365784,-0.042800903,9.909312388672584,0.8464689779246025,-79.74036407470703,-0.41791847348213196,2.0407965183258057,20695493.0,50354.0,0.1007298031504052,-0.09628639611371478,-0.35378994073990006,-0.0032880223291967795,-0.0016927041368412338,-0.013875274800153586,20.69549354497576
1615,B,168999058630244.0,-6.545083752613393,3.370263130233651,0.7811737,76,1970-01-02 22:56:39.058630244,2.4092712,-1.6859894,-1.2203217,14.83220651074063,3.183760830142976,-79.75592041015625,0.3237835764884949,2.113770008087158,20745847.0,50354.0,0.11858567143990521,-0.07715776753171477,-0.02647588143,0.005521705703760245,-0.0043668037081009805,-0.009573952604771575,20.745847548998427
1615,B,168999108984248.0,-6.756829752613393,7.300759130233651,1.2685242,76,1970-01-02 22:56:39.108984248,2.1851501,1.0895844,0.30934143,11.998503830411465,2.461253185791298,-79.6744155883789,1.3673925399780273,2.0634970664978027,20796201.0,50354.0,-0.3349022763210948,-0.2248048725482148,0.0516052440283,-0.005446203161093711,-0.007602513389292387,0.0006326819621373992,20.796201552991988
1615,B,168999159338252.0,-6.703988752613394,0.14101513023365086,2.7083435,76,1970-01-02 22:56:39.159338252,3.806488,-0.9983368,3.4816284,17.85384294702248,5.25430904839683,-79.48995208740234,2.1835126876831055,2.1449573040008545,20846555.0,50354.0,-0.3389030275060948,-0.3061076494442148,0.1001255980829,-0.016964396134457153,-0.0133667845662034,0.0038201274118336826,20.84655555698555
1615,B,168999209692256.0,12.342291247386607,-3.795371869766349,-14.321152,76,1970-01-02 22:56:39.209692256,9.399826,-5.265976,3.308487,26.297619536295468,11.270905832807804,-79.9702377319336,1.6925573348999023,2.399653911590576,20896909.0,50354.0,0.1419555419109052,-0.5854749396312148,-0.2923756796045,-0.004958546844830089,-0.022447374845152093,-0.004840280302469324,20.89690956097911
1615,B,168999260046260.0,5.465368247386607,13.120140630233651,-11.401093,76,1970-01-02 22:56:39.260046260,4.419876,-1.0055542,1.5323639,12.220925239896127,4.784828338251734,-81.11422729492188,1.3313241004943848,2.4257659912109375,20947263.0,50354.0,0.4483434430999052,-0.25869949691771477,-0.6476089623650001,0.014861957545617175,-0.0212537797889924,-0.023665993330866105,20.947263565001776
1615,B,168999310400264.0,5.972417847386607,10.007500130233652,-9.853928,76,1970-01-02 22:56:39.310400264,1.1893768,1.5380554,0.67341614,12.061766453935732,2.057600759005473,-82.31478881835938,0.8719173073768616,2.3305418491363525,20997617.0,50354.0,0.28796914050810524,0.08881541142628525,-0.535137663717,0.01853814191749888,-0.004277171620417721,-0.029778011804866517,20.997617568995338
1615,B,168999360754268.0,8.862646247386607,16.32744658023365,-8.786835,76,1970-01-02 22:56:39.360754268,-0.74935913,-0.42662048,-0.21136475,11.28256380088629,0.8878170967110004,-84.57337188720703,-0.949497640132904,2.352365732192993,21047971.0,50354.0,0.3735024087141052,0.16956575332943527,-0.469318490051,0.016653869194767596,0.006505262585054777,-0.025289192583416935,21.0479715729889
1615,B,168999411108271.0,2.7698879473866067,13.88089813023365,-5.7431793,76,1970-01-02 22:56:39.411108271,-1.9380188,-2.0020294,-0.3348236,6.066595416826805,2.8064471188202997,-86.06046295166016,-1.1928343772888184,2.4766175746917725,21098325.0,50354.0,0.29287231342180525,0.2670862947754352,-0.36582217003110007,0.01677731637921582,0.010993588615136324,-0.021026336398887034,21.09832557599293
1615,B,168999461462275.0,3.339498547386607,2.776940130233651,-0.5032654,76,1970-01-02 22:56:39.461462275,-2.5948944,0.6611481,-0.9374542,12.913182150164996,2.8371489446947633,-86.3427963256836,-1.3760581016540527,2.444053888320923,21148679.0,50354.0,0.1538160237789052,-0.07407480611621481,-0.15726673821190001,0.011246272265702288,0.004859450249973193,-0.013169809442834015,21.148679579986492
1615,B,168999511816279.0,-6.078775352613393,-3.150290869766348,-1.9380951,76,1970-01-02 22:56:39.511816279,-5.01326,-3.9173737,-2.6822662,20.431400894038045,6.904574172294344,-86.81664276123047,-0.9364567995071411,2.6344571113586426,21199033.0,50354.0,-0.0689667721251948,-0.5028690515692148,-0.0614661333085,0.0021362496088854666,-0.01452571550494606,-0.005507037506269112,21.199033583980054
1615,B,168999562170283.0,-2.3008517526133927,-3.795371869766349,-2.0240936,76,1970-01-02 22:56:39.562170283,-3.8555603,4.7406464,-0.83195496,19.923362339609522,6.166945968000503,-87.22882843017578,-0.6465635895729065,2.398056983947754,21249387.0,50354.0,-0.21097387162829478,-0.6683401507932147,-0.0997560248999,-0.007048065587781608,-0.029487534087878894,-0.004059090277212887,21.24938758800272
1615,B,168999612524287.0,8.689901247386606,-3.795371869766349,-2.1211243,76,1970-01-02 22:56:39.612524287,-3.2578583,-3.794876,-2.9097595,20.675425874101734,5.7863135851848835,-87.60652160644531,-1.2610288858413696,2.58498215675354,21299741.0,50354.0,0.1608570991299052,-0.6845813551302148,-0.10436415106830002,-0.0012617899811919546,-0.03406250475463419,-0.005139133670351372,21.29974159199628
1615,B,168999662878291.0,-0.6300601526133931,29.52343013023365,11.795181,76,1970-01-02 22:56:39.662878291,-2.595749,-5.1259155,-0.50564575,18.41903488513708,5.767893914474703,-84.91900634765625,-0.8093578219413757,2.78851580619812,21350095.0,50354.0,0.2029226192431052,0.15428612282378518,0.2435637255359,0.009158881969477282,-0.013351243063778979,0.003504627686370765,21.350095595989842
1615,B,168999713232295.0,-6.891107752613393,28.794274130233653,8.9014435,76,1970-01-02 22:56:39.713232295,2.0258484,-0.3006134,0.47781372,18.152471225333652,2.1030302201971227,-82.6363525390625,1.0689756870269775,2.8122057914733887,21400449.0,50354.0,-0.1893604443498948,0.9747956401657852,0.5210789150365,0.0003414548772863584,0.028426891546788416,0.019251407761691316,21.400449599983403
1615,B,168999763586299.0,3.278524447386607,19.78991013023365,3.889038,76,1970-01-02 22:56:39.763586299,3.0647583,1.5314789,-0.22219849,5.905239414190151,3.4332991753592315,-79.7525863647461,0.207366481423378,2.764120578765869,21450803.0,50354.0,-0.0909540098756948,0.7297348071257852,0.3220259527255,-0.00705747701403767,0.04291496307145987,0.021226851255643872,21.450803603976965
1615,B,168999813940303.0,-3.6586551526133926,-2.9980688697663496,-18.94635,76,1970-01-02 22:56:39.813940303,2.8940887,2.353836,-0.3747406,27.103030135821818,3.7492297656521463,-80.76872253417969,0.4956399202346802,2.638216018676758,21501157.0,50354.0,-0.009570550765494784,-0.0707010125852148,-0.379097944224,-0.0025309068632632303,0.01659249384514794,-0.0014369015299577348,21.50115760799963
1615,B,168999864294307.0,7.521902247386607,15.122215870233651,-19.753006,76,1970-01-02 22:56:39.864294307,-2.135971,-0.53738403,-1.0782776,20.563788257420953,2.452312437517251,-83.62630462646484,-0.3592045307159424,2.6536083221435547,21551511.0,50354.0,0.09726497210510522,-0.1882195509692348,-0.9743336860119999,0.002207882446067372,-0.006518843028610378,-0.03407534815445177,21.55151161199319
1615,B,168999914648311.0,-0.23453715261339325,20.02024143023365,-3.4242554,76,1970-01-02 22:56:39.914648311,-3.3255005,1.8249817,-0.4610138,5.964948646200453,3.8212622920476917,-86.14360809326172,1.2630128860473633,2.539463520050049,21601865.0,50354.0,0.1834739909911052,0.3913124474538653,-0.5835339102678,0.007068164873873291,0.0051132698547935425,-0.03922243247153653,21.601865615986753
1615,B,168999965002314.0,-6.283670752613394,9.54560153023365,10.324326,76,1970-01-02 22:56:39.965002314,-0.3802948,2.220398,2.2806396,14.452313283118247,3.2056369723347027,-85.18446350097656,2.173509120941162,2.465571165084839,21652219.0,50354.0,-0.16410892042989483,0.2509100282156852,0.1737230774962,0.00048755438151959344,0.016169235269932275,-0.010317807336690575,21.652219618990785
1615,B,169000015356318.0,-12.111016752613393,-3.795371869766349,-1.8643646,76,1970-01-02 22:56:40.015356318,8.179398,2.0206604,2.7745667,23.947558940671552,8.870391224026202,-84.98819732666016,3.1097981929779053,2.3701388835906982,21702573.0,50354.0,-0.46312304731909487,-0.3486956678384148,0.2129964481678,-0.015791819252016316,-0.002461949048781464,0.00973643749764253,21.702573622984346
1615,B,169000065710322.0,7.952718747386607,-2.9308538697663487,9.928772,76,1970-01-02 22:56:40.065710322,8.327942,2.6129913,1.6196289,21.890695830611946,8.877248406063384,-84.0362548828125,2.733665704727173,2.2731800079345703,21752927.0,50354.0,-0.1046934688775948,-0.6628153854442148,0.20303758510980002,-0.014295916428284058,-0.02546681378849677,0.010474488855830136,21.752927626977907
1615,B,169000116064326.0,9.633718547386607,12.83953153023365,-2.0289001,76,1970-01-02 22:56:40.116064326,0.50053406,-2.146347,1.5977631,8.525361061521902,2.72216581297883,-84.39415740966797,1.4714006185531616,2.373760223388672,21803281.0,50354.0,0.44277373177050516,-0.2439984225424148,0.19889507482630003,0.008511846778854805,-0.022830851243679375,0.010119458579211192,21.803281631000573
1615,B,169000166418330.0,5.631277147386607,12.49388943023365,-11.564087,76,1970-01-02 22:56:40.166418330,0.03553772,2.53125,0.49827576,12.562523167368962,2.5800713604562135,-85.74201965332031,1.0670485496520996,2.2203750610351562,21853635.0,50354.0,0.38432679660730523,0.1443503395216852,-0.3422306362167,0.020823910002968134,-0.0025088397862129096,-0.0036087594291261006,21.853635634994134
1615,B,169000216772334.0,11.682760247386605,17.57372343023365,-6.7658234,76,1970-01-02 22:56:40.216772334,-1.0490875,-1.0625,0.18237305,12.120510910995701,1.5042442494563681,-87.3932113647461,-1.3036339282989502,2.2784082889556885,21903989.0,50354.0,0.43591551948820517,0.2635430889879852,-0.4614921541408001,0.020651240792336666,0.01026953284958797,-0.020235328692830783,21.903989638987696
1615,B,169000267126338.0,2.238424327386607,13.60712493023365,-2.696869,76,1970-01-02 22:56:40.267126338,-2.1284485,-2.1274567,-0.30836487,3.3735298191817966,3.025137008562961,-88.68474578857422,-1.4804036617279053,2.4128975868225098,21954343.0,50354.0,0.3504936640390652,0.29157101917148515,-0.23824220655480002,0.01979942401366609,0.013976107901130987,-0.017617211999233124,21.954343642981257
1615,B,169000317480342.0,0.5356197473866069,6.302987130233651,2.4929352,76,1970-01-02 22:56:40.317480342,-3.0927124,-0.6023865,-1.3427277,9.702626434473363,3.4250046950104025,-88.5035400390625,-1.322502613067627,2.4330315589904785,22004697.0,50354.0,0.0698421076705652,0.007807691346385229,-0.005134441282600004,0.010582793724333364,0.007537457794708422,-0.006127493862602221,22.00469764697482
1615,B,169000367834346.0,0.31157494738660696,-3.795371869766349,-5.9615173,76,1970-01-02 22:56:40.367834346,-4.5105896,-2.0152435,-2.340744,20.338564045758627,5.46678217761202,-89.18678283691406,-1.3037651777267456,2.5411295890808105,22055051.0,50354.0,0.021329820830305206,-0.43033497058721476,-0.0873284915317,0.0022954356438664144,-0.010637969309446367,-0.002327939259465631,22.055051650997484
1615,B,169000418188350.0,-7.266626752613393,-3.795371869766349,-10.625458,76,1970-01-02 22:56:40.418188350,-3.3922272,4.1208496,-0.72772217,23.90328113147124,5.386853103524312,-90.00582885742188,-0.7678015232086182,2.3455917835235596,22105405.0,50354.0,-0.17510733930019481,-0.6845813551302148,-0.4176102771281,-0.0038716565825164108,-0.028070248332587724,-0.012712843378547787,22.105405654991046
1615,B,169000468542354.0,8.298986247386607,3.5300981302336503,-4.630844,76,1970-01-02 22:56:40.468542354,-1.5878296,-2.6444702,-3.89151,14.45121750849201,4.965709975162081,-90.54698181152344,-1.5874162912368774,2.4878811836242676,22155759.0,50354.0,0.02599171499990519,-0.5001479969402148,-0.384107915454,-0.0037542840730083924,-0.029827930897077207,-0.020184858934639532,22.155759658984607
1615,B,169000518896357.0,-10.838647752613394,33.49184513023365,16.571426,76,1970-01-02 22:56:40.518896357,-2.9615173,-5.777771,-0.53845215,27.484370194676043,6.514840993031213,-88.39813232421875,0.08953110873699188,2.7447052001953125,22206113.0,50354.0,-0.06394105771709482,0.4386322654687852,0.300628033014,-0.0009554506015906836,-0.001548781571256184,-0.002101773000191881,22.20611366198864
1615,B,169000569250361.0,-6.718133752613393,25.25090813023365,11.538864,76,1970-01-02 22:56:40.569250361,2.7125854,0.38383484,0.41030884,17.30387694317623,2.7701628256969175,-85.94302368164062,1.7913124561309814,2.7661895751953125,22256467.0,50354.0,-0.44202708795709483,0.9854970988387853,0.70773277133,-0.012738760003639075,0.03585530500517171,0.02538749997096889,22.2564676659822
1615,B,169000619604365.0,0.13356594738660688,16.84269013023365,-0.63005066,76,1970-01-02 22:56:40.619604365,3.450821,1.499054,0.3664093,2.1955912876369146,3.7801566427971593,-86.63006591796875,4.548337459564209,2.6493611335754395,22306821.0,50354.0,-0.16577966363219482,0.5663213234037852,0.27465119346118,-0.015302750584763547,0.039070132416801205,0.02473348108154754,22.30682166997576
1615,B,169000669958369.0,1.1767025473866068,5.7831501302336505,-10.858475,76,1970-01-02 22:56:40.669958369,2.8010712,1.8341522,-0.016311646,14.646458950918959,3.3481905904577043,-87.61727142333984,4.543466091156006,2.4686996936798096,22357175.0,50354.0,0.03298862989290521,0.07618158023778517,-0.28924661054182005,-0.0033432798564540945,0.016176295604983817,-0.00036746881583927453,22.357175673998427
1615,B,169000720312373.0,1.447607047386607,1.266549130233651,-0.55870056,76,1970-01-02 22:56:40.720312373,-1.0236359,1.821991,-1.7661133,14.340258627547286,2.7361721159836967,-87.79143524169922,4.383265018463135,2.3648080825805664,22407529.0,50354.0,0.06607224266760521,-0.3159789217192148,-0.28745022907412004,0.002494055588455971,-0.006037377666477955,-0.014519496331010524,22.407529677991988
1615,B,169000770666377.0,-11.289437752613393,-1.362784869766351,14.751099,76,1970-01-02 22:56:40.770666377,-1.0636902,2.6616516,-1.629364,26.01887844346451,3.297067352338226,-87.07736206054688,4.953564643859863,2.2912654876708984,22457883.0,50354.0,-0.24778777166549484,-0.4958921272142149,0.35732201552388004,-0.004575051873579867,-0.020440477398996963,0.0017591619674456075,22.45788368198555
1615,B,169000821020381.0,-11.198510752613394,1.9874961302336516,6.4643097,76,1970-01-02 22:56:40.821020381,1.9238434,-2.4203491,0.6226654,19.910364378624593,3.153882590387843,-86.5528793334961,5.824639320373535,2.454211711883545,22508237.0,50354.0,-0.5661790795160949,-0.4777408445952148,0.5341403448399,-0.020493243412198887,-0.02451315733124601,0.022444347846878893,22.50823768597911
1615,B,169000871374385.0,-9.903009752613395,-3.795371869766349,3.2593231,76,1970-01-02 22:56:40.871374385,5.200592,1.0847015,3.5353851,22.890431890334696,6.381354268481594,-86.16588592529297,6.610325813293457,2.42645263671875,22558591.0,50354.0,-0.5312729817600949,-0.5389860874942148,0.24481190300560005,-0.02763055054675063,-0.02559813396921557,0.019611680744006158,22.558591690001776
1615,B,169000921728389.0,-2.980386752613393,0.3786401302336504,-11.296188,76,1970-01-02 22:56:40.921728389,6.987274,1.4463654,2.104538,19.54736212222716,7.4392910290455205,-86.73123931884766,6.947347640991211,2.254814624786377,22608945.0,50354.0,-0.32436527381209485,-0.5794922550062148,-0.20234414758730004,-0.021542404360541022,-0.02815992922913332,0.0010692106781665391,22.608945693995338
1615,B,169000972082393.0,3.3230800473866067,11.59610813023365,-5.54303,76,1970-01-02 22:56:40.972082393,1.0953522,3.4903717,0.6695404,6.995144085821595,3.7189750460897004,-87.88459014892578,6.591876029968262,1.9411710500717163,22659299.0,50354.0,0.008627989082505198,-0.19198096304621481,-0.4239609915860001,-0.00794931761763688,-0.019423381210906022,-0.01576848448896618,22.6592996979889
1615,B,169001022436396.0,8.830099247386606,14.633080130233651,-6.8203583,76,1970-01-02 22:56:41.022436396,-0.37409973,0.84381104,0.35725403,9.824618536176551,0.9897464933826214,-89.9106216430664,4.554127216339111,1.705282211303711,22709653.0,50354.0,0.3059805951045052,0.1669030728337852,-0.31127302722910005,0.007920900324076361,-0.0006313860418783406,-0.018510986891707777,22.70965370099293
1615,B,169001072790400.0,6.337194247386607,10.364372830233652,-0.5375824,76,1970-01-02 22:56:41.072790400,-1.8972473,-0.4603424,-0.309021,6.926556261088742,1.976602241483109,-90.11685943603516,3.5224781036376953,1.7212098836898804,22760007.0,50354.0,0.38186694831790524,0.13589167318568526,-0.1852508730039,0.01731793760074603,0.007623463320532207,-0.012500982236166244,22.760007704986492
1615,B,169001123144404.0,0.06549644738660687,9.157097430233652,2.1754608,76,1970-01-02 22:56:41.123144404,-3.6658173,-1.423584,-0.2441101,7.015633318578086,3.940101219887289,-89.84780883789062,3.787848472595215,1.8206931352615356,22810361.0,50354.0,0.16120054362230524,-0.0019771432522147333,0.04123686447680001,0.01367281024457868,0.0033715661201349878,-0.0036258406926867968,22.810361708980054
1615,B,169001173498408.0,-0.6304874526133932,2.52491013023365,-0.7934265,76,1970-01-02 22:56:41.173498408,-5.008911,-1.8772736,-0.5235596,13.31823000164051,5.374705594721457,-90.18121337890625,3.9322404861450195,1.9083820581436157,22860715.0,50354.0,-0.014224778538594801,-0.1993512956501148,0.034795477571100006,0.003700408837512578,-0.005068846106243951,0.001914266275739979,22.86071571300272
1615,B,169001223852412.0,-3.292383152613393,-3.795371869766349,-8.628082,76,1970-01-02 22:56:41.223852412,-5.0537567,1.9143677,-0.7987671,21.827729692404503,5.462901184685715,-91.00431823730469,4.138608455657959,1.7724196910858154,22911069.0,50354.0,-0.09876611322779481,-0.5254556152162149,-0.23720531950450002,-0.0028447716820023915,-0.01824846359488158,-0.005096072590357212,22.91106971699628
1615,B,169001274206416.0,5.055028947386607,-3.795371869766349,-5.4164886,76,1970-01-02 22:56:41.274206416,-3.4803467,1.971756,-1.1306458,20.386512445575967,4.156801029733626,-91.54242706298828,3.7545764446258545,1.6506143808364868,22961423.0,50354.0,0.0443781331750052,-0.6845813551302148,-0.35360015399620004,-0.0013693261737890842,-0.03046510080241206,-0.014874709406327125,22.961423720989842
1615,B,169001324560420.0,5.934835247386607,15.050331730233651,3.7362823,76,1970-01-02 22:56:41.324560420,-2.5209198,-4.959137,-1.8730011,5.5814640226787855,5.869941187388699,-90.69136810302734,2.6052474975585938,1.9559308290481567,23011777.0,50354.0,0.2766918108318052,-0.21010307559301478,-0.042302554015100004,0.008083577980259467,-0.02252546991231875,-0.009967642479600502,23.011777724983403
1615,B,169001374914424.0,-4.830575752613393,31.743828130233652,12.603577,76,1970-01-02 22:56:41.374914424,0.06854248,-2.7487183,-0.3796692,21.54171068934561,2.775661914885904,-88.2131118774414,4.047512054443359,2.2371180057525635,23062131.0,50354.0,0.02780194129990522,0.6846673628069854,0.41138863759610006,0.007666239197420074,0.01194810505918614,0.009292480326318839,23.062131728976965
1615,B,169001425268428.0,-0.6112917526133932,24.725518130233652,9.712311,76,1970-01-02 22:56:41.425268428,3.1002655,1.2150269,-0.3491974,13.553538637677283,3.3481151955063644,-85.31379699707031,4.864929676055908,2.3903861045837402,23112485.0,50354.0,-0.13700989817909479,0.9282595307997855,0.561847112176,-0.0027495287303473557,0.04060866040033767,0.024503156472012164,23.11248573299963
1615,B,169001475622432.0,-1.027276952613393,8.08538113023365,-7.503174,76,1970-01-02 22:56:41.475622432,3.7370148,2.920868,-0.51716614,10.98909803069304,4.771185419285813,-86.19876861572266,5.14361572265625,2.15020751953125,23162839.0,50354.0,-0.041254244291494796,0.33261081068078524,0.055619442249000006,-0.0044881563149820345,0.03174493258745633,0.015545955440758225,23.16283973699319
1615,B,169001525976436.0,4.832281247386607,8.29331263023365,-13.770691,76,1970-01-02 22:56:41.525976436,-0.23704529,0.73846436,-0.23564148,15.87258240273552,0.8105843494652387,-87.50199890136719,4.810686111450195,2.0007266998291016,23213193.0,50354.0,0.09579859312950521,-0.08110282719271483,-0.5356120991050001,0.0013732630706945884,0.006332216500279149,-0.012084775121663515,23.213193740986753
1615,B,169001576330439.0,-4.739145252613393,5.884438130233651,-1.1008453,76,1970-01-02 22:56:41.576330439,-2.8817902,3.7512665,0.3836975,11.768646975913898,4.745939199183291,-87.84928894042969,5.534886360168457,1.7956078052520752,23263547.0,50354.0,0.0023448849404052144,-0.1365159691037148,-0.3744206694251,0.002470958347366135,-0.0054789884343552095,-0.02291189501328233,23.263547743990785
1615,B,169001626684443.0,-14.085992752613393,-0.13532186976634897,4.1671143,76,1970-01-02 22:56:41.626684443,-0.50727844,4.2604523,0.72084045,22.75528214461806,4.350677667975453,-87.6705322265625,6.4796223640441895,1.6062268018722534,23313901.0,50354.0,-0.47396049955759484,-0.3487236999102148,0.077199454613,-0.011873866329216984,-0.012216879146763705,-0.007483138525324243,23.313901747984346
1615,B,169001677038447.0,-10.271936752613394,-1.249991869766351,12.121597,76,1970-01-02 22:56:41.677038447,3.081253,1.0012665,1.7314606,24.017873894578887,3.6735011179232826,-86.8351058959961,7.168093681335449,1.6419020891189575,23364255.0,50354.0,-0.6132595911530948,-0.5283472440202148,0.4101008844001,-0.027372940223823035,-0.022082015155336428,0.01226876063533282,23.364255751977907
1615,B,169001727392451.0,-7.838678752613393,-3.795371869766349,3.1567535,76,1970-01-02 22:56:41.727392451,6.6763916,2.7709808,1.6168976,21.889705748386554,7.407219264974201,-86.38111877441406,7.724777698516846,1.5262564420700073,23414609.0,50354.0,-0.45597096657509484,-0.6204963228702148,0.38466303053850004,-0.02692001775192263,-0.028924434483600346,0.020009771086409136,23.414609756000573
1615,B,169001777746455.0,4.049383247386607,1.0585261302336502,-13.560196,76,1970-01-02 22:56:41.777746455,3.7226257,4.166275,0.99645996,20.000609913921053,5.675272850692616,-87.26620483398438,7.4956865310668945,1.1811269521713257,23464963.0,50354.0,-0.09540309293509479,-0.5623747651842148,-0.2619274718225,-0.013881944696288045,-0.029781145383946373,0.0030901131617927335,23.464963759994134
1615,B,169001828100459.0,5.460317647386607,11.82500513023365,-10.085083,76,1970-01-02 22:56:41.828100459,0.5327301,1.8049927,0.37696838,11.362911377331125,1.9193501936903343,-88.55308532714844,7.007536888122559,0.9267188310623169,23515317.0,50354.0,0.23942573942770523,-0.1691005334552148,-0.595317189383,0.003626058170744453,-0.01841635359384492,-0.021582848835170875,23.515317763987696
1615,B,169001878454463.0,7.094366247386607,13.05573333023365,-2.2077942,76,1970-01-02 22:56:41.878454463,-0.5954895,0.38337708,0.51252747,6.251458567464034,0.8742254500894934,-89.10784912109375,5.765407085418701,0.8502602577209473,23565671.0,50354.0,0.3160892764187052,0.13295315221918522,-0.3094977692644,0.013986201553965075,-0.0009100826173795171,-0.02278052621386559,23.565671767981257
1615,B,169001928808467.0,4.045431247386607,12.059960130233652,-5.623642,76,1970-01-02 22:56:41.928808467,-2.0886993,0.34077454,-0.44787598,7.002079425182279,2.163188606292494,-90.38018798828125,5.218935489654541,0.721672773361206,23616025.0,50354.0,0.2804666815259052,0.13886861425418523,-0.19717206920740002,0.01501948935317146,0.006843656614500047,-0.01275642652320451,23.61602577197482
1615,B,169001979162471.0,2.597753547386607,7.1639331302336515,-0.83657837,76,1970-01-02 22:56:41.979162471,-3.9877167,-0.8204498,-1.123764,8.503764443925144,4.223490012001323,-90.70784759521484,4.904082298278809,0.7521251440048218,23666379.0,50354.0,0.16725546357800522,-0.009469239381214745,-0.16264896825549002,0.011272300447281152,0.003257888061176778,-0.009059214260203183,23.666379775997484
1615,B,169002029516475.0,-1.9235477526133933,-1.305914869766351,-7.2447815,76,1970-01-02 22:56:42.029516475,-5.6835175,-2.617035,-1.727829,18.762583723106562,6.491273867067407,-91.5197525024414,4.994102478027344,0.837798535823822,23716733.0,50354.0,0.016974479295005205,-0.34598187425621485,-0.20346439744699002,0.0046383572717137835,-0.008949192688049565,-0.00921763620829134,23.716733779991046
1615,B,169002079870479.0,-9.462472752613394,-3.795371869766349,-17.415222,76,1970-01-02 22:56:42.079870479,-3.9262543,3.937149,-1.4924011,28.398952981805387,5.757071835555876,-92.5897445678711,5.391721248626709,0.5639718770980835,23767087.0,50354.0,-0.28666583826009484,-0.6219042962412149,-0.6208649081195001,-0.006790019344664062,-0.02436847011461379,-0.020754138926247525,23.767087783984607
1615,B,169002130224482.0,-1.9848727526133934,-3.795371869766349,-12.108719,76,1970-01-02 22:56:42.130224482,-3.740509,-3.8981934,-3.4875488,23.172348297711867,6.430421136695948,-93.4543228149414,5.346092224121094,0.7023399472236633,23817441.0,50354.0,-0.28820981778509486,-0.6845813551302148,-0.743324262557,-0.014473644392249744,-0.032893389244578485,-0.03434619075012225,23.81744178698864
1615,B,169002180578486.0,-4.220163352613393,26.06711613023365,12.352905,76,1970-01-02 22:56:42.180578486,-2.6521454,-5.2380676,-1.4401398,17.287947426215823,6.0452650933151775,-91.08972930908203,6.759490489959717,1.228690505027771,23867795.0,50354.0,-0.1562241940212948,0.0672665052457852,0.006147870921999979,-0.011189515115249472,-0.015542135975540286,-0.018559890012194397,23.8677957909822
1615,B,169002230932490.0,-6.700860752613393,26.84308713023365,14.057465,76,1970-01-02 22:56:42.230932490,1.2250214,-0.08859253,0.35647583,19.922148621030438,1.2789062061793075,-88.66676330566406,8.42845344543457,1.5458234548568726,23918149.0,50354.0,-0.2749586238972948,0.8386509874887854,0.6649338854900001,-0.010855889806736331,0.022808284714578284,0.016895825381184927,23.91814979497576
1615,B,169002281286494.0,1.4631862873866068,20.75501313023365,5.070862,76,1970-01-02 22:56:42.281286494,3.039444,2.1070557,-0.10430908,7.2464410702454565,3.6998356634057323,-85.69361114501953,9.009403228759766,1.8700401782989502,23968503.0,50354.0,-0.13186893001101482,0.7049081702577851,0.481593888879,-0.010242697324749512,0.03886218891458541,0.028866129775288317,23.968503798998427
1615,B,169002331640498.0,6.143621247386607,0.5553361302336501,-15.53009,76,1970-01-02 22:56:42.331640498,4.147751,1.2005615,0.37957764,22.043484192956,4.334658632242132,-86.58735656738281,8.613147735595703,1.6429463624954224,24018857.0,50354.0,0.19151659330298523,0.04306146333078517,-0.263331983356,0.001501749218701939,0.018831631464859434,0.005495179995352571,24.018857802991988
1615,B,169002381994502.0,8.472875647386607,11.950920730233651,-12.224121,76,1970-01-02 22:56:42.381994502,-2.7885895,-2.9205933,-0.14729309,14.38365104928633,4.040766248853909,-87.95407104492188,7.898715496063232,1.611253023147583,24069211.0,50354.0,0.3679995423197052,-0.1785991710240148,-0.698767770347,0.014086937746572478,-0.0034124328665924423,-0.024222785498980434,24.06921180698555
1615,B,169002432348506.0,1.354864147386607,-0.9496068697663489,14.740143,76,1970-01-02 22:56:42.432348506,-1.3058167,-0.8071747,-0.86898804,22.160387300281297,1.7640375460805877,-87.0916748046875,7.731144428253174,1.7759063243865967,24119565.0,50354.0,0.2474330048130052,-0.21648912093501477,0.06334588589399999,0.015494745239160251,-0.009947137926652487,-0.01599801678487318,24.11956581097911
1615,B,169002482702510.0,-2.1048373526133934,1.91538313023365,9.645889,76,1970-01-02 22:56:42.482702510,0.5268097,4.9845276,1.575058,17.190093806557375,5.2539367676571676,-86.34696960449219,7.989171028137207,1.6315258741378784,24169919.0,50354.0,-0.018882075387994805,-0.46915385109021485,0.6139671276640001,0.005754226750133487,-0.017262433106679208,0.01705270974234977,24.169919815001776
1615,B,169002533056514.0,-9.553659752613394,-3.0326458697663483,8.474426,76,1970-01-02 22:56:42.533056514,7.3972015,-0.05091858,2.31221,23.41157633418677,7.7503224331308616,-85.52543640136719,8.63054370880127,1.7086652517318726,24220273.0,50354.0,-0.2935259816182948,-0.5215985239932148,0.45621517075499995,-0.007865497651247354,-0.02494417254747551,0.02694397972729517,24.220273818995338
1615,B,169002583410518.0,-7.742639752613393,-3.795371869766349,-0.6267395,76,1970-01-02 22:56:42.583410518,5.59169,3.7498322,1.3305054,21.62730223389959,6.862833467576348,-85.41748046875,9.146495819091797,1.5037201642990112,24270627.0,50354.0,-0.4354689326430949,-0.6653782026282148,0.1975812030105,-0.018353904956359007,-0.029884513046147736,0.016460631302293992,24.2706278229889
1615,B,169002633764521.0,10.144888247386605,-3.795371869766349,-18.267487,76,1970-01-02 22:56:42.633764521,3.6873627,6.3931427,0.99057007,27.906492423198927,7.446485501731296,-86.30824279785156,8.650298118591309,1.0259461402893066,24320981.0,50354.0,0.06048141035290516,-0.6845813551302148,-0.47569994059049997,-0.009441060848700108,-0.03398793178568398,-0.007002195456051659,24.32098182599293
1615,B,169002684118525.0,6.577672947386607,17.521187430233653,-8.092972,76,1970-01-02 22:56:42.684118525,0.6852875,1.3032684,0.30137634,9.582339292907248,1.5029820951716644,-88.81849670410156,7.290114879608154,0.6093165874481201,24371335.0,50354.0,0.42102392320080523,-0.14789434163411475,-0.663677276243,0.012122859782881768,-0.020959240617435527,-0.028686100188217028,24.371335829986492
1615,B,169002734472529.0,6.898412747386607,13.840202930233652,0.15856934,76,1970-01-02 22:56:42.734472529,-0.03504944,0.12788391,0.65115356,5.3704833128894025,0.6645176569376282,-88.78809356689453,5.920970916748047,0.6073627471923828,24421689.0,50354.0,0.33928740953730524,0.2961165251054853,-0.19976445577082,0.01914235842434741,0.0037317899132586966,-0.021738872486911948,24.421689833980054
1615,B,169002784826533.0,3.0778713473866066,16.88510953023365,-8.212936,76,1970-01-02 22:56:42.784826533,-2.590805,3.4297485,-2.047577,8.40831659157012,4.7610940856284545,-91.7863540649414,5.430098533630371,0.15145519375801086,24472043.0,50354.0,0.2511729046541052,0.2801019918171852,-0.20278478939882,0.014866019330397141,0.014507453600562078,-0.010134982345636026,24.47204383800272
1615,B,169002835180537.0,3.745916347386607,0.46300613023365145,4.3695526,76,1970-01-02 22:56:42.835180537,-5.057846,-3.3470612,-2.2284698,15.863264460992148,6.461478351412583,-91.58493041992188,5.022754192352295,0.36371371150016785,24522397.0,50354.0,0.1718025027913052,-0.05669569201641482,-0.0967648638618,0.010649251833253099,0.005624700410083996,-0.00754176162014263,24.52239784199628
1615,B,169002885534541.0,-6.975259752613392,-3.795371869766349,-2.3682861,76,1970-01-02 22:56:42.885534541,-5.461548,-3.2058868,-1.4463959,21.421084607958374,6.496020153159552,-91.96625518798828,5.427677631378174,0.5145046710968018,24572751.0,50354.0,-0.08130517891339478,-0.5773681722242148,0.05038588667049999,0.0022784511232741512,-0.01596382590998633,-0.0011676835087453604,24.572751845989842
1615,B,169002935888545.0,-9.409005752613394,-3.795371869766349,-11.071671,76,1970-01-02 22:56:42.935888545,-3.6445618,4.9134216,-1.3380432,24.991767536724147,6.262180302293447,-92.7718505859375,5.88407564163208,0.21020416915416718,24623105.0,50354.0,-0.4125066526250948,-0.6845813551302148,-0.3383777999067,-0.012432700482644552,-0.03177210325020247,-0.007250772399547809,24.623105849983403
1615,B,169002986242549.0,13.504568247386606,-2.329092869766349,-7.2816772,76,1970-01-02 22:56:42.986242549,-2.4145355,-2.776764,-3.3848724,22.596289212278126,4.999776110661157,-93.28621673583984,4.867105960845947,0.320476233959198,24673459.0,50354.0,0.10311397693090515,-0.6476648487472149,-0.4620822476314,-0.007789579395952612,-0.03354196267502205,-0.020153182616866747,24.673459853976965
1615,B,169003036596553.0,-1.270364752613393,34.62430613023365,12.426498,76,1970-01-02 22:56:43.036596553,-2.6233215,-5.092743,-0.3069458,22.940338959611584,5.736903579506011,-90.73855590820312,5.965166091918945,0.8263035416603088,24723813.0,50354.0,0.3080205413879052,0.3196273842587852,0.12953115328160003,0.010351133767712689,-0.008258999243425194,-0.008372638902444914,24.72381385799963
1615,B,169003086950557.0,-6.039850252613393,24.40789113023365,9.9131775,76,1970-01-02 22:56:43.086950557,2.3319702,-0.020385742,0.112579346,15.422254767019721,2.334775085808207,-88.46537780761719,7.873668193817139,1.0890579223632812,24774167.0,50354.0,-0.1840492831865948,0.9927844304267854,0.5624460100635,0.0031212243677343917,0.03304259225833861,0.017421909041539587,24.77416786199319
1615,B,169003137304561.0,4.404348347386607,19.62177313023365,3.0792847,76,1970-01-02 22:56:43.137304561,2.6983795,1.3188324,-0.42733765,5.691091493784764,3.0336757065344897,-85.90399169921875,6.317469596862793,1.3211878538131714,24824521.0,50354.0,-0.04117703146789478,0.6150656570857853,0.3271112208094,-0.005670522924056085,0.040480841653304,0.022396382401687006,24.824521865986753
1615,B,169003187658564.0,4.662099847386607,2.3274011302336515,-16.840729,76,1970-01-02 22:56:43.187658564,3.551361,1.9933167,-0.07015991,21.623798679163837,4.0731313300446255,-86.91927337646484,6.0445475578308105,1.0932750701904297,24874875.0,50354.0,0.22826596619980521,0.05914516035578519,-0.3464718831411,0.004710338109745309,0.016974605750726422,-0.00048744339552521024,24.874875868990785
1615,B,169003238012568.0,9.881445247386607,15.355538010233651,-12.981049,76,1970-01-02 22:56:43.238012568,-3.1233673,-1.1245575,-0.4510498,15.280338932597678,3.350149068861799,-89.5184326171875,4.516651630401611,0.925075888633728,24925229.0,50354.0,0.36616283485110523,-0.04826584126045475,-0.7508229047060001,0.014965933924058773,0.0002739086168631344,-0.027626590873626445,24.925229872984346
1615,B,169003288366572.0,0.3510494473866068,-2.7728798697663493,-5.789322,76,1970-01-02 22:56:43.288366572,0.5652771,4.222046,-0.63975525,19.311049327507032,4.307493169559642,-89.94902801513672,4.487438678741455,0.6783443093299866,24975583.0,50354.0,0.2576235189303052,-0.1766756159974548,-0.47258163066700004,0.015705069029154573,-0.005663351069382388,-0.030801655987086025,24.975583876977907
1615,B,169003338720576.0,-6.307138752613393,2.38634513023365,5.9705505,76,1970-01-02 22:56:43.338720576,1.676178,0.018554688,1.9845276,16.6169192512223,2.597742627608158,-89.34950256347656,5.196084022521973,0.7215537428855896,25025937.0,50354.0,-0.1499564604376948,-0.5032009851372148,0.00456278994449999,0.002710733531668452,-0.017117253186767576,-0.011783310352870384,25.025937881000573
1615,B,169003389074580.0,-10.017144752613394,-3.795371869766349,7.600769,76,1970-01-02 22:56:43.389074580,6.2457886,-0.4029541,2.6908875,23.954337383432964,6.81271772351189,-88.59123992919922,5.929635047912598,0.788362443447113,25076291.0,50354.0,-0.4109964858110949,-0.5289442662212148,0.3416851110515,-0.014123112327705778,-0.02598632099345118,0.008717483403376292,25.076291884994134
1615,B,169003439428584.0,-6.278939752613392,-2.9100868697663493,-7.401764,76,1970-01-02 22:56:43.439428584,5.904663,5.0653076,0.9833832,21.511159297989707,7.841519543062366,-88.84938049316406,6.395005226135254,0.4795219898223877,25126645.0,50354.0,-0.41028651958809487,-0.6622925346852149,0.005010348884999991,-0.020677442226935402,-0.02999176893642118,0.008728751594821262,25.126645888987696
1615,B,169003489782588.0,8.748525647386607,4.246865130233651,-17.249756,76,1970-01-02 22:56:43.489782588,1.7673492,4.491394,1.0494385,21.776016929061168,4.93937895116976,-89.94065856933594,5.915450096130371,0.1305847316980362,25176999.0,50354.0,0.06217676407270524,-0.4598131337362148,-0.62065131904,-0.008764359314610965,-0.028251254413846336,-0.015499992705592438,25.176999892981257
1615,B,169003540136592.0,6.679006647386607,16.38488067023365,-7.148163,76,1970-01-02 22:56:43.540136592,0.27990723,0.20959473,0.4767456,8.677532429903652,0.5912396936686557,-92.32017517089844,4.349832057952881,-0.09418237209320068,25227353.0,50354.0,0.3884189805855053,0.025976264018365176,-0.614266406663,0.011344649063259767,-0.0109227108688863,-0.031091523580024438,25.22735389697482
1615,B,169003590490596.0,5.034246447386606,12.731957130233651,-6.0451508,76,1970-01-02 22:56:43.590490596,-1.2632751,-0.59324646,-0.21798706,7.417873717791189,1.4125592727068075,-93.52750396728516,3.676051616668701,-0.14389431476593018,25277707.0,50354.0,0.2949045731671052,0.23960542530236514,-0.33216806154260003,0.017204037112829477,0.006686550192028028,-0.023828380606012393,25.277707900997484
1615,B,169003640844600.0,-1.9458407526133932,6.622002130233652,-6.0391083,76,1970-01-02 22:56:43.640844600,-3.320938,-0.44618225,-0.93948364,11.450920662226855,3.4799909927881583,-94.37852478027344,4.0261759757995605,-0.1653026044368744,25328061.0,50354.0,0.07775679017730519,-0.0061945676992147605,-0.30424539136070006,0.009382495144922221,0.005876585161874517,-0.016022981503746387,25.328061904991046
1615,B,169003691198604.0,0.6150722473866068,-3.795371869766349,1.7301636,76,1970-01-02 22:56:43.691198604,-5.105301,-1.9216614,-0.709671,19.500901641949763,5.500955713791192,-94.39088439941406,3.987701654434204,-0.049974970519542694,25378415.0,50354.0,-0.0335047586560948,-0.42230312993221475,-0.10848630071189999,0.0011141333976095141,-0.010788286533266501,-0.010391345811311853,25.378415908984607
1615,B,169003741552607.0,-4.708642752613393,-3.795371869766349,1.6565552,76,1970-01-02 22:56:43.741552607,-5.1411896,-1.3035278,-1.5047607,20.524318018508094,5.513195080240267,-94.42340850830078,4.279296398162842,0.03613125905394554,25428769.0,50354.0,-0.1030638246100948,-0.6845813551302148,0.08526741922759999,-0.0034383872208928554,-0.02786803068041679,-0.0005845817791302211,25.42876991198864
1615,B,169003791906611.0,1.8052578183866068,-3.795371869766349,1.6742096,76,1970-01-02 22:56:43.791906611,-2.9658813,-0.06523132,-1.581131,19.45852009110068,3.3616487398239023,-94.33747100830078,4.0966081619262695,0.06279606372117996,25479123.0,50354.0,-0.0730985224890278,-0.6845813551302148,0.0838586653696,-0.00443523941291461,-0.03447140955622684,0.0042580874319037045,25.4791239159822
1615,B,169003842260615.0,-0.8279514526133933,8.92453813023365,-0.73109436,76,1970-01-02 22:56:43.842260615,-1.7336884,-4.9932404,-2.5022583,7.211638676710343,5.848027168234226,-94.44971466064453,4.421230316162109,0.3184022307395935,25529477.0,50354.0,0.024605642371072198,-0.3643321810602148,0.023744812397479997,-0.0012209052427297684,-0.026408496100666447,0.0027091327597417733,25.52947791997576
1615,B,169003892614619.0,-1.7343387526133933,31.21869713023365,9.6471405,76,1970-01-02 22:56:43.892614619,-0.1749878,-2.9268188,-0.24142456,18.707035013542157,2.9419678510061043,-91.94615936279297,5.834444999694824,0.6892916560173035,25579831.0,50354.0,-0.06451078049699481,0.5172170341527852,0.22447929366678002,-0.0010046916625963537,0.0038491819463116446,0.006249538318379874,25.579831923998427
1615,B,169003942968623.0,-1.3424625526133933,20.87392483023365,6.851364,76,1970-01-02 22:56:43.942968623,2.9191437,0.041656494,-0.0900116,9.212810858742392,2.920828186127459,-89.27770233154297,7.216111660003662,0.9758574366569519,25630185.0,50354.0,-0.07746462646169482,0.8180667430986853,0.4153828477965001,-0.003574514820998929,0.03361843965986028,0.016109809135621003,25.630185927991988
1615,B,169003993322627.0,-3.062768752613393,8.49567473023365,-5.5671234,76,1970-01-02 22:56:43.993322627,1.3590698,1.8448792,0.21044922,10.257424780765614,2.3010734143141303,-90.01899719238281,7.7802910804748535,0.779210090637207,25680539.0,50354.0,-0.11091050857169481,0.2459692081338853,0.032333325586200015,-0.004742720774735651,0.02678923314418243,0.011272150097256241,25.68053993198555
1615,B,169004043676631.0,-1.2972354526133933,7.48568013023365,-13.332703,76,1970-01-02 22:56:44.043676631,-1.4067535,1.4055481,0.27627563,15.912187740888408,2.007697461000476,-91.31068420410156,7.970973968505859,0.54209965467453,25730893.0,50354.0,-0.10977182587499482,-0.09110662867801482,-0.4758409292728001,-0.005556119134364304,0.0038989751629604505,-0.011166190938017531,25.73089393597911
1615,B,169004094030635.0,5.797536847386607,14.585686330233651,0.8981476,76,1970-01-02 22:56:44.094030635,-0.6821747,0.280365,0.04283142,4.196176015719665,0.7387837200996692,-91.03014373779297,6.582835674285889,0.568439781665802,25781247.0,50354.0,0.1133040882162052,0.06222159337518521,-0.31306480130580006,8.893176896465393e-05,-0.0007272385338193412,-0.01986227957877742,25.781247940001776
1615,B,169004144384639.0,1.2704677773866069,3.62397063023365,8.190048,76,1970-01-02 22:56:44.144384639,0.8043976,1.687912,1.0762177,14.511802095252841,2.157393556220805,-90.16478729248047,6.55557918548584,0.5780417919158936,25831601.0,50354.0,0.1779511524379152,-0.035004666706314795,0.22881350062120004,0.00733293319394879,0.0006852405627421505,-0.002121194997336175,25.831601943995338
1615,B,169004194738643.0,-0.9377383526133933,2.210778130233651,13.917343,76,1970-01-02 22:56:44.194738643,4.109665,-0.5376129,1.1230164,19.50252156442662,4.294128535237432,-88.92417907714844,6.699875831604004,0.7243225574493408,25881955.0,50354.0,0.008377128727515198,-0.34656773045771483,0.556597783207,0.004691187134902041,-0.009606848243398775,0.019774299892942597,25.8819559479889
1615,B,169004245092646.0,2.865499547386607,-3.795371869766349,0.7381134,76,1970-01-02 22:56:44.245092646,7.991867,-0.952713,1.7931213,19.42834624237724,8.245779781353107,-88.49117279052734,6.545303821563721,0.7766149640083313,25932309.0,50354.0,0.0485352436008052,-0.5333645165802149,0.36898042578280005,0.0014328827981101228,-0.022154054183673957,0.0233032825677362,25.93230995099293
1615,B,169004295446650.0,2.9068355473866068,0.9914331302336503,-16.81137,76,1970-01-02 22:56:44.295446650,5.262375,0.31306458,1.9979095,22.292194486870756,5.63757416288831,-89.34117126464844,6.471758842468262,0.6373390555381775,25982663.0,50354.0,0.1453300806811052,-0.5640639656452148,-0.40467638141820006,0.0048809472694456586,-0.027629956896989643,-0.0008987170750324662,25.982663954986492
1615,B,169004345800654.0,-1.194803252613393,8.500893130233651,-12.530365,76,1970-01-02 22:56:44.345800654,1.2049408,1.8831024,0.5329132,14.710246220222462,2.2982500862884003,-90.5281753540039,6.712883949279785,0.4010255038738251,26033017.0,50354.0,0.043103837085505206,-0.2544809017402148,-0.738736862095,0.00474420074760995,-0.02060850412616296,-0.02878771523193184,26.033017958980054
1615,B,169004396154658.0,5.804830547386607,12.795876130233651,-8.335251,76,1970-01-02 22:56:44.396154658,-0.45161438,0.5944824,0.041488647,9.650784803824758,0.7477206563700344,-91.7942123413086,6.076195240020752,0.23311513662338257,26083371.0,50354.0,0.11606665720050523,0.04271955967078524,-0.525333614032,0.0040074355346388845,-0.005331515309282029,-0.03182550237744948,26.08337196300272
1615,B,169004446508662.0,2.858892447386607,13.20601713023365,-2.773758,76,1970-01-02 22:56:44.446508662,-1.7371521,-0.7874298,-0.19087219,3.8017376023238425,1.9168138410857343,-92.89820861816406,5.580944538116455,0.1696198731660843,26133725.0,50354.0,0.21812655383940519,0.16118046661878524,-0.27969151959300004,0.008413982474351824,0.0051335909618925165,-0.02026811778927663,26.13372596699628
1615,B,169004496862666.0,2.788671517386607,3.3410881302336506,5.4668427,76,1970-01-02 22:56:44.496862666,-2.922821,-0.41401672,-0.027328491,13.449060561054083,2.952124538176006,-92.39202880859375,5.354127883911133,0.2527068257331848,26184079.0,50354.0,0.14218871794109522,-0.0768627308572148,0.06780379349190001,0.009071657597617659,0.002122867633269059,-0.005334697280047395,26.184079970989842
1615,B,169004547216670.0,-1.0227145526133932,-3.795371869766349,4.2802277,76,1970-01-02 22:56:44.547216670,-4.7493896,-3.4507446,-1.3442993,20.056262394374368,6.022580881565461,-92.24825286865234,5.36842679977417,0.46272730827331543,26234433.0,50354.0,0.0444614985020952,-0.5049067017102148,0.24540199146080002,0.004699292499390205,-0.014647209003750177,0.007885582047754129,26.234433974983403
1615,B,169004597570674.0,-0.407892252613393,-3.795371869766349,2.8322296,76,1970-01-02 22:56:44.597570674,-5.0182953,-0.50289917,-0.7105713,19.71883985360537,5.093241292690979,-92.23471069335938,5.364408016204834,0.5138728022575378,26284787.0,50354.0,-0.0360183875351948,-0.6845813551302148,0.17907033744210002,0.00021257220481365148,-0.029947740807071497,0.010686939824788315,26.284787978976965
1615,B,169004647924678.0,-0.7351321526133929,-3.795371869766349,8.452118,76,1970-01-02 22:56:44.647924678,-4.14888,-2.142807,-1.3503418,21.302983382632522,4.8608898434830055,-91.81045532226562,5.352105617523193,0.6820968985557556,26335141.0,50354.0,-0.02877792545039479,-0.6845813551302148,0.28410601952520004,-0.0016313767720381892,-0.03447140955622684,0.011661391139365715,26.33514198299963
1615,B,169004698278682.0,-3.3010347526133925,20.12418413023365,10.713394,76,1970-01-02 22:56:44.698278682,-2.4694977,-4.687317,-1.4375916,12.711830846367842,5.489629236768622,-89.35746002197266,6.610483169555664,1.1847658157348633,26385495.0,50354.0,-0.10161857417289479,-0.08235869371821478,0.482530095624,-0.003282992671015562,-0.019309249609856912,0.01930159747111141,26.38549598699319
1615,B,169004748632686.0,-2.0844517526133934,27.30645013023365,9.281891,76,1970-01-02 22:56:44.748632686,1.2452087,-0.89738464,-0.41557312,15.449275862377595,1.5901399047662925,-86.76028442382812,7.970052719116211,1.5515869855880737,26435849.0,50354.0,-0.1355903937420948,0.7006918787757853,0.5034212904450001,-0.005972210185195693,0.015567774600194454,0.024823298047059218,26.435849990986753
1615,B,169004798986689.0,-1.4800967526133932,17.197762130233652,3.7564697,76,1970-01-02 22:56:44.798986689,2.955246,0.92604065,-0.074523926,5.254381538508133,3.09783537676147,-84.46107482910156,9.881869316101074,1.8419458866119385,26486203.0,50354.0,-0.08974463771609482,0.6270133520817852,0.3282668073439,-0.005673260087022841,0.033427634597301054,0.020939411238031138,26.486203993990785
1615,B,169004849340693.0,-3.623361752613393,2.1858751302336508,-12.753906,76,1970-01-02 22:56:44.849340693,0.34457397,1.4529114,0.61813354,19.288092863198088,1.6160977168242185,-85.51143646240234,10.161514282226562,1.5879054069519043,26536557.0,50354.0,-0.1284897747860948,-0.005447364693214747,-0.22652845372510003,-0.005494487803567628,0.01564916686448204,0.0025614665290605272,26.536557997984346
1615,B,169004899694697.0,11.993353247386606,-3.795371869766349,6.9698334,76,1970-01-02 22:56:44.899694697,-0.6628418,1.5586395,-0.85554504,22.974532193311372,1.8975441123347019,-85.2153091430664,9.28236198425293,1.5639910697937012,26586912.0,50355.0,0.21073546085965256,-0.5340021041595845,-0.1456284878865,0.0020707407611170003,-0.01358198900204135,-0.00936998139742606,26.586912001977907
1615,B,169004950048701.0,4.183477447386607,13.190071730233651,8.829224,76,1970-01-02 22:56:44.950048701,-1.1029358,-1.7520447,-2.2812347,9.449214413667223,3.080610291192935,-83.93950653076172,8.728731155395508,1.8493626117706299,26637266.0,50354.0,0.4072840664023052,-0.2569388416130148,0.3977728681598,0.01555987763787431,-0.019913520191716733,0.006348239062140874,26.637266006000573
1615,B,169005000402705.0,-5.139703752613393,4.53579013023365,14.786835,76,1970-01-02 22:56:45.000402705,2.3510132,2.397812,0.7226715,19.732158613307035,3.434970094604972,-82.84477233886719,9.13829231262207,1.8874590396881104,26687620.0,50354.0,-0.024074909686694793,-0.0471851759390148,0.594581517443,0.009648056938628923,-0.0076569303899074485,0.0249845063663217,26.687620009994134
1615,B,169005050756709.0,-9.657922752613393,-3.2223278697663496,-1.553421,76,1970-01-02 22:56:45.050756709,8.2703705,3.4131317,2.3594666,22.09487738121943,9.252868681945653,-82.71226501464844,9.821520805358887,1.6909390687942505,26737974.0,50354.0,-0.3725598425220948,-0.4604001606682148,0.333177664278,-0.009986073156360695,-0.012779476019760221,0.023358192918189618,26.737974013987696
1615,B,169005101110713.0,13.196920247386606,2.1417776302336513,8.103683,76,1970-01-02 22:56:45.101110713,6.1096497,-2.11615,3.5198822,19.388106656453854,7.36175800886493,-81.91254425048828,8.972270965576172,1.8948211669921875,26788328.0,50354.0,0.08910133992590519,-0.5206742133807148,0.164915946374,-0.007136634719864266,-0.024700509515429903,0.012540502835385403,26.788328017981257
1615,B,169005151464717.0,8.015844247386607,15.70490325023365,-2.4172058,76,1970-01-02 22:56:45.151464717,2.005478,-1.5028534,1.6936188,6.648105608305867,3.0247074222292976,-82.85523223876953,6.379420280456543,1.838484525680542,26838682.0,50354.0,0.5340737716849051,-0.04414331547247478,0.14316843646440003,0.015689679785025373,-0.014220410923936755,0.007756640506722397,26.83868202197482
1615,B,169005201818721.0,7.023931547386607,11.266213130233652,-2.8912354,76,1970-01-02 22:56:45.201818721,0.14706421,1.3322296,0.5201416,7.3555596068602185,1.4377102882812114,-83.52054595947266,5.321329593658447,1.7073785066604614,26889036.0,50354.0,0.3786564351850052,0.1855825971110253,-0.1336506240924,0.022979808418363733,0.0035610167938137866,0.00023962996208984474,26.889036025997484
1615,B,169005252172725.0,3.893758747386607,13.70067653023365,-6.6126404,76,1970-01-02 22:56:45.252172725,-2.2968903,1.5250549,-0.94436646,7.182270194860088,2.9143310568672582,-85.0002212524414,4.848450660705566,1.5061300992965698,26939390.0,50354.0,0.2748746885515052,0.13512218098158524,-0.2392790810166,0.016453953102314126,0.008074384198037656,-0.009389251185529295,26.939390029991046
1615,B,169005302526729.0,1.3566494173866068,11.23741973023365,-3.615509,76,1970-01-02 22:56:45.302526729,-3.4033966,-2.6066284,-0.80900574,5.678347408157119,4.3625806949477814,-86.16751861572266,4.8288893699646,1.5479063987731934,26989744.0,50354.0,0.1321895263644952,0.1343972495497852,-0.2575141174438,0.010248655738940144,0.0067856907024883145,-0.012507762357637491,26.989744033984607
1615,B,169005352880732.0,3.1961879473866066,-1.4711988697663507,1.3255463,76,1970-01-02 22:56:45.352880732,-3.5230865,-1.7945709,-0.9850311,17.168532714803856,4.07466679246,-86.32133483886719,4.539588928222656,1.6361044645309448,27040098.0,50354.0,0.1146267863328952,-0.24758505739601486,-0.0576543908979,0.0062140943047821985,-0.0028497294381445238,-0.00793499753451898,27.04009803698864
1615,B,169005403234736.0,-14.810907752613394,-3.795371869766349,-1.7690277,76,1970-01-02 22:56:45.403234736,-4.200943,0.14151001,-1.721405,25.60612333175409,4.542156134062787,-86.70162963867188,5.296509742736816,1.6075812578201294,27090452.0,50354.0,-0.2924238005361948,-0.6260656515092149,-0.0111655312078,-0.004476395426596475,-0.02199590389810697,-0.0017326791788552088,27.0904520409822
1615,B,169005453588740.0,16.099630247386607,-3.795371869766349,13.72023,76,1970-01-02 22:56:45.453588740,-3.029663,-1.6875305,-0.2982025,27.710553977454115,3.4807386878370377,-86.193603515625,4.445261478424072,1.7477253675460815,27140806.0,50354.0,0.03244616625090518,-0.6845813551302148,0.30089542030710004,-0.006545456898400737,-0.032998159686160926,0.007294529417853077,27.14080604497576
1615,B,169005503942744.0,-1.6458682526133932,9.76398513023365,16.383331,76,1970-01-02 22:56:45.503942744,-4.6138306,-6.235489,-0.99024963,17.73149727804923,7.8198049978456945,-85.10648345947266,4.607510566711426,2.1582748889923096,27191160.0,50354.0,0.3639023657424052,-0.34319742394121483,0.757917355297,0.009978866989995576,-0.025876386320681385,0.026657729251384432,27.191160048998427
1615,B,169005554296748.0,-1.7007999526133932,29.96550813023365,13.592514,76,1970-01-02 22:56:45.554296748,0.3929596,-1.0857697,-0.78648376,20.094930921408334,1.3970933374023324,-82.33407592773438,5.403602123260498,2.4492197036743164,27241514.0,50354.0,-0.08425906540299481,0.5068002518187852,0.7547018495650001,0.0070405793726453355,0.004119028397473589,0.03808321372081058,27.241514052991988
1615,B,169005604650752.0,-1.399835552613393,21.85378313023365,5.6790466,76,1970-01-02 22:56:45.604650752,3.9685822,1.7333069,0.22467041,9.04798693662913,4.336412605008202,-79.64494323730469,6.851616859436035,2.633638381958008,27291868.0,50354.0,-0.0780647001150948,0.8111850960647853,0.48520008122620006,-0.004086825444448943,0.03318291710366466,0.03121701091153005,27.29186805698555
1615,B,169005655004756.0,1.3993587673866068,10.409279430233651,-5.1941833,76,1970-01-02 22:56:45.655004756,3.4361267,1.8608856,0.06210327,7.3491306074314995,3.908160530337123,-80.6699447631836,6.8546462059021,2.4005091190338135,27342222.0,50354.0,-1.2004021654795667e-05,0.31881792608488524,0.012207403304100018,-0.0019657371800509446,0.028450086088662254,0.012523228238019365,27.34222206097911
1615,B,169005705358760.0,2.5427303473866067,-1.2346568697663507,-8.585373,76,1970-01-02 22:56:45.705358760,-1.9831543,0.90859985,-0.61590576,18.903110549812922,2.2666703708809735,-81.62934875488281,6.638718128204346,2.250166893005371,27392576.0,50354.0,0.0992499776426452,-0.2624797277951148,-0.3469278889651,0.0024985144618556755,0.0014184268183415503,-0.008427257667486997,27.392576065001776
1615,B,169005755712764.0,-1.689554152613393,-3.741873869766348,18.522537,76,1970-01-02 22:56:45.755712764,-3.1440735,2.3078766,0.3103943,27.003468248120942,3.9125231239830778,-80.97120666503906,6.722249507904053,2.2337486743927,27442930.0,50354.0,0.021480417055805202,-0.6187633144292148,0.25018797802799997,0.003039629147322886,-0.022187056074081946,-0.002435620737663368,27.442930068995338
1615,B,169005806066768.0,-8.394174752613393,8.31282863023365,4.63208,76,1970-01-02 22:56:45.806066768,0.03677368,1.0808411,-1.0036926,13.372906218636256,1.4754553948814286,-80.60616302490234,7.66889762878418,2.2184340953826904,27493284.0,50354.0,-0.25387804264689484,-0.3783862719957148,0.5829637922090001,-0.005851075019506865,-0.025105235137420454,0.02097626211925695,27.4932840729889
1615,B,169005856420771.0,-9.492120752613394,-3.795371869766349,12.896103,76,1970-01-02 22:56:45.856420771,3.065155,-0.11582947,3.05661,25.888031122701125,4.330295178419767,-79.91403198242188,8.281839370727539,2.3243980407714844,27543638.0,50354.0,-0.45032326193509487,-0.37973319114171483,0.441307063391,-0.017729676245460756,-0.019087173723411066,0.025788067331441206,27.54363807599293
1615,B,169005906774775.0,-7.211908752613392,-3.7747568697663496,-4.8876038,76,1970-01-02 22:56:45.906774775,8.8051605,5.029785,0.63897705,21.921780541480988,10.160604324911583,-80.0521469116211,8.769800186157227,2.001021385192871,27593992.0,50354.0,-0.4205573508530948,-0.6840623312752149,0.2016299843584,-0.02192616118816825,-0.02678317986789104,0.016187226051186644,27.593992079986492
1615,B,169005957128779.0,8.416494247386607,-2.1942358697663487,-15.9947815,76,1970-01-02 22:56:45.957128779,1.6013031,4.0870056,0.91815186,24.811502024336217,4.484505461087369,-81.09967803955078,8.341050148010254,1.6418873071670532,27644346.0,50354.0,0.030327849001905237,-0.6437505302032148,-0.5257558146981001,-0.0098248081681074,-0.03343034441344243,-0.00816051603046263,27.644346083980054
1615,B,169006007482783.0,7.022665247386607,14.747200630233651,-3.7799072,76,1970-01-02 22:56:46.007482783,0.89364624,-0.39672852,0.6913452,6.482892290807868,1.1974787290012996,-82.77401733398438,6.073550224304199,1.4499688148498535,27694700.0,50354.0,0.3887117185999052,-0.17742320622571475,-0.4978673373999,0.010550159193510782,-0.02067469116207116,-0.02577176010037135,27.69470008800272
1615,B,169006057836787.0,8.507070547386606,10.171395130233652,-2.7906342,76,1970-01-02 22:56:46.057836787,-0.08950806,0.4242859,0.2998352,9.045755560045746,0.5271919620999675,-83.32866668701172,4.954226970672607,1.378092885017395,27745054.0,50354.0,0.3909921581050052,0.13390628546128527,-0.16542652082780002,0.019630604503799533,-0.0010956255140860411,-0.016699749468598805,27.74505409199628
1615,B,169006108190791.0,7.776037247386607,17.66597813023365,-4.5984344,76,1970-01-02 22:56:46.108190791,-2.7072754,-0.16784668,-1.4413605,7.802587551492925,3.0716498319945966,-85.19556427001953,2.5973832607269287,1.266768455505371,27795408.0,50354.0,0.4099598049490052,0.20739234657878525,-0.1860345801422,0.02016556757381082,0.008592875658872855,-0.008848736139121691,27.795408095989842
1615,B,169006158544795.0,1.258398077386607,-1.8272778697663483,5.213806,76,1970-01-02 22:56:46.158544795,-3.958435,-4.245758,-1.0045929,18.190634838238978,5.891084411084212,-85.0897216796875,2.510326385498047,1.4875763654708862,27845762.0,50354.0,0.2274599781718152,-0.09469824354221477,0.01549321077319999,0.016048317879632894,0.002837299432151735,-0.004293720056603314,27.845762099983403
1615,B,169006208898799.0,-8.983972752613393,-3.795371869766349,2.59198,76,1970-01-02 22:56:46.208898799,-4.3265686,-1.7489319,-1.3935242,22.346295785519107,4.870304747890958,-85.24288940429688,3.0707876682281494,1.5706778764724731,27896116.0,50354.0,-0.19450679359818482,-0.6350306524922148,0.196526274122,0.0008296623280102923,-0.018372384415458836,0.0053380145712064505,27.896116103976965
1615,B,169006259252803.0,-3.291788052613393,-3.795371869766349,2.976593,76,1970-01-02 22:56:46.259252803,-2.4566345,2.9471436,-0.98480225,20.269681830009915,3.9611291240271718,-85.27800750732422,3.3208060264587402,1.4245848655700684,27946470.0,50354.0,-0.30906682979319483,-0.6845813551302148,0.140199962421,-0.012678473116124767,-0.033223871515909914,0.00847775645744311,27.94647010799963
1615,B,169006309606807.0,13.232000247386607,1.35402713023365,-2.0014954,76,1970-01-02 22:56:46.309606807,-2.9009094,-3.3994446,-2.0970306,18.353308658755406,4.936500407456063,-85.66246795654297,2.25058650970459,1.574794054031372,27996824.0,50354.0,0.25026472242780523,-0.5549349365072148,0.024550032275199998,-0.001480460657138414,-0.031207301674555567,0.004147910616466227,27.99682411199319
1615,B,169006359960811.0,-3.7304017526133926,27.876626130233653,10.780823,76,1970-01-02 22:56:46.359960811,-2.1279144,-4.156616,0.15522766,17.26303403677798,4.672212740406031,-83.2059097290039,3.544280529022217,1.9108338356018066,28047178.0,50354.0,0.23922174530290521,0.24247095713878528,0.22103713098520003,0.012323800798056098,-0.00786690560855895,0.006183148009407092,28.047178115986753
1615,B,169006410314814.0,-0.5844821526133932,26.09265913023365,10.8385315,76,1970-01-02 22:56:46.410314814,1.0739288,0.25083923,0.5043793,15.282631172695382,1.2127002370927957,-80.36486053466797,4.254140377044678,2.0913031101226807,28097532.0,50354.0,-0.1086358320818948,0.8653154950027855,0.5443104882465001,0.0032877615371653796,0.027890739505568328,0.019269157009396517,28.097532118990785
1615,B,169006460668818.0,3.9349880473866072,13.509606030233652,-1.6282654,76,1970-01-02 22:56:46.460668818,3.0416107,1.8522644,-0.7211304,3.382380391638677,3.6334980544464326,-81.04792785644531,3.2857038974761963,1.9380348920822144,28147886.0,50354.0,0.0843556869127052,0.5035970299450853,0.2318868695997,-0.0006113012149246865,0.03446511064061255,0.01954232087849378,28.147886122984346
1615,B,169006511022822.0,3.8252010473866065,1.34838163023365,-16.99202,76,1970-01-02 22:56:46.511022822,0.9740448,1.4878845,-0.008483887,22.26176096737306,1.7783800308387179,-82.22772979736328,3.1247010231018066,1.7958427667617798,28198240.0,50354.0,0.19537828083910522,-0.11938964467241478,-0.46880292551580005,0.007042862106087331,0.009673189339010025,-0.005964835539799651,28.198240126977907
1615,B,169006561376826.0,5.454610847386607,13.005547130233651,-1.0874023,76,1970-01-02 22:56:46.561376826,-3.1240082,-2.8414764,0.09284973,4.587997398467685,4.2239834798191715,-82.82334899902344,1.9378067255020142,1.9192365407943726,28248594.0,50354.0,0.23363782407470524,-0.1320803355977148,-0.45518561524710005,0.010801338473415007,-0.006331259693261052,-0.023263259490787537,28.248594131000573
1615,B,169006611730830.0,-3.645914052613393,-1.2737348697663506,16.907547,76,1970-01-02 22:56:46.611730830,0.09466553,1.2881622,-0.05960083,24.499010858057368,1.2930103151234755,-81.96272277832031,2.2255046367645264,1.8860998153686523,28298948.0,50354.0,0.0455375592020052,-0.19809736271821482,0.3983037831119,0.007028798624757739,-0.00831288391050016,-0.0014321138876679314,28.298948134994134
1615,B,169006662084834.0,0.31720544738660683,3.0494621302336515,10.509933,76,1970-01-02 22:56:46.662084834,2.8928528,3.8137054,1.1148834,16.43223080849576,4.914866345695736,-81.07042694091797,2.3927526473999023,1.7355525493621826,28349302.0,50354.0,-0.08380689655379481,-0.44876171476321486,0.6902898939600001,-0.000963507106506007,-0.016285970993749958,0.02740752300763923,28.349302138987696
1615,B,169006712438838.0,-6.971475752613393,-3.795371869766349,7.981003,76,1970-01-02 22:56:46.712438838,7.115509,0.7106323,1.3866882,22.735081233000837,7.284117706277373,-80.40817260742188,2.9668233394622803,1.7273461818695068,28399656.0,50354.0,-0.1675345634746948,-0.5122489695122149,0.46554629567200007,-0.006328023939137283,-0.024195365998002497,0.02910048774636487,28.399656142981257
1615,B,169006762792842.0,0.34320644738660677,-1.8650738697663485,-4.23497,76,1970-01-02 22:56:46.762792842,4.2660217,4.6095123,0.62213135,18.023345310484668,6.311385917956134,-80.77043914794922,3.084716558456421,1.4754111766815186,28450010.0,50354.0,-0.1668799362976948,-0.6359822423842147,0.09431387284100003,-0.008419553860769452,-0.028909017221916414,0.014095599462651804,28.45001014697482
1615,B,169006813146846.0,10.160955247386607,7.560158130233651,-13.921982,76,1970-01-02 22:56:46.813146846,1.9694977,3.4878235,1.2020721,18.10590799663516,4.181962612345543,-81.86998748779297,2.487046241760254,1.2544097900390625,28500364.0,50354.0,0.2644632789893052,-0.3500840635742148,-0.45713758050400005,0.0024568558189466756,-0.024826191385115385,-0.009134812487831353,28.500364150997484
1615,B,169006863500850.0,6.262899247386607,16.74810093023365,-7.162216,76,1970-01-02 22:56:46.863500850,-0.19865417,0.31752014,0.59588623,8.505403625261534,0.7038202310729789,-84.30728149414062,0.9956656694412231,1.169268012046814,28550718.0,50354.0,0.4135033846149052,0.11853983836538523,-0.530836853046,0.017069166689563205,-0.005829588958082702,-0.024874232313488353,28.550718154991046
1615,B,169006913854854.0,7.216970247386607,12.69359653023365,-3.9039612,76,1970-01-02 22:56:46.913854854,-1.3709717,0.042907715,-0.1946106,7.260996183675598,1.3853800055723957,-85.19877624511719,-0.08616168797016144,1.160283088684082,28601072.0,50354.0,0.33938267426990526,0.24778441696218517,-0.2786131433644,0.018955412304542875,0.009222945776382241,-0.020379522559624642,28.601072158984607
1615,B,169006964208857.0,1.6221523473866069,8.19747213023365,0.8199005,76,1970-01-02 22:56:46.964208857,-3.2858582,-0.6697235,-0.58499146,7.441563869824491,3.404057679480831,-85.32496643066406,-0.07711125165224075,1.1911364793777466,28651426.0,50354.0,0.2225425895686052,0.03250523566458521,-0.0776473962439,0.014147592367662179,0.007056852584184197,-0.00896957160571817,28.65142616198864
1615,B,169007014562861.0,-2.697229352613393,1.6725851302336512,2.8953094,76,1970-01-02 22:56:47.014562861,-4.8338776,-2.0436096,-0.9949951,14.917916920684734,5.341603513741724,-85.39832305908203,0.30096176266670227,1.2884536981582642,28701780.0,50354.0,-0.02706721376059479,-0.2449707683532148,0.0935378396523,0.004921483536718278,-0.0053492447165016275,0.00040007369369328676,28.7017801659822
1615,B,169007064916865.0,-3.846460352613393,-3.795371869766349,2.1742096,76,1970-01-02 22:56:47.064916865,-4.965088,0.20463562,-1.0764923,20.315257598064044,5.084565886747469,-85.60354614257812,0.6406771540641785,1.2735540866851807,28752134.0,50354.0,-0.1647504757084948,-0.5469146017412149,0.127635279863,-0.004829393967763268,-0.01993729796286746,0.005568475630036708,28.75213416997576
1615,B,169007115270869.0,4.593435247386607,-3.217718869766351,9.985764,76,1970-01-02 22:56:47.115270869,-4.558548,-0.5389557,-0.44404602,21.474486559746662,4.6117252718201165,-85.26329803466797,0.4170958399772644,1.3044085502624512,28802488.0,50354.0,0.0188065869257052,-0.6700377855492149,0.3061516553272,-0.003674429287884294,-0.03063921025481115,0.010921453667283667,28.802488173998427
1615,B,169007165624873.0,-3.8075807526133927,14.794197680233651,11.601807,76,1970-01-02 22:56:47.165624873,-2.9160156,-5.6934814,-1.2781525,12.920882621180603,6.523231656536932,-84.13118743896484,0.9498587846755981,1.5973917245864868,28852842.0,50354.0,0.01978545861490521,-0.20200819298886483,0.543510275067,0.0009716319305759484,-0.021955501601653236,0.021391938421534775,28.852842177991988
1615,B,169007215978877.0,-1.8917178526133933,30.16556613023365,10.235535,76,1970-01-02 22:56:47.215978877,1.1446991,-1.0085754,-0.36260986,18.193123896592855,1.5681346490640367,-81.35759735107422,1.839684247970581,1.712273359298706,28903196.0,50354.0,-0.1434912409837948,0.6384827734561351,0.549798759534,-0.003114540482701533,0.010989120512424464,0.027526241564149376,28.90319618198555
1615,B,169007266332881.0,1.4063625473866068,19.97980563023365,4.6242676,76,1970-01-02 22:56:47.266332881,3.640747,1.1315002,-0.46151733,6.389043986151144,3.840355408878112,-78.326416015625,2.115363359451294,1.7516834735870361,28953550.0,50354.0,-0.012219790519694804,0.7690408248132853,0.37412525006020003,-0.003920336640163357,0.0354372216336292,0.023261634789553176,28.95355018597911
1615,B,169007316686885.0,8.248678247386607,5.600930130233651,-4.904068,76,1970-01-02 22:56:47.316686885,0.72514343,1.078537,0.14501953,12.85029563066103,1.3077101049248592,-79.05257415771484,1.3810615539550781,1.676882266998291,29003904.0,50354.0,0.2430849620900052,0.15057698424128518,-0.007044534670800002,0.005812492424625706,0.02315321757856692,0.009241991171358925,29.003904190001776
1615,B,169007367040889.0,9.534307547386607,12.85161653023365,3.2030792,76,1970-01-02 22:56:47.367040889,-2.3450165,-2.6081085,0.5532532,8.787252349831084,3.550693092391222,-78.74029541015625,0.11365730315446854,1.8170288801193237,29054258.0,50354.0,0.4477222333550053,-0.028889432729414775,-0.0428257950176,0.01739245275971903,0.0030637274844143615,-0.001255585290564847,29.054258193995338
1615,B,169007417394893.0,-3.050638152613393,10.91697013023365,16.964905,76,1970-01-02 22:56:47.417394893,1.384613,-3.8307495,-0.49656677,18.259641315094864,4.103458717787652,-77.43659973144531,0.43090635538101196,2.006089687347412,29104612.0,50354.0,0.16323934435220522,0.10495250635058521,0.5077693382034001,0.015382179641934439,0.0019150400045602083,0.01170588358678889,29.1046121979889
1615,B,169007467748896.0,-8.414941752613394,1.8597041302336503,11.497147,76,1970-01-02 22:56:47.467748896,2.4021149,0.69581604,0.38827515,20.629205837851806,2.530824677141981,-76.74501037597656,1.1601450443267822,1.98505437374115,29154966.0,50354.0,-0.2886689052738948,-0.17179087214421482,0.716589083204,-0.0031579400553253794,-0.0016827895355862126,0.030825671975774117,29.15496620099293
1615,B,169007518102900.0,-7.268335752613393,0.4703761302336513,13.558395,76,1970-01-02 22:56:47.518102900,5.050247,0.88160706,1.0924072,22.251509005722266,5.2417152974825605,-75.86661529541016,1.78544282913208,1.9721431732177734,29205320.0,50354.0,-0.39485787774909487,-0.4348047692822148,0.6308233809340001,-0.01720915381616981,-0.015272258464193219,0.03392380360960243,29.205320204986492
1615,B,169007568456904.0,8.005941247386607,-3.795371869766349,-3.6530151,76,1970-01-02 22:56:47.568456904,8.8535,-0.7444763,2.661621,20.67351219309803,9.274854907700858,-75.99566650390625,1.4386764764785767,2.0232808589935303,29255674.0,50354.0,0.018570693541905204,-0.5771826177342148,0.24938774974230002,-0.009473782436784414,-0.025478806442912647,0.02216107563703721,29.255674208980054
1615,B,169007618810908.0,6.853033247386607,4.241219130233651,-10.29007,76,1970-01-02 22:56:47.618810908,4.553726,-1.3924408,2.106964,16.124386897033947,5.207169016065893,-76.89704132080078,1.0589439868927002,2.090935468673706,29306028.0,50354.0,0.37410440085490526,-0.4822441035232148,-0.35104505356270005,0.009886380851628497,-0.026673186561098305,-0.002559425938286212,29.30602821300272
1615,B,169007669164912.0,4.2855434473866065,10.54161913023365,-6.8629,76,1970-01-02 22:56:47.669164912,0.7929535,-0.03363037,0.6394043,8.868801912899984,1.0191879678484617,-78.12174224853516,0.6820279359817505,2.080479860305786,29356382.0,50354.0,0.2804359454443052,-0.1212816811162148,-0.43186032569000005,0.016479362298775224,-0.015194968679866921,-0.019711208733445233,29.35638221699628
1615,B,169007719518916.0,7.820226647386607,16.39623323023365,-10.385529,76,1970-01-02 22:56:47.719518916,-0.87991333,-0.45610046,-0.25845337,12.01935144271852,1.0242427653580266,-80.6257553100586,-0.8019040822982788,2.1032793521881104,29406736.0,50354.0,0.3047869736761052,0.1847451088794852,-0.43426369693300004,0.014734157434694573,0.0015978187207958587,-0.021806404517579273,29.406736220989842
1615,B,169007769872920.0,1.8349056453866068,15.50609649023365,-4.39386,76,1970-01-02 22:56:47.769872920,-2.3014832,-1.8375244,-0.49432373,4.394693902675596,2.9862479452514843,-83.60648345947266,-0.8510672450065613,2.231288433074951,29457090.0,50354.0,0.24308726573515121,0.30973575537220527,-0.372100676853,0.013793829725657202,0.01244954471926481,-0.020301835838810123,29.457090224983403
1615,B,169007820226924.0,1.8569088193866068,1.8606341302336507,2.4129791,76,1970-01-02 22:56:47.820226924,-2.9541626,0.3319397,-0.48667908,13.940803178212011,3.0123275317575438,-83.66461944580078,-0.8555797338485718,2.210759401321411,29507444.0,50354.0,0.0929488127795952,-0.0562270231684948,-0.04987263841930001,0.008460380348765771,0.006382589350692819,-0.010624022158610698,29.507444228976965
1615,B,169007870580928.0,-4.918390252613393,-3.795371869766349,-0.046081543,76,1970-01-02 22:56:47.870580928,-4.4008636,-1.9798279,-2.14299,20.525347705565686,5.2801254795244565,-84.03815460205078,-0.4821787178516388,2.298387289047241,29557798.0,50354.0,-0.0770789180443508,-0.5421800920682148,0.059591379792588994,0.00039955633974924834,-0.01506609594031464,0.0002446887515552968,29.55779823299963
1615,B,169007920934932.0,6.5271206473866075,-3.795371869766349,4.4275208,76,1970-01-02 22:56:47.920934932,-3.7461548,2.0123444,-1.298706,20.43415949042263,4.446329165076557,-84.05667114257812,-0.8543647527694702,2.190213680267334,29608152.0,50354.0,0.040503005149205226,-0.6845813551302148,0.11031149617348901,-0.00092087175896108,-0.030886172956114864,0.004277644708197946,29.60815223699319
1615,B,169007971288936.0,6.654882247386607,-3.7178568697663508,6.646805,76,1970-01-02 22:56:47.971288936,-3.6821136,-3.9757385,-1.6659698,20.984532968248164,5.669207401233373,-83.9294204711914,-1.2674846649169922,2.3741843700408936,29658506.0,50354.0,0.33188328688170526,-0.6826297599752149,0.2788183006666,0.009375569674462235,-0.03442227424500941,0.009797120895042921,29.658506240986753
1615,B,169008021642939.0,-2.4649142526133927,24.907814630233652,10.630005,76,1970-01-02 22:56:48.021642939,-2.1672058,-5.106018,-1.00914,14.77137228211988,5.637957461304372,-81.34256744384766,-0.3898802101612091,2.582838773727417,29708860.0,50354.0,0.10549082420440523,0.04003036653528521,0.43497824537000007,0.011011767994815003,-0.01617872492863711,0.01797125563956348,29.708860243990785
1615,B,169008071996943.0,-2.219400352613393,27.42247813023365,10.05127,76,1970-01-02 22:56:48.071996943,1.7867737,-0.3173523,0.08175659,16.042437368010972,1.8165783432969271,-78.54080200195312,0.5313188433647156,2.60320782661438,29759214.0,50354.0,-0.11793698881579479,0.8240505808302855,0.520692460675,-0.000313357086420955,0.021754966011822977,0.024060921366094966,29.759214247984346
1615,B,169008122350947.0,1.9915371173866068,18.504601130233652,4.7290955,76,1970-01-02 22:56:48.122350947,2.969696,1.0177155,0.114715576,5.557127172965171,3.1413371093744873,-75.52973937988281,0.46531012654304504,2.5792949199676514,29809568.0,50354.0,-0.005736912673304797,0.6628368745407852,0.3721252621935,-0.0031137378177910602,0.03743536546387745,0.022478471808660225,29.809568251977907
1615,B,169008172704951.0,-5.749917752613393,0.44475613023365135,-14.948166,76,1970-01-02 22:56:48.172704951,0.9252472,3.4074097,0.5215912,22.587982588434187,3.5691148236893935,-76.64349365234375,1.0060824155807495,2.406174659729004,29859922.0,50354.0,-0.0946247492531048,-0.01638123225321473,-0.2572855379785,-0.0025268055623212144,0.01627581370587416,0.002891319736561055,29.859922256000573
1615,B,169008223058955.0,5.7612514473866066,13.63288173023365,-10.090576,76,1970-01-02 22:56:48.223058955,-1.4231262,-0.7394562,0.17192078,11.007153258184152,1.6129601382057426,-79.38919830322266,-0.01741335354745388,2.4216814041137695,29910276.0,50354.0,0.00028534843330520047,-0.13903651158701477,-0.630400407334,-0.0023751830944400945,-0.0039129525366654585,-0.022349269045132816,29.910276259994134
1615,B,169008273412959.0,-6.043909052613393,1.699074130233651,14.526932,76,1970-01-02 22:56:48.273412959,-5.283966,6.0149384,0.06376648,21.585125337887956,8.006487794840016,-78.87703704833984,0.5648341774940491,2.1290318965911865,29960630.0,50354.0,-0.007116470526794802,-0.10745654730101478,0.11169413501200001,-0.00017198716094778772,-0.00620595574362392,-0.013059467818250996,29.960630263987696
1615,B,169008323765479.0,-4.2878817526133925,10.49674283023365,-2.9026794,76,1970-01-02 22:56:48.323765479,-0.06665039,5.255768,-0.23274231,8.469322980936095,5.261340943825565,-79.533447265625,1.6287215948104858,1.8564152717590332,30010982.0,50352.0,-0.26011316531238954,-0.18640771220327526,0.2926521834576,-0.006727773311887305,-0.007398326597280007,0.01017982291379065,30.010982783976942
1615,B,169008374119483.0,-9.872064752613394,-1.4793158697663493,8.359497,76,1970-01-02 22:56:48.374119483,1.5770264,1.8329926,3.185669,22.31746889063054,3.9994200974032124,-79.1279296875,2.5191338062286377,1.8076858520507812,30061336.0,50354.0,-0.35650497316209484,-0.2664374414163148,0.13738629671519997,-0.015524594872372096,-0.011401282432680421,0.010827078815310587,30.061336787999608
1615,B,169008424473487.0,-1.137475952613393,-3.795371869766349,3.1356964,76,1970-01-02 22:56:48.424473487,8.12764,0.8042908,1.4922485,19.860322593518468,8.302543058986016,-78.76435089111328,2.7512195110321045,1.7811447381973267,30111690.0,50354.0,-0.2771872063354948,-0.6262700132182148,0.2894144842318,-0.015954468003210813,-0.022475695585333556,0.010745563261902619,30.11169079199317
1615,B,169008474827491.0,-1.887567452613393,1.8738331302336508,-11.515411,76,1970-01-02 22:56:48.474827491,1.898346,1.3993225,1.0656433,18.290409172274714,2.587936753005595,-79.76776123046875,3.0642948150634766,1.6675105094909668,30162044.0,50354.0,-0.0761615178133948,-0.5418477808452149,-0.2109760744842,-0.008896260827896595,-0.029409701701134973,0.0019748438422153253,30.16204479598673
1615,B,169008525181495.0,5.404989247386607,17.43839323023365,-5.8558807,76,1970-01-02 22:56:48.525181495,0.8512268,1.2735443,0.7897339,7.108389858520908,1.7234215334357232,-82.1516342163086,1.584452748298645,1.5129603147506714,30212398.0,50354.0,0.08855812852700522,-0.007245276922514793,-0.43735701113090003,0.0003121094679365696,-0.013824515915418131,-0.016323082096531376,30.212398799980292
1615,B,169008575535498.0,9.417715247386607,10.68775233023365,-1.7506714,76,1970-01-02 22:56:48.575535498,-0.61135864,-0.24694824,0.63916016,9.207284811856935,0.9182965371125891,-82.55583953857422,0.4136888086795807,1.5233466625213623,30262752.0,50354.0,0.3731912310649052,0.2146627667758852,-0.1915101622217,0.01162546362644553,0.005222150142038307,-0.01583298882349841,30.262752802984323
1615,B,169008625889502.0,0.036397947386606955,11.19666353023365,-13.224121,76,1970-01-02 22:56:48.625889502,-1.6210022,1.4990692,-1.05336,14.04927754903971,2.446308216148055,-84.03250885009766,0.5502607822418213,1.4303665161132812,30313106.0,50354.0,0.23802620790480522,0.05751473811898517,-0.3770203482548,0.015388621460940402,0.006852613040738151,-0.014313892662266842,30.313106806977885
