Subject-id_accel,Activity_accel,Timestamp_accel,accel_x,accel_y,accel_z,Segment_accel,DateTime,gyro_x,gyro_y,gyro_z,accel_magnitude,gyro_magnitude,Roll,Pitch,Yaw,Time_Difference,Difference_Microseconds,vx,vy,vz,dx,dy,dz,Time_diff
1631,D,1551071931180317.0,1.3804016,1.6953888,8.922806,162,1970-01-18 22:51:11.931180317,-0.011001587,-0.0011444092,-0.0001373291,9.186746903778507,0.0110618013097922,10.894964218139648,-8.844062805175781,21.103899002075195,15005513.0,50354.0,0.0700312152704,0.0845532459279,-0.04366734127800003,0.003547911322099537,0.0042625366449519555,-0.0022111771142893067,15.005513498093933
1631,D,1551071981534321.0,1.3885803,1.6958618,8.883209,162,1970-01-18 22:51:11.981534321,-0.009384155,-0.0020141602,-0.0028533936,9.149617731464431,0.010013044562559881,10.892346382141113,-8.841261863708496,21.10407257080078,15055867.0,50354.0,0.0697146572963,0.0853815163562,-0.045167160345000026,0.0035183818336118064,0.004278447510026786,-0.002236586247362272,15.055867502000183
1631,D,1551072031888325.0,1.4078217,1.6790314,8.924484,162,1970-01-18 22:51:12.031888325,-0.01133728,0.0007019043,-0.001159668,9.189533342201488,0.011418030360573686,10.885851860046387,-8.840496063232422,21.104930877685547,15106221.0,50354.0,0.07040501315400001,0.0849696860964,-0.045124913339000025,0.003527792942927203,0.00428893222414911,-0.0022732835391420696,15.106221505906433
1631,D,1551072082242329.0,1.4343109,1.6585999,8.908127,162,1970-01-18 22:51:12.082242329,-0.007949829,0.0030975342,-0.00289917,9.174035537007027,0.00901108683446734,10.877007484436035,-8.84417724609375,21.10611915588379,15156575.0,50354.0,0.07155637247020001,0.08403154324010001,-0.04449755285300004,0.003574161805860484,0.004254943951005062,-0.0022564248313159856,15.156575510045514
1631,D,1551072132596333.0,1.3889313,1.6815186,8.919312,162,1970-01-18 22:51:12.132596333,-0.009231567,-0.000579834,-0.0036315918,9.182089169225577,0.009937127137401042,10.87155818939209,-8.840574264526367,21.106704711914062,15206929.0,50354.0,0.07108076886940001,0.08409416347450001,-0.04462776829700004,0.0035911753075071103,0.004232900917953485,-0.002243908210593552,15.206929513951764
1631,D,1551072182950337.0,1.3983917,1.7136841,8.900879,162,1970-01-18 22:51:12.182950337,-0.008270264,0.00074768066,0.0005645752,9.171578899724011,0.00832316274954954,10.871795654296875,-8.838783264160156,21.10664176940918,15257283.0,50354.0,0.070176431171,0.08548101837790001,-0.04481025119300005,0.0035564325254171516,0.004269394353497875,-0.0022517810166997323,15.257283518090844
1631,D,1551072233294321.0,1.4107208,1.6941376,8.942917,162,1970-01-18 22:51:12.233294321,-0.007797241,0.001449585,-0.0016479492,9.210646006235143,0.008100246937599288,10.867793083190918,-8.837981224060059,21.107128143310547,15307627.0,50344.0,0.07071097985,0.0857816878324,-0.04420716708800005,0.003546417910220612,0.004311024840725672,-0.0022407464529693344,15.307627501897514
1631,D,1551072283648325.0,1.3992462,1.7056274,8.91893,162,1970-01-18 22:51:12.283648325,-0.0069732666,-0.00022888184,-0.0025634766,9.187729159087418,0.007433050938215405,10.866429328918457,-8.836019515991211,21.107162475585938,15357981.0,50354.0,0.07074653915900002,0.085595883405,-0.04376147808100006,0.003561475956089593,0.0043147731110440195,-0.0022147865794199155,15.357981506036595
1631,D,1551072334002328.0,1.3843994,1.7108765,8.869354,162,1970-01-18 22:51:12.334002328,-0.0075683594,-0.0015258789,-0.0025634766,9.138331383479622,0.00813509574029594,10.867362976074219,-8.833005905151367,21.1068172454834,15408335.0,50354.0,0.0700838452712,0.08601731869030001,-0.04561357373200006,0.003545686588799146,0.004320705589153369,-0.0022501956794959044,15.408335509011522
1631,D,1551072384356332.0,1.379425,1.7071228,8.873474,162,1970-01-18 22:51:12.384356332,-0.009490967,0.0024414063,-0.000869751,9.140876457625977,0.009838464622021552,10.867456436157227,-8.829041481018066,21.10671615600586,15458689.0,50354.0,0.0695848069188,0.08605496837610001,-0.04675801944400006,0.00351643765618763,0.004332263971470753,-0.0023256396013921553,15.458689512917772
1631,D,1551072434710336.0,1.3883667,1.7042236,8.900192,162,1970-01-18 22:51:12.434710336,-0.010787964,-0.00065612793,0.0004272461,9.167625527328756,0.01081633997042379,10.866220474243164,-8.826112747192383,21.106834411621094,15509043.0,50354.0,0.0696846916309,0.08588746831280002,-0.045981611118000025,0.003506388164985797,0.0043289947285164365,-0.002334905678659476,15.509043517056853
1631,D,1551072485064340.0,1.3871307,1.6815796,8.891312,162,1970-01-18 22:51:12.485064340,-0.011001587,-0.00093078613,-0.002670288,9.154631101872027,0.011359212883880351,10.861777305603027,-8.823360443115234,21.10729217529297,15559397.0,50354.0,0.0698786980398,0.0852443671664,-0.045532503792000044,0.003513787461739214,0.004308586221859819,-0.0023040508710890717,15.559397520963103
1631,D,1551072535418344.0,1.3974609,1.6941833,8.907944,162,1970-01-18 22:51:12.535418344,-0.011001587,0.00015258789,-0.0061798096,9.174672764091573,0.012619359978818094,10.85893726348877,-8.821742057800293,21.107343673706055,15609751.0,50354.0,0.0701076627132,0.0849915825333,-0.04533733168800005,0.003524436604678281,0.004286030505589348,-0.0022878298478799623,15.609751525102183
1631,D,1551072585772348.0,1.3865814,1.6970062,8.944656,162,1970-01-18 22:51:12.585772348,-0.012771606,0.0030212402,0.0011138916,9.209196978021504,0.013171278095229885,10.855379104614258,-8.81755256652832,21.10787582397461,15660105.0,50354.0,0.07009383298710001,0.08537997804150001,-0.043994289800000023,0.003529853057246453,0.0042894447805917404,-0.002249102234203378,15.660105529008433
1631,D,1551072636126352.0,1.4074249,1.6451416,8.947342,162,1970-01-18 22:51:12.636126352,-0.009597778,-0.0035247803,-0.0025482178,9.205556180815725,0.010537306707920621,10.844001770019531,-8.817129135131836,21.109392166137695,15710459.0,50354.0,0.07034469661510001,0.08414525516060001,-0.04300236635400002,0.00353582085979459,0.004268136796329272,-0.0021903148119892593,15.710459532914683
1631,D,1551072686480356.0,1.4282227,1.690628,8.91658,162,1970-01-18 22:51:12.686480356,-0.007080078,-0.0049591064,-0.00541687,9.187134592003064,0.01020111373181894,10.8410005569458,-8.820479393005371,21.109487533569336,15760813.0,50354.0,0.0713930996252,0.0839846712192,-0.04370923580600002,0.003568532495942034,0.004233007156464225,-0.0021831380075823213,15.760813537053764
1631,D,1551072736834360.0,1.4472961,1.6973419,8.94487,162,1970-01-18 22:51:12.736834360,-0.008529663,-0.0031738281,-0.008453369,9.218803330339075,0.012421263347666356,10.83823013305664,-8.82585334777832,21.10940170288086,15811167.0,50354.0,0.07239693682760001,0.0852989181723,-0.04377147335000005,0.0036202017477721467,0.004262052930109796,-0.002202501814420614,15.811167540960014
1631,D,1551072787188364.0,1.4423676,1.7005615,8.935394,162,1970-01-18 22:51:12.787188364,-0.011550903,0.008758545,-0.0027160645,9.209429930459757,0.014748304207623133,10.836092948913574,-8.830018043518066,21.10959243774414,15861521.0,50354.0,0.0727530629749,0.0855490139018,-0.04329779327200003,0.003654441545027543,0.004301438385829616,-0.002192142925742096,15.861521545099095
1631,D,1551072837542367.0,1.452774,1.6973572,8.936249,162,1970-01-18 22:51:12.837542367,-0.010284424,0.0038909912,-0.0014953613,9.21130392232657,0.011097084975244226,10.833550453186035,-8.835922241210938,21.109867095947266,15911875.0,50354.0,0.07289098006320001,0.0855493991099,-0.04351484418900002,0.0036668800715702445,0.004307744744395572,-0.0021856817733555984,15.911875548074022
1631,D,1551072887896371.0,1.3425751,1.7066345,8.931,162,1970-01-18 22:51:12.887896371,-0.010848999,0.0016021729,-0.0014953613,9.191184375026443,0.011068145405669059,10.832635879516602,-8.824915885925293,21.109867095947266,15962229.0,50354.0,0.07037850429070001,0.0857022990309,-0.04362547192700006,0.003607095807578141,0.004311604004090921,-0.002193931738852534,15.962229551980272
1631,D,1551072938250375.0,1.3864899,1.6822052,8.897522,162,1970-01-18 22:51:12.938250375,-0.007385254,-0.0021820068,-0.0023956299,9.160680450610265,0.008064872778757037,10.829127311706543,-8.82201099395752,21.110212326049805,16012583.0,50354.0,0.068709669505,0.08532081712690001,-0.04460050160600005,0.0035018229516543395,0.004305848995504931,-0.0022212653356403437,16.012583555886522
1631,D,1551072988604379.0,1.3918457,1.6836548,8.881607,162,1970-01-18 22:51:12.988604379,-0.0058288574,-0.002822876,-0.008956909,9.146303670916495,0.011053073162482541,10.826529502868652,-8.820341110229492,21.110105514526367,16062937.000000002,50354.00000000186,0.06995015540120259,0.08474225722000314,-0.045844069167001705,0.003491038411663592,0.004281678022832139,-0.0022771229583519494,16.062937560025603
1631,D,1551073038958383.0,1.358017,1.7113342,8.847092,162,1970-01-18 22:51:13.038958383,-0.007507324,-7.6293945e-05,-0.009109497,9.112843232100651,0.011804603762940485,10.829257011413574,-8.814008712768555,21.10918617248535,16113291.0,50353.99999999814,0.06923329319789744,0.08547563805299684,-0.04711374527699828,0.0035042216853794117,0.004285575949288162,-0.002340398894256501,16.113291563931853
1631,D,1551073089312387.0,1.3940125,1.7445221,8.856247,162,1970-01-18 22:51:13.089312387,-0.0096588135,0.0012969971,-0.008041382,9.133440706138822,0.01263482109786738,10.836691856384277,-8.813002586364746,21.10759735107422,16163644.999999998,50353.99999999814,0.06928784672149743,0.08700809406509677,-0.047752233996998274,0.003487546739750475,0.004342622923537082,-0.0023884407601813228,16.163645568070933
1631,D,1551073139666391.0,1.4193726,1.689743,8.94516,162,1970-01-18 22:51:13.139666391,-0.008987427,-0.0023498535,-0.007904053,9.213345614340088,0.012197118896632934,10.832818984985352,-8.814271926879883,21.107717514038086,16213999.000000002,50354.000000003725,0.07083259666270524,0.0864644924227064,-0.045283175961003404,0.003527812403084331,0.004367519310003743,-0.0023423525165127816,16.213999571977183
1631,D,1551073190020395.0,1.4388123,1.6801758,8.838791,162,1970-01-18 22:51:13.190020395,-0.011749268,0.0009918213,-0.0040740967,9.111388362660103,0.012475066009761575,10.830516815185547,-8.820972442626953,21.107791900634766,16264353.0,50353.99999999814,0.07196052122729733,0.08484444562759685,-0.04572266567299834,0.0035951023291164617,0.004313045133292326,-0.0022912540748191773,16.264353576116264
1631,D,1551073240374399.0,1.3743439,1.6584778,8.878738,162,1970-01-18 22:51:13.240374399,-0.011108398,0.00047302246,-0.0074768066,9.13626609951812,0.013398615350396175,10.823762893676758,-8.816649436950684,21.108381271362305,16314706.999999998,50353.99999999814,0.07082683364739738,0.08405728168719688,-0.047394972366998266,0.0035949572336800555,0.004252438788604405,-0.002344422772932908,16.314707580022514
1631,D,1551073290728403.0,1.4029999,1.7026978,8.950272,162,1970-01-18 22:51:13.290728403,-0.011001587,0.0022735596,-0.0031433105,9.218186231114494,0.011665521448813655,10.821920394897461,-8.814950942993164,21.108449935913086,16365061.0,50354.00000000186,0.06992518485260257,0.08462431808120313,-0.04458821523000168,0.0035437135697746302,0.004246896637369164,-0.002315860714129753,16.365061583928764
1631,D,1551073341082407.0,1.4399719,1.7669678,8.863144,162,1970-01-18 22:51:13.341082407,-0.014892578,0.0015411377,0.00036621094,9.151558110166949,0.014976584902741378,10.832483291625977,-8.820836067199707,21.10675048828125,16415415.0,50354.0,0.0715775010086,0.08735577081120001,-0.044980825368000035,0.0035626131219274972,0.004329942698044034,-0.0022550797351358893,16.415415588067845
1631,D,1551073391436410.0,1.3449402,1.7225494,8.932297,162,1970-01-18 22:51:13.391436410,-0.010391235,0.00045776367,-0.0042419434,9.195758276141527,0.011233049283769765,10.834066390991211,-8.810504913330078,21.106225967407227,16465769.000000002,50354.00000000186,0.07011573194170259,0.08785557454440325,-0.045433381943001706,0.0035674105259899,0.004411296042018186,-0.0022763584974691753,16.465769591042772
1631,D,1551073441790414.0,1.401947,1.739975,8.875717,162,1970-01-18 22:51:13.441790414,-0.005996704,-0.0025787354,-0.0076446533,9.152667406582793,0.010052415590495155,10.840263366699219,-8.810571670532227,21.104835510253906,16516123.0,50353.99999999814,0.06915837903439744,0.08717597681879677,-0.045116831521998364,0.003506504292045141,0.0044067693686711245,-0.0022797827244082224,16.516123594949022
1631,D,1551073492144418.0,1.3544617,1.6998444,8.850479,162,1970-01-18 22:51:13.492144418,-0.006652832,-0.00579834,-0.021774292,9.113452474798958,0.023494695411455924,10.840898513793945,-8.804064750671387,21.10357666015625,16566476.999999998,50353.99999999814,0.06939810183989743,0.0866043330337968,-0.0471767633079983,0.0034884365189719927,0.004375266861158586,-0.00232367583703474,16.566477599088103
1631,D,1551073542498422.0,1.405899,1.6188049,8.893387,162,1970-01-18 22:51:13.542498422,-0.010726929,0.0039367676,-0.030822754,9.148191823209329,0.032872592064696796,10.827472686767578,-8.80449390411377,21.10408592224121,16616831.000000002,50354.000000003725,0.06949760134390515,0.08355363342610617,-0.04673188571800348,0.0034969771190588557,0.004284067121561294,-0.002364338056527821,16.616831602994353
1631,D,1551073592852426.0,1.391983,1.7093353,8.925598,162,1970-01-18 22:51:13.592852426,-0.0029907227,0.0036468506,-0.016357422,9.193788310469145,0.017023783247360137,10.827794075012207,-8.801759719848633,21.103260040283203,16667185.0,50353.99999999814,0.0704422751139974,0.0837925858153969,-0.04484061465499834,0.003523266269580482,0.0042132757618431665,-0.0023055208418909815,16.667185606900603
1631,D,1551073643206430.0,1.4133301,1.7313843,8.873474,162,1970-01-18 22:51:13.643206430,-0.018630981,-0.0024871826,-0.009307861,9.150613880747482,0.020974646759920057,10.832257270812988,-8.803874015808105,21.10194969177246,16717538.999999998,50353.99999999814,0.0706293679186974,0.0866269973691968,-0.04534196425599834,0.003551760756634025,0.004290653845838357,-0.0022705267892420794,16.717539611039683
1631,D,1551073693560434.0,1.4100952,1.6847687,8.8771515,162,1970-01-18 22:51:13.693560434,-0.013458252,-0.002822876,0.0011901855,9.14497855653664,0.013802525759124317,10.829432487487793,-8.805681228637695,21.10232162475586,16767893.0,50354.00000000186,0.07108537877810264,0.08600848408100319,-0.04656170178650176,0.0035679521775854664,0.0043464435164718455,-0.0023138585999521104,16.767893614945933
1631,D,1551073743914438.0,1.4075775,1.7369232,8.872955,162,1970-01-18 22:51:13.743914438,-0.01008606,-0.0048675537,0.00579834,9.150273605375386,0.012611202642951373,10.835047721862793,-8.807053565979004,21.101612091064453,16818247.0,50354.0,0.07094054556790001,0.0861479369663,-0.04657476864950005,0.0035757866972593085,0.004334382212707953,-0.002344896916167218,16.818247619085014
1631,D,1551073794268442.0,1.4210815,1.6600952,8.922623,162,1970-01-18 22:51:13.794268442,-0.016036987,0.007232666,-0.0021514893,9.18632624626593,0.01772358078136976,10.826871871948242,-8.808985710144043,21.102712631225586,16868601.0,50354.0,0.07121714764300001,0.0855267322568,-0.045429932694000065,0.00357910424197083,0.00432225314702999,-0.0023164023657253024,16.868601622991264
1631,D,1551073844622446.0,1.3652039,1.6832733,8.900238,162,1970-01-18 22:51:13.844622446,-0.014312744,0.007858276,0.005569458,9.16031807022617,0.017251840623987807,10.82316780090332,-8.802699089050293,21.103504180908203,16918955.0,50354.0,0.07015030751580001,0.08417598872450001,-0.04474302860300005,0.003559208418533108,0.004272605406146191,-0.002270284646574572,16.918955626897514
1631,D,1551073894976450.0,1.3372345,1.6755829,8.892105,162,1970-01-18 22:51:13.894976450,-0.011154175,-0.0043945313,0.00088500977,9.146874083192994,0.012021263143709156,10.81881046295166,-8.793021202087402,21.104089736938477,16969309.0,50354.0,0.06803929159680001,0.0845659225474,-0.04551138028900002,0.0034791995368579315,0.004248415100092627,-0.0022723352526738856,16.969309631036595
1631,D,1551073945330453.0,1.4208069,1.6843262,8.873474,162,1970-01-18 22:51:13.945330453,-0.0068969727,-0.011138916,-0.004486084,9.142985717136938,0.013848055160731319,10.816741943359375,-8.797197341918945,21.104032516479492,17019663.0,50354.0,0.06943920832780001,0.08459243141070001,-0.04618521751700002,0.0034612961926016555,0.004258899877603085,-0.002308645242961663,17.019663634011522
1631,D,1551073995684457.0,1.3942566,1.6685944,8.902634,162,1970-01-18 22:51:13.995684457,-0.006729126,-0.006210327,-0.0026245117,9.164335812065756,0.009525615981879697,10.811405181884766,-8.7963228225708,21.104612350463867,17070017.0,50354.0,0.0708748537395,0.08441648194620001,-0.045920128884000024,0.0035326871406684127,0.004255137411586672,-0.002318936306337978,17.070017637917772
1631,D,1551074046038461.0,1.4120789,1.7294159,8.873001,162,1970-01-18 22:51:14.046038461,-0.006729126,0.004562378,-0.003616333,9.149589767907578,0.008897993824770222,10.816532135009766,-8.798110961914062,21.103641510009766,17120371.0,50354.0,0.07065510888350002,0.08555170532310001,-0.04593203760500001,0.003563299868959272,0.004279289050879167,-0.002312561995693554,17.120371642056853
1631,D,1551074096392465.0,1.4193726,1.670517,8.8941345,162,1970-01-18 22:51:14.096392465,-0.007797241,0.0035858154,-0.0025634766,9.160287884614217,0.008956921992163698,10.811681747436523,-8.800804138183594,21.104236602783203,17170725.0,50354.0,0.07128745441550001,0.0856001106233,-0.046146029516500035,0.0035736879161789234,0.004309089270082513,-0.002318249495918007,17.170725645963103
1631,D,1551074146746469.0,1.3861237,1.6728058,8.922623,162,1970-01-18 22:51:14.146746469,-0.012069702,0.0025024414,-0.0014953613,9.183290224987138,0.012416763859668736,10.806255340576172,-8.797683715820312,21.10492515563965,17221079.0,50354.0,0.0706339803451,0.0841748381356,-0.04489669642250005,0.003573155962967627,0.004274423884902826,-0.0022921827109662054,17.221079650102183
1631,D,1551074197100473.0,1.404892,1.6801605,8.892303,162,1970-01-18 22:51:14.197100473,-0.008865356,0.00039672852,-0.0014801025,9.158040919390634,0.008996812431957423,10.803157806396484,-8.79831600189209,21.105262756347656,17271433.0,50354.0,0.07026940227890001,0.0844176325351,-0.044942808098000046,0.0035475244643244485,0.004244652634076214,-0.002261889205312631,17.271433654008433
1631,D,1551074247454477.0,1.3817749,1.7055817,8.947784,162,1970-01-18 22:51:14.247454477,-0.008865356,0.0024719238,-0.00044250488,9.21309661950318,0.00921416056125387,10.802434921264648,-8.793876647949219,21.10530662536621,17321787.0,50354.0,0.07015991254130001,0.0852428313694,-0.04430932960100003,0.003535588859228176,0.004271541499723597,-0.002247101070847725,17.321787657914683
1631,D,1551074297808481.0,1.3860626,1.6846924,8.882309,162,1970-01-18 22:51:14.297808481,-0.0078125,0.0035705566,-0.0004272461,9.146298223063662,0.008600381963248421,10.800471305847168,-8.791759490966797,21.105560302734375,17372141.0,50354.0,0.0696858447375,0.08535693101570001,-0.04456094853900004,0.003520896631008348,0.004295190217569663,-0.0022374869927307816,17.372141662053764
1631,D,1551074348162485.0,1.3980713,1.6941833,8.908249,162,1970-01-18 22:51:14.348162485,-0.008865356,0.00036621094,-0.0036010742,9.175061888613262,0.009575822829042803,10.79924201965332,-8.791031837463379,21.105506896972656,17422495.0,50354.0,0.0700961392003,0.08506995349890001,-0.045556321234000066,0.003519291009601991,0.004290837671424085,-0.002268882501074824,17.422495665960014
1631,D,1551074398516489.0,1.4146729,1.6915283,8.878555,162,1970-01-18 22:51:14.398516489,-0.008880615,-0.00065612793,-0.0004272461,9.148295266972983,0.008915063985677069,10.798489570617676,-8.793682098388672,21.10553550720215,17472849.0,50354.0,0.0708164607234,0.0852420609532,-0.045650835692000034,0.003547756528278995,0.004287945587860522,-0.0022963225899259045,17.472849670099095
1631,D,1551074448870492.0,1.4196014,1.6660919,8.966263,162,1970-01-18 22:51:14.448870492,-0.009918213,0.0025177002,-0.00045776367,9.229572175312168,0.010243012788629179,10.791192054748535,-8.794906616210938,21.106569290161133,17523203.0,50354.0,0.07135852405109999,0.08453480377540001,-0.04419021721400004,0.0035795395916675865,0.004274472123271963,-0.002261928189014364,17.523203673074022
1631,D,1551074499224496.0,1.4300385,1.6889343,8.87796,162,1970-01-18 22:51:14.499224496,-0.00881958,0.0024871826,-0.0025024414,9.149627475629744,0.009499120044645017,10.790267944335938,-8.799686431884766,21.10654640197754,17573557.0,50354.0,0.0717453837623,0.08446949463740001,-0.044205197529000054,0.0036029270870179715,0.004255021221139067,-0.0022255313569845133,17.573557676980272
1631,D,1551074549578500.0,1.3786163,1.6681671,8.8962555,162,1970-01-18 22:51:14.549578500,-0.006668091,0.0012817383,-0.0004272461,9.155693654629799,0.006803589485259462,10.785689353942871,-8.796136856079102,21.107192993164062,17623911.0,50354.0,0.0707135018996,0.08452174194780002,-0.045967776356500026,0.003586687364309657,0.0042546923635055816,-0.0022702849635152355,17.623911680886522
1631,D,1551074599932504.0,1.3713989,1.6713867,8.886765,162,1970-01-18 22:51:14.599932504,-0.0045928955,-0.0036621094,-0.00065612793,9.145975104333223,0.00591068847022195,10.782113075256348,-8.791998863220215,21.107633590698242,17674265.0,50354.0,0.06923713269040001,0.08407994602260001,-0.04574609287150001,0.0035235371270724305,0.004244884698030762,-0.002309080085553357,17.674265685025603
1631,D,1551074650286508.0,1.4249878,1.6408081,8.878464,162,1970-01-18 22:51:14.650286508,-0.0042877197,0.0021972656,-0.007080078,9.140566965482526,0.00856387884248694,10.774166107177734,-8.79625129699707,21.108497619628906,17724619.0,50354.0,0.07040462794590001,0.08339112847960001,-0.04619402946700005,0.0035157606075401256,0.00421641924274189,-0.002314776460116416,17.724619688931853
1631,D,1551074700640512.0,1.4362946,1.7337036,8.859436,162,1970-01-18 22:51:14.700640512,0.00012207031,-0.0023498535,-0.010421753,9.141021638128757,0.010684083873924556,10.781700134277344,-8.802367210388184,21.106813430786133,17774973.0,50354.0,0.07203850698480001,0.08496008107090001,-0.046882091700000045,0.0035862908081502345,0.00423857840285294,-0.0023433775026215613,17.774973693070933
1631,D,1551074750994516.0,1.405426,1.6858368,8.907303,162,1970-01-18 22:51:14.750994516,-0.00894165,0.0055236816,0.00024414063,9.173729595509084,0.010513028478411698,10.779632568359375,-8.802350997924805,21.10712432861328,17825327.0,50354.0,0.07154599954620001,0.0860937686508,-0.04615601219700001,0.0036150271209309877,0.004306622774443242,-0.0023424203418147705,17.825327696977183
1631,D,1551074801348520.0,1.4059601,1.697998,8.891937,162,1970-01-18 22:51:14.801348520,-0.010070801,0.016647339,0.00944519,9.161138827829486,0.02162791119592047,10.779820442199707,-8.802267074584961,21.10763931274414,17875681.0,50354.0,0.0707822678397,0.0851948087596,-0.04533773452000001,0.003583398787974805,0.00431253251346164,-0.00230353806109391,17.875681701116264
1631,D,1551074851702524.0,1.34552,1.6440582,8.897247,162,1970-01-18 22:51:14.851702524,-0.01222229,0.0034332275,0.013458252,9.147368780933467,0.018501242412507335,10.771329879760742,-8.793634414672852,21.109527587890625,17926035.0,50354.0,0.06927401447770001,0.0841429489474,-0.04559091443200002,0.003526197019905181,0.004263416725789139,-0.002289310594664505,17.926035705022514
1631,D,1551074902056528.0,1.380249,1.6468506,8.940781,162,1970-01-18 22:51:14.902056528,-0.01361084,0.0006866455,0.012786865,9.195366718662305,0.018687706228333514,10.762177467346191,-8.789702415466309,21.1114444732666,17976389.0,50354.0,0.068626686113,0.0828552108576,-0.04436116904400005,0.0034719259387720547,0.004204512669410485,-0.002264723605675254,17.976389708928764
1631,D,1551074952410532.0,1.4021301,1.7150574,8.928772,162,1970-01-18 22:51:14.952410532,-0.0058288574,-0.008270264,0.003036499,9.199476079136506,0.010563766913191134,10.764649391174316,-8.789568901062012,21.11109733581543,18026743.0,50354.0,0.0700519586007,0.08464275771600001,-0.043567464119000046,0.0034915122379568253,0.004217096354777528,-0.0022137791971448533,18.026743713067845
1631,D,1551075002764535.0,1.4455414,1.7304688,8.935822,162,1970-01-18 22:51:15.002764535,-0.0076293945,0.004714966,-0.0073547363,9.21591162189457,0.011598737468376632,10.769193649291992,-8.795135498046875,21.110029220581055,18077097.0,50354.0,0.0716958253555,0.08674801313739999,-0.04369231686200003,0.0035687839566652473,0.004315105437776052,-0.0021969395057586387,18.077097716042772
1631,D,1551075053118539.0,1.3690338,1.6529236,8.858582,162,1970-01-18 22:51:15.053118539,-0.0049438477,0.01576233,-0.013244629,9.114871640550042,0.02117340016287739,10.764022827148438,-8.790319442749023,21.110279083251953,18127451.0,50354.0,0.0708625598104,0.0851836704548,-0.045459490492000036,0.0035891924633218645,0.00432872399780082,-0.0022445750537516598,18.127451719949022
1631,D,1551075103472543.0,1.4336853,1.623169,9.027634,162,1970-01-18 22:51:15.103472543,0.00642395,-0.0010986328,-0.014587402,9.283765765030541,0.01597705932708957,10.7501859664917,-8.792584419250488,21.111732482910156,18177805.0,50354.0,0.0705640587807,0.08248218339020001,-0.043147939768000014,0.003560697976268125,0.0042213232022555655,-0.0022308692716560214,18.177805724088103
1631,D,1551075153826547.0,1.5692444,1.694107,8.87323,162,1970-01-18 22:51:15.153826547,0.040145874,0.01789856,-0.027816772,9.168791476922156,0.052017520642543696,10.753846168518066,-8.817997932434082,21.110294342041016,18228159.0,50354.0,0.0756047610569,0.083519057852,-0.04277914707200003,0.0036800923770512555,0.00417941325075487,-0.0021633862653706814,18.228159727994353
1631,D,1551075204180551.0,1.3039093,1.821579,8.815628,162,1970-01-18 22:51:15.204180551,0.017547607,0.027770996,-0.021713257,9.09580268861696,0.039377814309665714,10.777900695800781,-8.802054405212402,21.105939865112305,18278513.0,50354.0,0.0723373907049,0.08851442642200001,-0.048116822134000044,0.003724739554906839,0.004331287033566498,-0.0022884878166994638,18.278513731900603
1631,D,1551075254534555.0,1.2175293,1.7184906,8.995056,162,1970-01-18 22:51:15.254534555,-0.021530151,0.014190674,0.0045928955,9.238323439985356,0.026191932340531833,10.777724266052246,-8.77068042755127,21.106159210205078,18328867.0,50354.0,0.0634822596322,0.0891283323192,-0.04504960893200003,0.003419531336537167,0.004472511736827192,-0.002345651234948684,18.328867736039683
1631,D,1551075304888559.0,1.2915802,1.7716522,8.838913,162,1970-01-18 22:51:15.304888559,-0.013427734,-0.008590698,0.023864746,9.106772971385961,0.028698958764151634,10.790812492370605,-8.755906105041504,21.10513687133789,18379221.0,50354.0,0.0631718498815,0.0878713252756,-0.044463362487000044,0.003188770515226425,0.00445632037926428,-0.0022536680814161654,18.379221739945933
1631,D,1551075355242563.0,1.4315796,1.7789459,8.947357,162,1970-01-18 22:51:15.355242563,-0.01499939,-0.0096588135,0.019866943,9.23413590714973,0.026701494391983594,10.801278114318848,-8.760641098022461,21.104307174682617,18429575.0,50354.0,0.06856099428460001,0.08939340836370001,-0.04566428021000004,0.0033166378175699,0.004462994198836657,-0.002269143660182371,18.429575744085014
1631,D,1551075405596567.0,1.3959656,1.7617188,8.953857,162,1970-01-18 22:51:15.405596567,-0.013702393,-7.6293945e-05,0.0037841797,9.23168068463732,0.01421553413327775,10.808809280395508,-8.759100914001465,21.10323715209961,18479929.0,50354.0,0.07118910550040002,0.0891433151519,-0.04277033512200005,0.003518488262286946,0.004495019087952262,-0.0022265183102137664,18.479929747991264
1631,D,1551075455950571.0,1.3537445,1.6880798,8.861862,162,1970-01-18 22:51:15.455950571,-0.01574707,-0.010009766,-0.011856079,9.122216599571198,0.022107289255218446,10.807533264160156,-8.753862380981445,21.10264778137207,18530283.0,50354.0,0.06922945118769999,0.08685557935220001,-0.04492284273700005,0.003535318001736294,0.004431124166929726,-0.0022078511389560457,18.530283751897514
1631,D,1551075506304575.0,1.3768921,1.6996765,8.883987,162,1970-01-18 22:51:15.506304575,-0.0059814453,-0.008636475,-0.0155181885,9.149314568636475,0.018739812235560135,10.80794620513916,-8.751677513122559,21.101701736450195,18580637.0,50354.0,0.0687492376782,0.0852935403651,-0.046681959727000046,0.003473889449576764,0.004334198387122463,-0.0023063341116361306,18.580637756036595
1631,D,1551075556658578.0,1.3972931,1.7318878,8.885986,162,1970-01-18 22:51:15.556658578,-0.0076141357,-0.009536743,-0.008377075,9.160382664020782,0.014802024019089028,10.81316089630127,-8.752625465393066,21.10035514831543,18630991.0,50354.0,0.0698456607804,0.0863964943811,-0.04607458977900003,0.0034894037584921726,0.004322640004805078,-0.002335331646912564,18.630991759011522
1631,D,1551075607012582.0,1.4196167,1.7336426,8.8532715,162,1970-01-18 22:51:15.607012582,-0.0070648193,-0.0013580322,0.0019226074,9.1324281816046,0.0074466329580840825,10.819450378417969,-8.757465362548828,21.099424362182617,18681345.0,50354.0,0.0709213380346,0.08725165888080001,-0.04684791392250002,0.003544090729165255,0.004371939554674857,-0.002339509875692667,18.681345762917772
1631,D,1551075657366586.0,1.4279022,1.7550507,8.890305,162,1970-01-18 22:51:15.657366586,-0.0098724365,-0.0027770996,0.0149383545,9.173692312551164,0.01811992604296504,10.827537536621094,-8.762674331665039,21.098817825317383,18731699.0,50354.0,0.0716919833453,0.0878348312141,-0.04673917445950005,0.003590575592381743,0.004408152561119298,-0.002356242124193616,18.731699767056853
1631,D,1551075707720590.0,1.3914337,1.7478333,8.90155,162,1970-01-18 22:51:15.707720590,-0.013427734,0.007369995,0.015701294,9.177614144677504,0.021935165829079502,10.833772659301758,-8.761406898498535,21.098602294921875,18782053.0,50354.0,0.0709824199543,0.088192110468,-0.04552366666500004,0.00359211345187403,0.004431830310730232,-0.002322901550991539,18.782053770963103
1631,D,1551075758074594.0,1.3477478,1.699585,8.930023,162,1970-01-18 22:51:15.758074594,-0.00932312,0.009780884,0.008224487,9.189685744635606,0.015818610709193933,10.83177661895752,-8.752800941467285,21.09931755065918,18832407.0,50354.0,0.06896437262550001,0.0867956505391,-0.04452368657900002,0.0035234403967816254,0.004405666858875757,-0.00226712221262419,18.832407775102183
1631,D,1551075808428598.0,1.3616333,1.7481995,8.898071,162,1970-01-18 22:51:15.808428598,-0.006729126,0.0077667236,-0.0050811768,9.169837199018865,0.01146392122598246,10.838560104370117,-8.747040748596191,21.098060607910156,18882761.0,50354.0,0.0682140879547,0.0868048703565,-0.04461127736200004,0.0034537421020276954,0.004370740314588522,-0.002244150987142559,18.882761779008433
1631,D,1551075858782602.0,1.3039093,1.7726593,8.8510895,162,1970-01-18 22:51:15.858782602,-0.009796143,0.0029449463,-0.0066070557,9.120541968189897,0.012177450940539042,10.850293159484863,-8.733649253845215,21.09590721130371,18933115.0,50354.0,0.06711036604020001,0.0886446620076,-0.04659858609150003,0.0034070637782295976,0.004417292876330946,-0.0022963907321687715,18.933115782914683
1631,D,1551075909136606.0,1.3518982,1.7424622,8.890244,162,1970-01-18 22:51:15.909136606,-0.01927185,0.0036315918,-0.0051574707,9.159707508492183,0.020277873790062056,10.855344772338867,-8.727269172668457,21.09478187561035,18983469.0,50354.0,0.0668652654275,0.08850021400550001,-0.046795646470500045,0.0033731044734622837,0.00445997654338182,-0.002351386593213476,18.983469787053764
1631,D,1551075959490610.0,1.3674011,1.6982117,8.870743,162,1970-01-18 22:51:15.959490610,-0.009094238,-0.0022735596,-0.001663208,9.134757255578666,0.009520530389986692,10.854458808898926,-8.724411010742188,21.094743728637695,19033823.0,50354.0,0.0684637984761,0.08662584678030001,-0.04630083030100008,0.003407179841900937,0.004409148832404087,-0.0023438899956760586,19.033823790960014
1631,D,1551076009844614.0,1.342926,1.7151184,8.906906,162,1970-01-18 22:51:16.009844614,-0.009521484,-0.007965088,0.0006713867,9.169408697420492,0.01243189625563763,10.855116844177246,-8.717240333557129,21.09453010559082,19084177.0,50354.0,0.0682379053967,0.0859374119277,-0.045881331127000075,0.003441738798405486,0.004344625164491317,-0.00232087027827276,19.084177795099095
1631,D,1551076060198617.0,1.4161835,1.7238312,8.922913,162,1970-01-18 22:51:16.060198617,-0.0075683594,-0.0051879883,-0.0033874512,9.197583710808763,0.009781109969777801,10.856751441955566,-8.720963478088379,21.094011306762695,19134531.0,50354.0,0.0694660998815,0.08658243407920001,-0.04456784703700007,0.003466973740889241,0.0043435321629157215,-0.0022772389586350316,19.134531798074022
1631,D,1551076110552621.0,1.3937683,1.7383423,8.880539,162,1970-01-18 22:51:16.110552621,-0.007888794,0.003753662,-0.002090454,9.155784890252457,0.008982930875321038,10.861834526062012,-8.721637725830078,21.09311294555664,19184885.0,50354.0,0.07074615646860001,0.0871671422095,-0.04523168899600004,0.0035301239781264683,0.004374493082220601,-0.002260882918702844,19.184885801980272
1631,D,1551076160906625.0,1.3510284,1.782074,8.930664,162,1970-01-18 22:51:16.160906625,-0.012069702,0.007522583,-0.0016937256,9.206401303439828,0.01432255800368036,10.871817588806152,-8.714181900024414,21.09149742126465,19235239.0,50354.0,0.06910574651590001,0.0886335211851,-0.04503654206900002,0.003521051361440757,0.004426133302285844,-0.0022726832535235066,19.235239805886522
1631,D,1551076211260629.0,1.3387451,1.7800446,8.908859,162,1970-01-18 22:51:16.211260629,-0.011566162,-0.0068511963,-0.0057678223,9.18305863547893,0.01462814985689424,10.881986618041992,-8.706183433532715,21.08952522277832,19285593.0,50354.0,0.0677204274095,0.0896834599922,-0.044323529429000044,0.003444872580919797,0.0044894866351008825,-0.002249818520105148,19.285593810025603
1631,D,1551076261614633.0,1.3253632,1.720398,8.877502,162,1970-01-18 22:51:16.261614633,-0.008865356,-0.00630188,-0.0060272217,9.1392777969773,0.012435257535012569,10.883740425109863,-8.697240829467773,21.08884048461914,19335947.0,50354.0,0.0670742546691,0.08813064334020002,-0.04566198910300005,0.0033937257106929127,0.004476825679599835,-0.0022655654000801667,19.335947813931853
1631,D,1551076311968637.0,1.3724518,1.691803,8.883514,162,1970-01-18 22:51:16.311968637,-0.0048675537,-0.0068359375,-0.008163452,9.146728503805512,0.011707479194198636,10.881036758422852,-8.695810317993164,21.08875274658203,19386301.0,50354.0,0.06792288825500001,0.08590898457700001,-0.04630010016800005,0.003398823067400066,0.0043817957120713446,-0.00231532952157597,19.386301818070933
1631,D,1551076362322641.0,1.4353333,1.6895752,8.919022,162,1970-01-18 22:51:16.362322641,-0.0032958984,-0.004928589,-0.008560181,9.190418895514389,0.010413003147354011,10.87708854675293,-8.703204154968262,21.088863372802734,19436655.0,50354.0,0.07069160546270001,0.08513295894140001,-0.045254751128000044,0.0034898971083305334,0.004306323011962758,-0.0023050764910793942,19.436655821977183
1631,D,1551076412676645.0,1.4197235,1.7454224,8.897339,162,1970-01-18 22:51:16.412676645,-0.0070495605,0.0015563965,0.0014343262,9.177404614148546,0.0073604323892268,10.8822660446167,-8.70804500579834,21.088111877441406,19487009.0,50354.0,0.0718817650536,0.08648293457520001,-0.04490667910300002,0.0035895697494888854,0.004320773351067439,-0.0022699943289258887,19.487009826116264
1631,D,1551076463030649.0,1.3893127,1.7476654,8.870148,162,1970-01-18 22:51:16.463030649,-0.01071167,0.011062622,0.0026855469,9.146805435267686,0.01563117531908217,10.888290405273438,-8.708240509033203,21.087352752685547,19537363.0,50354.0,0.0707231044074,0.0879454715406,-0.04613717980100002,0.0035903627984195967,0.0043915839807774975,-0.0022922112356260093,19.537363830022514
1631,D,1551076513384653.0,1.3611755,1.7454987,8.879669,162,1970-01-18 22:51:16.513384653,-0.009353638,0.009887695,0.005783081,9.151398035440428,0.014788545638453767,10.893584251403809,-8.70395278930664,21.08685302734375,19587717.0,50354.0,0.06924904141140001,0.0879473925457,-0.046582057391000034,0.003524078715279928,0.004428454639100776,-0.0023343922347829854,19.587717833928764
1631,D,1551076563738657.0,1.3516235,1.7373047,8.8823395,162,1970-01-18 22:51:16.563738657,-0.008117676,0.006164551,-0.0025634766,9.15101462678618,0.010510459787817304,10.89752197265625,-8.698372840881348,21.08612823486328,19638071.0,50354.0,0.06830014042300002,0.0876865412018,-0.04627511199550003,0.0034630757510446895,0.004421935549960808,-0.0023378649536439124,19.638071838067845
1631,D,1551076614092660.0,1.3279266,1.7042236,8.907501,162,1970-01-18 22:51:16.614092660,-0.008239746,0.004333496,-0.009170532,9.165770082147246,0.013067947768856288,10.895511627197266,-8.688871383666992,21.08596420288086,19688425.0,50354.0,0.0674630328677,0.0866473580091,-0.04557438573150003,0.003418109413939955,0.00438920458043283,-0.0023124948042726806,19.688425841042772
1631,D,1551076664446664.0,1.3501282,1.716568,8.899292,162,1970-01-18 22:51:16.664446664,-0.007385254,0.0022888184,-0.012176514,9.163342728301897,0.014423874635648029,10.895784378051758,-8.68324089050293,21.085298538208008,19738779.0,50354.0,0.06742538569960001,0.08612527011320001,-0.045147572639000016,0.0033960857142689123,0.0043498964582351475,-0.0022841067458940797,19.738779844949022
1631,D,1551076714800668.0,1.3543854,1.7549438,8.873474,162,1970-01-18 22:51:16.714800668,-0.008224487,-0.0032958984,-0.01184082,9.146186548587755,0.014788852252581726,10.902756690979004,-8.679108619689941,21.083576202392578,19789133.0,50354.0,0.0680915389072,0.0874022525886,-0.04600427041800002,0.003411909610825404,0.004368902439063219,-0.0022949299526460903,19.789133849088103
1631,D,1551076765154672.0,1.3527374,1.7251587,8.859848,162,1970-01-18 22:51:16.765154672,-0.0064086914,-0.012832642,-0.009475708,9.12704648813889,0.017191191589353602,10.90542221069336,-8.67575454711914,21.082548141479492,19839487.0,50354.0,0.06815723073560001,0.0876185406425,-0.046997352006000054,0.0034303352732967763,0.004406498511179405,-0.00234150184776905,19.839487852994353
1631,D,1551076815508676.0,1.3800507,1.7388153,8.8402405,162,1970-01-18 22:51:16.815508676,-0.005340576,-0.018737793,-0.005432129,9.114706285993249,0.02022707749516143,10.91077709197998,-8.677446365356445,21.081262588500977,19889841.0,50354.0,0.06880340599370001,0.087212473398,-0.04783407183550005,0.0034482579509335872,0.004401720440497668,-0.0023875707580574483,19.889841856900603
1631,D,1551076865862680.0,1.4256744,1.7605743,8.86113,162,1970-01-18 22:51:16.865862680,-0.0055389404,-0.009429932,-0.004058838,9.146135481039838,0.011665232281854492,10.918705940246582,-8.685131072998047,21.079736709594727,19940195.0,50354.0,0.0706397408427,0.0881041319592,-0.04780179492150005,0.0035107601079000434,0.004413946173078225,-0.002407824217340992,19.940195861039683
1631,D,1551076916216684.0,1.3879547,1.7277832,8.843918,162,1970-01-18 22:51:16.916216684,-0.008758545,0.0010070801,-0.0019226074,9.117375643581784,0.009023454995697367,10.921669006347656,-8.68684196472168,21.07914161682129,19990549.0,50354.0,0.07083873985070001,0.0878263767775,-0.04770920650400005,0.0035620037084177327,0.004429402418463897,-0.002404680482889816,19.990549864945933
1631,D,1551076966570688.0,1.4015961,1.7162933,8.886627,162,1970-01-18 22:51:16.966570688,-0.010360718,0.0028381348,-9.1552734e-05,9.158726644915719,0.01074280543068699,10.92138385772705,-8.689599990844727,21.079130172729492,20040903.0,50354.0,0.0702325204916,0.08671151404050001,-0.04706726853500001,0.0035517511216380873,0.004394340477124787,-0.0023861873120569043,20.040903869085014
1631,D,1551077016924692.0,1.401001,1.7409058,8.885483,162,1970-01-18 22:51:17.016924692,-0.008544922,0.00390625,0.00032043457,9.162170318748919,0.00940091268772533,10.925046920776367,-8.69206428527832,21.078561782836914,20091257.0,50354.0,0.0705609871867,0.0870419017407,-0.04602078653,0.0035447581428165596,0.004374589749123273,-0.002343677962371505,20.091257872991264
1631,D,1551077067278696.0,1.3782959,1.7494507,8.893158,162,1970-01-18 22:51:17.067278696,-0.006454468,0.0026245117,-0.0017700195,9.167798893554073,0.007188962919423158,10.929832458496094,-8.690786361694336,21.077726364135742,20141611.0,50354.0,0.0699743580513,0.0878767056005,-0.04585635554300003,0.003538258387057126,0.0044039257770293935,-0.002313190805971922,20.141611876897514
1631,D,1551077117632700.0,1.3851624,1.7419586,8.944305,162,1970-01-18 22:51:17.117632700,-0.002822876,-0.0010528564,-0.0061035156,9.21703241675501,0.006806617235443779,10.932012557983398,-8.689594268798828,21.077072143554688,20191965.0,50354.0,0.0695755896191,0.0879032119461,-0.044375394049000046,0.0035134490324976613,0.0044256109840707485,-0.002271764759477786,20.191965881036595
1631,D,1551077167986703.0,1.4088898,1.718811,8.89769,162,1970-01-18 22:51:17.167986703,-0.0025177002,0.0011291504,-0.009338379,9.171050597306998,0.0097375108354518,10.931987762451172,-8.693131446838379,21.076608657836914,20242319.0,50354.0,0.07034585223940001,0.0871317962192,-0.04426129188500002,0.0035228021416714556,0.004406856400577758,-0.0022316058417603197,20.242319884011522
1631,D,1551077218340707.0,1.3724213,1.7440491,8.882263,162,1970-01-18 22:51:17.218340707,-0.006866455,0.0051574707,-0.007003784,9.155317771059261,0.011081547662986406,10.936114311218262,-8.691021919250488,21.07564926147461,20292673.0,50354.0,0.0700250695647,0.0871844287377,-0.04582332331900002,0.0035341186982618266,0.004388759595739872,-0.002268060356991109,20.292673887917772
1631,D,1551077268694711.0,1.3068695,1.7343597,8.865341,162,1970-01-18 22:51:17.268694711,-0.009490967,0.008468628,3.0517578e-05,9.127441180599048,0.012719946781336783,10.938957214355469,-8.679128646850586,21.07522964477539,20343027.0,50354.0,0.06745650447160001,0.0875758983576,-0.04663777409200002,0.0034613735895119256,0.004399940755278368,-0.002327893049516748,20.343027892056853
1631,D,1551077319048715.0,1.3040161,1.736618,8.85022,162,1970-01-18 22:51:17.319048715,-0.0074768066,0.0024108887,0.0031585693,9.112776421891585,0.008467088122872807,10.94262981414795,-8.667741775512695,21.07479476928711,20393381.0,50354.0,0.06573426675119999,0.0873888055529,-0.047444520703000016,0.0033533440470764355,0.004405086350354659,-0.002368709936053716,20.393381895963103
1631,D,1551077369402719.0,1.3628387,1.7601471,8.907379,162,1970-01-18 22:51:17.369402719,-0.009994507,-0.0031585693,0.0027313232,9.181331482170608,0.010831752241387806,10.947997093200684,-8.66463565826416,21.074007034301758,20443735.0,50354.0,0.0671434032996,0.0880380549227,-0.04638612997700002,0.003345461098868991,0.004416722066194182,-0.0023623742921703612,20.443735900102183
1631,D,1551077419756723.0,1.4051514,1.7471466,8.954208,162,1970-01-18 22:51:17.419756723,-0.011703491,-0.0013885498,-0.00010681152,9.230645297381841,0.011786058749003661,10.949737548828125,-8.666990280151367,21.073644638061523,20494089.0,50354.0,0.0696896867477,0.0883031334849,-0.04376802410100004,0.003445046708120872,0.0044397421005381455,-0.0022698111372218078,20.494089904008433
1631,D,1551077470110727.0,1.3759308,1.7188721,8.922455,162,1970-01-18 22:51:17.470110727,-0.010620117,-0.002243042,-0.0026397705,9.190098480950683,0.011170788280158354,10.948090553283691,-8.665665626525879,21.07366371154785,20544443.0,50354.0,0.07001930654940001,0.08726395280990001,-0.04338845564900007,0.0035174533242410874,0.00442025253164418,-0.0021943386906657526,20.544443907914683
1631,D,1551077520464731.0,1.3675079,1.7422943,8.877258,162,1970-01-18 22:51:17.520464731,-0.010726929,-0.0022125244,-0.003112793,9.149392159205927,0.011386472247912668,10.9514799118042,-8.66400146484375,21.072898864746094,20594797.0,50354.0,0.0690715561499,0.0871417864528,-0.04532582579900007,0.003501890650180277,0.004391013297416999,-0.0022335594640162998,20.594797912053764
1631,D,1551077570818735.0,1.3836517,1.7647858,8.883423,162,1970-01-18 22:51:17.570818735,-0.013671875,0.004501343,0.002380371,9.162104842432417,0.014589325581291104,10.957886695861816,-8.66435432434082,21.071989059448242,20645151.0,50354.0,0.06926594524920002,0.08829775567770001,-0.04630853446300004,0.003482923272725141,0.004417041352219599,-0.002307078288316377,20.645151915960014
1631,D,1551077621172739.0,1.3928223,1.7449493,8.899475,162,1970-01-18 22:51:17.621172739,-0.015930176,0.005783081,0.0074768066,9.175263336524614,0.018523422204801698,10.96041488647461,-8.665817260742188,21.0719051361084,20695505.0,50354.0,0.069903285898,0.08836460061270002,-0.04574917705400001,0.0035038637325930555,0.004447828144323402,-0.00231773700286351,20.695505920099095
1631,D,1551077671526742.0,1.3529968,1.7345581,8.891769,162,1970-01-18 22:51:17.671526742,-0.015274048,0.0037994385,0.0059814453,9.159849785473932,0.016837754099002584,10.961549758911133,-8.661397933959961,21.07194709777832,20745859.0,50354.0,0.06913148748070001,0.0876035578098,-0.04553904981200002,0.0035004784893555305,0.004430350324603283,-0.0022983636878052827,20.745859923074022
1631,D,1551077721880746.0,1.3396149,1.7041473,8.902313,162,1970-01-18 22:51:17.721880746,-0.014846802,0.004837036,0.0041046143,9.16241577589493,0.016145349344138218,10.957651138305664,-8.654845237731934,21.072664260864258,20796213.0,50354.0,0.06779188477090001,0.0865762858558,-0.04546759748600005,0.0034473197431785334,0.004385325923968812,-0.002291274359021748,20.796213926980272
1631,D,1551077772234750.0,1.3796082,1.7223206,8.920502,162,1970-01-18 22:51:17.772234750,-0.012863159,-0.00090026855,0.0050964355,9.189399488905442,0.013865244236112842,10.956226348876953,-8.654428482055664,21.073020935058594,20846567.0,50354.0,0.0684618799887,0.08626818231830001,-0.04474418674500003,0.0034304610353524494,0.0043517051752193165,-0.0022712620915838894,20.846567930886522
1631,D,1551077822588754.0,1.3614197,1.7493744,8.892197,162,1970-01-18 22:51:17.822588754,-0.010131836,-0.006225586,-0.0014343262,9.164329865174674,0.011977867649222812,10.960078239440918,-8.651942253112793,21.07223892211914,20896921.0,50354.0,0.0690108594383,0.087406865015,-0.044998877277000034,0.003461151160553579,0.004372616666710495,-0.002259461122881896,20.896921935025603
1631,D,1551077872942758.0,1.371872,1.726181,8.866577,162,1970-01-18 22:51:17.872942758,-0.00843811,-0.0010528564,-0.014633179,9.136625270091468,0.016924542375413344,10.96118450164795,-8.651448249816895,21.071285247802734,20947275.0,50354.0,0.0688160851309,0.0875040583058,-0.046356547002000065,0.0034700689834187485,0.004403732316447782,-0.0023000555170723854,20.947275938931853
1631,D,1551077923296762.0,1.3789215,1.6975708,8.904434,162,1970-01-18 22:51:17.923296762,-0.007369995,0.0055236816,-0.018432617,9.169084795361579,0.0206055636706908,10.956754684448242,-8.650952339172363,21.071056365966797,20997629.0,50354.0,0.0692567279495,0.0861997990686,-0.04604845605300004,0.0034762592149252306,0.004373342017115269,-0.0023264807619157377,20.997629943070933
1631,D,1551077973650766.0,1.3709259,1.6959686,8.906158,162,1970-01-18 22:51:17.973650766,-0.0071868896,0.0023040771,-0.0059051514,9.16926374560361,0.009582847513252757,10.952056884765625,-8.649478912353516,21.071443557739258,21047983.0,50354.0,0.0692329079898,0.0854391414738,-0.045051925216000044,0.003486753564043756,0.004321353606036004,-0.002293634299209615,21.047983946977183
1631,D,1551078024004770.0,1.3477325,1.6968842,8.883545,162,1970-01-18 22:51:18.024004770,-0.009170532,-0.002532959,0.008224487,9.144023766744644,0.012576037725447313,10.948089599609375,-8.645336151123047,21.07234764099121,21098337.0,50354.0,0.0684476625368,0.0854218549456,-0.04557784756900005,0.003466383724148208,0.004301767306851234,-0.0022817857894079476,21.098337951116264
1631,D,1551078074358774.0,1.3251495,1.7303925,8.927063,162,1970-01-18 22:51:18.074358774,-0.010543823,-0.002532959,0.015136719,9.189272724616215,0.018620105983478477,10.947999954223633,-8.636754035949707,21.0729923248291,21148691.0,50354.0,0.067295150114,0.08628854547590001,-0.04505152238400003,0.003417596794109192,0.004323152751412106,-0.0022817756473066833,21.148691955022514
1631,D,1551078124712778.0,1.323349,1.7793274,8.903427,162,1970-01-18 22:51:18.124712778,-0.013259888,-0.0021209717,0.010269165,9.175416661739169,0.0169049963183069,10.956110000610352,-8.628355026245117,21.072153091430664,21199045.0,50354.0,0.0666812467345,0.08836421792230001,-0.04455095327000001,0.0033731237434546845,0.004397232624076482,-0.002255921529540759,21.199045958928764
1631,D,1551078175066782.0,1.3967285,1.7693024,8.913712,162,1970-01-18 22:51:18.175066782,-0.013504028,0.00045776367,-0.0029144287,9.194321242174542,0.013822525617619218,10.9622220993042,-8.63104248046875,21.070999145507812,21249399.0,50354.0,0.06848339121750001,0.0893438524746,-0.04488709139700001,0.0034030400897175047,0.004474156088382752,-0.00225178165058106,21.249399963067845
1631,D,1551078225420785.0,1.4120331,1.7337189,8.923843,162,1970-01-18 22:51:18.225420785,-0.007385254,0.0027923584,-0.019134521,9.199706114238749,0.020699496031981252,10.96279525756836,-8.635672569274902,21.06995391845703,21299753.0,50354.0,0.0707161908032,0.0881955672701,-0.04437307776500004,0.0035046278765351645,0.0044699099709123126,-0.0022473032789916757,21.299753966042772
1631,D,1551078275774789.0,1.3595886,1.70784,8.907471,162,1970-01-18 22:51:18.275774789,-0.0056610107,0.0043029785,-0.019699097,9.171054369192833,0.020943187167486846,10.959924697875977,-8.632518768310547,21.069429397583008,21350107.0,50354.0,0.0697811195409,0.08664812842530001,-0.04453020742200006,0.0035373007825334063,0.0044020397265230864,-0.002238318011153102,21.350107969949022
1631,D,1551078326128793.0,1.3703461,1.6790161,8.859665,162,1970-01-18 22:51:18.326128793,-0.0076293945,0.0009460449,-0.0012817383,9.120888520866233,0.007793940881167444,10.953826904296875,-8.632670402526855,21.070226669311523,21400461.0,50354.0,0.0687315659419,0.0852708760297,-0.046146016928000064,0.0034873338824004557,0.004328404775163536,-0.0022829553004599535,21.400461974088103
1631,D,1551078376482797.0,1.3752136,1.7017365,8.870712,162,1970-01-18 22:51:18.376482797,-0.011428833,0.0038452148,0.011260986,9.136555748639703,0.016498900154017056,10.95080852508545,-8.633195877075195,21.071178436279297,21450815.0,50354.0,0.0691249565669,0.08511720821020001,-0.047071498271000066,0.0034708136672040573,0.004289860796907963,-0.002346937380165226,21.450815977994353
1631,D,1551078426836801.0,1.3429108,1.7434998,8.942764,162,1970-01-18 22:51:18.426836801,-0.010131836,0.003326416,0.007873535,9.209572678960338,0.013255628899911803,10.952272415161133,-8.626893043518066,21.071298599243164,21501169.0,50354.0,0.0684342180188,0.0867407143251,-0.04497931474800005,0.003463327338544169,0.004326866915671249,-0.002317563319379366,21.501169981900603
1631,D,1551078477190805.0,1.3029785,1.7731171,8.94754,162,1970-01-18 22:51:18.477190805,-0.004196167,0.0012969971,-0.0028076172,9.214128785369493,0.0052127471942377225,10.958507537841797,-8.614370346069336,21.070205688476562,21551523.0,50354.0,0.06661555490610001,0.0885378636913,-0.043045016192000025,0.0034001481329302076,0.004412988758718903,-0.002216188580076382,21.551523986039683
1631,D,1551078527544809.0,1.3344879,1.7814789,8.92511,162,1970-01-18 22:51:18.527544809,-0.0013885498,0.0010375977,-0.009475708,9.19848430658506,0.009632949788895888,10.966752052307129,-8.607417106628418,21.068513870239258,21601877.0,50354.0,0.06640349155280001,0.08949406349200001,-0.043489490950000036,0.0033490205326957255,0.0044823098306939445,-0.002178679286314136,21.601877989945933
1631,D,1551078577898813.0,1.3270264,1.7309265,8.919312,162,1970-01-18 22:51:18.577898813,-0.0045166016,-0.00074768066,-0.013671875,9.182114798239194,0.014418005493066146,10.967025756835938,-8.599879264831543,21.067768096923828,21652231.0,50354.0,0.06700894553110001,0.08843183075580001,-0.04420018730600005,0.003358924928461351,0.004479640239476862,-0.002207763029451314,21.652231994085014
1631,D,1551078628252817.0,1.3098602,1.6941528,8.896744,162,1970-01-18 22:51:18.628252817,-0.008865356,-0.0059509277,-0.012237549,9.15084374551483,0.016240864602131387,10.962035179138184,-8.590800285339355,21.06779670715332,21702585.0,50354.0,0.06638889392820001,0.08623322153610001,-0.044914358088000046,0.0033585574040667964,0.004397542021553167,-0.0022436369093847405,21.702585997991264
1631,D,1551078678606821.0,1.3462219,1.725647,8.896866,162,1970-01-18 22:51:18.678606821,-0.013214111,-0.017868042,-0.0008392334,9.162117418730487,0.022239243852562988,10.96177864074707,-8.588130950927734,21.067527770996094,21752940.0,50355.0,0.06687350707275,0.08610200946449999,-0.04548038422500005,0.0033552141012014184,0.004338970278517606,-0.00227591362458556,21.752940001897514
1631,D,1551078728960825.0,1.4200745,1.762558,8.940659,162,1970-01-18 22:51:18.728960825,-0.021392822,-0.017578125,0.014434814,9.22272224688542,0.03122510475328954,10.965384483337402,-8.595864295959473,21.067365646362305,21803294.0,50354.0,0.0696470444628,0.087822537285,-0.044373833075000056,0.003437177926010542,0.0043788983135121615,-0.002262259628962103,21.803294006036595
1631,D,1551078779314828.0,1.4499054,1.7601624,8.9353485,162,1970-01-18 22:51:18.779314828,-0.024261475,-0.007858276,0.021942139,9.221759602146173,0.033642668365679945,10.96847915649414,-8.607710838317871,21.067712783813477,21853648.0,50354.0,0.0722574839423,0.0886915315108,-0.043404959172500035,0.0035727303116552026,0.004444094710071857,-0.00221000665241531,21.853648009011522
1631,D,1551078829668832.0,1.4317322,1.6739044,8.933899,162,1970-01-18 22:51:18.829668832,-0.02104187,0.0045928955,0.008956909,9.201432734909124,0.023325548246613655,10.958456039428711,-8.616170883178711,21.069534301757812,21904002.0,50354.0,0.0725509898552,0.0864594998236,-0.043575155692500034,0.0036458429447996576,0.0044097775159061894,-0.002189898351956107,21.904002012917772
1631,D,1551078880022836.0,1.3623657,1.6034546,8.9522705,162,1970-01-18 22:51:18.880022836,-0.013320923,0.009918213,-0.00091552734,9.196208678578792,0.016632983165854088,10.93768310546875,-8.613277435302734,21.072595596313477,21954356.0,50354.0,0.07034700282829999,0.082514067543,-0.04314911049850005,0.00359774276179248,0.0042542475055888885,-0.002183456849890809,21.954356017056853
1631,D,1551078930376840.0,1.3249817,1.6405182,8.93634,162,1970-01-18 22:51:18.930376840,-0.007232666,0.0021362305,0.003540039,9.181778099337084,0.008331075221014827,10.923900604248047,-8.605308532714844,21.074796676635742,22004710.0,50354.0,0.0676593454898,0.0816735031856,-0.04308765344150007,0.0034745858316048038,0.004133750468233963,-0.0021711830057173833,22.004710020963103
1631,D,1551078980730844.0,1.353714,1.7080688,8.939117,162,1970-01-18 22:51:18.980730844,-0.00730896,-0.008468628,0.004776001,9.200970240089815,0.012163418188814567,10.92085075378418,-8.602150917053223,21.075349807739258,22055064.0,50354.0,0.0674415216389,0.084307374899,-0.04341881911100006,0.00340143453169928,0.004178900567535974,-0.002177973459454296,22.055064025102183
1631,D,1551079031084848.0,1.3734436,1.7256775,8.929443,162,1970-01-18 22:51:19.031084848,-0.006652832,-0.008407593,-0.0018310547,9.1977857360691,0.010876605857907378,10.920974731445312,-8.60218620300293,21.075119018554688,22105418.0,50354.0,0.0686616468952,0.0864514305951,-0.04359246488000007,0.003426669474183036,0.004299194445924956,-0.0021906830970414106,22.105418029008433
1631,D,1551079081438852.0,1.3815613,1.739212,8.908188,162,1970-01-18 22:51:19.081438852,-0.0062561035,-0.0037841797,-0.0033874512,9.180924977906404,0.008058143249966817,10.923848152160645,-8.603654861450195,21.074438095092773,22155772.0,50354.0,0.0693627583673,0.0872355229415,-0.04437116431300004,0.003475040451293963,0.004372916429190979,-0.002214660292192164,22.155772032914683
1631,D,1551079131792856.0,1.3823547,1.7127228,8.888992,162,1970-01-18 22:51:19.131792856,-0.0073242188,-0.0040130615,0.0002746582,9.157428824856677,0.00835609243366078,10.923040390014648,-8.605819702148438,21.074480056762695,22206126.0,50354.0,0.069587113132,0.0869093624596,-0.045389599140000014,0.003498340914737876,0.004384445779743495,-0.0022599067414561824,22.206126037053764
1631,D,1551079182146860.0,1.3826294,1.6989594,8.912598,162,1970-01-18 22:51:19.182146860,-0.009002686,-0.007965088,0.0005187988,9.177828185916137,0.012031630573501725,10.919334411621094,-8.607684135437012,21.074918746948242,22256480.0,50354.0,0.0696140046857,0.0858959227494,-0.04527856857000006,0.003504666543296233,0.004350718665706994,-0.002282752458434672,22.256480040960014
1631,D,1551079232500864.0,1.412796,1.7600098,8.9279175,162,1970-01-18 22:51:19.232500864,-0.011184692,-0.00843811,-0.0010375977,9.208764190732559,0.014049044255536007,10.924612998962402,-8.613527297973633,21.073917388916016,22306834.0,50354.0,0.0703804252958,0.0870864675484,-0.044298541256500075,0.0035246397636442264,0.004355177640527711,-0.002255282894101794,22.306834045099095
1631,D,1551079282854867.0,1.3931427,1.7331238,8.922165,162,1970-01-18 22:51:19.282854867,-0.011444092,-0.003967285,-0.0039978027,9.195085262025291,0.012754960541052891,10.925775527954102,-8.616203308105469,21.073421478271484,22357188.0,50354.0,0.0706451186499,0.0879466246472,-0.04405767289750006,0.003550600119920889,0.0044068081622086214,-0.0022245444037552616,22.357188048074022
1631,D,1551079333208871.0,1.3984528,1.6946411,8.895523,162,1970-01-18 22:51:19.333208871,-0.009109497,0.0001373291,-0.004501343,9.162849345873044,0.010161883864636753,10.921858787536621,-8.620222091674805,21.0737247467041,22407542.0,50354.0,0.07028399990350001,0.0863008368873,-0.04487326922400003,0.0035481724178189522,0.004387028339054106,-0.0022390143297930077,22.407542051980272
1631,D,1551079383562875.0,1.4189606,1.6671906,8.904526,162,1970-01-18 22:51:19.383562875,-0.007797241,0.0008087158,-0.006134033,9.169708663079582,0.009953760560830244,10.913590431213379,-8.627172470092773,21.074613571166992,22457896.0,50354.0,0.0709340171718,0.0846408367109,-0.045317366327,0.0035554460159048285,0.004303798516181882,-0.002270729631267528,22.457896055886522
1631,D,1551079433916879.0,1.4183807,1.6397095,8.929245,162,1970-01-18 22:51:19.433916879,-0.0071868896,-0.0014801025,-0.006652832,9.188681479110468,0.009904658457176523,10.900588035583496,-8.633504867553711,21.076175689697266,22508250.0,50354.0,0.0714357419101,0.0832578238177,-0.044468347533000024,0.0035844434244049973,0.0042271845761285625,-0.0022605349178532208,22.508250060025603
1631,D,1551079484270883.0,1.4208069,1.6858368,8.916626,162,1970-01-18 22:51:19.484270883,-0.0048217773,-0.00091552734,-0.0057678223,9.185148729726583,0.0075733414504735,10.895538330078125,-8.64012336730957,21.076610565185547,22558604.0,50354.0,0.0714822262052,0.08372727919510001,-0.04416370583300002,0.003598245683238908,0.004204183938553266,-0.0022314892075957836,22.558604063931853
1631,D,1551079534624887.0,1.3895569,1.720398,8.887054,162,1970-01-18 22:51:19.534624887,-0.0035247803,0.0010375977,-0.0050964355,9.158076569654657,0.00628286080985196,10.896912574768066,-8.64220142364502,21.076139450073242,22608958.0,50354.0,0.0707565293926,0.0857587735596,-0.04522594864000004,0.0035811451496858115,0.004267150350205083,-0.002250563330666723,22.608958068070933
1631,D,1551079584978891.0,1.395935,1.7292328,8.885452,162,1970-01-18 22:51:19.584978891,-0.004852295,0.00012207031,-0.0033721924,9.159155957026,0.0059102749098689355,10.8995943069458,-8.645272254943848,21.075538635253906,22659312.0,50354.0,0.07013032956630001,0.0868513546516,-0.04601081643800004,0.0035471084480082258,0.004345805197973383,-0.002297068034368808,22.659312071977183
1631,D,1551079635332895.0,1.4226532,1.7302094,8.902206,162,1970-01-18 22:51:19.635332895,-0.007003784,-0.0006866455,-0.0032196045,9.179697073528875,0.0077388839956253706,10.901744842529297,-8.652031898498535,21.07499885559082,22709666.0,50354.0,0.0709635951114,0.0870983762694,-0.045629334534000025,0.0035523217416104534,0.004379532375398017,-0.002307224081022046,22.709666076116264
1631,D,1551079685686899.0,1.3928528,1.7050018,8.918976,162,1970-01-18 22:51:19.685686899,-0.0071258545,0.00065612793,-0.0049743652,9.186686178870326,0.00871507976777421,10.899441719055176,-8.653668403625488,21.075057983398438,22760020.0,50354.0,0.07088599456200001,0.0864883123824,-0.04478530078600003,0.003571347119207192,0.004370392060186369,-0.0022763692734516414,22.760020080022514
1631,D,1551079736040903.0,1.3641815,1.7085114,8.899338,162,1970-01-18 22:51:19.736040903,-0.009460449,-0.0019683838,-0.007797241,9.163963073207803,0.012416585572442386,10.898231506347656,-8.651375770568848,21.074769973754883,22810374.0,50354.0,0.0694138525711,0.0859420218364,-0.044857508422000016,0.0035323292512700593,0.004341278524626728,-0.0022569370074298173,22.810374083928764
1631,D,1551079786394907.0,1.3796844,1.7378235,8.884644,162,1970-01-18 22:51:19.786394907,-0.009643555,-0.0038909912,-0.007598877,9.157535616501397,0.0128794758129992,10.902036666870117,-8.65184211730957,21.07371711730957,22860728.0,50354.0,0.0690823117643,0.08676837377730001,-0.04572188518600004,0.0034869179294723667,0.004348329630366125,-0.002280517392868617,22.860728088067845
1631,D,1551079836748910.0,1.3862,1.7304688,8.924713,162,1970-01-18 22:51:19.836748910,-0.010253906,-0.0011291504,-0.0054473877,9.196008636367326,0.011665830516374195,10.90334701538086,-8.652294158935547,21.073169708251953,22911082.0,50354.0,0.0696366715388,0.0873211952371,-0.045083018811000033,0.003492527842622149,0.0043830530790755495,-0.002286195067932471,22.911082091042772
1631,D,1551079887102914.0,1.3992767,1.7125854,8.90596,162,1970-01-18 22:51:19.887102914,-0.011001587,0.0010681152,-0.0032958984,9.176439808392798,0.011534241754972998,10.902359008789062,-8.655179023742676,21.073083877563477,22961436.0,50354.0,0.0701299468759,0.0866857755934,-0.04454634587900001,0.0035189041518269024,0.004380973504599498,-0.002256598514800131,22.961436094949022
1631,D,1551079937456918.0,1.3759766,1.6958923,8.88623,162,1970-01-18 22:51:19.937456918,-0.008895874,3.0517578e-05,0.0002746582,9.150652758675024,0.008900165317187665,10.899471282958984,-8.655007362365723,21.073469161987305,23011790.0,50354.0,0.0698725523341,0.0858152430529,-0.04551523237000005,0.003524842922610171,0.004343058146457896,-0.0022674803555750747,23.011790099088103
1631,D,1551079987810922.0,1.3948364,1.7196503,8.867966,162,1970-01-18 22:51:19.987810922,-0.009231567,-0.0006866455,0.0010070801,9.140218088985133,0.009311687368354634,10.900875091552734,-8.658123970031738,21.073226928710938,23062144.0,50354.0,0.069760758901,0.0859931160402,-0.046471807308000074,0.003515547876966113,0.004325619056886979,-0.0023159576979730092,23.062144102994353
1631,D,1551080038164926.0,1.4234619,1.7330627,8.9097595,162,1970-01-18 22:51:20.038164926,-0.009933472,0.0014648438,0.001373291,9.187685478439231,0.010134375239937756,10.903026580810547,-8.664432525634766,21.072908401489258,23112498.0,50354.0,0.0709562962991,0.08692895520100001,-0.04587940508650006,0.003542833298772918,0.004353658987639693,-0.0023251264744563304,23.112498106900603
1631,D,1551080088518930.0,1.4146271,1.7322998,8.93306,162,1970-01-18 22:51:20.088518930,-0.009231567,0.0032196045,-0.0004119873,9.208778061867624,0.009785571825257354,10.904351234436035,-8.66857624053955,21.072650909423828,23162852.0,50354.0,0.071454566753,0.08724743166250001,-0.04424053344850006,0.0035854782990627217,0.00438523889206234,-0.002268949692495698,23.162852111039683
1631,D,1551080138872934.0,1.4010315,1.7210236,8.872696,162,1970-01-18 22:51:20.138872934,-0.008865356,0.0035858154,0.0006866455,9.14601256308809,0.009587705206788713,10.905720710754395,-8.671979904174805,21.072444915771484,23213206.0,50354.0,0.07088983657220001,0.08694432324180001,-0.04517368118800007,0.003583805042518561,0.004385625813225562,-0.002251181681903164,23.213206114945933
1631,D,1551080189226938.0,1.4143677,1.7139893,8.92955,162,1970-01-18 22:51:20.189226938,-0.010345459,0.0028381348,0.003921509,9.201905156749758,0.011421985987591346,10.904165267944336,-8.676118850708008,21.072818756103516,23263560.0,50354.0,0.0708833056584,0.08648331978330001,-0.04526205245800003,0.0035694224019398165,0.004366387768442943,-0.0022769004660053447,23.263560119085014
1631,D,1551080239580942.0,1.4234161,1.7016449,8.908279,162,1970-01-18 22:51:20.239580942,-0.011001587,0.006225586,0.0064086914,9.180367285750403,0.014172655468274073,10.901309967041016,-8.681962013244629,21.073532104492188,23313914.0,50354.0,0.0714468827326,0.0859954222534,-0.04436617926700001,0.0035834471531202066,0.004342497288257996,-0.002256569990140326,23.313914122991264
1631,D,1551080289934946.0,1.3667755,1.7015076,8.892105,162,1970-01-18 22:51:20.289934946,-0.011001587,0.0034332275,0.004852295,9.156021773198392,0.01250466850229746,10.89900016784668,-8.679414749145508,21.07406234741211,23364268.0,50354.0,0.07024865391320001,0.0856811704925,-0.04530893203200001,0.003567468526131307,0.0043223015755635245,-0.002257750277174924,23.364268126897514
1631,D,1551080340288950.0,1.3638306,1.705368,8.875198,162,1970-01-18 22:51:20.340288950,-0.010269165,0.0036468506,0.002380371,9.139882573650734,0.011154435673470279,10.89791202545166,-8.676815032958984,21.07430648803711,23414622.0,50354.0,0.0687484697797,0.08577490698120001,-0.046141812369000036,0.003499530583216144,0.004316749662555346,-0.002302455391783978,23.414622131036595
1631,D,1551080390642953.0,1.4073334,1.7177277,8.923676,162,1970-01-18 22:51:20.390642953,-0.011428833,-0.0013122559,0.00022888184,9.195823459760353,0.011506199467489498,10.897283554077148,-8.680039405822754,21.07431411743164,23464976.0,50354.0,0.069769596028,0.08618328043890001,-0.04534694930200005,0.0034874693428404626,0.0043293912846758585,-0.0023034125525907695,23.464976134011522
1631,D,1551080440996957.0,1.3900604,1.6994171,8.948914,162,1970-01-18 22:51:20.440996957,-0.012069702,-0.00015258789,0.0018310547,9.214301285220522,0.01220875713360581,10.893047332763672,-8.67998218536377,21.074947357177734,23515330.0,50354.0,0.07042998370260001,0.0860334546296,-0.04349100157000002,0.0035298048188773163,0.0043359007388196254,-0.0022366730891043456,23.515330137917772
1631,D,1551080491350961.0,1.4168701,1.6911316,8.9422,162,1970-01-18 22:51:20.491350961,-0.0113220215,-0.0015716553,-0.0024871826,9.210341351371977,0.01169804891912421,10.887907981872559,-8.6842679977417,21.075504302978516,23565684.0,50354.0,0.0706700891985,0.0853638446199,-0.043024622822000036,0.003552476535430995,0.004315269803204662,-0.0021782038753173855,23.565684142056853
1631,D,1551080541704965.0,1.4198303,1.7039337,8.92038,162,1970-01-18 22:51:20.541704965,-0.009460449,0.0010528564,-0.0031433105,9.191979519080412,0.010024420321396754,10.885614395141602,-8.68922233581543,21.07563591003418,23616038.0,50354.0,0.0714196059708,0.0854775590581,-0.043743023340000055,0.003577392255277466,0.004301274020401006,-0.0021845490274206764,23.616038145963103
1631,D,1551080592058969.0,1.3749695,1.7360687,8.902878,162,1970-01-18 22:51:20.592058969,-0.011199951,0.004837036,-0.0010070801,9.174187284982464,0.012241324683036268,10.888771057128906,-8.687235832214355,21.0750675201416,23666392.0,50354.0,0.0703646745646,0.08660894042480001,-0.04473303333400006,0.0035697028310397658,0.004332621797480974,-0.002227561678881301,23.666392150102183
1631,D,1551080642412973.0,1.3995209,1.7069244,8.895493,162,1970-01-18 22:51:20.642412973,-0.009750366,0.0018463135,0.0042266846,9.165262973308577,0.010786258544190169,10.88758659362793,-8.68958854675293,21.075397491455078,23716746.0,50354.0,0.06985334480080001,0.0866842372787,-0.04535961333300005,0.0035302690735626763,0.00436300233504102,-0.002268262565135062,23.716746154008433
1631,D,1551080692766977.0,1.3920135,1.690094,8.906342,162,1970-01-18 22:51:20.692766977,-0.0096588135,-0.0011901855,0.0028686523,9.171534611720237,0.010145855595783324,10.883514404296875,-8.690677642822266,21.07606315612793,23767100.0,50354.0,0.0702824615888,0.0855267322568,-0.04527240020500003,0.0035281991974709594,0.004335755579995285,-0.002281842204846228,23.767100157914683
1631,D,1551080743120981.0,1.3676147,1.7322845,8.900131,162,1970-01-18 22:51:20.743120981,-0.01234436,0.002243042,0.00091552734,9.169706177067908,0.012579851013968786,10.886154174804688,-8.68774700164795,21.075641632080078,23817454.0,50354.0,0.0694791591914,0.0861652234945,-0.04515562927900003,0.003518778326383095,0.004322688369950481,-0.0022767064983186696,23.817454162053764
1631,D,1551080793474985.0,1.3857727,1.7411499,8.911026,162,1970-01-18 22:51:20.793474985,-0.01071167,0.0035858154,-0.00016784668,9.184680360415994,0.011297173043720458,10.889854431152344,-8.687320709228516,21.07501983642578,23867808.0,50354.0,0.06932203456980002,0.0874506578888,-0.045037700211000044,0.0034945976553257337,0.0043711270455873445,-0.002270797456569732,23.867808165960014
1631,D,1551080843828989.0,1.3640442,1.7048187,8.886444,162,1970-01-18 22:51:20.843828989,-0.009124756,0.00030517578,-0.0028686523,9.15073277637148,0.009569925304542867,10.888673782348633,-8.684414863586426,21.075002670288086,23918162.0,50354.0,0.0692321400913,0.08675915144219999,-0.04538229781000007,0.003488378455442516,0.004386080369526587,-0.00227650429017472,23.918162170099095
1631,D,1551080894182992.0,1.4008484,1.6923828,8.895798,162,1970-01-18 22:51:20.894182992,-0.008056641,-0.0047912598,-0.0028076172,9.16306487144571,0.009785108533670584,10.885372161865234,-8.687360763549805,21.075258255004883,23968516.0,50354.0,0.0696117009902,0.0855313421655,-0.04576569316600008,0.0034956713869089256,0.004337757757561063,-0.002294832968802756,23.968516173074022
1631,D,1551080944536996.0,1.4146271,1.6863861,8.89769,162,1970-01-18 22:51:20.944536996,-0.010253906,-0.0019683838,-0.0025634766,9.165912679402288,0.01075121087690526,10.881048202514648,-8.692204475402832,21.075685501098633,24018870.0,50354.0,0.0708852266635,0.08506726459530001,-0.04548255262400004,0.0035372911475372052,0.004295161122416662,-0.0022973570842548335,24.018870176980272
1631,D,1551080994891000.0,1.4255524,1.7028961,8.861938,162,1970-01-18 22:51:20.994891000,-0.010192871,0.0009460449,-0.00091552734,9.135972848492106,0.010277539125965149,10.880451202392578,-8.699271202087402,21.07567024230957,24069224.0,50354.0,0.0715071992715,0.08533195794940002,-0.046335045844000014,0.0035850141077654954,0.004290141226007913,-0.0023116916766288374,24.069224180886522
1631,D,1551081045245004.0,1.4178925,1.6919861,8.884338,162,1970-01-18 22:51:21.045245004,-0.0074768066,0.001449585,-0.0028839111,9.154490581260841,0.008143763063764305,10.877650260925293,-8.704442024230957,21.075904846191406,24119578.0,50354.0,0.07158941224729999,0.08547294914940001,-0.04667120914800004,0.0036027433882088273,0.004300355146026488,-0.0023416184819335852,24.119578185025603
1631,D,1551081095599008.0,1.4035339,1.6852112,8.9071045,162,1970-01-18 22:51:21.095599008,-0.009231567,0.0030975342,-0.0011291504,9.173132222473134,0.009802628628152696,10.873093605041504,-8.706696510314941,21.076499938964844,24169932.0,50354.0,0.07103505247280001,0.0850276964221,-0.04553405217750003,0.0035908561482579575,0.004292694753553657,-0.002321451864392115,24.169932188931853
1631,D,1551081145953012.0,1.3947601,1.6791077,8.90712,162,1970-01-18 22:51:21.145953012,-0.010772705,0.00024414063,-0.0004272461,9.170689456041531,0.010783937912201044,10.867624282836914,-8.707715034484863,21.07723045349121,24220286.0,50354.0,0.07045264803800001,0.0847034569453,-0.044960469763499995,0.003562235835760412,0.00427332124833103,-0.002278380578908558,24.220286193070933
1631,D,1551081196307016.0,1.4213257,1.7225647,8.9023285,162,1970-01-18 22:51:21.196307016,-0.011001587,0.0009918213,-0.0037841797,9.178172400487956,0.011676413919161773,10.869189262390137,-8.712653160095215,21.07673454284668,24270640.0,50354.0,0.0709005921866,0.0856439060148,-0.045080715115500034,0.0035588505291347544,0.004288835557246438,-0.002266966911698584,24.270640196977183
1631,D,1551081246661020.0,1.3769531,1.7000427,8.876297,162,1970-01-18 22:51:21.246661020,-0.011001587,-0.000289917,-0.004699707,9.141925040910797,0.01196687988873069,10.868005752563477,-8.711380004882812,21.07660675048828,24320994.0,50354.0,0.0704522653476,0.0861709865098,-0.04585674578650007,0.003558840894138554,0.004325783549091854,-0.002289532453129657,24.320994201116264
1631,D,1551081297015024.0,1.384079,1.6996002,8.878143,162,1970-01-18 22:51:21.297015024,-0.008392334,0.0036621094,0.0022888184,9.144710965718383,0.009438273406365324,10.866795539855957,-8.711068153381348,21.07686424255371,24371348.0,50354.0,0.0695145051817,0.0855928092933,-0.04646566412000007,0.0035239433816161864,0.004324497086934649,-0.0023244013142159543,24.371348205022514
1631,D,1551081347369028.0,1.4138794,1.6837311,8.92099,162,1970-01-18 22:51:21.347369028,-0.0069274902,0.0002593994,0.0056152344,9.187930558888196,0.00892122558210248,10.861942291259766,-8.714634895324707,21.077821731567383,24421702.0,50354.0,0.0704441986368,0.08518213214010001,-0.045340428459000055,0.003523740286038375,0.004299600700468712,-0.0023114019928614864,24.421702208928764
1631,D,1551081397723032.0,1.3341675,1.7031708,8.875641,162,1970-01-18 22:51:21.397723032,-0.01020813,-0.0015563965,0.0033874512,9.135523895919155,0.0108675256518903,10.861425399780273,-8.706818580627441,21.077972412109375,24472056.0,50354.0,0.0691875768013,0.0852720291363,-0.04540342131300005,0.0035155092102050443,0.004291524418455923,-0.002284657905709647,24.472056213067845
1631,D,1551081448077035.0,1.3515625,1.7337494,8.874893,162,1970-01-18 22:51:21.448077035,-0.010131836,-0.0052490234,-0.0007019043,9.143103080183206,0.01143236707908743,10.865742683410645,-8.701920509338379,21.077159881591797,24522410.0,50354.0,0.06761862421,0.08653133987540002,-0.046564005482000036,0.0034443697228615003,0.0043254934216075715,-0.002315463904417717,24.522410216042772
1631,D,1551081498431039.0,1.3774872,1.6767731,8.893173,162,1970-01-18 22:51:21.498431039,-0.009933472,0.0009918213,-0.004119873,9.154100994798805,0.010799580038225872,10.860570907592773,-8.700650215148926,21.077674865722656,24572764.0,50354.0,0.0687092842969,0.0858667249825,-0.046122602318000014,0.003432327752478222,0.004340466078927349,-0.0023335707245806013,24.572764219949022
1631,D,1551081548785043.0,1.3929749,1.7021942,8.919907,162,1970-01-18 22:51:21.548785043,-0.0073242188,-0.0036010742,-0.0029449463,9.187087952947476,0.00867667131647055,10.858814239501953,-8.701309204101562,21.077709197998047,24623118.0,50354.0,0.0697519242917,0.08507225971210002,-0.04498928484000001,0.0034860378486351825,0.004303730817655944,-0.002293923982976967,24.623118224088103
1631,D,1551081599139047.0,1.4213104,1.7108765,8.834076,162,1970-01-18 22:51:21.599139047,-0.0076293945,-0.0014190674,-0.0034484863,9.109781579443956,0.008491965054312265,10.861006736755371,-8.708213806152344,21.077138900756836,24673472.0,50354.0,0.0708552609981,0.0859308810139,-0.04647717000900004,0.0035400671040412943,0.004305346074058503,-0.0023028509337332747,24.673472227994353
1631,D,1551081649493051.0,1.4165344,1.6888885,8.85759,162,1970-01-18 22:51:21.649493051,-0.0069122314,-0.0006866455,-0.0018310547,9.127749705152722,0.007183535778724033,10.859028816223145,-8.713720321655273,21.07729148864746,24723826.0,50354.0,0.0714484185296,0.085595883405,-0.04804612511800005,0.0035827797394689036,0.0043185293477746465,-0.0023798130014124814,24.723826231900603
1631,D,1551081699847055.0,1.4146271,1.7108917,8.86763,162,1970-01-18 22:51:21.699847055,-0.00944519,0.0029296875,-0.000579834,9.141289955913404,0.009906103696777671,10.860087394714355,-8.718287467956543,21.07706069946289,24774180.0,50354.0,0.0712801530855,0.0855962660954,-0.047201336060000036,0.0035934772475533726,0.004310104747971571,-0.0023980453300785085,24.774180236039683
1631,D,1551081750201059.0,1.3877563,1.7383575,8.913437,162,1970-01-18 22:51:21.750201059,-0.011795044,0.005432129,-0.0004272461,9.186790162998442,0.012992829855906765,10.863883018493652,-8.717268943786621,21.076425552368164,24824534.0,50354.0,0.0705556068618,0.0868417471084,-0.045795276141000034,0.003570998928193172,0.004341471858432072,-0.002341375705384579,24.824534239945933
1631,D,1551081800555063.0,1.3649292,1.7105713,8.92244,162,1970-01-18 22:51:21.800555063,-0.009277344,0.0010375977,-0.0032196045,9.186894004340985,0.00987479487472026,10.863164901733398,-8.71286392211914,21.076318740844727,24874888.0,50354.0,0.06930436283350001,0.0868336803976,-0.04441532477100004,0.0035212544570185685,0.004372626238318563,-0.002271232299161426,24.874888244085014
1631,D,1551081850909067.0,1.3957825,1.7165833,8.908066,162,1970-01-18 22:51:21.850909067,-0.00793457,-0.0005645752,-0.001739502,9.178698539199397,0.008142604831953903,10.863882064819336,-8.713722229003906,21.076059341430664,24925242.0,50354.0,0.0695064384709,0.08628547136419999,-0.04455055043800005,0.0034948395444408796,0.004358620883906838,-0.0022398938401369953,24.925242247991264
1631,D,1551081901263071.0,1.3858185,1.6806793,8.895706,162,1970-01-18 22:51:21.901263071,-0.0050201416,-0.0016174316,-0.0005645752,9.15853487534042,0.005304399289380858,10.859512329101562,-8.713532447814941,21.076641082763672,24975596.0,50354.0,0.07003236837700001,0.0855328804802,-0.04522363235600003,0.003513168540009579,0.004325870644386458,-0.00226024460020454,24.975596251897514
1631,D,1551081951617075.0,1.3857574,1.6730804,8.869202,162,1970-01-18 22:51:21.951617075,-0.008331299,-0.004562378,-0.0032196045,9.131389035263085,0.010029540825915473,10.854705810546875,-8.714107513427734,21.077106475830078,25025950.0,50354.0,0.06977996643430001,0.0844376079669,-0.046202111284000036,0.0035200551535441004,0.004279346987632637,-0.0023018259476242815,25.025950256036595
1631,D,1551082001971078.0,1.41539,1.7042236,8.878189,162,1970-01-18 22:51:22.001971078,-0.008865356,-0.0059051514,-0.006439209,9.15040692267934,0.01244703830673542,10.854604721069336,-8.718942642211914,21.076684951782227,25076304.0,50354.0,0.0705244880898,0.085030382808,-0.04664313679300003,0.003532445251553266,0.004266695603739657,-0.0023375648108346306,25.076304259011522
1631,D,1551082052325082.0,1.3983154,1.7316589,8.852509,162,1970-01-18 22:51:22.052325082,-0.012649536,0.0053100586,-0.0049438477,9.128025202578451,0.014582493388701578,10.859335899353027,-8.72095775604248,21.075685501098633,25126658.0,50354.0,0.0708406608558,0.0865052137025,-0.04706341645400003,0.003559150355003371,0.004318751713344858,-0.0023592498910997204,25.126658262917772
1631,D,1551082102679086.0,1.3828583,1.7092285,8.901962,162,1970-01-18 22:51:22.102679086,-0.0064849854,0.002029419,-0.0075531006,9.1694430906427,0.010159867410035158,10.859307289123535,-8.71961498260498,21.075298309326172,25177012.0,50354.0,0.0700216102449,0.0866312220698,-0.04646488363300007,0.003546489399502324,0.004359056043439198,-0.0023547620112904016,25.177012267056853
1631,D,1551082153033090.0,1.3983612,1.7125092,8.882843,162,1970-01-18 22:51:22.153033090,-0.009490967,0.00048828125,0.0007171631,9.153851734018804,0.00953054017809023,10.86014175415039,-8.721280097961426,21.075132369995117,25227366.0,50354.0,0.07002276335150001,0.0861490900729,-0.04570116451500007,0.0035258971940365634,0.0043500899188167585,-0.0023204645942221996,25.227366270963103
1631,D,1551082203387094.0,1.3719025,1.6891937,8.927994,162,1970-01-18 22:51:22.203387094,-0.0119018555,-0.006500244,0.0027008057,9.189372594995914,0.013827569845477864,10.855879783630371,-8.718243598937988,21.075767517089844,25277720.0,50354.0,0.06974692917490001,0.08564467391330001,-0.045045756851000054,0.0035189815487371738,0.004325251595880558,-0.0022847352392317854,25.277720275102183
1631,D,1551082253750571.0,1.4156647,1.7267303,8.885986,162,1970-01-18 22:51:22.253750571,-0.012069702,0.0008087158,-0.0021514893,9.162229601137497,0.012286603835966557,10.858810424804688,-8.72243881225586,21.07513427734375,25328083.0,50363.0,0.0701951234468,0.086018090206,-0.044974662630000016,0.0035239507980933385,0.004322725894670153,-0.002266849193160803,25.328083751956
1631,D,1551082304104575.0,1.397232,1.7121887,8.968658,162,1970-01-18 22:51:22.304104575,-0.0061187744,-0.0005493164,-0.008514404,9.236919060335849,0.010499343986203153,10.8572998046875,-8.721830368041992,21.07489013671875,25378437.0,50354.0,0.07082030021590001,0.086581663663,-0.04394282801200003,0.0035503453215557984,0.004345544003159813,-0.0022386756618936353,25.37843775609508
1631,D,1551082354458579.0,1.4223175,1.6974945,8.943909,162,1970-01-18 22:51:22.354458579,-0.006668091,0.00030517578,-0.011962891,9.214010139381088,0.013699172636289413,10.854290962219238,-8.725658416748047,21.074724197387695,25428791.0,50354.0,0.07098779776150001,0.0858455939264,-0.04248450064100006,0.0035703024827770003,0.004341201064328324,-0.0021759808534965834,25.42879176000133
1631,D,1551082404812583.0,1.421936,1.6899872,8.921967,162,1970-01-18 22:51:22.404812583,-0.0057525635,0.0023498535,-0.010192871,9.191270525523054,0.011937688952039062,10.850866317749023,-8.72979736328125,21.07472801208496,25479145.0,50354.0,0.0716097703695,0.0852866267609,-0.04366003994800004,0.003590178972834187,0.004308595920244152,-0.0021688610984092554,25.47914576390758
1631,D,1551082455166587.0,1.372406,1.6849518,8.918106,162,1970-01-18 22:51:22.455166587,-0.006668091,0.0055236816,-0.0039978027,9.17906179434452,0.009537133868756738,10.846760749816895,-8.726215362548828,21.075157165527344,25529499.0,50354.0,0.07035314853400002,0.08497083920300001,-0.04430968207900003,0.00357420040923342,0.004286572220573111,-0.002214813691473781,25.529499768046662
1631,D,1551082505520590.0,1.3716583,1.7073364,8.854538,162,1970-01-18 22:51:22.505520590,-0.003692627,-0.0034332275,-0.004638672,9.12136433151137,0.006851264346926723,10.848294258117676,-8.724407196044922,21.07463836669922,25579853.0,50354.0,0.0690873068811,0.08540764001140001,-0.046007342012000046,0.0035106923459859735,0.004289618971180949,-0.0022739117155391093,25.57985377102159
1631,D,1551082555874594.0,1.3353119,1.7130432,8.924255,162,1970-01-18 22:51:22.555874594,-0.0066070557,-0.0038909912,-0.0016174316,9.184764677463047,0.007836394740061177,10.84842300415039,-8.715457916259766,21.074453353881836,25630207.0,50354.0,0.0681533887254,0.0861148971892,-0.04585252863900003,0.0034553089932848505,0.004318422919099507,-0.002312755963380229,25.63020777492784
1631,D,1551082606228598.0,1.3520355,1.7407684,8.90686,162,1970-01-18 22:51:22.606228598,-0.0087890625,-0.0028686523,-0.0014953613,9.175534299172925,0.009365516059712847,10.853257179260254,-8.709538459777832,21.073558807373047,25680561.0,50354.0,0.0676593454898,0.0869566146532,-0.04453521764500003,0.003419357209336091,0.004357421453656105,-0.0022756922881922697,25.68056177906692
1631,D,1551082656582602.0,1.4196167,1.7348938,8.933746,162,1970-01-18 22:51:22.656582602,-0.013015747,0.0002746582,-0.008728027,9.21069952092203,0.015673658233085384,10.856082916259766,-8.713359832763672,21.072608947753906,25730915.0,50354.0,0.0697818874394,0.08750674720940002,-0.04429626273800005,0.0034603579214584693,0.004392464061614681,-0.0022365101816027933,25.73091578297317
1631,D,1551082706936606.0,1.4240875,1.6882629,8.885895,162,1970-01-18 22:51:22.706936606,-0.0068969727,0.0034942627,-0.015213013,9.156275813790105,0.01706498956282498,10.853388786315918,-8.718900680541992,21.072261810302734,25781269.0,50354.0,0.0715959406434,0.0861848162359,-0.04482409854300006,0.003559469577640656,0.0043730324928623185,-0.00224378333597174,25.78126978711225
1631,D,1551082757290610.0,1.3984375,1.6894073,8.898666,162,1970-01-18 22:51:22.757290610,-0.008834839,0.002532959,-0.0090789795,9.164932135387339,0.012918905921672403,10.850418090820312,-8.720139503479004,21.07222557067871,25831623.0,50354.0,0.071062711925,0.0850396026254,-0.045707307703000036,0.0035917168957146067,0.004310917193670951,-0.0022793092150555443,25.8316237910185
1631,D,1551082807644614.0,1.4026489,1.7270203,8.877792,162,1970-01-18 22:51:22.807644614,-0.009933472,-0.0027618408,-0.003692627,9.152333792456833,0.010951580924252793,10.853899955749512,-8.722626686096191,21.0714111328125,25881977.0,50354.0,0.0705229522928,0.0860153976852,-0.045911316934000045,0.0035647022680115508,0.004306651742819976,-0.002306682112485751,25.88197779492475
1631,D,1551082857998618.0,1.395752,1.7136078,8.861267,162,1970-01-18 22:51:22.857998618,-0.009933472,0.000289917,0.0015869141,9.132722933660794,0.010063608408640104,10.855667114257812,-8.72433853149414,21.071155548095703,25932331.0,50354.0,0.0704553394593,0.0866246936737,-0.046852911557000054,0.0035494104514426227,0.004346559580143026,-0.00233552498071791,25.93233179906383
1631,D,1551082908352622.0,1.4165497,1.7272339,8.86084,162,1970-01-18 22:51:22.908352622,-0.008895874,0.0014190674,0.004852295,9.138076137977801,0.010232062024667548,10.859543800354004,-8.729148864746094,21.07073974609375,25982685.0,50354.0,0.0708053199009,0.0866300714809,-0.047279712061000054,0.0035565196207117556,0.004362035222297365,-0.002369977064830389,25.98268580297008
1631,D,1551082958706626.0,1.3653717,1.7181396,8.938293,162,1970-01-18 22:51:22.958706626,-0.008865356,0.00038146973,0.0028076172,9.203766909157252,0.009307135461750738,10.859612464904785,-8.724209785461426,21.0708065032959,26033039.0,50354.0,0.0700404350878,0.0867441686095,-0.045340428459000055,0.0035460735733505,0.004365043242756001,-0.002331897277872043,26.033039807109162
1631,D,1551083009060630.0,1.4094391,1.7085724,8.934677,162,1970-01-18 22:51:23.009060630,-0.009933472,0.006729126,0.0038452148,9.205117669914904,0.01259923329241899,10.858236312866211,-8.725996017456055,21.07118797302246,26083393.0,50354.0,0.06986141151160001,0.08627432802400001,-0.043481434310000025,0.003522308791833095,0.00435608668974163,-0.002236268038935115,26.083393811015412
1631,D,1551083059414633.0,1.3314972,1.7203674,8.877655,162,1970-01-18 22:51:23.059414633,-0.0078125,0.00039672852,-0.0057373047,9.140312198366948,0.009700990412799277,10.860613822937012,-8.717179298400879,21.070493698120117,26133747.0,50354.0,0.06900855322510001,0.08633041734460001,-0.045008117236000005,0.0034963291021758965,0.004345669674145243,-0.0022279014392736426,26.13374781399034
1631,D,1551083109768637.0,1.4051514,1.7464142,8.846741,162,1970-01-18 22:51:23.109768637,-0.011016846,-0.0017547607,0.0006713867,9.126293844489371,0.011175904482542673,10.867718696594238,-8.720767974853516,21.069351196289062,26184101.0,50354.0,0.0689006018022,0.08728316034320001,-0.04722208190800003,0.003472138796122332,0.004371069045445741,-0.002322079723848489,26.18410181789659
1631,D,1551083160122641.0,1.4164581,1.7085571,8.886612,162,1970-01-18 22:51:23.160122641,-0.014205933,0.0014801025,0.0060272217,9.159552049721645,0.015502471971654913,10.867341995239258,-8.72513484954834,21.069604873657227,26234455.0,50354.0,0.0710396623815,0.0869858124201,-0.04699657151900006,0.0035232760313530153,0.004387569927261604,-0.002372143037331581,26.23445582203567
1631,D,1551083210476645.0,1.3578796,1.7147064,8.842529,162,1970-01-18 22:51:23.210476645,-0.013122559,0.0056610107,0.010192871,9.109027070007977,0.01755400854724175,10.869277954101562,-8.721150398254395,21.069761276245117,26284809.0,50354.0,0.06984950027290002,0.0861875051395,-0.047102617043000033,0.0035471664481498293,0.00435998461619805,-0.0023691352704254764,26.28480982594192
1631,D,1551083260830649.0,1.3795624,1.6581421,8.886398,162,1970-01-18 22:51:23.260830649,-0.012069702,0.0024719238,0.005859375,9.144435305347738,0.013642594659097493,10.861130714416504,-8.719983100891113,21.071212768554688,26335163.0,50354.0,0.068920577234,0.08491820668450001,-0.04710800492100003,0.0034938142413912217,0.004307928506592849,-0.00237194082918763,26.335163830081
1631,D,1551083311184653.0,1.33815,1.6519012,8.872879,162,1970-01-18 22:51:23.311184653,-0.011886597,0.0012512207,0.0025939941,9.124001575279479,0.012230517032053563,10.852636337280273,-8.712788581848145,21.072546005249023,26385517.0,50354.0,0.0684238450948,0.08333696016410001,-0.04634388297100006,0.003457920520972198,0.004236160335747204,-0.0023528381814568867,26.38551783398725
1631,D,1551083361538657.0,1.3857269,1.7165375,8.926926,162,1970-01-18 22:51:23.361538657,-0.008010864,-0.002822876,-0.0016479492,9.195474312930566,0.008652069550324513,10.853048324584961,-8.711774826049805,21.07231903076172,26435871.0,50354.0,0.06857904871130001,0.0848071811499,-0.04532350951500006,0.00344932185735618,0.004233365045862579,-0.002307909940620025,26.4358718378935
1631,D,1551083411892661.0,1.4256744,1.732727,8.914841,162,1970-01-18 22:51:23.411892661,-0.012008667,-0.0027618408,-0.0045776367,9.192892929139626,0.013144984042539594,10.856134414672852,-8.717116355895996,21.071514129638672,26486225.0,50354.0,0.07078265053010001,0.08684213231650001,-0.044267032241000065,0.0035087095018007286,0.004321614765143553,-0.0022556210697908152,26.48622584203258
1631,D,1551083462246665.0,1.4052887,1.6811676,8.895615,162,1970-01-18 22:51:23.462246665,-0.009841919,-0.0008392334,-0.0013427734,9.161502445443238,0.009968486480202704,10.851804733276367,-8.719806671142578,21.072025299072266,26536579.0,50354.0,0.0712751579687,0.0859516243442,-0.04505534928800008,0.0035765894445742882,0.0043504284114464446,-0.0022488695997556368,26.53657984593883
1631,D,1551083512600669.0,1.4578857,1.7068481,8.923981,162,1970-01-18 22:51:23.512600669,-0.007965088,-0.003692627,0.002029419,9.201967074441153,0.009010919070019106,10.850797653198242,-8.729907035827637,21.07217788696289,26586933.0,50354.0,0.07208614186880001,0.0853000712789,-0.044825231508000066,0.003609407446008738,0.004311603940702789,-0.0022629233827008957,26.586933850077912
1631,D,1551083562954673.0,1.3757935,1.6756744,8.857727,162,1970-01-18 22:51:23.562954673,-0.010894775,0.00048828125,0.007843018,9.119211591798198,0.01343307381905015,10.846732139587402,-8.728639602661133,21.073095321655273,26637287.0,50354.0,0.0713435412184,0.0851617689825,-0.045779137684000035,0.0036111291310864345,0.004291717752261268,-0.0022811462031469866,26.637287853984162
1631,D,1551083613308676.0,1.4055328,1.6861267,8.881714,162,1970-01-18 22:51:23.613308676,-0.00894165,0.0025177002,0.0023345947,9.148955638657602,0.009578217549880986,10.843828201293945,-8.731253623962402,21.073606491088867,26687641.0,50354.0,0.0700254522551,0.08464006629470001,-0.04684329394300001,0.00355924714868231,0.004275100806774065,-0.00233195496107298,26.68764185695909
1631,D,1551083663662680.0,1.4095764,1.7088013,8.808517,162,1970-01-18 22:51:23.663662680,-0.010009766,0.0023651123,-0.00440979,9.082779269012743,0.011190863211140921,10.84673023223877,-8.736015319824219,21.07290267944336,26737995.0,50354.0,0.07087600432840001,0.08547410225600001,-0.048082254113000024,0.00354747597240278,0.004282964421600975,-0.002389940523405913,26.73799586109817
1631,D,1551083714016684.0,1.3770294,1.7099152,8.9375,162,1970-01-18 22:51:23.714016684,-0.01109314,0.00045776367,-0.0004272461,9.203201954192648,0.011110798435177241,10.845778465270996,-8.73271656036377,21.07294273376465,26788349.0,50354.0,0.07015837422660001,0.0860730253205,-0.04667772999100003,0.0035508225488792354,0.004319042030993541,-0.0023857721197864095,26.78834986500442
1631,D,1551083764370688.0,1.4359741,1.671402,8.859787,162,1970-01-18 22:51:23.764370688,-0.011672974,0.0013427734,-0.0005187988,9.12970053982297,0.011761399347156995,10.841140747070312,-8.74056625366211,21.073551177978516,26838703.0,50354.0,0.0708229891195,0.0851314231444,-0.04538690520100002,0.00354948778496476,0.004310414399000788,-0.0023179113202289854,26.83870386891067
1631,D,1551083814724692.0,1.3660431,1.7046967,8.913132,162,1970-01-18 22:51:23.814724692,-0.0079193115,0.00015258789,-0.001373291,9.176926862489015,0.008038949301301003,10.840414047241211,-8.736047744750977,21.07353401184082,26889057.0,50354.0,0.0705463870444,0.08500003696990001,-0.04600041833700004,0.0035592567836785103,0.004283399771297732,-0.0023008586447162277,26.88905787304975
1631,D,1551083865078696.0,1.3631439,1.7086334,8.879349,162,1970-01-18 22:51:23.865078696,-0.008987427,-0.0012969971,-0.0005340576,9.1444205968177,0.00909622246198141,10.841263771057129,-8.73202896118164,21.073299407958984,26939411.0,50354.0,0.06871274109900001,0.0859374119277,-0.045507905863000075,0.0035061270692663825,0.004303692150894876,-0.0023039050783834033,26.939411876956
1631,D,1551083915432700.0,1.4090576,1.6698608,8.948303,162,1970-01-18 22:51:23.915432700,-0.009460449,0.002029419,-0.001373291,9.211189119288745,0.009772643702184327,10.834030151367188,-8.733598709106445,21.07427978515625,26989765.0,50354.0,0.06979571716550001,0.08506034847340001,-0.04462240559600007,0.0034872274537253176,0.004305210613618495,-0.002269210851603247,26.98976588109508
1631,D,1551083965786704.0,1.4016113,1.6709137,8.906906,162,1970-01-18 22:51:23.965786704,0.0035705566,-0.002029419,0.00088500977,9.17002951587242,0.004201268642250816,10.828981399536133,-8.735167503356934,21.075098037719727,27040119.0,50354.0,0.0707642108953,0.08411067958650001,-0.04392860300700008,0.003538877308786762,0.004259218973464103,-0.002229448743597735,27.04011988500133
1631,D,1551084016140708.0,1.3916168,1.7092896,8.913528,162,1970-01-18 22:51:24.016140708,0.0026397705,-0.0004272461,-6.1035156e-05,9.182006842814614,0.002674818276613087,10.8297758102417,-8.7347412109375,21.07499122619629,27090473.0,50354.0,0.0703251038737,0.0851033784841,-0.04480413318200007,0.003552205677939113,0.004260302340043497,-0.002234024099030457,27.09047388890758
1631,D,1551084066494712.0,1.3813019,1.6986542,8.916214,162,1970-01-18 22:51:24.066494712,0.0023498535,-0.0018615723,9.1552734e-05,9.181083439546622,0.002999274045947188,10.82880973815918,-8.732789993286133,21.07514190673828,27140827.0,50354.0,0.0698137741099,0.0858018010526,-0.04456978566600005,0.0035282765309930975,0.0043028797051954965,-0.0022501671548360988,27.140827893046662
1631,D,1551084116848715.0,1.3800507,1.689148,8.919113,162,1970-01-18 22:51:24.116848715,0.00064086914,0.00077819824,0.0007324219,9.181957177380184,0.0012460929319047787,10.826211929321289,-8.730547904968262,21.075584411621094,27191181.0,50354.0,0.0695225744102,0.08529469598940001,-0.04442917212100005,0.0035080712466905584,0.004307696506026435,-0.0022407267602033015,27.19118189602159
1631,D,1551084167202719.0,1.3720703,1.6485901,8.906418,162,1970-01-18 22:51:24.167202719,0.0014343262,-0.0005340576,-0.0012512207,9.161042943720116,0.0019768819914786745,10.817808151245117,-8.727645874023438,21.076805114746094,27241535.0,50354.0,0.069290150417,0.08403423214370001,-0.044675806013000044,0.0034948879729744145,0.00426319442360706,-0.0022433960344797202,27.24153589992784
1631,D,1551084217556723.0,1.3791199,1.7106018,8.879105,162,1970-01-18 22:51:24.217556723,0.00035095215,-0.0033416748,-0.0020446777,9.14694680304659,0.003933276595590749,10.820016860961914,-8.726393699645996,21.076339721679688,27291889.0,50354.0,0.0692667156654,0.0845743744663,-0.04568308742900005,0.003488446217356585,0.0042450588886199705,-0.0022749658601892366,27.29188990406692
1631,D,1551084267910727.0,1.4065704,1.6963959,8.905518,162,1970-01-18 22:51:24.267910727,-0.0007324219,-0.0021972656,-0.0009613037,9.17411849651055,0.002507692716458031,10.819113731384277,-8.728816032409668,21.076404571533203,27342243.0,50354.0,0.0701353246831,0.0857779810929,-0.04570574672900004,0.003509725169854185,0.004288961255913978,-0.0023008966775959682,27.34224390797317
1631,D,1551084318264731.0,1.3891907,1.6978912,8.911804,162,1970-01-18 22:51:24.318264731,-0.0012969971,0.004135132,-0.00039672852,9.177850285465542,0.0043518859880991596,10.818238258361816,-8.72803783416748,21.076549530029297,27392597.0,50354.0,0.07038887721470001,0.0854579663167,-0.04488248400600002,0.0035379778311809113,0.004311207447931499,-0.0022807398852150965,27.39259791211225
1631,D,1551084368618735.0,1.3943787,1.6520386,8.888657,162,1970-01-18 22:51:24.368618735,0.0001373291,0.0036010742,-0.0020141602,9.147772775848374,0.004128369652402325,10.81102180480957,-8.728835105895996,21.077579498291016,27442951.0,50354.0,0.07008192678380001,0.08434118257460001,-0.04530699340300003,0.0035366334322702356,0.00427503317163626,-0.002270700472726394,27.4429519160185
1631,D,1551084418972739.0,1.3999329,1.6985168,8.872742,162,1970-01-18 22:51:24.418972739,-0.0010986328,0.00074768066,-0.0012969971,9.141680482435856,0.0018569388455149205,10.811626434326172,-8.730785369873047,21.077425003051758,27493305.0,50354.0,0.07035238315320001,0.0843569333058,-0.046290457377000015,0.0035357146212838496,0.004247312463520832,-0.002306149018288061,27.49330591992475
1631,D,1551084469326743.0,1.398346,1.6766815,8.878204,162,1970-01-18 22:51:24.469326743,0.0013885498,-0.0001373291,-0.0018463135,9.14270959036621,0.0023142608688454074,10.808784484863281,-8.732449531555176,21.077774047851562,27543659.0,50354.0,0.07045226786530001,0.0849773675991,-0.04655363255800002,0.003545038698692776,0.004263329693882668,-0.002337535652293496,27.54365992406383
1631,D,1551084519680747.0,1.4067688,1.6997986,8.912048,162,1970-01-18 22:51:24.519680747,0.00050354004,-0.0001373291,-0.0002593994,9.18111721369025,0.0005828378010307598,10.808550834655762,-8.734487533569336,21.07779884338379,27594013.0,50354.0,0.0706243753196,0.08500963947770002,-0.045564025396000025,0.003551886645466228,0.004279762877172594,-0.002319246274307859,27.59401392797008
1631,D,1551084570034751.0,1.4283447,1.7141418,8.937012,162,1970-01-18 22:51:24.570034751,0.0007019043,-0.0001373291,-0.0015258789,9.21133183533572,0.001685181101701093,10.809823036193848,-8.739130020141602,21.077537536621094,27644367.0,50354.0,0.0713796525895,0.0859527774508,-0.044083416380000046,0.0035752354106674106,0.004304320771008845,-0.002257053641594354,27.644367932109162
1631,D,1551084620388755.0,1.4036865,1.7189484,8.931381,162,1970-01-18 22:51:24.620388755,0.0019836426,6.1035156e-05,-0.0032653809,9.20297158309781,0.003821161561212443,10.812052726745605,-8.739951133728027,21.077054977416992,27694721.0,50354.0,0.07130204952240002,0.0864349119654,-0.043596669439000056,0.0035922972140713066,0.004340204856431668,-0.002207521520664966,27.694721936015412
1631,D,1551084670742758.0,1.3997345,1.7129974,8.905792,162,1970-01-18 22:51:24.670742758,0.0032958984,0.0013275146,-0.001663208,9.176423481409357,0.00392320049546282,10.814117431640625,-8.74071979522705,21.076698303222656,27745075.0,50354.0,0.07058173051700001,0.0864060994066,-0.04438269537900004,0.0035722079300519747,0.004351618143312844,-0.0022150564680227885,27.74507593899034
1631,D,1551084721096762.0,1.3978577,1.6774902,8.884048,162,1970-01-18 22:51:24.721096762,0.00065612793,0.0014648438,0.004837036,9.148458251905035,0.0050963897500309495,10.811078071594238,-8.741902351379395,21.07741355895996,27795429.0,50354.0,0.07043497881940002,0.0853623063052,-0.04557439832000004,0.003550377690962544,0.004324613150605989,-0.002264849748059725,27.79542994289659
1631,D,1551084771450766.0,1.3729248,1.7098236,8.851135,162,1970-01-18 22:51:24.771450766,-0.0022583008,-0.0037384033,0.0024719238,9.118717565414393,0.00501856443714116,10.814013481140137,-8.7400484085083,21.077035903930664,27845783.0,50354.0,0.06975999100250001,0.08528239954260002,-0.04695049760900006,0.003529688755205977,0.0042963217591300605,-0.0023294993048044357,27.84578394703567
1631,D,1551084821804770.0,1.4117126,1.731247,8.88887,162,1970-01-18 22:51:24.821804770,-0.0010375977,-4.5776367e-05,0.00065612793,9.165269145906615,0.0012284984018496293,10.819133758544922,-8.74306583404541,21.076274871826172,27896137.0,50354.0,0.07010881581980001,0.08663583449619999,-0.04682909411500004,0.003521476949365048,0.004328385378394868,-0.0023610887808351508,27.89613795094192
1631,D,1551084872158774.0,1.4074402,1.718811,8.942383,162,1970-01-18 22:51:24.872158774,-0.0024871826,0.003692627,0.0031433105,9.214196269289364,0.005449951591187027,10.82050609588623,-8.743993759155273,21.07624053955078,27946491.0,50354.0,0.0709778100456,0.086862110266,-0.04453174321900003,0.003552137979413176,0.004368157755277909,-0.0023001918015581203,27.946491955081
1631,D,1551084922512778.0,1.3906708,1.6858063,8.857483,162,1970-01-18 22:51:24.922512778,-0.0021362305,0.0009918213,0.0031433105,9.123097788053208,0.003927797237596945,10.81926155090332,-8.744575500488281,21.076576232910156,27996845.0,50354.0,0.070448040647,0.0857180497621,-0.04532197371800004,0.0035606786428875902,0.0043450506890274744,-0.002262247031322851,27.99684595898725
1631,D,1551084972866782.0,1.3828888,1.6832123,8.869247,162,1970-01-18 22:51:24.972866782,-0.0027618408,-0.0017700195,0.00061035156,9.13285976170913,0.003336654411490546,10.81728458404541,-8.743782997131348,21.076868057250977,28047199.0,50354.0,0.0698299100492,0.08482178129220001,-0.04716331879000004,0.0035317779646782278,0.004293681326454112,-0.0023285022094739183,28.0471999628935
1631,D,1551085023220786.0,1.4230042,1.664444,8.939407,162,1970-01-18 22:51:25.023220786,0.0015563965,-0.001739502,-0.008865356,9.203711875868487,0.009167484621200749,10.810683250427246,-8.747550010681152,21.077436447143555,28097553.0,50354.0,0.07064396806100001,0.0842839426651,-0.045100718242000064,0.0035367108291805057,0.004257574812072943,-0.0023229316603546666,28.09755396703258
1631,D,1551085073574790.0,1.4003143,1.6733704,8.935226,162,1970-01-18 22:51:25.073574790,0.003967285,-0.0049591064,-0.011276245,9.197788446439539,0.012941630030941658,10.805891990661621,-8.747926712036133,21.077604293823242,28147907.0,50354.0,0.0710826898745,0.0840361531488,-0.04343956495900005,0.003568252066842084,0.004237795052306561,-0.00222917871015158,28.14790797093883
1631,D,1551085123928794.0,1.4276733,1.6949768,8.929398,162,1970-01-18 22:51:25.123928794,0.0010070801,-0.0004272461,-0.004257202,9.200290541416349,0.0043955111678376175,10.804529190063477,-8.752386093139648,21.077608108520508,28198261.0,50354.0,0.07120024380520001,0.0848048774544,-0.04369156155200001,0.0035822574212538076,0.0042509106274967665,-0.0021937003721674486,28.198261975077912
1631,D,1551085174282798.0,1.411972,1.7011414,8.892502,162,1970-01-18 22:51:25.174282798,-0.0008392334,-0.0006713867,0.0023498535,9.16319479284283,0.002583966770698629,10.805103302001953,-8.755233764648438,21.077619552612305,28248615.0,50354.0,0.0714937497181,0.0855040679214,-0.04476722370000001,0.003592606674936125,0.004287868317726516,-0.0022271268362896047,28.248615978984162
1631,D,1551085224636801.0,1.3810272,1.6869202,8.913605,162,1970-01-18 22:51:25.224636801,-0.0010681152,0.0012054443,0.0014190674,9.17634404239144,0.002146559648977007,10.802824974060059,-8.752702713012695,21.078039169311523,28298969.0,50354.0,0.0703193408584,0.08530122690320001,-0.04516484406100002,0.0035704281814445404,0.004300364907798954,-0.002264219670018698,28.29896998195909
1631,D,1551085274990805.0,1.3841248,1.7141418,8.909363,162,1970-01-18 22:51:25.274990805,0.00079345703,0.0022888184,-0.0032653809,9.177735703225023,0.004065830314796695,10.805076599121094,-8.750594139099121,21.077564239501953,28349323.0,50354.0,0.06961823190399999,0.08562853797400001,-0.04474033466400001,0.0035232082694389446,0.004303498690313265,-0.002263542684759326,28.34932398609817
1631,D,1551085325344809.0,1.3646393,1.6928711,8.870392,162,1970-01-18 22:51:25.325344809,0.0021820068,-0.00091552734,-0.0035705566,9.133011946449194,0.0042834820437743495,10.805206298828125,-8.746670722961426,21.077381134033203,28399677.0,50354.0,0.0692056337457,0.0857783637833,-0.045828308365,0.0034951684654624974,0.004315511565543543,-0.0022802467255411333,28.39967799000442
1631,D,1551085375698813.0,1.3947906,1.7230835,8.892059,162,1970-01-18 22:51:25.375698813,0.0040130615,-0.007675171,-0.005584717,9.164233237172743,0.010305434316520205,10.809497833251953,-8.74718952178955,21.076416015625,28450031.0,50354.0,0.0694741665923,0.0860034889642,-0.046263971173000025,0.0034915413331098265,0.004324951706623809,-0.002318607321928227,28.45003199391067
1631,D,1551085426052817.0,1.4405365,1.731781,8.906052,162,1970-01-18 22:51:25.426052817,0.002243042,0.0017547607,-0.008911133,9.186510385695826,0.009355143711975647,10.814529418945312,-8.753886222839355,21.07525062561035,28500385.0,50354.0,0.07138503039670001,0.0869831235165,-0.04536615935300003,0.0035464120025920534,0.004355283942426584,-0.0023069717962531035,28.50038599804975
1631,D,1551085476406821.0,1.425293,1.6930847,8.9436035,162,1970-01-18 22:51:25.476406821,-0.0022125244,0.0059509277,-0.008728027,9.213362008650009,0.010792926388331925,10.812103271484375,-8.757147789001465,21.07523536682129,28550740.0,50355.0,0.07215442223625,0.08622955616174999,-0.04406929864875001,0.0036139645686660985,0.004361062242599139,-0.0022517612438390615,28.550740001956
1631,D,1551085526760825.0,1.3634949,1.6803436,8.908463,162,1970-01-18 22:51:25.526760825,0.0002593994,0.0019378662,-0.004180908,9.167517983552361,0.004615474532730822,10.808886528015137,-8.751920700073242,21.075542449951172,28601094.0,50354.0,0.07021331295830001,0.08493280430910001,-0.04400772172950005,0.003584392468993186,0.00430935474957459,-0.002217515142063202,28.60109400609508
1631,D,1551085577114829.0,1.3585358,1.6894073,8.873291,162,1970-01-18 22:51:25.577114829,-0.0014038086,-0.006134033,0.0013427734,9.134276638894617,0.006434289380675267,10.808085441589355,-8.747268676757812,21.075664520263672,28651448.0,50354.0,0.06853256693390002,0.0848402184093,-0.04577797954200005,0.0034932050180459203,0.004274375392981157,-0.0022605346009125582,28.65144801000133
1631,D,1551085627468833.0,1.4228516,1.7248077,8.8858795,162,1970-01-18 22:51:25.627468833,0.0015716553,-0.005935669,-0.0016174316,9.162877428303954,0.006349673364847805,10.812602996826172,-8.752196311950684,21.07485580444336,28701802.0,50354.0,0.0700269905698,0.08595969105500001,-0.04634656432150004,0.003488513979270656,0.004300229320582682,-0.002319419640851342,28.70180201390758
1631,D,1551085677822837.0,1.4250488,1.7129822,8.910187,162,1970-01-18 22:51:25.677822837,0.0015716553,-0.00093078613,-0.010345459,9.184579711389482,0.010505474055105721,10.81450366973877,-8.756486892700195,21.074064254760742,28752156.0,50354.0,0.0717015883708,0.0865532363123,-0.045417633729500036,0.003568300431987486,0.004343357972326513,-0.0023103472143300293,28.752156018046662
1631,D,1551085728176840.0,1.3876953,1.7227783,8.936203,162,1970-01-18 22:51:25.728176840,0.0019073486,0.0009460449,-0.012145996,9.205943046413115,0.012331188039550526,10.817126274108887,-8.754158973693848,21.073097229003906,28802510.0,50354.0,0.0708164582057,0.0865021421085,-0.04415063897,0.0035881768586565406,0.004357015262500482,-0.0022550604017553127,28.80251002102159
1631,D,1551085778530844.0,1.3925018,1.7155609,8.921783,162,1970-01-18 22:51:25.778530844,0.0026397705,0.00022888184,-0.009994507,9.191323210708077,0.010339774918362635,10.81901741027832,-8.75304889678955,21.072345733642578,28852864.0,50354.0,0.06999702238670001,0.0865670660384,-0.04385868647800003,0.0035452610008748554,0.004357363453514502,-0.002215810786804297,28.85286402492784
1631,D,1551085828884848.0,1.4146271,1.7151642,8.898407,162,1970-01-18 22:51:25.828884848,0.0022735596,0.0034179688,-0.0017700195,9.17194664194385,0.004470408594625982,10.821414947509766,-8.755850791931152,21.07195281982422,28903218.0,50354.0,0.07067508431530001,0.0863753658427,-0.044810276370000034,0.003541701630436255,0.0043541716074704554,-0.0022324184776240977,28.90321802906692
1631,D,1551085879238852.0,1.3991852,1.7263794,8.917114,162,1970-01-18 22:51:25.879238852,0.0015716553,0.002670288,0.0038757324,9.189832813802402,0.004962039905257902,10.824848175048828,-8.7557954788208,21.071645736694336,28953572.0,50354.0,0.07084335227710001,0.08664774321720001,-0.04492782778300003,0.0035630096780868556,0.0043562028168011024,-0.002259336248260083,28.95357203297317
1631,D,1551085929592856.0,1.3487701,1.6965942,8.901321,162,1970-01-18 22:51:25.929592856,0.0008544922,-0.00050354004,0.005996704,9.161393355116275,0.0060781714647877485,10.824007034301758,-8.748636245727539,21.072072982788086,29003926.0,50354.0,0.0691852705881,0.0861802063272,-0.04485446200500006,0.003525500637877141,0.004351289285679359,-0.0022604487099924784,29.00392603711225
1631,D,1551085979946860.0,1.3224182,1.6997223,8.897186,162,1970-01-18 22:51:25.979946860,-0.00021362305,-0.00050354004,0.006011963,9.154111890915717,0.00603679438880798,10.823735237121582,-8.737651824951172,21.07239532470703,29054280.0,50354.0,0.0672525078291,0.08550906052050002,-0.04535618926100007,0.0034350939472098446,0.004322620671424544,-0.0022712335669240855,29.0542800410185
1631,D,1551086030300864.0,1.3631287,1.7117004,8.923492,162,1970-01-18 22:51:26.030300864,0.0001373291,0.0012817383,0.0013580322,9.187858705171072,0.0018724219096214773,10.824602127075195,-8.732460975646973,21.072343826293945,29104634.0,50354.0,0.06761401430130001,0.08588938931790001,-0.04479798999400006,0.003395534427677081,0.004315298771581397,-0.0022698117711031384,29.10463404492475
1631,D,1551086080654868.0,1.384491,1.7121887,8.91153,162,1970-01-18 22:51:26.080654868,-0.00093078613,0.0016326904,-0.0021972656,9.179530075901964,0.002891369377820118,10.825850486755371,-8.730915069580078,21.072053909301758,29154988.0,50354.0,0.06917682118690001,0.0862032558707,-0.04443685110600003,0.0034439828650864126,0.004332776527913383,-0.0022466655943747024,29.15498804906383
1631,D,1551086131008872.0,1.3934937,1.6976166,8.8954315,162,1970-01-18 22:51:26.131008872,-0.002380371,-0.00018310547,0.0004119873,9.16255577793268,0.002422690084626222,10.8251953125,-8.731350898742676,21.072154998779297,29205342.0,50354.0,0.0699413207919,0.0858486680381,-0.0451433303145,0.0035025774606002483,0.004331751288251858,-0.0022553602276239293,29.20534205297008
1631,D,1551086181362876.0,1.4057922,1.6958771,8.8975525,162,1970-01-18 22:51:26.181362876,-0.00340271,-0.0011444092,0.00491333,9.166171029287066,0.006085139230128152,10.824138641357422,-8.733722686767578,21.072519302368164,29255696.0,50354.0,0.0704776211043,0.08543799088489999,-0.04549524183200002,0.003535327700120628,0.004312484211704371,-0.002282007330932431,29.255696057109162
1631,D,1551086231716880.0,1.3983612,1.67453,8.915939,162,1970-01-18 22:51:26.231716880,-0.0027008057,0.0013122559,0.0046081543,9.178966881860205,0.005500132091945228,10.819290161132812,-8.734430313110352,21.073469161987305,29306050.0,50354.0,0.0706001701518,0.0848567395567,-0.04497892450450005,0.0035519155504548303,0.004287510428328163,-0.0022778680858540623,29.306050061015412
1631,D,1551086282070883.0,1.3826141,1.6820984,8.870834,162,1970-01-18 22:51:26.282070883,-0.0023040771,0.0011749268,0.0056915283,9.134154182646435,0.006251617283375842,10.817070960998535,-8.733719825744629,21.074077606201172,29356404.0,50354.0,0.07001661512810001,0.0845098332268,-0.045651616179000036,0.003540308802992043,0.00426414220297018,-0.0022818051227884817,29.35640406399034
1631,D,1551086332424887.0,1.3675232,1.6978455,8.854782,162,1970-01-18 22:51:26.332424887,-0.0012207031,0.0002746582,0.0063476563,9.119208480560825,0.006469798581726215,10.817893981933594,-8.731039047241211,21.074251174926758,29406758.0,50354.0,0.06924020680210001,0.0850968475703,-0.047191365968000026,0.0035060690057366456,0.004270187402428587,-0.0023375077615150207,29.40675806789659
1631,D,1551086382778891.0,1.3665314,1.7013855,8.892715,162,1970-01-18 22:51:26.382778891,-0.00015258789,0.00050354004,0.0033721924,9.156555070441133,0.00341299241409582,10.818191528320312,-8.72734260559082,21.07437515258789,29457112.0,50354.0,0.0688352926642,0.085582438887,-0.04664046803100001,0.0034763268500630357,0.004297192395135443,-0.0023624040845928243,29.45711207203567
1631,D,1551086433132895.0,1.3712463,1.6759033,8.89357,162,1970-01-18 22:51:26.433132895,7.6293945e-05,-0.0005645752,0.0005493164,9.1533903899656,0.0007914002968205553,10.81452751159668,-8.724586486816406,21.074953079223633,29507466.0,50354.0,0.0689290291529,0.08503000011760001,-0.04566390255500001,0.0034684923303891276,0.004295509376818814,-0.0023239471382437227,29.50746607594192
1631,D,1551086483486899.0,1.3769226,1.6658783,8.859299,162,1970-01-18 22:51:26.483486899,-0.0009918213,-0.0012054443,0.002319336,9.119114273228659,0.002795733344300236,10.810332298278809,-8.723666191101074,21.07568359375,29557820.0,50354.0,0.06919064839530001,0.08413603534320001,-0.04650521718700003,0.0034774391216310318,0.004259093274796562,-0.002320541927744335,29.557820080081
1631,D,1551086533840903.0,1.3822327,1.6962891,8.881165,162,1970-01-18 22:51:26.533840903,-0.00079345703,-0.0024719238,0.0014343262,9.146751101071521,0.0029660197200068144,10.810357093811035,-8.723001480102539,21.075719833374023,29608174.0,50354.0,0.06946725298810001,0.08464928862979999,-0.046817537872000055,0.003490989983129862,0.0042495081016682215,-0.0023495870041204455,29.60817408398725
1631,D,1551086584194907.0,1.3770294,1.7251587,8.927551,162,1970-01-18 22:51:26.584194907,-0.00035095215,-0.0031433105,0.0012359619,9.196387843400856,0.0033957576664496365,10.81350326538086,-8.720382690429688,21.075271606445312,29658528.0,50354.0,0.0694699418917,0.08614179126060001,-0.045099157268000074,0.0034980217554887246,0.004300007018400601,-0.0023141866335397833,29.6585280878935
1631,D,1551086634548911.0,1.3881836,1.7116852,8.914734,162,1970-01-18 22:51:26.634548911,-0.0020751953,7.6293945e-05,0.0008087158,9.183104171355348,0.002228514649796001,10.814775466918945,-8.719740867614746,21.075101852416992,29708882.0,50354.0,0.06961976770100001,0.08652941887030001,-0.044253990555000074,0.003501861618415408,0.00434734305746567,-0.0022496442027396747,29.70888209203258
1631,D,1551086684902915.0,1.4066772,1.6908417,8.899139,162,1970-01-18 22:51:26.684902915,-0.0009460449,0.0011138916,0.0016479492,9.166916675784707,0.0022026102730958127,10.8132963180542,-8.722384452819824,21.075408935546875,29759236.0,50354.0,0.07036621036160001,0.0856654197613,-0.04496931947900006,0.003524426969682081,0.004335349452227794,-0.0022463752767260215,29.75923609593883
1631,D,1551086735256919.0,1.4062805,1.6953888,8.879288,162,1970-01-18 22:51:26.735256919,0.0015716553,-0.0005950928,0.0005645752,9.14842737385993,0.0017728454470384526,10.81328296661377,-8.725419998168945,21.0754451751709,29809590.0,50354.0,0.07082183601290001,0.0852551252985,-0.04586174342100002,0.0035546914435707873,0.004303266562970585,-0.0022868536706333025,29.809590100077912
1631,D,1551086785610923.0,1.4087677,1.7037354,8.917664,162,1970-01-18 22:51:26.785610923,0.00064086914,0.00016784668,-6.1035156e-05,9.187604255880444,0.0006652902019865513,10.813386917114258,-8.727779388427734,21.0754337310791,29859944.0,50354.0,0.0708744685314,0.08557974998340001,-0.04539533949600001,0.0035674878595118417,0.004301109654972397,-0.00229757957660131,29.859944103984162
1631,D,1551086835964926.0,1.3778534,1.6931305,8.922455,162,1970-01-18 22:51:26.835964926,0.00038146973,0.0005645752,0.0004272461,9.185606899326075,0.0008042409721759536,10.811684608459473,-8.725237846374512,21.075719833374023,29910298.0,50354.0,0.0701587594347,0.0855228927643,-0.04430852393700005,0.0035507935805025002,0.0043078512364588435,-0.0022584741696526425,29.91029810695909
1631,D,1551086886318930.0,1.3840485,1.69281,8.902481,162,1970-01-18 22:51:26.886318930,0.0015716553,-0.0016937256,4.5776367e-05,9.167080445911514,0.0023110392177306664,10.810630798339844,-8.724283218383789,21.07588005065918,29960652.0,50354.0,0.0695364041363,0.08524782396850002,-0.04469078632800006,0.0035171051332270665,0.004299494335181706,-0.002240735634541908,29.96065211109817
1631,D,1551086936672934.0,1.4073486,1.7008667,8.886154,162,1970-01-18 22:51:26.936672934,0.0015716553,-0.0017852783,-0.0001373291,9.156271649793208,0.0023824731419631556,10.811341285705566,-8.727302551269531,21.075761795043945,30011006.0,50354.0,0.0702790047867,0.0854425982759,-0.04560473660500006,0.003520132550454371,0.004297472760847259,-0.002273370380884144,30.01100611500442
1631,D,1551086987026938.0,1.4175415,1.6951294,8.897675,162,1970-01-18 22:51:26.987026938,0.0015716553,-0.0012054443,0.0025024414,9.167960950647183,0.0031914588048186586,10.810778617858887,-8.731571197509766,21.075969696044922,30061360.0,50354.0,0.0711222580477,0.0855009938097,-0.04572573726700006,0.0035600595943816897,0.004303846817939151,-0.002299427340675347,30.06136011891067
1631,D,1551087037380942.0,1.3989258,1.6945953,8.902481,162,1970-01-18 22:51:27.037380942,0.0015716553,-0.0007171631,0.0032348633,9.169668182657905,0.0036672556310825386,10.809998512268066,-8.7327299118042,21.076251983642578,30111714.0,50354.0,0.07091019721210001,0.08534309877190001,-0.045314672388000056,0.003575951126075985,0.004301341718926943,-0.0022921243938839385,30.11171412304975
1631,D,1551087087734946.0,1.3980103,1.6883545,8.912018,162,1970-01-18 22:51:27.087734946,0.0005950928,-0.0016021729,0.00062561035,9.177637961311197,0.001820022459238724,10.807961463928223,-8.733543395996094,21.076580047607422,30162068.0,50354.0,0.07041846018970001,0.08517252711460001,-0.04495355867700005,0.003558231607405119,0.004293071912944411,-0.002272683253523508,30.162068126956
1631,D,1551087138088950.0,1.3880463,1.6936646,8.92749,162,1970-01-18 22:51:27.138088950,-7.6293945e-05,-0.001373291,-0.0016174316,9.192129786308332,0.002123166012680879,10.806323051452637,-8.732382774353027,21.076730728149414,30212422.0,50354.0,0.07014454701820001,0.08514909488070001,-0.04432390708400003,0.003538954832473299,0.004288187476975669,-0.002247738755464699,30.21242213109508
1631,D,1551087188442954.0,1.3854675,1.709137,8.903046,162,1970-01-18 22:51:27.188442954,0.00050354004,0.0004272461,-0.0006866455,9.170872235313348,0.0009526667016951215,10.807870864868164,-8.731274604797363,21.076475143432617,30262776.0,50354.0,0.0698287569426,0.0856723358832,-0.04454979512800003,0.0035241078738210622,0.0043007711623427106,-0.0022375732005915257,30.26277613500133
1631,D,1551087238796958.0,1.4191284,1.70224,8.906555,162,1970-01-18 22:51:27.238796958,-0.0010223389,-0.001159668,0.00050354004,9.178140792192696,0.0016259026011912312,10.808121681213379,-8.735424995422363,21.076440811157227,30313130.0,50354.0,0.0706113109743,0.085888238729,-0.04507687562300002,0.0035358595899437914,0.00431938058701136,-0.0022565306894979285,30.31313013890758
1631,D,1551087289150962.0,1.4078827,1.6846924,8.9006195,162,1970-01-18 22:51:27.289150962,-0.0021820068,-0.0017547607,0.00047302246,9.167406921444979,0.002839733972958591,10.805757522583008,-8.737981796264648,21.076786041259766,30363484.0,50354.0,0.0711756584647,0.08527279703480001,-0.04513796761350003,0.003569770529565703,0.004309321397425193,-0.002271339108165362,30.363484143046662
1631,D,1551087339504965.0,1.3932037,1.6966553,8.915787,162,1970-01-18 22:51:27.339504965,-0.0010986328,-0.0001373291,-6.1035156e-05,9.182097450260523,0.0011088636531199833,10.804922103881836,-8.73772144317627,21.076906204223633,30413838.0,50354.0,0.0705229522928,0.08513219104290001,-0.044905533549500054,0.003567545923041578,0.004290286384832254,-0.0022670252287808534,30.41383814602159
1631,D,1551087389858969.0,1.4050903,1.7025452,8.926331,162,1970-01-18 22:51:27.389858969,0.00048828125,-0.0006713867,-0.0027160645,9.195233767053349,0.002840102999575667,10.804807662963867,-8.739025115966797,21.0767879486084,30464192.0,50354.0,0.070452648038,0.0855816709885,-0.04425819511400006,0.003549342689528552,0.004298062904364558,-0.0022448751965609423,30.46419214992784
1631,D,1551087440212973.0,1.4028015,1.6965942,8.923767,162,1970-01-18 22:51:27.440212973,0.0010375977,-0.0028076172,-0.00061035156,9.191294870591678,0.003054808071806732,10.803865432739258,-8.740155220031738,21.076885223388672,30514546.0,50354.0,0.0706942918486,0.0855801326738,-0.04405728265400006,0.003553656505524928,0.004309340730805728,-0.002223518783764939,30.51454615406692
1631,D,1551087490566977.0,1.3848419,1.7025604,8.903519,162,1970-01-18 22:51:27.490566977,0.0010375977,-0.0028076172,-0.00061035156,9.170013608877838,0.003054808071806732,10.804469108581543,-8.738933563232422,21.076745986938477,30564900.0,50354.0,0.0701844978818,0.08558051536420001,-0.04463162037800006,0.0035469052890422814,0.004309311635652726,-0.002232920511636667,30.56490015797317
1631,D,1551087540920981.0,1.3837433,1.715744,8.8910675,162,1970-01-18 22:51:27.540920981,0.0015716553,-0.00010681152,-0.0032348633,9.160218571812964,0.0035980341372073847,10.80751895904541,-8.73764419555664,21.076135635375977,30615254.0,50354.0,0.0697046695804,0.08606264987880001,-0.045454895689500056,0.00352198956919581,0.004321459971323012,-0.0022681082150314506,30.61525416211225
1631,D,1551087591274985.0,1.3994446,1.7007446,8.909348,162,1970-01-18 22:51:27.591274985,0.0015716553,0.00035095215,0.0005493164,9.177551915843479,0.001701474742955849,10.807591438293457,-8.738466262817383,21.076168060302734,30665608.0,50354.0,0.0700723217583,0.0860169334822,-0.045308138956500044,0.00351916531093445,0.004332447670279897,-0.002285140923282345,30.6656081660185
