Subject-id_accel,Activity_accel,Timestamp_accel,accel_x,accel_y,accel_z,Segment_accel,DateTime,gyro_x,gyro_y,gyro_z,accel_magnitude,gyro_magnitude,Roll,Pitch,Yaw,Time_Difference,Difference_Microseconds,vx,vy,vz,dx,dy,dz,Time_diff
1617,D,267125596781315.0,5.221115,3.227661769411765,6.929480226442577,87,1970-01-04 02:12:05.596781315,-0.5042114,-0.21977234,0.34796143,9.585912434842989,0.6508503469206116,-34.79584884643555,49.11085510253906,-106.4011001586914,15005510.0,50354.0,0.26287597753200004,0.16459636058426003,-0.1451118729399105,0.013295828854327188,0.008371518059309866,-0.007299312492539624,15.005510347953532
1617,D,267125647135319.0,5.1984406,3.163239169411765,6.980200626442577,87,1970-01-04 02:12:05.647135319,-0.4861145,-0.21098328,0.323761,9.562371038661915,0.621001156738704,-34.8531379699707,49.0629768371582,-106.41337585449219,15055864.0,50354.0,0.2623331513412,0.16090371293676,-0.1432651651669105,0.013223190237640558,0.008195115351038722,-0.007260468688415433,15.055864351976197
1617,D,267125697489323.0,5.2088776,3.093811669411765,7.020590626442577,87,1970-01-04 02:12:05.697489323,-0.44769287,-0.20701599,0.2990265,9.5671401819211,0.5768027164176388,-34.919918060302734,49.00635528564453,-106.43497467041016,15106218.0,50354.0,0.2620250503214,0.15753376896906002,-0.14097127862611053,0.013201766443259282,0.008017300481942831,-0.007156220945376891,15.106218355998863
1617,D,267125747843326.0,5.222458,3.082321869411765,7.040518626442577,87,1970-01-04 02:12:05.747843326,-0.39349365,-0.20147705,0.26905823,9.564827418044521,0.517515782752331,-34.98419952392578,48.94651794433594,-106.45760345458984,15156572.0,50354.0,0.2626297364012,0.15549651410696003,-0.1394526523401105,0.013209233565314902,0.007881163437004957,-0.007060233309936548,15.15657235897379
1617,D,267125798197330.0,5.2872467,3.083435769411765,7.110891926442577,87,1970-01-04 02:12:05.798197330,-0.3523407,-0.18707275,0.239151,9.549065195755565,0.4651165267651242,-35.038002014160156,48.87492752075195,-106.47490692138672,15206926.0,50354.0,0.26460283523190004,0.15523528007266002,-0.1371791365100105,0.013274134456006562,0.007823294382060295,-0.0069647585478794976,15.206926362996455
1617,D,267125848551334.0,5.250244,3.057526269411765,7.101614626442577,87,1970-01-04 02:12:05.848551334,-0.30307007,-0.16918945,0.207901,9.54618940251195,0.40459777943299124,-35.099647521972656,48.80760955810547,-106.50112915039062,15257280.0,50354.0,0.2653024033539,0.15461100125146002,-0.13564092251801052,0.013341424191874689,0.007800999824897371,-0.006868790626148486,15.257280366960913
1617,D,267125898905338.0,5.2182465,3.0564580694117653,7.134085326442577,87,1970-01-04 02:12:05.898905338,-0.26113892,-0.1502533,0.17745972,9.505629281179713,0.34965917966233173,-35.164215087890625,48.74122619628906,-106.53221893310547,15307634.0,50354.0,0.26356518531850004,0.15393178369856003,-0.13505698228621055,0.013315299280005017,0.007768181696686656,-0.006815361149255874,15.307634370983578
1617,D,267125949259342.0,5.2321777,2.9972845694117654,7.188803326442577,87,1970-01-04 02:12:05.949259342,-0.22761536,-0.11907959,0.15255737,9.499141164998425,0.29876822455511326,-35.2368049621582,48.666404724121094,-106.57183074951172,15357988.0,50354.0,0.2631103300834,0.15241507841766005,-0.13286183238631052,0.013260109451273639,0.007712894947500074,-0.006745391997010064,15.357988375006244
1617,D,267125999613346.0,5.279419,2.972321069411765,7.161566326442577,87,1970-01-04 02:12:05.999613346,-0.18922424,-0.088027954,0.12734985,9.555392059600344,0.24448459661914534,-35.30568313598633,48.59111404418945,-106.61129760742188,15408342.0,50354.0,0.26465047011590004,0.15029676116866003,-0.13216994324931053,0.013287433666617778,0.007621375985264781,-0.006672705015178033,15.408342378970701
1617,D,267126049967350.0,5.312729,2.9303748694117653,7.176336926442577,87,1970-01-04 02:12:06.049967350,-0.1466217,-0.05104065,0.09843445,9.58135401576713,0.18382712479423433,-35.37629699707031,48.51133346557617,-106.65509796142578,15458696.0,50354.0,0.26667851019600003,0.14861217565176005,-0.13248380980211052,0.01337726973731271,0.007525630302327717,-0.006663187540575628,15.458696382993367
1617,D,267126100321354.0,5.2243195,2.8976904694117653,7.215551926442577,87,1970-01-04 02:12:06.100321354,-0.10708618,-0.013763428,0.06858826,9.518902888083337,0.12791102887214686,-35.46364974975586,48.43568801879883,-106.71436309814453,15509050.0,50354.0,0.26529127008450004,0.14673320103556003,-0.13112461435091052,0.013393403158122152,0.0074359105488566585,-0.006636869294900611,15.509050386957824
1617,D,267126150675358.0,5.213379,2.887345069411765,7.237387326442577,87,1970-01-04 02:12:06.150675358,-0.055099487,0.009963989,0.03677368,9.5019126538551,0.06698908929965902,-35.55172348022461,48.35992431640625,-106.77735137939453,15559404.0,50354.0,0.2627899351345,0.14564983976096002,-0.1295875484301105,0.013295500503798765,0.007361327818133986,-0.006563950122337767,15.55940439098049
1617,D,267126201029362.0,5.2551117,2.8715063694117653,7.181173926442577,87,1970-01-04 02:12:06.201029362,0.0027160645,0.028442383,-0.004043579,9.571751171895384,0.028856484335692913,-35.63377380371094,48.286895751953125,-106.83940887451172,15609758.0,50354.0,0.2635651903539,0.14499060267526004,-0.13045308333611053,0.013252042994421448,0.007317454419216713,-0.0065470429859781475,15.609758395003155
1617,D,267126251383366.0,5.2027283,2.903763469411765,7.163153326442577,87,1970-01-04 02:12:06.251383366,0.053359985,0.055648804,-0.03353882,9.541830648697688,0.08407692806485642,-35.71445846557617,48.224300384521484,-106.90357971191406,15660112.0,50354.0,0.26329703768,0.14540396873206005,-0.1323220727541105,0.013264810315209503,0.007311264124322097,-0.006615890104883496,15.660112398967613
1617,D,267126301737369.0,5.1939545,2.930756069411765,7.125799626442577,87,1970-01-04 02:12:06.301737369,0.108673096,0.07846069,-0.06690979,9.552099581849127,0.14980935106776683,-35.78858947753906,48.16952896118164,-106.96622467041016,15710466.0,50354.0,0.2617572828556,0.14689569842896003,-0.13371623150521053,0.013219292628124801,0.007359228720113003,-0.006698046386336927,15.710466402000748
1617,D,267126352091373.0,5.1938477,2.944168769411765,7.088217326442577,87,1970-01-04 02:12:06.352091373,0.1627655,0.10762024,-0.10546875,9.573299811630296,0.22180708120903195,-35.85811233520508,48.120887756347656,-107.0290298461914,15760820.0,50354.0,0.2615336959894,0.14791298266706002,-0.13560289517721053,0.013174896974380566,0.007422398163954497,-0.006780647652483316,15.760820405965205
1617,D,267126402445377.0,5.177109,2.944291069411765,7.070547626442577,87,1970-01-04 02:12:06.402445377,0.21328735,0.12896729,-0.14624023,9.57693668663096,0.28898141883245626,-35.927940368652344,48.07638168334961,-107.09542846679688,15811174.0,50354.0,0.2611095768359,0.14825375336206,-0.1369939747812105,0.013158589679922582,0.007456589913005155,-0.006863171394943166,15.81117440998787
1617,D,267126452799381.0,5.1556854,2.9592444694117654,7.093878426442577,87,1970-01-04 02:12:06.452799381,0.26895142,0.14749146,-0.18283081,9.54205472550517,0.35709340819763685,-35.995704650878906,48.03301239013672,-107.16366577148438,15861528.0,50354.0,0.26014876460880004,0.14863331426096005,-0.1368514452665105,0.013123721262553215,0.007474725701544777,-0.006894606140541472,15.861528413952328
1617,D,267126503153385.0,5.197647,2.9625098694117646,7.101721626442577,87,1970-01-04 02:12:06.503153385,0.31582642,0.17295837,-0.21046448,9.557734277514783,0.41708059492710003,-36.05514907836914,47.98663330078125,-107.22869110107422,15911882.0,50354.0,0.2606658498348,0.14909200898856004,-0.1360665774685105,0.013112549547846521,0.007495830463453167,-0.006871257058399623,15.911882417974994
1617,D,267126553507389.0,5.1796875,2.964615569411765,7.064810626442577,87,1970-01-04 02:12:06.553507389,0.35746765,0.19429016,-0.24267578,9.573743331665806,0.47373338627117734,-36.11491775512695,47.946781158447266,-107.29674530029297,15962236.0,50354.0,0.2612701507065,0.14922723717326003,-0.1367984174691105,0.013140782685628313,0.007510783660616143,-0.006869921977544485,15.962236421997659
1617,D,267126603861393.0,5.0923767,3.0346380694117654,7.055517626442577,87,1970-01-04 02:12:06.603861393,0.40274048,0.21458435,-0.2706604,9.503602590226661,0.5305689301341654,-36.17204666137695,47.921043395996094,-107.36566925048828,16012590.0,50354.0,0.2586197603634,0.15104320886466002,-0.13796169557711052,0.013089268291006874,0.0075599090198967146,-0.006917635366164708,16.012590425962117
1617,D,267126654215397.0,5.1190643,3.082672769411765,7.021490626442577,87,1970-01-04 02:12:06.654215397,0.44018555,0.23109436,-0.2974701,9.522538867551384,0.5793585953851225,-36.21520233154297,47.900020599365234,-107.42665100097656,16062944.000000002,50354.00000000186,0.2570934500570095,0.15401553498906573,-0.13905236321711567,0.01298411149875513,0.007680463994005538,-0.0069743829582624905,16.062944429984782
1617,D,267126704569401.0,5.146332,3.083405169411765,6.995047226442577,87,1970-01-04 02:12:06.704569401,0.47869873,0.24304199,-0.3283081,9.556260483745982,0.6292917380137634,-36.253177642822266,47.87940979003906,-107.48627471923828,16113298.0,50353.99999999814,0.2584518826450904,0.15524334426575429,-0.1405748264779053,0.01297988484144029,0.0077862108029983145,-0.007040173754951282,16.113298434007447
1617,D,267126754923405.0,5.072174,3.117050869411765,6.924460026442577,87,1970-01-04 02:12:06.754923405,0.5021057,0.2592163,-0.3540802,9.55457077520752,0.6668403198594248,-36.29444122314453,47.87513732910156,-107.55022430419922,16163651.999999998,50353.99999999814,0.2572713255619905,0.15610888168945425,-0.14301776589410523,0.012984363213029194,0.007838914992873994,-0.007140010698149844,16.163652437971905
1617,D,267126805277408.0,5.0670166,3.143326469411765,6.921026626442577,87,1970-01-04 02:12:06.805277408,0.5045929,0.27108765,-0.36471558,9.543532811185672,0.6790581440551825,-36.331382751464844,47.87362289428711,-107.61155700683594,16214006.000000002,50354.000000003725,0.25527440173621885,0.15761752025957168,-0.1448813825403212,0.01290436377618797,0.00789868962187121,-0.00724843686013409,16.21400644100504
1617,D,267126855631412.0,5.1756897,3.205033069411765,6.916464626442577,87,1970-01-04 02:12:06.855631412,0.5267639,0.272995,-0.38087463,9.579970811678713,0.7050333042813275,-36.34150695800781,47.86655044555664,-107.65433502197266,16264360.0,50353.99999999814,0.2578806165150905,0.1598326481089541,-0.14508268272610514,0.012919703894512738,0.007992442889014078,-0.0073004252712125465,16.264360444969498
1617,D,267126905985416.0,5.1566925,3.2634436694117652,6.875769226442577,87,1970-01-04 02:12:06.905985416,0.55015564,0.28710938,-0.3963623,9.576476358997843,0.7363464518615432,-36.343387603759766,47.869388580322266,-107.69253540039062,16314713.999999998,50353.99999999814,0.26013838664939043,0.162856838853354,-0.1462221282859051,0.013042164442671653,0.00812435321324973,-0.00733418122684911,16.314714448992163
1617,D,267126956339420.0,5.058609,3.311692069411765,6.853750626442577,87,1970-01-04 02:12:06.956339420,0.54759216,0.29145813,-0.39691162,9.521331923671918,0.7364399835204407,-36.34984588623047,47.88653564453125,-107.7341537475586,16365068.0,50354.00000000186,0.2571906458655095,0.16554219249636615,-0.147801078663916,0.013024793051628116,0.00826810241229221,-0.007402622281375919,16.36506845295662
1617,D,267127006693424.0,5.0899506,3.302429869411765,6.796393026442577,87,1970-01-04 02:12:07.006693424,0.5444031,0.2838745,-0.39549255,9.584653545807107,0.730324464977973,-36.35349655151367,47.90522384643555,-107.77337646484375,16415422.0,50354.0,0.2555102850492,0.16652374805376002,-0.1497995332513105,0.012908271337639641,0.008360424185230527,-0.007492690606189658,16.415422456979286
1617,D,267127057047428.0,4.9960938,3.352509269411765,6.788183626442577,87,1970-01-04 02:12:07.057047428,0.5389404,0.2753296,-0.39041138,9.521673887683356,0.72019732644729,-36.360313415527344,47.93594741821289,-107.81443786621094,16465776.000000002,50354.00000000186,0.25393633985880937,0.1675514026981662,-0.1514503136103161,0.012826337675309427,0.008411010070481558,-0.0075845673944354534,16.46577646100195
1617,D,267127107401432.0,5.0313263,3.355652569411765,6.704153626442577,87,1970-01-04 02:12:07.107401432,0.53770447,0.26361084,-0.3895111,9.602591856242665,0.7143778195371805,-36.361358642578125,47.97067642211914,-107.85093688964844,16516130.0,50353.99999999814,0.25246035585769067,0.16889139061605377,-0.15377262498410482,0.01274954960805385,0.008470620207271804,-0.007684597924991452,16.51613046496641
1617,D,267127157755436.0,5.118149,3.419541069411765,6.730169926442577,87,1970-01-04 02:12:07.157755436,0.51205444,0.25901794,-0.3826294,9.604267554174951,0.6897066771533513,-36.34028625488281,47.99839401245117,-107.86973571777344,16566484.0,50354.0,0.2555333396281,0.17057905024466002,-0.15523323590901053,0.012789757271245752,0.008546847289550191,-0.007779840559705965,16.566484468989074
1617,D,267127208109440.0,5.1124725,3.531159069411765,6.754339626442577,87,1970-01-04 02:12:07.208109440,0.5169525,0.255661,-0.39089966,9.541016541804822,0.6967101107098745,-36.30019760131836,48.03069305419922,-107.87474822998047,16616838.000000002,50354.00000000186,0.2575763575055095,0.17499777739516648,-0.1539697029870162,0.012918562844733365,0.008700587789488234,-0.007784802392585553,16.616838472953532
1617,D,267127258463444.0,5.132675,3.571671169411765,6.751288026442577,87,1970-01-04 02:12:07.258463444,0.5370331,0.25367737,-0.3985138,9.539237354186003,0.715241223180101,-36.25032043457031,48.063053131103516,-107.8733901977539,16667192.0,50353.99999999814,0.25794207860749047,0.1788279569228534,-0.15343801258330483,0.01297920766601652,0.008908270512924457,-0.007739604054913686,16.667192476976197
1617,D,267127308817448.0,5.136368,3.620514569411765,6.792486626442577,87,1970-01-04 02:12:07.308817448,0.57707214,0.28234863,-0.37626648,9.49214255732357,0.7445196220373557,-36.18997573852539,48.0953254699707,-107.86565399169922,16717545.999999998,50353.99999999814,0.25854369561099044,0.1810776603463533,-0.15247758556430488,0.013003562337498213,0.00906134372598648,-0.007702037014562084,16.717546480998863
1617,D,267127359171451.0,5.0302887,3.649430069411765,6.734991626442577,87,1970-01-04 02:12:07.359171451,0.5522003,0.24989319,-0.37168884,9.468616743721952,0.7110023709587835,-36.13981628417969,48.143062591552734,-107.86380004882812,16767900.0,50354.00000000186,0.2559659157359095,0.18303539617166678,-0.15288788002711617,0.012953808484881377,0.00916727442395453,-0.0076881863271954926,16.76790048397379
1617,D,267127409525455.0,5.1553802,3.690094669411765,6.644568126442577,87,1970-01-04 02:12:07.409525455,0.5443115,0.19844055,-0.3191223,9.590239771114456,0.6614323119366353,-36.06391143798828,48.18893814086914,-107.84002685546875,16818254.0,50354.0,0.2564445858953,0.18478721434936002,-0.15661202410161054,0.012900959199568962,0.009260669865087893,-0.007792279086248953,16.818254487996455
1617,D,267127459879459.0,5.138733,3.591522869411765,6.628088626442577,87,1970-01-04 02:12:07.459879459,0.45880127,0.1855011,-0.29516602,9.629112222547095,0.5762223900695488,-36.0128173828125,48.23030090332031,-107.83061218261719,16868608.0,50354.0,0.25917488803640004,0.18332928477496005,-0.15930352093261052,0.012981751495178414,0.009268069098453008,-0.007953805677326583,16.868608491960913
1617,D,267127510233463.0,5.1263885,3.736206769411765,6.629202626442577,87,1970-01-04 02:12:07.510233463,0.3956604,0.15562439,-0.2694397,9.57031961779836,0.5033526148011174,-35.938995361328125,48.28095626831055,-107.80059814453125,16918962.0,50354.0,0.2584449640055,0.18449024911666004,-0.15969037812611053,0.013032115014858917,0.00926059240478932,-0.00803130939660142,16.91896249598358
1617,D,267127560587467.0,5.2052155,3.700119669411765,6.619589626442577,87,1970-01-04 02:12:07.560587467,0.30030823,0.13298035,-0.24925232,9.63270381860381,0.41230513641869393,-35.86665344238281,48.32115936279297,-107.76709747314453,16969316.0,50354.0,0.260118793908,0.18722439075026,-0.15990435744911052,0.013055879732988192,0.009358659487929447,-0.00804643665757734,16.969316500006244
1617,D,267127610941471.0,5.2920227,3.834198669411765,6.693487626442577,87,1970-01-04 02:12:07.610941471,0.2456665,0.13998413,-0.19773865,9.57760387848011,0.345033562973125,-35.76034164428711,48.35590362548828,-107.70489501953125,17019670.0,50354.0,0.2642889661614001,0.18969153281656004,-0.15828585400411052,0.013203014175267288,0.009489612207641829,-0.008011074953757746,17.0196705039707
1617,D,267127661295475.0,5.101959,3.6989752694117652,6.582953126442577,87,1970-01-04 02:12:07.661295475,0.1845398,0.13121033,-0.16931152,9.605929550740745,0.28273216882318025,-35.707908630371094,48.40945816040039,-107.6797103881836,17070024.0,50354.0,0.2616892772609,0.18966272025776004,-0.15920825116461051,0.013242554234643251,0.009551002029652157,-0.007993549085832889,17.070024507993367
1617,D,267127711649479.0,5.0012665,3.939560569411765,6.449392926442577,87,1970-01-04 02:12:07.711649479,0.13456726,0.13475037,-0.108428955,9.57543857735545,0.21914115989799024,-35.62548065185547,48.501834869384766,-107.62857055664062,17120378.0,50354.0,0.2543689084135,0.19231541681406003,-0.1653538234265105,0.012992796940724369,0.009617063557057213,-0.008171499351980655,17.120378511957824
1617,D,267127762003483.0,4.9421387,3.983475369411765,6.320685026442577,87,1970-01-04 02:12:07.762003483,0.11682129,0.09133911,-0.07322693,9.632546890234988,0.1653850963360396,-35.54286575317383,48.61149978637695,-107.57476043701172,17170732.0,50354.0,0.25034511272040005,0.19947827583176,-0.1719569473802105,0.012707184910088203,0.009864189799743812,-0.008492473276600816,17.17073251598049
1617,D,267127812357487.0,4.722519,3.894669269411765,6.260519626442577,87,1970-01-04 02:12:07.812357487,0.09185791,0.029052734,-0.008682251,9.599277049442506,0.09673323350777568,-35.50309753417969,48.73824691772461,-107.54912567138672,17221086.0,50354.0,0.2433270869129,0.19834804757166002,-0.17671221045431051,0.012429184970167597,0.010016073344327907,-0.008778443386799737,17.221086520003155
1617,D,267127862711491.0,5.185364,3.924469669411765,6.545080626442577,87,1970-01-04 02:12:07.862711491,0.034591675,-0.091293335,0.031021118,9.603382137900853,0.10243713563302019,-35.3948974609375,48.789703369140625,-107.46648406982422,17271440.0,50354.0,0.24945077029100002,0.19686246106276,-0.1710626024331105,0.012406668110822592,0.009950214975888794,-0.0087559264640666,17.271440523967613
1617,D,267127913065494.0,5.2453613,3.757508069411765,6.710287626442577,87,1970-01-04 02:12:07.913065494,-0.021591187,-0.08129883,0.06942749,9.565359645882516,0.10906812313017021,-35.31325149536133,48.80881881713867,-107.40081787109375,17321794.0,50354.0,0.26261437087809997,0.19340915353036003,-0.1597387934971105,0.01289226405921443,0.009825868440610983,-0.008328586745335174,17.321794527000748
1617,D,267127963419498.0,5.379532,3.712708169411765,6.703146626442577,87,1970-01-04 02:12:07.963419498,-0.07846069,-0.07385254,0.11924744,9.660460962400945,0.1607178567747881,-35.22585678100586,48.81451416015625,-107.32747650146484,17372148.0,50354.0,0.2675029386141,0.18807763424486004,-0.1557591658151105,0.01334676350108512,0.009604692855816716,-0.007943292121603789,17.372148530965205
1617,D,267128013773502.0,5.072708,3.671097469411765,6.837408626442577,87,1970-01-04 02:12:08.013773502,-0.13775635,-0.08734131,0.16520691,9.405302254215531,0.23216080528286143,-35.18760299682617,48.83346176147461,-107.28740692138672,17422502.0,50354.0,0.26315604648,0.18590207456866,-0.1525586403981105,0.013360401267714157,0.009415687128797996,-0.007762517407030266,17.42250253498787
1617,D,267128064127506.0,5.676529,3.815705069411765,7.016073626442577,87,1970-01-04 02:12:08.064127506,-0.15611267,-0.15171814,0.2036438,9.563676702679048,0.29809454375756106,-35.041927337646484,48.78615188598633,-107.16354370117188,17472856.0,50354.0,0.270633539949,0.18849522751996003,-0.1446800773191105,0.013439220417522936,0.009426200874685188,-0.007483579195966474,17.47285653895233
1617,D,267128114481510.0,5.1989746,3.943070069411765,6.933676326442577,87,1970-01-04 02:12:08.114481510,-0.20181274,-0.08648682,0.21502686,9.306648685449046,0.3073188939546015,-34.939849853515625,48.80369567871094,-107.07173156738281,17523210.0,50354.0,0.2738125541372,0.19534268167016003,-0.14225634543621052,0.013707519310808259,0.009663887039679653,-0.007224198315710718,17.523210542974994
1617,D,267128164835514.0,5.4778748,4.104386069411765,6.565436026442577,87,1970-01-04 02:12:08.164835514,-0.14344788,-0.14570618,0.12823486,9.692358019603939,0.24135402314008855,-34.7777099609375,48.83583068847656,-106.9380874633789,17573564.0,50354.0,0.2688110373438,0.20261080320716005,-0.15360204829141053,0.013661634162717139,0.010019274888756289,-0.007448826778880315,17.57356454699766
1617,D,267128215189518.0,5.1966095,3.653946569411765,6.541327126442577,87,1970-01-04 02:12:08.215189518,-0.13052368,-0.10432434,0.075546265,9.704264008971249,0.18337730806353392,-34.741783142089844,48.86663818359375,-106.9021224975586,17623918.0,50354.0,0.2687514912211,0.19533154084766002,-0.16348022409981053,0.013534211781678487,0.010018994396268206,-0.007983180371993774,17.623918550962117
1617,D,267128265543522.0,5.520035,3.943466869411765,7.046209926442577,87,1970-01-04 02:12:08.265543522,-0.14393616,-0.08659363,0.10491943,9.406219681839188,0.19805090684883875,-34.607852935791016,48.837039947509766,-106.79138946533203,17674272.0,50354.0,0.26981295857650006,0.19128007814926,-0.15137577961951051,0.013559437152554178,0.009733720731485457,-0.007927129605641346,17.674272554984782
1617,D,267128315884577.0,5.270813,3.540253369411765,6.774038926442577,87,1970-01-04 02:12:08.315884577,-0.19691467,-0.03944397,0.16026306,9.608646037773374,0.2569347435267045,-34.58887481689453,48.83623123168945,-106.76461029052734,17724613.0,50341.0,0.271611039584,0.18836898027130763,-0.14547922624845425,0.013627912745698864,0.009555956624974897,-0.007471988925199607,17.724613609956577
1617,D,267128366238581.0,5.1973267,3.674195069411765,6.707266626442577,87,1970-01-04 02:12:08.366238581,-0.2600708,-0.064575195,0.21369934,9.570653271116184,0.34274507252236847,-34.554527282714844,48.857872009277344,-106.72196960449219,17774967.0,50354.0,0.2635563532269,0.18163816834426003,-0.15405037009501055,0.01347390944880003,0.009315669980694148,-0.007541256647139413,17.774967613979243
1617,D,267128416592584.0,5.0548553,3.724900069411765,6.415091126442577,87,1970-01-04 02:12:08.416592584,-0.27775574,-0.11956787,0.25776672,9.702400531028099,0.3973517441497431,-34.52719497680664,48.922306060791016,-106.68169403076172,17825321.0,50354.0,0.258119186214,0.18628701831016,-0.16308759885561053,0.01313422505650354,0.009263252424398334,-0.007984582644269787,17.82532161695417
1617,D,267128466946588.0,5.110489,3.871460669411765,6.520315626442577,87,1970-01-04 02:12:08.466946588,-0.32505798,-0.16856384,0.29388428,9.599987653271299,0.4695150993826976,-34.46464538574219,48.97862243652344,-106.6111831665039,17875675.0,50354.0,0.25593287344110005,0.19125357432136003,-0.16779446418261054,0.012942288705936455,0.00950533950068378,-0.008330617701113293,17.875675620976835
1617,D,267128517300592.0,5.1636353,3.912628869411765,6.638495126442577,87,1970-01-04 02:12:08.517300592,-0.38305664,-0.21136475,0.31300354,9.523251786127457,0.5379392744940489,-34.38895034790039,49.01869201660156,-106.52721405029297,17926029.0,50354.0,0.2586716275011,0.19598002231896003,-0.16216982167461053,0.012956197520221771,0.00974938026261334,-0.008307510825027255,17.9260296249995
1617,D,267128567654596.0,5.329788,3.859940269411765,6.697073626442577,87,1970-01-04 02:12:08.567654596,-0.4502716,-0.22996521,0.3535614,9.587146265801312,0.6169555698321104,-34.304874420166016,49.033226013183594,-106.43290710449219,17976383.0,50354.0,0.26419291842410003,0.19568997320816,-0.1577195855086105,0.013164160672758763,0.009861075477386301,-0.008053855604651956,17.97638362896396
1617,D,267128618008600.0,5.0705566,3.787384669411765,6.514105626442577,87,1970-01-04 02:12:08.618008600,-0.5003357,-0.22705078,0.35772705,9.612021915155454,0.6556344344944071,-34.272254943847656,49.08493423461914,-106.37550354003906,18026737.0,50354.0,0.2618494759942,0.19253669998476003,-0.16085133995011053,0.01324416936426954,0.009774382950978149,-0.008020660190274219,18.026737632986624
1617,D,267128668362604.0,5.1210175,3.770844069411765,6.722815126442577,87,1970-01-04 02:12:08.668362604,-0.5105438,-0.27262878,0.36358643,9.48349473646896,0.6835031203168522,-34.23527145385742,49.10779571533203,-106.31339263916016,18077091.0,50354.0,0.2565932611157,0.19029352495736002,-0.16020324620461052,0.013052832792215955,0.009638516573367758,-0.008083191315617412,18.07709163695108
1617,D,267128718716608.0,5.379547,3.6175085694117652,6.849386626442577,87,1970-01-04 02:12:08.718716608,-0.5600891,-0.29386902,0.3996582,9.58450909134945,0.7481881298723005,-34.195396423339844,49.08367919921875,-106.24585723876953,18127445.0,50354.0,0.2643727124165,0.18601655438766004,-0.15176187646761052,0.013116360315620202,0.00947435886766957,-0.00785434589351851,18.127445640973747
1617,D,267128769070612.0,5.3249664,3.728302669411765,6.896673626442577,87,1970-01-04 02:12:08.769070612,-0.6168823,-0.29829407,0.438797,9.47906090714791,0.8136743399293448,-34.14291000366211,49.06837463378906,-106.16551971435547,18177799.0,50354.0,0.2695075338718,0.18494548955986004,-0.14738464101311052,0.01344150296080053,0.009339711380466714,-0.007531611870612115,18.177799644996412
1617,D,267128819424616.0,5.2449646,3.718842269411765,6.888998626442577,87,1970-01-04 02:12:08.819424616,-0.6473236,-0.31253052,0.45718384,9.443477039401696,0.8518921484586979,-34.103965759277344,49.06102752685547,-106.093505859375,18228153.0,50354.0,0.26611915278700005,0.18749676812476002,-0.14638732968911053,0.013485473090008608,0.009376978721725679,-0.00739629690636982,18.22815364896087
1617,D,267128869778620.0,5.1027527,3.487442669411765,6.808905226442577,87,1970-01-04 02:12:08.869778620,-0.66859436,-0.34344482,0.47743225,9.510850201257435,0.8904573633525102,-34.127742767333984,49.059730529785156,-106.06694793701172,18278507.0,50354.0,0.2605244784621,0.18143263590476,-0.14859707469591052,0.013259306703958593,0.009288535605251226,-0.007426822349201675,18.278507652983535
1617,D,267128920132624.0,5.1360016,3.412903469411765,6.893957626442577,87,1970-01-04 02:12:08.920132624,-0.6626892,-0.40652466,0.49446106,9.493254487533036,0.9213636713269517,-34.15773010253906,49.040016174316406,-106.0436782836914,18328861.0,50354.0,0.2577811170111,0.17373001473716002,-0.14847222195291052,0.013049379977228756,0.00894193005521162,-0.007479313681727368,18.3288616570062
1617,D,267128970486627.0,5.201889,3.294251069411765,6.905386626442577,87,1970-01-04 02:12:08.970486627,-0.667511,-0.42401123,0.4748993,9.566759099175174,0.9224347149948352,-34.201297760009766,49.00485610961914,-106.03069305419922,18379215.0,50354.0,0.26027707163620006,0.16886602982396,-0.1460431097451105,0.013043151015573077,0.008625540613915319,-0.007415012506161076,18.379215659981128
1617,D,267129020840631.0,5.4596405,3.290970569411765,7.097098026442577,87,1970-01-04 02:12:09.020840631,-0.6712189,-0.40559387,0.45838928,9.571606727054338,0.9083842420020865,-34.21290969848633,48.92776870727539,-105.99420166015625,18429569.0,50354.0,0.2684253282215,0.16579612520066003,-0.14092864389431053,0.013311140321217316,0.008425789077054859,-0.0072250878413797045,18.429569664003793
1617,D,267129071194635.0,5.5571747,3.132797869411765,7.229406926442577,87,1970-01-04 02:12:09.071194635,-0.63256836,-0.30392456,0.42536926,9.597081089212898,0.820641136915053,-34.244384765625,48.82402801513672,-105.97689819335938,18479923.0,50354.0,0.2773703562904,0.16173121798426002,-0.13277078480121052,0.01374149794895611,0.008246155919366732,-0.006890930516267134,18.47992366796825
1617,D,267129121548639.0,5.5165405,3.077652669411765,7.301901626442577,87,1970-01-04 02:12:09.121548639,-0.55537415,-0.20732117,0.3788452,9.545479581668749,0.7035241286419617,-34.2922248840332,48.718143463134766,-105.97783660888672,18530277.0,50354.0,0.2788029275904,0.15636051321596,-0.12761444456401053,0.014002774768266902,0.00800859551642794,-0.00655571891972817,18.530277671990916
1617,D,267129171902643.0,5.539139,2.9627540694117647,7.222860926442577,87,1970-01-04 02:12:09.171902643,-0.4542389,-0.14215088,0.31378174,9.662316185794184,0.5700866875444576,-34.35675811767578,48.61545181274414,-105.9980239868164,18580631.0,50354.0,0.2783488427715,0.15207932046336,-0.12777925320601052,0.014027410122401556,0.007765589692544241,-0.0064300471287558215,18.580631675955374
1617,D,267129222256647.0,5.4361877,2.9979100694117653,7.308569626442577,87,1970-01-04 02:12:09.222256647,-0.3767395,-0.10217285,0.2551422,9.528380586562822,0.4663362353047557,-34.42708969116211,48.51716232299805,-106.02775573730469,18630985.0,50354.0,0.27632580032590004,0.15007164102316004,-0.12761137297001052,0.013965043489263243,0.0076072547573461154,-0.0064299697952336825,18.63098567997804
1617,D,267129272610651.0,5.3980255,2.8809363694117653,7.191931326442577,87,1970-01-04 02:12:09.272610651,-0.27742004,-0.060546875,0.16682434,9.639263835760344,0.3293298697086294,-34.52164840698242,48.429264068603516,-106.08245849609375,18681339.0,50354.0,0.2727729857364,0.14801171679026004,-0.12839008750921052,0.013824660136690528,0.007504844699668479,-0.0064453487704853474,18.681339684000704
1617,D,267129322964655.0,5.28627,2.9059910694117654,7.192968926442577,87,1970-01-04 02:12:09.322964655,-0.1894989,-0.04283142,0.10424805,9.565457642299457,0.2204813361017864,-34.622962951660156,48.353572845458984,-106.1474609375,18731693.0,50354.0,0.26899850780350004,0.14569747212726003,-0.13130056633311052,0.013640180892854065,0.007394716249376403,-0.006538231591788117,18.731693687965162
1617,D,267129373318659.0,5.236557,2.808579069411765,7.127066226442577,87,1970-01-04 02:12:09.373318659,-0.109558105,-0.018218994,0.04437256,9.627875298889613,0.11959863792918655,-34.744667053222656,48.284385681152344,-106.23271179199219,18782047.0,50354.0,0.264933215379,0.14387573238516005,-0.13293367495581052,0.013442798994565804,0.0072905845700092006,-0.006652625492931165,18.782047691987827
1617,D,267129423672663.0,5.261505,2.966538069411765,7.191168626442577,87,1970-01-04 02:12:09.423672663,-0.06776428,-0.014831543,0.0025024414,9.526838835349006,0.06941350390694653,-34.831687927246094,48.216426849365234,-106.29475402832031,18832401.0,50354.0,0.264309706974,0.14540012420416004,-0.13297900110891053,0.013324749056081482,0.007283098241349312,-0.006694883445281481,18.832401695952285
1617,D,267129474026667.0,5.305496,3.077439069411765,7.193518226442577,87,1970-01-04 02:12:09.474026667,-0.007965088,0.0042419434,-0.022216797,9.502403748037134,0.0239796325992655,-34.88905334472656,48.15287399291992,-106.33790588378906,18882755.0,50354.0,0.266045384177,0.15216921242416004,-0.13130593910491054,0.013352750129908728,0.007491903188291215,-0.006653901939763374,18.88275569997495
1617,D,267129524380670.0,5.311386,2.9699410694117647,7.151861626442577,87,1970-01-04 02:12:09.524380670,0.036239624,0.030471802,-0.05886841,9.581035140989778,0.07554687790184768,-34.96368408203125,48.08816146850586,-106.39701843261719,18933109.0,50354.0,0.26730123811400003,0.15225488975516,-0.13229557144391052,0.01342806790942051,0.007664485620568741,-0.006636695231087669,18.933109703008085
1617,D,267129574734674.0,5.2371216,2.913544369411765,7.141852026442577,87,1970-01-04 02:12:09.574734674,0.052383423,0.050064087,-0.06758118,9.571599917172342,0.09908406381720977,-35.056419372558594,48.029659271240234,-106.47074127197266,18983463.0,50354.0,0.26557977584520004,0.14812851289326,-0.1335963713613105,0.01341634528845078,0.007562752928479271,-0.006694361444007049,18.983463706972543
1617,D,267129625088678.0,5.2242737,3.0038460694117655,7.215506226442577,87,1970-01-04 02:12:09.625088678,0.07913208,0.05999756,-0.06428528,9.472859456287445,0.11829704356305105,-35.13134765625,47.9720344543457,-106.53228759765625,19033817.0,50354.0,0.26338654946810003,0.14898213907826005,-0.1319939912671105,0.013317785172412958,0.0074803548846869615,-0.006686768559895756,19.03381771099521
1617,D,267129675442682.0,5.1880646,3.068116069411765,7.060461626442577,87,1970-01-04 02:12:09.675442682,0.10139465,0.09408569,-0.06593323,9.537533368944676,0.1532324473785872,-35.19672775268555,47.94054412841797,-106.58821868896484,19084171.0,50354.0,0.2621514413791,0.15287379076916005,-0.13404315736791053,0.013231469995559955,0.007599826745768496,-0.006698017291183925,19.084171714959666
1617,D,267129725796686.0,5.172409,3.176544869411765,6.891714626442577,87,1970-01-04 02:12:09.725796686,0.16342163,0.11090088,-0.11021423,9.608003168112562,0.22616987162556423,-35.24169921875,47.934654235839844,-106.6328353881836,19134525.0,50354.0,0.2608456438272,0.15722182845676003,-0.1421952584811105,0.013167497614239014,0.007807277405250991,-0.006954854595830803,19.13452571898233
1617,D,267129776150690.0,5.183365,3.040894069411765,7.164007626442577,87,1970-01-04 02:12:09.776150690,0.23129272,0.12097168,-0.174469,9.471530491474807,0.3139584393642267,-35.30949401855469,47.88993453979492,-106.6988296508789,19184879.0,50354.0,0.26072732199800003,0.15653646016276004,-0.1395882808391105,0.01313164256058106,0.007899492432573657,-0.007094464169465206,19.184879723004997
1617,D,267129826504694.0,5.170761,2.8381660694117654,7.095221126442577,87,1970-01-04 02:12:09.826504694,0.29776,0.13801575,-0.23373413,9.601984425301014,0.40291563431433064,-35.41286849975586,47.840885162353516,-106.79560852050781,19235233.0,50354.0,0.26068583030200004,0.14801709711516003,-0.13446459768861052,0.013127618935457103,0.007667744911586195,-0.006899829322692433,19.235233726969454
1617,D,267129876858698.0,5.278366,2.8991248694117653,7.262777926442577,87,1970-01-04 02:12:09.876858698,0.3880005,0.14672852,-0.2939911,9.514591587583965,0.5084332930295286,-35.48767852783203,47.768367767333984,-106.87630462646484,19285587.0,50354.0,0.26307767047900005,0.14444777396676003,-0.13197785784551053,0.01318679365916324,0.007363388059229503,-0.006708221702982566,19.28558773099212
1617,D,267129927212702.0,5.3753357,2.9912726694117646,7.334265326442577,87,1970-01-04 02:12:09.927212702,0.45401,0.1857605,-0.32757568,9.47857987105221,0.5898625853431564,-35.53063201904297,47.68785858154297,-106.93748474121094,19335941.0,50354.0,0.2682282477009,0.14830253883496003,-0.1259594420221105,0.013376689102015343,0.007370574625408906,-0.006494087398767096,19.335941734956577
1617,D,267129977566706.0,5.402237,3.025711769411765,7.274298326442577,87,1970-01-04 02:12:09.977566706,0.52082825,0.24539185,-0.36550903,9.521324176635936,0.681964864971815,-35.5626335144043,47.616851806640625,-106.99519348144531,19386295.0,50354.0,0.27134694786790003,0.15148961721626,-0.12566939291131052,0.013584884698835677,0.007547867112901566,-0.006335259177118742,19.386295738979243
1617,D,267130027920709.0,5.322769,3.125717869411765,7.237051626442577,87,1970-01-04 02:12:10.027920709,0.56855774,0.29670715,-0.39305115,9.460767677581659,0.7521849793045275,-35.586517333984375,47.56599044799805,-107.05042266845703,19436649.0,50354.0,0.270023476062,0.15487454401666,-0.12811694223621053,0.013630083163283093,0.007713330487361227,-0.006389578560009137,19.43664974195417
1617,D,267130078274713.0,5.232315,3.169098569411765,7.106466926442577,87,1970-01-04 02:12:10.078274713,0.60224915,0.33052063,-0.420578,9.486411998056175,0.8055021909438356,-35.614158630371094,47.54140090942383,-107.11107635498047,19487003.0,50354.0,0.265745349868,0.15848459348026,-0.13234243339401053,0.01348905173043961,0.007889443004759956,-0.006557585700242076,19.487003745976835
1617,D,267130128628717.0,5.1766357,3.2155768694117652,7.032827926442577,87,1970-01-04 02:12:10.128628717,0.6350708,0.33296204,-0.43930054,9.490592532303513,0.8409302025363896,-35.63913345336914,47.532535552978516,-107.17152404785156,19537357.0,50354.0,0.2620661517739,0.16074697352326003,-0.1374841734889105,0.013288710176838118,0.008037293162447626,-0.006793424481491304,19.5373577499995
1617,D,267130178982721.0,5.0977783,3.280670869411765,6.895956626442577,87,1970-01-04 02:12:10.178982721,0.6452179,0.32756042,-0.44203186,9.522974144489973,0.8479352171516679,-35.66129684448242,47.54882049560547,-107.23023986816406,19587711.0,50354.0,0.258678921278,0.16355602932036004,-0.14278419131201053,0.01311079870422769,0.008164976702593823,-0.00705631662059279,19.58771175396396
1617,D,267130229336725.0,5.0736237,3.298874569411765,6.703070326442577,87,1970-01-04 02:12:10.229336725,0.6316986,0.3140869,-0.44200134,9.647693884070474,0.8325015835152301,-35.682743072509766,47.586585998535156,-107.28768157958984,19638065.0,50354.0,0.256085388154,0.16565321551326,-0.15108649840721053,0.012960221018569465,0.008288501157176052,-0.007398782355060828,19.638065757986624
1617,D,267130279690729.0,4.9993134,3.356705369411765,6.637182626442577,87,1970-01-04 02:12:10.279690729,0.61953735,0.28181458,-0.44781494,9.636458933344274,0.8147295293732777,-35.702781677246094,47.63888168334961,-107.34315490722656,19688419.0,50354.0,0.2536063373667,0.16756753611976002,-0.1576016514052105,0.012832508573434667,0.008389498863864545,-0.007771841547827325,19.68841976195108
1617,D,267130330044733.0,5.0604553,3.4178625694117653,6.719183626442577,87,1970-01-04 02:12:10.330044733,0.6092529,0.24284363,-0.44454956,9.582621345292441,0.7923297521147243,-35.70271682739258,47.67887878417969,-107.38255310058594,19738773.0,50354.0,0.2532747965599,0.17056329699576003,-0.1571959668511105,0.012761746308870007,0.00851311998534945,-0.007925659634839394,19.738773765973747
1617,D,267130380398737.0,5.2391815,3.489228069411765,6.826742626442577,87,1970-01-04 02:12:10.380398737,0.58517456,0.22937012,-0.43804932,9.57071144689188,0.7661116918390363,-35.66708755493164,47.695289611816406,-107.39433288574219,19789127.0,50354.0,0.2593139557136,0.17389982101366003,-0.1524234147311105,0.01290544701598991,0.00867254792212317,-0.007795287170095579,19.789127769996412
1617,D,267130430752741.0,5.263397,3.528183669411765,6.899695026442577,87,1970-01-04 02:12:10.430752741,0.55029297,0.23332214,-0.43548584,9.515008667390477,0.7395332924798627,-35.62366485595703,47.704586029052734,-107.39904022216797,19839481.0,50354.0,0.2644234188945,0.17667737534836,-0.1478786792133105,0.013186135880508135,0.008826482072806579,-0.007560705819238687,19.83948177396087
1617,D,267130481106745.0,5.266266,3.545395569411765,6.901693926442577,87,1970-01-04 02:12:10.481106745,0.5159607,0.24179077,-0.4277649,9.508712999179245,0.712503354429783,-35.57942581176758,47.714874267578125,-107.4018325805664,19889835.0,50354.0,0.265105325351,0.17809150449586003,-0.14599163033321053,0.013331945193868955,0.008932016087837927,-0.007398772783452761,19.889835777983535
1617,D,267130531460749.0,5.302353,3.580200869411765,6.828650126442577,87,1970-01-04 02:12:10.531460749,0.4669037,0.25439453,-0.40524292,9.570468160784188,0.6685338182752891,-35.52745819091797,47.73234939575195,-107.39672088623047,19940189.0,50354.0,0.266086120563,0.17940114154026002,-0.14778032778051053,0.01337380703377678,0.009000592349251395,-0.007396296589429155,19.9401897820062
1617,D,267130581814752.0,5.24881,3.496811569411765,6.840796126442577,87,1970-01-04 02:12:10.581814752,0.45013428,0.28404236,-0.34638977,9.562639740761883,0.6350486635417327,-35.4979133605957,47.75053787231445,-107.40653228759766,19990543.0,50354.0,0.265646630851,0.17817794217226005,-0.14931355169111052,0.013387435482350279,0.009002768590630119,-0.007479932603457003,19.990543784981128
1617,D,267130632168756.0,5.195404,3.651169469411765,6.640265126442577,87,1970-01-04 02:12:10.632168756,0.49227905,0.27400208,-0.27522278,9.62885615236569,0.627027416899897,-35.44274139404297,47.80455780029297,-107.39678192138672,20040897.0,50354.0,0.26295397587799996,0.17996471861446003,-0.15405652083611052,0.013308577475616031,0.009016957770627252,-0.007637948316017844,20.040897789003793
1617,D,267130682522760.0,5.133377,3.6887976694117652,6.651281926442577,87,1970-01-04 02:12:10.682522760,0.4219513,0.2199707,-0.2492981,9.573739230669993,0.5371960080769309,-35.39037322998047,47.86295700073242,-107.38469696044922,20091251.0,50354.0,0.260047719237,0.18479835265416003,-0.15882791984951053,0.013167613677910354,0.009183639845330048,-0.00787749156314188,20.09125179296825
1617,D,267130732876764.0,5.159317,3.780045269411765,6.604956226442577,87,1970-01-04 02:12:10.732876764,0.3609619,0.16873169,-0.22439575,9.591501764203914,0.45729348243762297,-35.31968688964844,47.92656326293945,-107.35504913330078,20141605.0,50354.0,0.25913915683800004,0.18804305867076004,-0.15971689202481051,0.013071567978940277,0.009387028212927515,-0.008020002728559782,20.141605796990916
1617,D,267130783230768.0,5.2823944,3.828766569411765,6.612463626442577,87,1970-01-04 02:12:10.783230768,0.30558777,0.120269775,-0.19351196,9.636025138400358,0.3811765766874522,-35.22615051269531,47.97845458984375,-107.30455017089844,20191959.0,50354.0,0.2628909679178,0.19156705566606005,-0.1606942203639105,0.013143152450976778,0.00955744384865812,-0.00806699057661083,20.191959800955374
1617,D,267130833584772.0,5.2725677,3.841431369411765,6.684530626442577,87,1970-01-04 02:12:10.833584772,0.24560547,0.10064697,-0.16635132,9.571259747086271,0.31324849741035343,-35.134281158447266,48.0238037109375,-107.25188446044922,20242313.0,50354.0,0.26574228079170004,0.19311257350576005,-0.15869077569511053,0.013309399302759083,0.009685079023658914,-0.008041156045777974,20.24231380497804
1617,D,267130883938776.0,5.2991486,3.874527669411765,6.678106926442577,87,1970-01-04 02:12:10.883938776,0.19924927,0.075668335,-0.1399231,9.579734272339635,0.25495968785440404,-35.03548812866211,48.06800842285156,-107.19110107421875,20292667.0,50354.0,0.2661641012851,0.19426470072046004,-0.15703807433101052,0.013391806981547594,0.009752997633193544,-0.00794910525710765,20.292667809000704
1617,D,267130934292780.0,5.295044,3.903366769411765,6.672918926442577,87,1970-01-04 02:12:10.934292780,0.13948059,0.06211853,-0.096572876,9.571846448650176,0.1806650689397936,-34.93473815917969,48.114498138427734,-107.12513732910156,20343021.0,50354.0,0.2667299870902,0.19582404828626004,-0.1573304221019105,0.013416674463024927,0.009821264433742193,-0.007914855634691654,20.343021812965162
1617,D,267130984646784.0,5.2055664,3.899765669411765,6.630972626442577,87,1970-01-04 02:12:10.984646784,0.079574585,0.04385376,-0.055648804,9.55610738190804,0.10654602869506795,-34.848876953125,48.17240905761719,-107.0665054321289,20393375.0,50354.0,0.2643738680408,0.19645946541226003,-0.15851712237301052,0.013371601760633189,0.009876522024387642,-0.007952093627245088,20.393375816987827
1617,D,267131035000788.0,5.2467194,3.852585469411765,6.629141626442577,87,1970-01-04 02:12:11.035000788,0.018310547,0.014175415,-0.010864258,9.595711011820308,0.025578323317840795,-34.768802642822266,48.222076416015625,-107.00806427001953,20443729.0,50354.0,0.2631571995866,0.19518094462216,-0.15961930345511055,0.01328164968965505,0.009860330603436595,-0.008009720793074604,20.443729820952285
1617,D,267131085354792.0,5.2924194,3.855622069411765,6.688925426442577,87,1970-01-04 02:12:11.085354792,-0.040390015,-0.012817383,0.044891357,9.574085378064874,0.06173226508051007,-34.68351364135742,48.26108169555664,-106.94147491455078,20494083.0,50354.0,0.2653438975676,0.19406954120496,-0.15816022580951053,0.013306072123051295,0.009800159481669402,-0.008000735208295365,20.49408382497495
1617,D,267131135708795.0,5.25029,3.863159869411765,6.638830626442577,87,1970-01-04 02:12:11.135708795,-0.087020874,-0.030395508,0.08720398,9.586691335894622,0.1268899268899716,-34.604122161865234,48.30880355834961,-106.8759765625,20544437.0,50354.0,0.2654337945638,0.19433577287376003,-0.15791628585651052,0.013363389954792259,0.009778880592559935,-0.007957858334215412,20.544437828008085
1617,D,267131186062799.0,5.268738,3.844712069411765,6.685522626442577,87,1970-01-04 02:12:11.186062799,-0.1302948,-0.05795288,0.12564087,9.567286659692444,0.19005499052035255,-34.52699279785156,48.347816467285156,-106.8089828491211,20594791.0,50354.0,0.264837567956,0.19406109180376002,-0.15800195815211052,0.013350642094161005,0.009778667861985923,-0.00795387362940505,20.594791831972543
1617,D,267131236416803.0,5.2690125,3.852478669411765,6.649084626442577,87,1970-01-04 02:12:11.236416803,-0.1643219,-0.07418823,0.15618896,9.592681995127286,0.238538406794429,-34.45014190673828,48.38994598388672,-106.7397232055664,20645145.0,50354.0,0.2653089443385,0.19379217123136003,-0.15774379319411053,0.013347498740038625,0.009764981603435217,-0.007949530781643808,20.64514583599521
1617,D,267131286770807.0,5.2739563,3.859741869411765,6.665716626442577,87,1970-01-04 02:12:11.286770807,-0.19436646,-0.09176636,0.18135071,9.580242015804087,0.28122493775994567,-34.37278747558594,48.42938232421875,-106.66791534423828,20695499.0,50354.0,0.26544032547760005,0.19417057650596004,-0.15824244885611052,0.013362674366159951,0.009767738099782508,-0.007955585616098416,20.695499839959666
1617,D,267131337124811.0,5.274124,3.8172766694117652,6.729269626442577,87,1970-01-04 02:12:11.337124811,-0.23390198,-0.1103363,0.21040344,9.546214951279044,0.3333974248692452,-34.304931640625,48.45891189575195,-106.6005630493164,20745853.0,50354.0,0.2655690177131,0.19328429575196002,-0.1562236311111105,0.013369222233512255,0.009754951318837654,-0.007917312495334724,20.74585384398233
1617,D,267131387478815.0,5.2640076,3.811798769411765,6.666540626442577,87,1970-01-04 02:12:11.387478815,-0.2700653,-0.12528992,0.23898315,9.59032101192585,0.38176665163633516,-34.24126434326172,48.4945182800293,-106.5339126586914,20796207.0,50354.0,0.2653185392932,0.19207723232326004,-0.15620288526311052,0.013366156022747615,0.009702247192349816,-0.007865962402753763,20.796207848004997
1617,D,267131437832819.0,5.2539063,3.856171369411765,6.683432226442577,87,1970-01-04 02:12:11.437832819,-0.30470276,-0.13496399,0.2627411,9.556864637556783,0.4243724027049211,-34.17215347290039,48.53162384033203,-106.46100616455078,20846561.0,50354.0,0.2648095182603,0.19305648418516003,-0.1573569334829105,0.01334703410502447,0.009696511580532493,-0.007894495556568572,20.846561851969454
1617,D,267131488186823.0,5.2951508,3.7991492694117652,6.665701626442577,87,1970-01-04 02:12:11.488186823,-0.33358765,-0.15840149,0.28251648,9.612387153039212,0.46495947537213717,-34.1102409362793,48.561500549316406,-106.39141845703125,20896915.0,50354.0,0.2655936106067,0.19273800772366004,-0.1573780569859105,0.01335395957548446,0.009713147922788363,-0.007924082855033508,20.89691585599212
1617,D,267131538540827.0,5.208145,3.762497669411765,6.746527326442577,87,1970-01-04 02:12:11.538540827,-0.37554932,-0.16049194,0.30670166,9.515652541776442,0.5107453992002098,-34.0681037902832,48.589237213134766,-106.33438110351562,20947269.0,50354.0,0.26444147835660003,0.19037958497876004,-0.1557895116532105,0.013344693434829007,0.009645751631468831,-0.00788461987562715,20.947269859956577
1617,D,267131588894831.0,5.231262,3.701096269411765,6.731787326442577,87,1970-01-04 02:12:11.588894831,-0.4025879,-0.17835999,0.3151245,9.560999537097162,0.5414727636358638,-34.03611755371094,48.61106872558594,-106.2833480834961,20997623.0,50354.0,0.262832950039,0.18791090459776003,-0.1541256719843105,0.013275188283716023,0.009524219656068046,-0.007802734578441867,20.997623863979243
1617,D,267131639248834.0,5.1838684,3.768692669411765,6.741339326442577,87,1970-01-04 02:12:11.639248834,-0.42359924,-0.19161987,0.32987976,9.504189231982485,0.57006591440381,-33.997901916503906,48.640079498291016,-106.2261962890625,21047977.0,50354.0,0.26222173808079996,0.18806687611276005,-0.15425629026031054,0.013219301882792203,0.009465992584948764,-0.007764132663432825,21.04797786695417
1617,D,267131689602838.0,5.2287445,3.7334448694117652,6.751883126442577,87,1970-01-04 02:12:11.689602838,-0.44604492,-0.20730591,0.33094788,9.533000722946555,0.5928391942636966,-33.96223068237305,48.66018295288086,-106.16979217529297,21098331.0,50354.0,0.2621583549833,0.18888131681496004,-0.15375033830371054,0.013202317603074845,0.009490424653341208,-0.007754682887356358,21.098331870976835
1617,D,267131739956842.0,5.248581,3.6709448694117652,6.744284226442577,87,1970-01-04 02:12:11.739956842,-0.46420288,-0.22570801,0.3337555,9.571677209339876,0.6146715817074224,-33.93696594238281,48.673973083496094,-106.12008666992188,21148685.0,50354.0,0.2637876241135,0.18642032045436005,-0.15367619455641052,0.013241741915720133,0.009448969321529672,-0.007740077817819269,21.1486858749995
1617,D,267131790310846.0,5.303253,3.654892669411765,6.826803626442577,87,1970-01-04 02:12:11.790310846,-0.4896698,-0.23495483,0.34074402,9.545370632949135,0.6411604887531118,-33.90900421142578,48.6729621887207,-106.06703186035156,21199039.0,50354.0,0.265663524618,0.18444261171496001,-0.1517899211279105,0.013329991571612977,0.009337216043226973,-0.007690720394584151,21.19903987896396
1617,D,267131840664850.0,5.1986694,3.595215469411765,6.865515326442577,87,1970-01-04 02:12:11.840664850,-0.48208618,-0.25175476,0.32839966,9.480178190373133,0.635321871823854,-33.90589904785156,48.67312240600586,-106.032958984375,21249393.0,50354.0,0.2644069002648,0.18253597261116,-0.14873768572321053,0.013345583087274258,0.009239419817578724,-0.007566383557690674,21.249393882986624
1617,D,267131891018854.0,5.247772,3.497925469411765,6.847342126442577,87,1970-01-04 02:12:11.891018854,-0.48564148,-0.2679901,0.32756042,9.556759717332408,0.6441755735396809,-33.91471481323242,48.66367721557617,-106.00743865966797,21299747.0,50354.0,0.26301005512780007,0.17858400941676003,-0.14822058790871054,0.013278776685919492,0.009091917787516944,-0.007476518455230877,21.29974788695108
1617,D,267131941372858.0,5.2295227,3.441925769411765,6.873022626442577,87,1970-01-04 02:12:11.941372858,-0.46868896,-0.28623962,0.33169556,9.548687220174028,0.6415796176682513,-33.9345703125,48.64946746826172,-105.99038696289062,21350101.0,50354.0,0.26378684866190005,0.17472463463986002,-0.14803157661661054,0.01326316564671328,0.008895251731413523,-0.00745874074625401,21.350101890973747
1617,D,267131991726862.0,5.315094,3.460541469411765,6.921240626442577,87,1970-01-04 02:12:11.991726862,-0.4573059,-0.27027893,0.33399963,9.553057257561841,0.6274831782740409,-33.93940353393555,48.62474060058594,-105.96271514892578,21400455.0,50354.0,0.26548181465590004,0.17378341767186,-0.14617103408211052,0.013325397136352253,0.008774387233052175,-0.007407139129561701,21.400455894996412
1617,D,267132042080866.0,5.290344,3.453736069411765,6.907721126442577,87,1970-01-04 02:12:12.042080866,-0.46461487,-0.3083954,0.33937073,9.55190746272064,0.6527995040952542,-33.947452545166016,48.602439880371094,-105.93632507324219,21450809.0,50354.0,0.267013112526,0.17408076559496002,-0.14529742994761052,0.013406624781658699,0.008758176542108727,-0.007338301518876287,21.45080989896087
1617,D,267132092434870.0,5.264267,3.474610069411765,6.952643026442577,87,1970-01-04 02:12:12.092434870,-0.47247314,-0.2958374,0.34910583,9.496251421130411,0.6577427428715641,-33.955074310302734,48.580650329589844,-105.90928649902344,21501163.0,50354.0,0.26573344114700004,0.17443497073716002,-0.14450681172281052,0.013412959981825123,0.008774580693633788,-0.007296401392536192,21.501163902983535
1617,D,267132142788874.0,5.281311,3.417877869411765,6.926672626442577,87,1970-01-04 02:12:12.142788874,-0.5108948,-0.31492615,0.36091614,9.546515829803397,0.7003230945309187,-33.971736907958984,48.55647277832031,-105.88689422607422,21551517.0,50354.0,0.265506017306,0.17353216883576003,-0.14402966980731052,0.013375015845471183,0.008760768673027408,-0.007264482995483857,21.5515179070062
1617,D,267132193142877.0,5.3025208,3.310974769411765,7.023657626442577,87,1970-01-04 02:12:12.193142877,-0.526062,-0.31672668,0.3683319,9.528477616475087,0.7160484663941628,-34.00581741333008,48.514644622802734,-105.87674713134766,21601871.0,50354.0,0.2664691332286,0.16941232288766003,-0.14224173522311054,0.013393538365009625,0.008634313468120547,-0.007207455164450911,21.601871909981128
1617,D,267132243496881.0,5.230118,3.312348069411765,7.000723626442577,87,1970-01-04 02:12:12.243496881,-0.54797363,-0.30737305,0.37269592,9.504686966536458,0.7305173097376446,-34.04923629760742,48.4834098815918,-105.87281036376953,21652225.0,50354.0,0.2651802470676,0.16675539911306,-0.14037735319611053,0.013385336447717429,0.00846369473681213,-0.007115500789130729,21.652225914003793
1617,D,267132293850885.0,5.3087463,3.289994069411765,7.049795626442577,87,1970-01-04 02:12:12.293850885,-0.56936646,-0.3260498,0.37675476,9.521165052425237,0.7565915589243837,-34.085994720458984,48.43872833251953,-105.86261749267578,21702579.0,50354.0,0.26533698648110005,0.16622716802916002,-0.1397192767701105,0.013356832389055622,0.008383502092939674,-0.007051992852659547,21.70257991796825
1617,D,267132344204889.0,5.3017426,3.221359969411765,7.042883626442577,87,1970-01-04 02:12:12.344204889,-0.57055664,-0.30067444,0.3763275,9.549757976708559,0.7467010014548348,-34.13631057739258,48.39333724975586,-105.86298370361328,21752933.0,50354.0,0.2671402790353,0.16393636063546002,-0.13865781445011052,0.013406180113906405,0.00831252716118914,-0.007008700025651505,21.752933921990916
1617,D,267132394558893.0,5.335373,3.157868069411765,7.113958926442577,87,1970-01-04 02:12:12.394558893,-0.5736542,-0.29457092,0.3687439,9.542837251654829,0.7428480543654243,-34.193660736083984,48.33488464355469,-105.86878204345703,21803287.0,50354.0,0.26781065946120003,0.16060982433346005,-0.13704237504601052,0.013468459778526384,0.008171099298962502,-0.006941303670943841,21.803287925955374
1617,D,267132444912897.0,5.373474,3.138962469411765,7.145285226442577,87,1970-01-04 02:12:12.444912897,-0.57206726,-0.2775116,0.36099243,9.549458724978308,0.7311560521638131,-34.24897003173828,48.27055358886719,-105.87358856201172,21853641.0,50354.0,0.269616640919,0.15853530247596,-0.13446420996281053,0.013530807141672298,0.00803511685768077,-0.006835721290767089,21.85364192997804
1617,D,267132495266901.0,5.458496,3.032578069411765,7.251455926442577,87,1970-01-04 02:12:12.495266901,-0.54463196,-0.24588013,0.35076904,9.566530611214041,0.6929068693589205,-34.31184005737305,48.18384552001953,-105.88589477539062,21903995.0,50354.0,0.27271650869,0.15538087614596002,-0.13100244799381053,0.013654321707705794,0.007903467629164081,-0.006683654047373849,21.903995934000704
1617,D,267132545620905.0,5.4205933,2.8963630694117652,7.245825626442577,87,1970-01-04 02:12:12.545620905,-0.5011139,-0.22286987,0.32104492,9.60731955052906,0.6354966249987747,-34.40256881713867,48.09524917602539,-105.92176818847656,21954349.0,50354.0,0.27390283130610005,0.14927295105216004,-0.12847114234301052,0.013762235123081813,0.007670269407367069,-0.006532766583910144,21.954349937965162
1617,D,267132595974909.0,5.395172,2.813935069411765,7.348456026442577,87,1970-01-04 02:12:12.595974909,-0.42184448,-0.17463684,0.2942047,9.557537099372137,0.5431456496132009,-34.508460998535156,47.996463775634766,-105.97341918945312,22004703.0,50354.0,0.2723085229581,0.14376817624116003,-0.12602897082531053,0.013751963266309763,0.0073778964618639205,-0.0064075493492388195,22.004703941987827
1617,D,267132646328913.0,5.423279,2.7691046694117647,7.407446626442577,87,1970-01-04 02:12:12.646328913,-0.36914063,-0.14228821,0.25967407,9.552695817178268,0.47322443095445305,-34.616092681884766,47.88905715942383,-106.02976989746094,22055057.0,50354.0,0.272376140827,0.14056419150436003,-0.12195983890831052,0.013713525780117463,0.007158636022728959,-0.006243614262663378,22.055057945952285
1617,D,267132696682917.0,5.2846985,2.8579720694117654,7.518545626442577,87,1970-01-04 02:12:12.696682917,-0.30703735,-0.12245178,0.21644592,9.357511732006017,0.39511417211337446,-34.723575592041016,47.788902282714844,-106.08975219726562,22105411.0,50354.0,0.2695947495175,0.14167291105336002,-0.1176774930491105,0.013645201106203476,0.007105883531095718,-0.00603334910669199,22.10541194997495
1617,D,267132747036920.0,5.3005066,2.653809069411765,7.354117026442577,87,1970-01-04 02:12:12.747036920,-0.2649231,-0.09692383,0.18029785,9.573271391376311,0.33479216306553744,-34.86134338378906,47.695579528808594,-106.17506408691406,22155765.0,50354.0,0.2665037088027,0.13877011373216003,-0.11902017238831052,0.013497350885127676,0.007060714035025039,-0.005959337122717949,22.155765953008085
1617,D,267132797390924.0,5.264618,2.6669470694117647,7.304800626442577,87,1970-01-04 02:12:12.797390924,-0.21014404,-0.058944702,0.14459229,9.581729164123875,0.261805129378388,-34.99738311767578,47.614105224609375,-106.26271057128906,22206119.0,50354.0,0.2659981420542,0.13396067730716002,-0.12440163025331052,0.013406799099024173,0.006866543125996962,-0.006128630725108094,22.206119956972543
1617,D,267132847744928.0,5.26297,2.6650244694117653,7.343573226442577,87,1970-01-04 02:12:12.847744928,-0.14512634,-0.032287598,0.093551636,9.554692014444814,0.1756589085263873,-35.130435943603516,47.53003692626953,-106.35234832763672,22256473.0,50354.0,0.265053083076,0.13424304743296003,-0.12466709150591053,0.013370276695103045,0.006752565177782003,-0.006270803207731909,22.25647396099521
1617,D,267132898098932.0,5.289505,2.6314703694117654,7.348486626442577,87,1970-01-04 02:12:12.898098932,-0.077423096,-0.00035095215,0.044189453,9.581419267139816,0.08914688282871149,-35.261932373046875,47.443023681640625,-106.44519805908203,22306827.0,50354.0,0.26567966307500007,0.13334985055706003,-0.12356720908391051,0.01336225834984373,0.006737186392694735,-0.0062497949859499245,22.306827964959666
1617,D,267132948452936.0,5.258438,2.637757069411765,7.336355626442577,87,1970-01-04 02:12:12.948452936,0.0046691895,0.033676147,-0.011489868,9.569819257168705,0.03588734141741267,-35.39216995239258,47.36212158203125,-106.5422134399414,22357181.0,50354.0,0.26556556091100003,0.13266333922726004,-0.1237489265991105,0.013375161004295527,0.006697414079199828,-0.0062266783480914205,22.35718196898233
1617,D,267132998806940.0,5.2973633,2.656510069411765,7.386831826442577,87,1970-01-04 02:12:12.998806940,0.07937622,0.07702637,-0.053649902,9.54762717121391,0.12293070390051015,-35.510169982910156,47.276031494140625,-106.6348648071289,22407535.0,50354.0,0.2657634093301,0.13329376375416002,-0.1227835094987105,0.013377269483760177,0.006696001981763213,-0.006206947143634839,22.407535973004997
1617,D,267133049160944.0,5.2489014,2.707672769411765,7.331137326442577,87,1970-01-04 02:12:13.049160944,0.14828491,0.109939575,-0.10482788,9.536027408471567,0.21228285166301852,-35.62187957763672,47.20503234863281,-106.7273941040039,22457889.0,50354.0,0.2655233063519,0.13505403133306002,-0.12291489063781051,0.013376205640725716,0.00675619243691094,-0.00618594862023719,22.457889976969454
1617,D,267133099514948.0,5.2479095,2.6987310694117648,7.317450126442577,87,1970-01-04 02:12:13.099514948,0.20698547,0.12109375,-0.15162659,9.549136068501353,0.2837204678468078,-35.73154830932617,47.135780334472656,-106.82200622558594,22508243.0,50354.0,0.2642782080293,0.13611702945006002,-0.12466171369871051,0.013338812727575474,0.006827273797336613,-0.00623323616738059,22.50824398099212
1617,D,267133149868952.0,5.3009796,2.7272498694117653,7.356894126442577,87,1970-01-04 02:12:13.149868952,0.27664185,0.15916443,-0.19647217,9.537945376712873,0.3747870629212757,-35.82603073120117,47.06135940551758,-106.90994262695312,22558597.0,50354.0,0.2655893808707,0.13660992209676,-0.12401323474511051,0.0133404762857353,0.006866446459094289,-0.006260889176970083,22.558597984956577
1617,D,267133200222956.0,5.2535706,2.7461250694117654,7.314688326442577,87,1970-01-04 02:12:13.200222956,0.35543823,0.20426941,-0.24951172,9.532586704259419,0.47991501916968526,-35.92045593261719,46.998687744140625,-107.00299835205078,22608951.0,50354.0,0.2657319103854,0.13780316083476005,-0.12408276858371052,0.013377076149954831,0.006908898188966881,-0.006246313075809727,22.608951988979243
1617,D,267133250576959.0,5.2465515,2.7711493694117646,7.270102126442577,87,1970-01-04 02:12:13.250576959,0.41671753,0.23760986,-0.29629517,9.548720054218103,0.5638286735736747,-36.00859832763672,46.94437026977539,-107.09561920166016,22659305.0,50354.0,0.26436157411169997,0.13890841854626002,-0.1262679307677105,0.013346163659183485,0.006966767434075943,-0.006303079557570727,22.65930599195417
1617,D,267133300930963.0,5.1572113,2.756150069411765,7.217260926442577,87,1970-01-04 02:12:13.300930963,0.4880371,0.2637329,-0.33787537,9.544152240982484,0.6495344634208849,-36.1076545715332,46.90346145629883,-107.2004165649414,22709659.0,50354.0,0.2619355360156,0.13916081797126,-0.12872086041751052,0.013250582341675032,0.007000949167801602,-0.006419852795670309,22.709659995976835
1617,D,267133351284967.0,5.043167,2.793274569411765,7.128729626442577,87,1970-01-04 02:12:13.351284967,0.53862,0.28755188,-0.37002563,9.529734036626902,0.7139443640427672,-36.212039947509766,46.885005950927734,-107.31230163574219,22760014.0,50355.0,0.25682002464825,0.13972063884397942,-0.13228282285473406,0.013060968128614082,0.0070215378789656915,-0.006571420235586937,22.7600139999995
1617,D,267133401638971.0,5.0962067,2.859299369411765,7.106909626442577,87,1970-01-04 02:12:13.401638971,0.57237244,0.28829956,-0.39697266,9.544274100947824,0.7538661281389573,-36.294517517089844,46.86799240112305,-107.41015625,22810368.0,50354.0,0.2552790116449,0.14231485405776004,-0.13505851053011053,0.012893117436752638,0.007100807604787095,-0.006730852750630232,22.81036800396396
1617,D,267133451992975.0,5.1269073,2.9161840694117647,7.099005326442577,87,1970-01-04 02:12:13.451992975,0.5932007,0.2962799,-0.4169464,9.541492881143505,0.7832708025309382,-36.36090850830078,46.85283279418945,-107.49774169921875,22860722.0,50354.0,0.257387341178,0.14540934653926002,-0.13580687923121051,0.012907400765022156,0.007244032198431175,-0.0068195779180207795,22.860722007986624
1617,D,267133502346979.0,5.171509,3.0089730694117653,7.032965326442577,87,1970-01-04 02:12:13.502346979,0.6198883,0.31500244,-0.43043518,9.573494581394868,0.8177789957344686,-36.40306854248047,46.847225189208984,-107.5693359375,22911076.0,50354.0,0.2592832271851,0.14917768128416004,-0.13766857487231052,0.013008214899677769,0.007416817599510247,-0.006885291507964349,22.91107601195108
1617,D,267133552700983.0,5.0862885,3.0882117694117652,6.999991026442577,87,1970-01-04 02:12:13.552700983,0.632782,0.3278656,-0.44198608,9.51841694960175,0.8386063475201737,-36.441810607910156,46.85797882080078,-107.63951110839844,22961430.0,50354.0,0.25826056765750005,0.15350882268706004,-0.14016145790341053,0.013030200122752142,0.007620738110483409,-0.006994926735194329,22.961430015973747
1617,D,267133603054987.0,5.0052643,3.151505169411765,6.961294626442577,87,1970-01-04 02:12:13.603054987,0.6377716,0.32667542,-0.45291138,9.477610481784716,0.8477016939538583,-36.47935485839844,46.883426666259766,-107.70926666259766,23011784.0,50354.0,0.2540750248456,0.15709735336876005,-0.14196591111731055,0.012899073212450552,0.007820131694557383,-0.007103120769834696,23.011784019996412
1617,D,267133653408991.0,5.1398773,3.222656969411765,6.994955626442577,87,1970-01-04 02:12:13.653408991,0.6405792,0.32192993,-0.46218872,9.495581895417622,0.852994140775705,-36.48573684692383,46.896968841552734,-107.75654602050781,23062138.0,50354.0,0.25542423006320003,0.16048228016916002,-0.14209268738311054,0.012827662740838857,0.007995702433584214,-0.007151743334445102,23.06213802396087
1617,D,267133703762995.0,5.167099,3.254929269411765,6.997931126442577,87,1970-01-04 02:12:13.703762995,0.65693665,0.3236084,-0.47592163,9.495142558718005,0.8733782436983643,-36.482521057128906,46.909244537353516,-107.79783630371094,23112492.0,50354.0,0.2594987423051,0.16308618873486003,-0.14117029022261052,0.01296421567531669,0.008146483341596513,-0.007131711987179239,23.112492027983535
1617,D,267133754116999.0,5.1427307,3.260834369411765,6.958441326442577,87,1970-01-04 02:12:13.754116999,0.6484833,0.32336426,-0.48020935,9.508698401260936,0.8693078021343533,-36.48213195800781,46.927650451660156,-107.84098052978516,23162846.0,50354.0,0.25957058235690006,0.16404738113466005,-0.14208961075371054,0.013068608387015176,0.008236241888604907,-0.007131634526880835,23.1628460320062
1617,D,267133804471002.0,5.1137543,3.376908069411765,6.915060626442577,87,1970-01-04 02:12:13.804471002,0.6335144,0.3108673,-0.46672058,9.479416707862434,0.8460538239451355,-36.4647102355957,46.960227966308594,-107.87051391601562,23213200.0,50354.0,0.25822752284500006,0.16711844138226,-0.14417604133221051,0.013036602894668238,0.008337761913508497,-0.007207310322567234,23.213200034981128
1617,D,267133854825006.0,5.2305145,3.470246069411765,6.889258026442577,87,1970-01-04 02:12:13.854825006,0.6286011,0.32476807,-0.46064758,9.526396869503476,0.8442806613754642,-36.416385650634766,46.990989685058594,-107.87738037109375,23263554.0,50354.0,0.2604376555776,0.17239079975316002,-0.1459178692763105,0.013058433197145803,0.008547824164066471,-0.007303694387390734,23.263554039003793
1617,D,267133905179010.0,5.2283325,3.456284269411765,6.850500626442577,87,1970-01-04 02:12:13.905179010,0.6696625,0.35749817,-0.45072937,9.559399839411618,0.8828418717076099,-36.37073516845703,47.02574920654297,-107.8880844116211,23313908.0,50354.0,0.263322390919,0.17438925434056005,-0.14754329639631053,0.0131867066906449,0.00873088142191759,-0.00738847176813958,23.31390804296825
1617,D,267133955533014.0,5.199707,3.608139669411765,6.765509226442577,87,1970-01-04 02:12:13.955533014,0.7386322,0.2942047,-0.4230957,9.551444903257963,0.9006352778663624,-36.29631423950195,47.07904052734375,-107.87818908691406,23364262.0,50354.0,0.2625467504915,0.17786100150776005,-0.1506589199339105,0.013239807373292159,0.008868604691493155,-0.0075078372005459755,23.364262046990916
1617,D,267134005887018.0,5.2121277,3.680268069411765,6.703695926442577,87,1970-01-04 02:12:14.005887018,0.6947937,0.22270203,-0.40457153,9.57926370106965,0.8342736976630342,-36.20855712890625,47.13836669921875,-107.85491943359375,23414616.0,50354.0,0.2621387622419,0.18350024164036002,-0.15435502186581052,0.013210007154088814,0.00909799201874022,-0.007679336012691576,23.414616050955374
1617,D,267134056241022.0,5.223816,3.680573069411765,6.682791326442577,87,1970-01-04 02:12:14.056241022,0.5566406,0.21211243,-0.37446594,9.601422669582684,0.7036086843899445,-36.12672805786133,47.19761276245117,-107.82984924316406,23464970.0,50354.0,0.2627457545349,0.18532389735216004,-0.15643761043411053,0.013215017478889495,0.00928588534741468,-0.007824826103415113,23.46497005497804
1617,D,267134106595026.0,5.27565,3.7624670694117652,6.682562626442577,87,1970-01-04 02:12:14.106595026,0.43481445,0.18086243,-0.32321167,9.60137632293152,0.5711747614684111,-36.028419494628906,47.25632095336914,-107.7861328125,23515324.0,50354.0,0.264345055482,0.18739342157516004,-0.15696968352821053,0.013270565323795494,0.009383903938633137,-0.007890655440089357,23.515324059000704
1617,D,267134156949030.0,5.2973175,3.782913869411765,6.715460626442577,87,1970-01-04 02:12:14.156949030,0.34020996,0.15779114,-0.27290344,9.581278045553093,0.46380723184264255,-35.927547454833984,47.31025314331055,-107.73515319824219,23565678.0,50354.0,0.26619560274750004,0.18997005589676005,-0.15614716856211053,0.013357422152244123,0.009500880272310533,-0.007883342985078014,23.565678062965162
1617,D,267134207303034.0,5.338562,3.804947569411765,6.773626926442577,87,1970-01-04 02:12:14.207303034,0.27653503,0.13555908,-0.22125244,9.55260108116387,0.37921040227491243,-35.81963348388672,47.35536575317383,-107.67472076416016,23616032.0,50354.0,0.2677795381715,0.19103958744526003,-0.1538544426810105,0.013443892122917666,0.00959267979042204,-0.0078049105662680585,23.616032066987827
1617,D,267134257657038.0,5.302887,3.774460469411765,6.720343226442577,87,1970-01-04 02:12:14.257657038,0.22920227,0.13174438,-0.16841125,9.583556297077893,0.3134527258795173,-35.72457504272461,47.40715026855469,-107.62043762207031,23666386.0,50354.0,0.267919761473,0.19082675619346004,-0.15373151346081051,0.013487301267149579,0.009614248933792056,-0.007744091617782629,23.666386070952285
1617,D,267134308011042.0,5.3007813,3.798844069411765,6.742697326442577,87,1970-01-04 02:12:14.308011042,0.17948914,0.11254883,-0.12084961,9.557067474013426,0.24390206794830707,-35.62712478637695,47.45781707763672,-107.56080627441406,23716740.0,50354.0,0.2669685567891,0.19067308837396002,-0.15451022800001052,0.013466883188884893,0.009605021586673935,-0.007760602324759092,23.71674007497495
1617,D,267134358365045.0,5.303879,3.856537569411765,6.747549626442577,87,1970-01-04 02:12:14.358365045,0.12895203,0.08178711,-0.07839966,9.535509165892153,0.17165157759656216,-35.520572662353516,47.51019287109375,-107.49079132080078,23767094.0,50354.0,0.2669935323731,0.19273954352066003,-0.15382525246721052,0.013443563518836708,0.009653179833210849,-0.007762962391723224,23.767094078008085
1617,D,267134408719049.0,5.324173,3.891602269411765,6.672323626442577,87,1970-01-04 02:12:14.408719049,0.08248901,0.049331665,-0.044204712,9.59233725698288,0.10579275261309382,-35.40791702270508,47.56853485107422,-107.41290283203125,23817448.0,50354.0,0.26758246520400003,0.19507491672206,-0.1555970511121105,0.013459019890998649,0.009764004665530963,-0.007790325337216565,23.817448081972543
1617,D,267134459073053.0,5.3569336,3.872345669411765,6.704580926442577,87,1970-01-04 02:12:14.459073053,0.032562256,0.014541626,-0.009414673,9.592419842081956,0.03688353928557211,-35.29698181152344,47.61750793457031,-107.3327407836914,23867802.0,50354.0,0.2689182208682,0.19547291725576002,-0.1566788740720105,0.013507477773239782,0.009832822816059576,-0.007862170968360616,23.86780208599521
1617,D,267134509427057.0,5.302307,3.847718069411765,6.708593926442577,87,1970-01-04 02:12:14.509427057,-0.011688232,-0.0036010742,0.029312134,9.567229988802772,0.03176135548608852,-35.199710845947266,47.668609619140625,-107.25955200195312,23918156.0,50354.0,0.2683677005862,0.19436804475236003,-0.15576569672891052,0.01352724764445743,0.009815025900478438,-0.00786641695905479,23.918156089959666
1617,D,267134559781061.0,5.2995453,3.836441669411765,6.722448926442577,87,1970-01-04 02:12:14.559781061,-0.054229736,-0.034103394,0.0655365,9.558964822716879,0.09164572320189814,-35.10654067993164,47.716331481933594,-107.18616485595703,23968510.0,50354.0,0.26692283535710004,0.19346408974436002,-0.15531583409291053,0.013477009823444465,0.009764449650223921,-0.00783209970150099,23.96851009398233
1617,D,267134610135065.0,5.3304596,3.844635669411765,6.773718626442577,87,1970-01-04 02:12:14.610135065,-0.10708618,-0.055892944,0.103500366,9.534506617695985,0.15907167220505822,-35.01008224487305,47.755619049072266,-107.10688781738281,24018864.0,50354.0,0.2676316333673,0.19338648415956,-0.15367618952101053,0.013458477859074221,0.009739736899178996,-0.007779492178527692,24.018864098004997
1617,D,267134660489069.0,5.326889,3.841812769411765,6.778479226442577,87,1970-01-04 02:12:14.660489069,-0.15109253,-0.06947327,0.14120483,9.529862917607769,0.21816116034166738,-34.916900634765625,47.794063568115234,-107.02706909179688,24069218.0,50354.0,0.2683200657022,0.19352171234426002,-0.15226551465791055,0.013493655927472804,0.009741187663376677,-0.007702694286112696,24.069218101969454
1617,D,267134710843073.0,5.3530426,3.8083502694117652,6.786322226442577,87,1970-01-04 02:12:14.710843073,-0.18411255,-0.0816803,0.16636658,9.549958461512215,0.26124115567132394,-34.82899856567383,47.826290130615234,-106.94895935058594,24119572.0,50354.0,0.2688886378932,0.19260815482846003,-0.15194819382071054,0.013525303530421388,0.009721591665807572,-0.007659188538366243,24.11957210599212
1617,D,267134761197077.0,5.3313904,3.7892310694117652,6.770636226442577,87,1970-01-04 02:12:14.761197077,-0.21777344,-0.09399414,0.18663025,9.556240224920883,0.3018128886227951,-34.74987030029297,47.86003112792969,-106.87528228759766,24169926.0,50354.0,0.26900196964100004,0.19128430536756005,-0.1521456570317105,0.013542471825888556,0.009665260470355198,-0.007656170882911405,24.169926109956577
1617,D,267134811551081.0,5.33902,3.775345569411765,6.809973326442577,87,1970-01-04 02:12:14.811551081,-0.24571228,-0.10774231,0.20870972,9.5356140668212,0.3399156912080007,-34.67400360107422,47.88746643066406,-106.8021011352539,24220280.0,50354.0,0.26864892264080004,0.19045334603566003,-0.1515501932870105,0.013536436514978881,0.009611008849378872,-0.00764615042347444,24.220280113979243
1617,D,267134861905084.0,5.382019,3.751663869411765,6.814566226442577,87,1970-01-04 02:12:14.861905084,-0.27368164,-0.118011475,0.22537231,9.564496860421995,0.3736589707467242,-34.59937286376953,47.908233642578125,-106.72811126708984,24270634.0,50354.0,0.269923598903,0.18950751664126003,-0.15044416767701052,0.013559640374908253,0.009566274639616817,-0.007603312025991157,24.27063411695417
1617,D,267134912259088.0,5.305298,3.754486769411765,6.776663626442577,87,1970-01-04 02:12:14.912259088,-0.2959137,-0.13053894,0.23942566,9.549155931140662,0.40240524272236966,-34.53572082519531,47.93935775756836,-106.66079711914062,24320988.0,50354.0,0.26907458010900004,0.18898235463366003,-0.15128280599391053,0.013570357152985124,0.009529239489088664,-0.00759658001611278,24.320988120976835
1617,D,267134962613092.0,5.304718,3.754898769411765,6.786017026442577,87,1970-01-04 02:12:14.962613092,-0.31304932,-0.15254211,0.24641418,9.54162583306447,0.4266015942079764,-34.473358154296875,47.968109130859375,-106.59317779541016,24371342.0,50354.0,0.267128372832,0.18906379971096002,-0.15200158920231052,0.01349998174619556,0.0095180680279345,-0.007635791217855258,24.3713421249995
1617,D,267135012967096.0,5.3612823,3.728562069411765,6.829291026442577,87,1970-01-04 02:12:15.012967096,-0.33973694,-0.17018127,0.26039124,9.549845651313746,0.46063700559997794,-34.410362243652344,47.984519958496094,-106.52332305908203,24421696.0,50354.0,0.26853788955310004,0.18841109353906002,-0.15067658915251053,0.013486469488069665,0.009503685387355755,-0.007620528496439329,24.42169612896396
1617,D,267135063321100.0,5.324234,3.716629669411765,6.846594626442577,87,1970-01-04 02:12:15.063321100,-0.35624695,-0.16973877,0.27539063,9.520294773736639,0.48121007732300486,-34.355796813964844,48.00190353393555,-106.45874786376953,24472050.0,50354.0,0.2690292438851,0.18744759240836,-0.1491514269173105,0.013534327718573564,0.009462994136098194,-0.007548769960589884,24.472050132986624
1617,D,267135113675104.0,5.3183746,3.6251837694117652,6.873495626442577,87,1970-01-04 02:12:15.113675104,-0.37753296,-0.17990112,0.2833557,9.529516437147944,0.5051593823597716,-34.3206901550293,48.010684967041016,-106.40740966796875,24522404.0,50354.0,0.2679489567222,0.18484483694926004,-0.1480384877031105,0.013519500156689995,0.009373206493936801,-0.00748235048039834,24.52240413695108
1617,D,267135164029108.0,5.3399353,3.598419869411765,6.851599326442577,87,1970-01-04 02:12:15.164029108,-0.3859558,-0.19187927,0.28825378,9.567589794709459,0.5185265427089161,-34.28862380981445,48.017356872558594,-106.35763549804688,24572758.0,50354.0,0.26834426835229996,0.18186866881466002,-0.14791248437121052,0.013502254527700685,0.009232745934618215,-0.007451157623915181,24.572758140973747
1617,D,267135214383112.0,5.3393707,3.632935269411765,6.886877626442577,87,1970-01-04 02:12:15.214383112,-0.3917389,-0.21028137,0.2832489,9.528472794159699,0.5271693842528196,-34.25083923339844,48.02165603637695,-106.30320739746094,24623112.0,50354.0,0.26887288716200003,0.18206382833016002,-0.1475755657572105,0.01352551632438353,0.009162728480615135,-0.007439502638083257,24.623112144996412
1617,D,267135264737116.0,5.3378906,3.621140169411765,6.933813626442577,87,1970-01-04 02:12:15.264737116,-0.39979553,-0.22961426,0.28085327,9.496975207084116,0.5398497323080019,-34.21615219116211,48.01961898803711,-106.2504653930664,24673466.0,50354.0,0.2688214077501,0.18263585732326004,-0.14550565632611054,0.013537529263001941,0.009182043985696157,-0.007378905928391775,24.67346614896087
1617,D,267135315091120.0,5.377182,3.560593369411765,6.976797626442577,87,1970-01-04 02:12:15.315091120,-0.4165802,-0.23634338,0.28944397,9.509470012582556,0.5596204678808891,-34.188941955566406,48.00580978393555,-106.20230865478516,24723820.0,50354.0,0.26977338285019997,0.18081450530696003,-0.14324174048611052,0.013560201042943752,0.009150589779941052,-0.00726979320954129,24.723820152983535
1617,D,267135365445124.0,5.3514404,3.498841069411765,6.985876626442577,87,1970-01-04 02:12:15.365445124,-0.4233551,-0.22970581,0.30030823,9.511247224334051,0.5676084326800466,-34.17721939086914,47.99048614501953,-106.16524505615234,24774174.0,50354.0,0.27011452616480003,0.17773538086626003,-0.14193095033511052,0.013592757885270654,0.009027210484183161,-0.007179792836805882,24.7741741570062
1617,D,267135415799127.0,5.326477,3.433731769411765,6.926413126442577,87,1970-01-04 02:12:15.415799127,-0.43606567,-0.24409485,0.31311035,9.565729912581796,0.5897233721213649,-34.18067169189453,47.979591369628906,-106.13835144042969,24824528.0,50354.0,0.26883792637980003,0.17454138636306002,-0.14319948089161053,0.013569205897715398,0.008869272168532592,-0.007178728866995156,24.824528159981128
1617,D,267135466153131.0,5.296112,3.419266469411765,6.934897026442577,87,1970-01-04 02:12:15.466153131,-0.4255829,-0.25180054,0.32450867,9.548101784800606,0.5914644483161017,-34.189266204833984,47.970001220703125,-106.1152114868164,24874882.0,50354.0,0.267444923253,0.17253793665886,-0.14448299428081052,0.013501993305205007,0.008738416115722882,-0.007242981677416046,24.874882164003793
1617,D,267135516507135.0,5.3050995,3.485749069411765,6.906897226442577,87,1970-01-04 02:12:15.516507135,-0.4600067,-0.27571106,0.33320618,9.548635051387302,0.631386657319749,-34.184757232666016,47.966033935546875,-106.08036804199219,24925236.0,50354.0,0.26690670193550003,0.17384757622096003,-0.1449743460951105,0.013453370867370867,0.008720948057775228,-0.0072876674586445644,24.92523616796825
1617,D,267135566861139.0,5.373001,3.440521869411765,6.935965126442577,87,1970-01-04 02:12:15.566861139,-0.4887085,-0.30264282,0.33773804,9.582106431677248,0.6667050758265187,-34.18062973022461,47.94923400878906,-106.04411315917969,24975590.0,50354.0,0.2688425362885,0.17438272342676,-0.1449474545414105,0.013488558570765651,0.008767394254230646,-0.00729936117462569,24.975590171990916
1617,D,267135617215143.0,5.335663,3.3460090694117652,7.012213326442577,87,1970-01-04 02:12:15.617215143,-0.50497437,-0.28115845,0.3557434,9.541587442537226,0.6786770623845036,-34.199459075927734,47.92403030395508,-106.02418518066406,25025944.0,50354.0,0.269612033528,0.17086448944676003,-0.14229591109171053,0.01355667070427002,0.008692289078516614,-0.007231926216545089,25.025944175955374
1617,D,267135667569147.0,5.27124,3.341492369411765,7.083502626442577,87,1970-01-04 02:12:15.667569147,-0.5290222,-0.3141632,0.36050415,9.455277907098358,0.7131102625080518,-34.22698974609375,47.896507263183594,-106.00907897949219,25076298.0,50354.0,0.267049996831,0.16837122372526,-0.13858135945421052,0.013511539938348542,0.00854093755053195,-0.007071647040534654,25.07629817997804
1617,D,267135717923151.0,5.3021545,3.221497269411765,7.064093226442577,87,1970-01-04 02:12:15.717923151,-0.5488434,-0.31600952,0.36973572,9.534511233447379,0.7333454827692802,-34.272438049316406,47.86164093017578,-106.00623321533203,25126652.0,50354.0,0.2662063533265,0.16523639013666003,-0.13727517921191051,0.01342579512791538,0.008399238894201562,-0.006945240073996929,25.126652184000704
1617,D,267135768277155.0,5.2503815,3.249436069411765,7.082739626442577,87,1970-01-04 02:12:15.768277155,-0.55615234,-0.2936554,0.37034607,9.480945102197051,0.7298596651419234,-34.31935501098633,47.83305358886719,-106.00456237792969,25177006.0,50354.0,0.26568119887200004,0.16291868867156,-0.13729438926291052,0.013391332901701636,0.008261960419154557,-0.00691283802549057,25.177006187965162
1617,D,267135818631159.0,5.3884125,3.190979669411765,7.159918626442577,87,1970-01-04 02:12:15.818631159,-0.56552124,-0.296463,0.35830688,9.5260967543481,0.7321805812198737,-34.35919189453125,47.78071975708008,-105.9975814819336,25227360.0,50354.0,0.26785291653800003,0.16215034705636003,-0.13488179316711052,0.013432788423677573,0.008184263112521843,-0.00685257974504064,25.227360191987827
1617,D,267135868985163.0,5.3247223,3.162903469411765,7.204428326442577,87,1970-01-04 02:12:15.868985163,-0.5502777,-0.29769897,0.3555603,9.46977779984488,0.7196202823659439,-34.41083526611328,47.72883987426758,-105.99992370605469,25277714.0,50354.0,0.26972459485960004,0.15997171578616004,-0.13181803676721052,0.013534589004457377,0.008110067176186129,-0.006714701618256402,25.277714195952285
1617,D,267135919339167.0,5.417404,3.0271920694117647,7.226400926442577,87,1970-01-04 02:12:15.919339167,-0.53215027,-0.28198242,0.34591675,9.56313042156737,0.6945188211853527,-34.47392654418945,47.659912109375,-106.01192474365234,25328068.0,50354.0,0.27045451385510005,0.15584803538096,-0.13014421190011052,0.013600089420110005,0.00795139387513458,-0.006595423534697142,25.32806819997495
1617,D,267135969693170.0,5.3688507,3.003662769411765,7.300497626442577,87,1970-01-04 02:12:15.969693170,-0.5136719,-0.27319336,0.33615112,9.493344230401412,0.6719308061660471,-34.54605484008789,47.58776092529297,-106.03169250488281,25378422.0,50354.0,0.2715655345819,0.15183883227706002,-0.12772547513401053,0.013646438759498353,0.00774663226702597,-0.006492385110458066,25.378422203008085
1617,D,267136020047174.0,5.374237,2.910340069411765,7.319052326442577,87,1970-01-04 02:12:16.020047174,-0.47061157,-0.26142883,0.32089233,9.523718303574539,0.6267313383148019,-34.63135528564453,47.5093879699707,-106.06333923339844,25428776.0,50354.0,0.27047871902290005,0.14889684947306,-0.12539279083621052,0.01364704817300805,0.0075716222594227715,-0.006372758582332255,25.428776206972543
1617,D,267136070401178.0,5.4153748,2.8655096694117654,7.289496026442577,87,1970-01-04 02:12:16.070401178,-0.44065857,-0.25915527,0.29830933,9.587247834776619,0.5918867169047356,-34.71638870239258,47.42934799194336,-106.09648895263672,25479130.0,50354.0,0.2716500562886,0.14541856887436003,-0.12566977811941052,0.013649176176017637,0.007409979287732994,-0.006321002298595672,25.47913021099521
1617,D,267136120755182.0,5.379654,2.850525569411765,7.323889326442577,87,1970-01-04 02:12:16.120755182,-0.38648987,-0.25209045,0.28015137,9.549667658374334,0.5398229382924519,-34.80498123168945,47.34954833984375,-106.13481903076172,25529484.0,50354.0,0.27178644009760006,0.14391261920786003,-0.12554799697041052,0.013682100669515359,0.007284491322346054,-0.006324909923436424,25.529484214959666
1617,D,267136171109186.0,5.397278,2.7618720694117647,7.359228626442577,87,1970-01-04 02:12:16.171109186,-0.36553955,-0.23843384,0.25502014,9.574556723654261,0.5054751531746814,-34.905242919921875,47.260990142822266,-106.18336486816406,25579838.0,50354.0,0.271330816964,0.14130333535266001,-0.12379233930021052,0.013674063181039905,0.007180882087970214,-0.006277641646285427,25.57983821898233
1617,D,267136221463190.0,5.363144,2.770508469411765,7.408514626442577,87,1970-01-04 02:12:16.221463190,-0.34022522,-0.22982788,0.24124146,9.517311642635413,0.4762053094750986,-35.005672454833984,47.17262268066406,-106.2333984375,25630192.0,50354.0,0.270915144694,0.13928874482596001,-0.12166172812211053,0.013652126576663466,0.007064466802657117,-0.006179797055491778,25.630192223004997
1617,D,267136271817194.0,5.3386993,2.7125098694117646,7.318731926442577,87,1970-01-04 02:12:16.271817194,-0.32844543,-0.21318054,0.24388123,9.592172520440268,0.46130293459817634,-35.11590576171875,47.09549331665039,-106.29120635986328,25680546.0,50354.0,0.2694403087641,0.13804595271656,-0.12268131353801051,0.013604529251714587,0.006982455680028028,-0.006151824759876868,25.680546226969454
1617,D,267136322171198.0,5.316162,2.736359269411765,7.399817126442577,87,1970-01-04 02:12:16.322171198,-0.3369751,-0.20843506,0.23458862,9.51245957862418,0.460466299408239,-35.223548889160156,47.014747619628906,-106.34705352783203,25730900.0,50354.0,0.2682574429501,0.13718617830816002,-0.12290029049551052,0.013537616294908416,0.006929519362809376,-0.006183008044751959,25.73090023099212
1617,D,267136372525202.0,5.428009,2.6819160694117654,7.487936626442577,87,1970-01-04 02:12:16.372525202,-0.31002808,-0.19392395,0.21522522,9.539894350587222,0.42431804592326416,-35.323448181152344,46.913700103759766,-106.39892578125,25781254.0,50354.0,0.27050599326700003,0.13641591820556004,-0.11864022376361051,0.01356444703363793,0.00688847998392593,-0.006081265527501891,25.781254234956577
1617,D,267136422879206.0,5.5048065,2.625824669411765,7.466116626442577,87,1970-01-04 02:12:16.422879206,-0.28068542,-0.15681458,0.19622803,9.624390653629996,0.37667035622521944,-35.420494079589844,46.808815002441406,-106.450927734375,25831608.0,50354.0,0.2752554958435,0.13363298858136002,-0.1169710012521105,0.01374063701133506,0.006799021326174287,-0.005931983812220808,25.831608238979243
1617,D,267136473233209.0,5.3713684,2.5983130694117653,7.561697626442577,87,1970-01-04 02:12:16.473233209,-0.26428223,-0.11935425,0.17741394,9.496563663328097,0.33995034959999526,-35.539154052734375,46.70640182495117,-106.5204086303711,25881962.0,50354.0,0.2738294554573,0.13152811585036003,-0.11511392055511052,0.013824311818900243,0.006675961126277416,-0.005843202076340404,25.88196224195417
1617,D,267136523587213.0,5.386505,2.501618069411765,7.531790326442577,87,1970-01-04 02:12:16.523587213,-0.20649719,-0.08979797,0.1414032,9.571163694351167,0.26589401998589024,-35.668373107910156,46.60297775268555,-106.60112762451172,25932316.0,50354.0,0.2708509785918,0.12840096628216002,-0.11346045381021053,0.013713419288054193,0.006544234500850459,-0.005754817023395689,25.932316245976835
1617,D,267136573941217.0,5.3776093,2.5275885694117655,7.578192326442577,87,1970-01-04 02:12:16.573941217,-0.16778564,-0.03956604,0.111587524,9.52247414446878,0.2053515717591219,-35.79197692871094,46.50031280517578,-106.68085479736328,25982670.0,50354.0,0.2710081057311,0.12662033554566002,-0.11304516674831053,0.013642386165997656,0.006420671316119025,-0.005702732008801885,25.9826702499995
1617,D,267136624295221.0,5.3932037,2.5692297694117654,7.652060126442577,87,1970-01-04 02:12:16.624295221,-0.10447693,-0.02381897,0.057724,9.461868438972614,0.12171619616996662,-35.903018951416016,46.392086029052734,-106.75544738769531,26033024.0,50354.0,0.271176758901,0.12832259531656004,-0.11001713399371053,0.013650588336842384,0.006418698170318115,-0.005616039545781864,26.03302425396396
1617,D,267136674649225.0,5.467911,2.4702000694117654,7.615347626442577,87,1970-01-04 02:12:16.674649225,-0.027236938,0.012863159,0.013870239,9.576345656833665,0.03316165226571568,-36.016632080078125,46.27888488769531,-106.83653259277344,26083378.0,50354.0,0.27345028480190003,0.12687772505206005,-0.10908167500561053,0.013712075079307915,0.0064251784659207474,-0.005516250714175906,26.083378257986624
1617,D,267136725003229.0,5.366089,2.464615569411765,7.641317926442577,87,1970-01-04 02:12:16.725003229,0.055358887,0.05369568,-0.037643433,9.50390359033675,0.08581876524727362,-36.141109466552734,46.173553466796875,-106.93055725097656,26133732.0,50354.0,0.272767618,0.12424385333866003,-0.10935213137501053,0.013752128138843439,0.00632248797914316,-0.005499507943244896,26.13373226195108
1617,D,267136775357233.0,5.316025,2.4588324694117647,7.502691626442577,87,1970-01-04 02:12:16.775357233,0.13980103,0.0778656,-0.08300781,9.571958000625305,0.18027111852267683,-36.26701354980469,46.089439392089844,-107.0302734375,26184086.0,50354.0,0.26894358417799996,0.12395765127346002,-0.11218847148701051,0.013638662937235506,0.006248969281619347,-0.005577727758257104,26.184086265973747
1617,D,267136825711237.0,5.319336,2.517136069411765,7.459890926442577,87,1970-01-04 02:12:16.825711237,0.18312073,0.121902466,-0.11062622,9.574994670757436,0.24623479348804966,-36.3791618347168,46.01613998413086,-107.12321472167969,26234440.0,50354.0,0.26776648389700003,0.12527995990196,-0.11675625906601052,0.013512749383924275,0.00627505533656355,-0.00576414148113341,26.234440269996412
1617,D,267136876065241.0,5.2665253,2.5804600694117648,7.449530226442577,87,1970-01-04 02:12:16.876065241,0.22325134,0.13725281,-0.14916992,9.522830445164276,0.3015479393023572,-36.484657287597656,45.953365325927734,-107.214111328125,26284794.0,50354.0,0.2665202299501,0.12834217798716002,-0.11809470363381053,0.013451736594528437,0.006385444565634375,-0.005912842687893395,26.28479427396087
1617,D,267136926419245.0,5.175293,2.5792548694117654,7.451941126442577,87,1970-01-04 02:12:16.926419245,0.24331665,0.16192627,-0.18008423,9.471586777131394,0.3432978866495224,-36.60087203979492,45.899417877197266,-107.31472778320312,26335148.0,50354.0,0.2628936593391,0.12990614301476003,-0.11829485574841052,0.013329053490634188,0.006501917977865342,-0.00595157993656618,26.335148277983535
1617,D,267136976773249.0,5.2515564,2.6214453694117648,7.408590926442577,87,1970-01-04 02:12:16.976773249,0.25743103,0.19873047,-0.2035675,9.523539107680314,0.383672076087812,-36.697593688964844,45.84839630126953,-107.40320587158203,26385502.0,50354.0,0.2625167873438,0.13093802991286002,-0.11932558450451052,0.013228258816135376,0.006567273741798691,-0.005982569824247793,26.3855022820062
1617,D,267137027127252.0,5.2662964,2.573227569411765,7.429419126442577,87,1970-01-04 02:12:17.027127252,0.28295898,0.22564697,-0.23127747,9.539937160055063,0.4295015803957212,-36.798667907714844,45.792335510253906,-107.49700164794922,26435856.0,50354.0,0.2648079799456,0.13078628058076003,-0.11989262089851052,0.013276455666045225,0.006589432965297872,-0.006022796757431861,26.435856284981128
1617,D,267137077481256.0,5.3519745,2.5882727694117653,7.424246626442577,87,1970-01-04 02:12:17.077481256,0.3278656,0.24784851,-0.26271057,9.583995690903796,0.48779255751016226,-36.88269805908203,45.73191833496094,-107.58145141601562,26486210.0,50354.0,0.2673362064493,0.12995109403056004,-0.11949845733961052,0.0133977941808644,0.006564584880589206,-0.006027149176801174,26.486210289003793
1617,D,267137127835260.0,5.225281,2.629776669411765,7.404562626442577,87,1970-01-04 02:12:17.127835260,0.39082336,0.26367188,-0.29689026,9.507970597994799,0.5571441335124078,-36.97305679321289,45.68773651123047,-107.67393493652344,26536564.0,50354.0,0.2663035617235,0.13137483072126002,-0.12012426944011051,0.013435448443286587,0.006579402807476573,-0.006032981392133037,26.53656429296825
1617,D,267137178189264.0,5.230301,2.6716772694117648,7.349157926442577,87,1970-01-04 02:12:17.178189264,0.46305847,0.27217102,-0.34129333,9.529771764687617,0.6363814484010908,-37.05144500732422,45.65178298950195,-107.76182556152344,26586918.0,50354.0,0.263240188014,0.13347470581776,-0.12201477764001052,0.013332322987141038,0.006668116781442907,-0.006096334788336207,26.586918296990916
1617,D,267137228543268.0,5.2518463,2.684403069411765,7.314108626442577,87,1970-01-04 02:12:17.228543268,0.52153015,0.28170776,-0.3744049,9.560199669378129,0.7010934235515621,-37.12124252319336,45.618770599365234,-107.84674072265625,26637272.0,50354.0,0.2639090225721,0.13485003469056,-0.12429213799801053,0.01327203567492624,0.006755611991777973,-0.006201269215018456,26.637272300955374
1617,D,267137278897272.0,5.188339,2.7273870694117655,7.255621626442577,87,1970-01-04 02:12:17.278897272,0.5500946,0.29403687,-0.39640808,9.546918300105746,0.7390542035316782,-37.19004821777344,45.60065841674805,-107.93283081054688,26687626.0,50354.0,0.2628525452981,0.13625264032516002,-0.12664710142311053,0.013262275994268026,0.0068255520488707845,-0.006317897230905566,26.68762630497804
1617,D,267137329251276.0,5.2459564,2.757721669411765,7.186819626442577,87,1970-01-04 02:12:17.329251276,0.57424927,0.29969788,-0.4061737,9.61321198481275,0.7645640051321521,-37.24340057373047,45.587223052978516,-108.00911712646484,26737980.0,50354.0,0.2627042552858,0.13809858271736003,-0.12985185657611054,0.01323194356830085,0.006907340742541527,-0.006457874265546389,26.737980309000704
1617,D,267137379605280.0,5.1792145,2.8810430694117652,7.146261626442577,87,1970-01-04 02:12:17.379605280,0.5740051,0.31025696,-0.40248108,9.551084010579283,0.7666369778535458,-37.2835693359375,45.592472076416016,-108.07609558105469,26788334.0,50354.0,0.2624745277493,0.14196717982936002,-0.13260521329611052,0.013222426220474714,0.007051215703638771,-0.00660788164817291,26.788334312965162
1617,D,267137429959284.0,5.1714478,2.9553380694117655,7.150030626442577,87,1970-01-04 02:12:17.429959284,0.5639496,0.31274414,-0.40423584,9.51179778686016,0.7610878154227706,-37.31187438964844,45.60273742675781,-108.13433074951172,26838688.0,50354.0,0.2605986247271,0.14694256793216004,-0.13353144994911054,0.013169412759898325,0.007273880719391791,-0.006700522770524931,26.838688316987827
1617,D,267137480313288.0,5.2965393,3.011200669411765,7.175497626442577,87,1970-01-04 02:12:17.480313288,0.5540314,0.30397034,-0.40252686,9.538310042489961,0.749250714252002,-37.31372833251953,45.602691650390625,-108.17310333251953,26889042.0,50354.0,0.26355251121670004,0.15021954582736002,-0.13279537517711051,0.013196553149657054,0.007481650538123437,-0.006705310476202869,26.889042320952285
1617,D,267137530667292.0,5.293274,3.037354069411765,7.179281626442577,87,1970-01-04 02:12:17.530667292,0.5753479,0.3000946,-0.40499878,9.522688092683493,0.7649222096298802,-37.3104248046875,45.6040153503418,-108.20892333984375,26939396.0,50354.0,0.2666197294541,0.15228446265936002,-0.13205892275011052,0.013348146503368734,0.007616143421670151,-0.006668236658913644,26.93939632497495
1617,D,267137581021295.0,5.2291718,3.103989369411765,7.126577926442577,87,1970-01-04 02:12:17.581021295,0.5742035,0.3009491,-0.4039154,9.497096922582827,0.7638243715411416,-37.30419158935547,45.62078094482422,-108.24260711669922,26989750.0,50354.0,0.2649236179066,0.15462060375926,-0.1332905740370105,0.013382666856500346,0.007726948857221597,-0.006680704280609347,26.989750328008085
1617,D,267137631375299.0,5.2284393,3.132172269411765,7.067267026442577,87,1970-01-04 02:12:17.631375299,0.54393005,0.30000305,-0.39239502,9.527970279894081,0.7347350413741714,-37.294437408447266,45.64551544189453,-108.2723388671875,27040104.0,50354.0,0.2632912746647,0.15700784158066003,-0.13611076562121052,0.01329886635026762,0.007845869368323167,-0.006782717528575031,27.040104331972543
1617,D,267137681729303.0,5.344269,3.122666069411765,7.078604326442577,87,1970-01-04 02:12:17.681729303,0.52871704,0.30203247,-0.39549255,9.587749853761178,0.7260714003637417,-37.27254867553711,45.65784454345703,-108.29298400878906,27090458.0,50354.0,0.2661890768691,0.15747806485656005,-0.1373185969484105,0.013330726810566483,0.00791781166636989,-0.006884131061415349,27.09045833599521
1617,D,267137732083307.0,5.337143,3.1977240694117652,7.103399826442577,87,1970-01-04 02:12:17.732083307,0.5345001,0.31936646,-0.40956116,9.535182732232217,0.7452688350209522,-37.2400016784668,45.6730842590332,-108.30696868896484,27140812.0,50354.0,0.268925909924,0.15912846252516002,-0.13640888144281052,0.01347259002248988,0.007971202539889567,-0.006891636723455772,27.140812339959666
1617,D,267137782437311.0,5.3219757,3.223664069411765,7.078955326442577,87,1970-01-04 02:12:17.782437311,0.5559387,0.3202362,-0.41838074,9.533894154126077,0.7659383170667711,-37.20510482788086,45.69326400756836,-108.3202896118164,27191166.0,50354.0,0.26836463150990003,0.16167128917116005,-0.13640004431581054,0.013527363961681301,0.008076775348458251,-0.0068685103238248025,27.19116634398233
1617,D,267137832791315.0,5.3751984,3.309769369411765,7.141333226442577,87,1970-01-04 02:12:17.832791315,0.57814026,0.30593872,-0.42530823,9.48425300285179,0.780212632000943,-37.14784240722656,45.70673370361328,-108.31829071044922,27241520.0,50354.0,0.2693227523157001,0.16449225368926002,-0.13544499510401053,0.013537355262577135,0.008211819518596796,-0.006844242557472836,27.241520348004997
1617,D,267137883145319.0,5.3257446,3.344635669411765,7.078268626442577,87,1970-01-04 02:12:17.883145319,0.62454224,0.30297852,-0.43385315,9.488349131913598,0.8185826463409364,-37.09040069580078,45.7326774597168,-108.31798553466797,27291874.0,50354.0,0.26941764191100004,0.16753795566246002,-0.13546228414991052,0.01356386690544563,0.008359524580848255,-0.00682063256977597,27.291874351969454
1617,D,267137933499323.0,5.230667,3.347489069411765,6.938833626442577,87,1970-01-04 02:12:17.933499323,0.5618744,0.29426575,-0.41078186,9.536825204892349,0.7556698415998101,-37.04838943481445,45.781131744384766,-108.32562255859375,27342228.0,50354.0,0.2657787748532,0.16848762454936003,-0.1405606165791105,0.013474640184872265,0.008460116032992994,-0.006949428571654563,27.34222835599212
1617,D,267137983853327.0,5.2753143,3.430756269411765,6.968481626442577,87,1970-01-04 02:12:17.983853327,0.4802704,0.24891663,-0.37141418,9.50735493501715,0.6561765302963748,-36.9881706237793,45.82636642456055,-108.31523132324219,27392582.0,50354.0,0.2645090911901,0.17065588289556002,-0.14332472387811054,0.013351057603372166,0.008538616086940752,-0.007147381216691454,27.392582359956577
1617,D,267138034207331.0,5.388153,3.4299933694117652,7.003958326442577,87,1970-01-04 02:12:18.034207331,0.47758484,0.2166748,-0.36024475,9.544715290167014,0.6362480084490859,-36.91379928588867,45.855857849121094,-108.2935562133789,27442936.0,50354.0,0.26847411621210004,0.17273309365666004,-0.14168507930621052,0.013418918212765191,0.008645504262655245,-0.007175691814771652,27.442936363979243
1617,D,267138084561334.0,5.326706,3.478531569411765,6.990667926442577,87,1970-01-04 02:12:18.084561334,0.4443512,0.20835876,-0.34498596,9.501477596054876,0.59989721986962,-36.841285705566406,45.894737243652344,-108.27142333984375,27493290.0,50354.0,0.269768005043,0.17393593238476004,-0.14112649483111053,0.013551321886839655,0.008728086068644834,-0.007120347002055332,27.49329036695417
1617,D,267138134915338.0,5.303482,3.564057069411765,6.959234626442577,87,1970-01-04 02:12:18.134915338,0.39248657,0.1817627,-0.31918335,9.479728080225403,0.5375512976999287,-36.759193420410156,45.943302154541016,-108.23921203613281,27543644.0,50354.0,0.26763624327600005,0.17731125415966,-0.1422525034260105,0.013530226759927464,0.008843350415628864,-0.007134633039119537,27.543644370976835
1617,D,267138185269342.0,5.3407745,3.588425369411765,6.865210126442577,87,1970-01-04 02:12:18.185269342,0.35853577,0.15748596,-0.2962036,9.561541344495383,0.49100539571330015,-36.67068099975586,45.998043060302734,-108.19998168945312,27593998.0,50354.0,0.26799044590050003,0.18007805036226002,-0.14541115445661051,0.013485473153396743,0.00899799051994838,-0.007242507914510751,27.5939983749995
1617,D,267138235623346.0,5.439575,3.634842569411765,6.889456426442577,87,1970-01-04 02:12:18.235623346,0.32279968,0.14146423,-0.27522278,9.582387438530603,0.44716813438406333,-36.56414031982422,46.04318618774414,-108.1455307006836,27644352.0,50354.0,0.2714168593615,0.18186021689576004,-0.1471679601980105,0.013580657724581377,0.009112519754755171,-0.007366264369659395,27.64435237896396
1617,D,267138285977350.0,5.4335938,3.572510469411765,6.940085026442577,87,1970-01-04 02:12:18.285977350,0.25654602,0.12506104,-0.22573853,9.564138097786364,0.36388735623855206,-36.47224426269531,46.079288482666016,-108.09746551513672,27694706.0,50354.0,0.2737537708776,0.18145952745846003,-0.14528283484071053,0.013725760957529821,0.0091473012036062,-0.007363033666689881,27.694706382986624
1617,D,267138336334962.0,5.3966827,3.520020169411765,6.913183626442577,87,1970-01-04 02:12:18.336334962,0.19604492,0.10102844,-0.17330933,9.582431863517595,0.280493280154247,-36.39665603637695,46.11760711669922,-108.0569839477539,27745063.0,50357.0,0.27269011685525,0.17857928268961826,-0.1446940752233312,0.013758637427281563,0.009065237181313388,-0.0073011836300474735,27.745063994952943
1617,D,267138386688966.0,5.420212,3.578369769411765,6.936377126442577,87,1970-01-04 02:12:18.386688966,0.13926697,0.08251953,-0.123565674,9.557135720083833,0.20364979144471537,-36.30964660644531,46.15502166748047,-108.00439453125,27795417.0,50354.0,0.27233695786190004,0.17871616348976002,-0.14477880892461054,0.013722146660153688,0.008995627448458207,-0.007288058804192729,27.79541799897561
1617,D,267138437042970.0,5.3801575,3.578659769411765,6.921759226442577,87,1970-01-04 02:12:18.437042970,0.08961487,0.061691284,-0.08119202,9.545191248346976,0.1357526558059398,-36.229766845703125,46.19695281982422,-107.95353698730469,27845772.0,50355.0,0.27192630308625,0.18019611121372942,-0.14456577197523407,0.013703188252522047,0.009036513796347104,-0.007284973185605837,27.845772002998274
1617,D,267138487396974.0,5.4063873,3.551285469411765,6.924475326442577,87,1970-01-04 02:12:18.487396974,0.056884766,0.03538513,-0.048614502,9.568025562844788,0.08277290518460531,-36.1528205871582,46.23326873779297,-107.90211486816406,27896126.0,50354.0,0.2715728384296,0.17951063127786002,-0.1448625526620105,0.013683677885944556,0.009056336655710748,-0.007286936929391906,27.89612600696273
1617,D,267138537750978.0,5.4035797,3.554764469411765,6.965796126442577,87,1970-01-04 02:12:18.537750978,0.028198242,0.014404297,-0.01737976,9.53467405284374,0.03612036380786291,-36.07668685913086,46.265010833740234,-107.84891510009766,27946480.0,50354.0,0.272162539159,0.17890901930976003,-0.1437538356307105,0.013689625601548183,0.00902393154284451,-0.007266494808045838,27.946480010985397
1617,D,267138588104982.0,5.4353943,3.499954869411765,6.972418626442577,87,1970-01-04 02:12:18.588104982,0.012481689,0.0050201416,0.01473999,9.568186743442695,0.01995649486199597,-36.007301330566406,46.28941345214844,-107.79891967773438,27996834.0,50354.0,0.27289284839800004,0.17761666879356003,-0.14254676716661052,0.013722859492522593,0.008976247249377291,-0.007208190276628152,27.996834015008062
1617,D,267138638458985.0,5.427292,3.504090069411765,6.988318126442577,87,1970-01-04 02:12:18.638458985,0.0019836426,0.0011291504,0.046432495,9.550379256698356,0.04648856214721401,-35.938838958740234,46.31330871582031,-107.74821472167969,28047188.0,50354.0,0.27348985297510003,0.17634083942476,-0.14197973077261053,0.013756277272470542,0.008911588184412645,-0.0071635236386157685,28.04718801798299
1617,D,267138688812989.0,5.447647,3.586670569411765,6.997503826442577,87,1970-01-04 02:12:18.688812989,-0.015838623,-0.03010559,0.07858276,9.524725055210219,0.08562977692953444,-35.85325622558594,46.33881378173828,-107.68293762207031,28097542.0,50354.0,0.273798339203,0.17852408060366004,-0.14134816069221054,0.013779074814468027,0.008934434091555532,-0.0071333463234098,28.097542022005655
1617,D,267138739166993.0,5.434601,3.595581769411765,6.945242626442577,87,1970-01-04 02:12:18.739166993,-0.038772583,-0.035110474,0.10946655,9.552492972379246,0.12132182056785608,-35.76971435546875,46.37136459350586,-107.61729431152344,28147896.0,50354.0,0.273982357896,0.18082756713456002,-0.14243267255571052,0.013791474610861524,0.009047396435105166,-0.0071447500386829085,28.147896025970113
1617,D,267138789520997.0,5.420685,3.6017310694117652,6.949637026442577,87,1970-01-04 02:12:18.789520997,-0.07092285,-0.05895996,0.12905884,9.539101691879669,0.1586269577262002,-35.68879699707031,46.403865814208984,-107.55134582519531,28198250.0,50354.0,0.273303535622,0.18120674534306003,-0.14363781497931052,0.013779016941102689,0.00911493788524904,-0.007202396664669226,28.198250029992778
1617,D,267138839875001.0,5.4463654,3.594025369411765,6.966284626442577,87,1970-01-04 02:12:18.839875001,-0.11175537,-0.08666992,0.14094543,9.544258849415195,0.1996661012654081,-35.608604431152344,46.430198669433594,-107.48351287841797,28248604.0,50354.0,0.2735997279208,0.18116755986026,-0.1431080405453105,0.013769383466217075,0.009123497882103988,-0.007219400404543385,28.248604033957236
1617,D,267138890229005.0,5.494858,3.617005069411765,7.000631926442577,87,1970-01-04 02:12:18.890229005,-0.14323425,-0.09068298,0.15629578,9.53849218744503,0.23058149119248775,-35.52088928222656,46.44972610473633,-107.40855407714844,28298958.0,50354.0,0.2754671815418,0.18155211335826002,-0.14182414194801052,0.01382385757953988,0.00913219321262268,-0.007173737558634344,28.2989580379799
1617,D,267138940583009.0,5.49823,3.662491569411765,7.019796926442577,87,1970-01-04 02:12:18.940583009,-0.17373657,-0.092803955,0.17008972,9.51000820891902,0.26024504350455036,-35.427398681640625,46.46965026855469,-107.32787322998047,28349312.0,50354.0,0.27677297657600003,0.18327588687566002,-0.1404768627709105,0.013903750460931853,0.009185274561889405,-0.007107492395808276,28.349312042002566
1617,D,267138990937013.0,5.389862,3.644562469411765,6.969381926442577,87,1970-01-04 02:12:18.990937013,-0.1906128,-0.09799194,0.18623352,9.491485503287915,0.2839341187677064,-35.35293197631836,46.50305938720703,-107.25978088378906,28399666.0,50354.0,0.274129492284,0.18396969953546002,-0.14126364402091052,0.013870071458488223,0.00924614212907277,-0.007093380739497679,28.399666045967024
1617,D,267139041291017.0,5.4054565,3.642731369411765,6.928671626442577,87,1970-01-04 02:12:19.041291017,-0.21466064,-0.12387085,0.19239807,9.531136086552218,0.31375180506995815,-35.27900695800781,46.537254333496094,-107.19047546386719,28450020.0,50354.0,0.2717937338745,0.18347219698006,-0.1435579056990105,0.013744709064992557,0.009251084628571249,-0.007170952157298452,28.45002004998969
1617,D,267139091645021.0,5.395508,3.5794226694117652,7.003851626442577,87,1970-01-04 02:12:19.091645021,-0.23197937,-0.12924194,0.20585632,9.492988876090752,0.3359981125609233,-35.21929168701172,46.559940338134766,-107.13035583496094,28500374.0,50354.0,0.2719358832165,0.18183217223546005,-0.14269006206211052,0.013689480569500107,0.009197268103739149,-0.007206865084321745,28.500374053954147
1617,D,267139141999025.0,5.472992,3.599777869411765,6.935843126442577,87,1970-01-04 02:12:19.141999025,-0.26000977,-0.14024353,0.22373962,9.579784731655984,0.37058433015989517,-35.14848327636719,46.583274841308594,-107.0604248046875,28550728.0,50354.0,0.2736362245,0.18075073196596,-0.14250950520661054,0.01373586895597832,0.009128749779079152,-0.0071804695051245915,28.550728057976812
1617,D,267139192353028.0,5.4548035,3.610443769411765,6.982504626442577,87,1970-01-04 02:12:19.192353028,-0.28471375,-0.14736938,0.23794556,9.531178770279201,0.3992464691445129,-35.07981872558594,46.603675842285156,-106.9906005859375,28601082.0,50354.0,0.2751291073035,0.18153175020066,-0.1430469586256105,0.01381626475881672,0.009121186053508992,-0.00718945508990383,28.60108206095174
1617,D,267139242707032.0,5.4473877,3.598664069411765,7.003882026442577,87,1970-01-04 02:12:19.242707032,-0.32115173,-0.16371155,0.25369263,9.515512450543788,0.4407945732443996,-35.016395568847656,46.621036529541016,-106.92247009277344,28651436.0,50354.0,0.27448446784240005,0.18150370805806001,-0.1413339432403105,0.013837620981448326,0.009140143732579795,-0.007159857966278294,28.651436064974405
1617,D,267139293061036.0,5.4123993,3.526551069411765,7.023825326442577,87,1970-01-04 02:12:19.293061036,-0.35177612,-0.1894989,0.26437378,9.507501868307592,0.47911352230442505,-34.97211837768555,46.633731842041016,-106.86634063720703,28701790.0,50354.0,0.27341685729900006,0.17939154155016004,-0.14029361197641052,0.013794511663085032,0.009086259699386158,-0.007090536957691385,28.70179006899707
1617,D,267139343415040.0,5.4535217,3.479614969411765,7.041540626442577,87,1970-01-04 02:12:19.343415040,-0.37088013,-0.2035675,0.2761383,9.535603473512722,0.5052169421268025,-34.932315826416016,46.63735580444336,-106.81214904785156,28752144.0,50354.0,0.273571293017,0.17639424235946002,-0.1393454814042105,0.013771520660505935,0.008957618681492505,-0.007040473454043895,28.752144072961528
1617,D,267139393769044.0,5.376419,3.426270169411765,7.009375226442577,87,1970-01-04 02:12:19.393769044,-0.3718109,-0.23823547,0.27456665,9.535550920113403,0.5199868554272824,-34.91180419921875,46.64630126953125,-106.77130889892578,28802498.0,50354.0,0.2726654170039,0.17386947014016002,-0.1397092915719105,0.013752601648196201,0.008818589489602935,-0.007025762019219799,28.802498076984193
1617,D,267139444123048.0,5.52594,3.455353469411765,7.086126926442577,87,1970-01-04 02:12:19.444123048,-0.3579712,-0.24420166,0.2840271,9.5540538513089,0.5181208587874122,-34.866661071777344,46.63554382324219,-106.71269226074219,28852852.0,50354.0,0.274488692543,0.17325863835466004,-0.13858674229681053,0.013775699016062303,0.008739644387574085,-0.00700665924471279,28.85285208100686
1617,D,267139494477052.0,5.4943237,3.489090669411765,7.174246626442577,87,1970-01-04 02:12:19.494477052,-0.3773346,-0.2639923,0.29962158,9.459366368937353,0.5494055205566708,-34.819828033447266,46.62038803100586,-106.65130615234375,28903206.0,50354.0,0.27745717917490004,0.17484027008316003,-0.13443577505901053,0.01389634121224157,0.008764086217738998,-0.006873887919467507,28.903206084971316
1617,D,267139544831056.0,5.4264374,3.423599869411765,7.111029226442577,87,1970-01-04 02:12:19.544831056,-0.41571045,-0.27264404,0.31672668,9.490914239433742,0.5894622469764679,-34.79557800292969,46.614322662353516,-106.60428619384766,28953560.0,50354.0,0.2749520022147,0.17404080969596003,-0.13380880985191052,0.01390800595984596,0.008783778945598907,-0.00675359391430226,28.95356008899398
1617,D,267139595185060.0,5.48407,3.391083469411765,7.132208626442577,87,1970-01-04 02:12:19.595185060,-0.43984985,-0.26817322,0.33615112,9.521211924009283,0.6151279069815035,-34.77116394042969,46.599769592285156,-106.55583190917969,29003914.0,50354.0,0.2746938448098,0.17157328242156003,-0.13486720057791052,0.013838433490535838,0.008701525997242802,-0.006764455914591605,29.00391409295844
1617,D,267139645539064.0,5.4810333,3.394013069411765,7.131552326442577,87,1970-01-04 02:12:19.645539064,-0.45747375,-0.27400208,0.35256958,9.518804251084775,0.6392688640351298,-34.747230529785156,46.586299896240234,-106.50650787353516,29054268.0,50354.0,0.27606840578409997,0.17082837555796002,-0.13435049048921052,0.013866541183202623,0.008620646542950377,-0.006778093807996906,29.054268096981104
1617,D,267139695893067.0,5.457382,3.347534869411765,7.122122626442577,87,1970-01-04 02:12:19.695893067,-0.48335266,-0.28684998,0.36479187,9.530071327600231,0.6700640367704962,-34.73561477661133,46.57320785522461,-106.464599609375,29104622.0,50354.0,0.2753964820081,0.16973195245576003,-0.1346044257112105,0.013884231479944218,0.00857428737840143,-0.006771477925178,29.104622099956032
1617,D,267139746247071.0,5.515732,3.261917769411765,7.168982126442577,87,1970-01-04 02:12:19.746247071,-0.5028534,-0.2987213,0.372406,9.563773197026242,0.6933845872250479,-34.73272705078125,46.544857025146484,-106.42787170410156,29154976.0,50354.0,0.276270091178,0.16640618908766003,-0.13366205563661052,0.01388930931310644,0.008462949989638686,-0.006754145200894091,29.154976103978697
1617,D,267139796601075.0,5.398575,3.249588669411765,7.201269626442577,87,1970-01-04 02:12:19.796601075,-0.53256226,-0.3130951,0.38163757,9.478482811636837,0.7261531086870195,-34.747440338134766,46.5230827331543,-106.40229797363281,29205330.0,50354.0,0.27478950733900004,0.16394019761026002,-0.13166937161761053,0.013874027511862511,0.008317130977893534,-0.006680249343979524,29.205330108001363
1617,D,267139846955079.0,5.402481,3.193695769411765,7.225790626442577,87,1970-01-04 02:12:19.846955079,-0.55667114,-0.32357788,0.38749695,9.485865842027627,0.7514913763933,-34.77201461791992,46.49523162841797,-106.38262939453125,29255684.0,50354.0,0.271938186912,0.16222257231626003,-0.13023910401311053,0.013764963158157428,0.008211800058439996,-0.006594069690954664,29.25568411196582
1617,D,267139897309083.0,5.436035,3.130509069411765,7.386526626442577,87,1970-01-04 02:12:19.897309083,-0.57806396,-0.34165955,0.39259338,9.417547801226974,0.777829513439101,-34.80366516113281,46.443443298339844,-106.3667984008789,29306038.0,50354.0,0.272881317332,0.15922450522706003,-0.12557488852411053,0.01371692065835119,0.008093073071308169,-0.006440628890109615,29.306038115988486
1617,D,267139947663087.0,5.466858,3.0328375694117646,7.288458626442577,87,1970-01-04 02:12:19.947663087,-0.5899353,-0.34562683,0.3835144,9.545175566732404,0.7839418720857426,-34.848636627197266,46.39451217651367,-106.36035919189453,29356392.0,50354.0,0.274502137061,0.15517457832566,-0.12399709628811052,0.013781473231252563,0.007915625726606833,-0.006283473861617289,29.356392119952943
1617,D,267139998017091.0,5.540222,2.9760596694117654,7.417441026442577,87,1970-01-04 02:12:19.998017091,-0.59869385,-0.339386,0.39222717,9.52193244596699,0.7921233085259084,-34.89380645751953,46.32371139526367,-106.35356903076172,29406746.0,50354.0,0.27712525316000003,0.15128600578186002,-0.12321876443931051,0.013888322803594118,0.007715758126075032,-0.00622415372553428,29.40674612397561
1617,D,267140048371095.0,5.491516,2.8957373694117647,7.474920626442577,87,1970-01-04 02:12:20.048371095,-0.5871887,-0.33763123,0.38078308,9.489027350311426,0.7770335712781586,-34.95838165283203,46.2475700378418,-106.36155700683594,29457100.0,50354.0,0.277746067626,0.14783423404646004,-0.11852421066531052,0.013969995243429125,0.007530950278157614,-0.006086362884209044,29.457100127998274
1617,D,267140098725099.0,5.475586,2.863541369411765,7.537787026442577,87,1970-01-04 02:12:20.098725099,-0.55688477,-0.32162476,0.37449646,9.451001799855888,0.7441846087198674,-35.02847671508789,46.16631317138672,-106.37505340576172,29507454.0,50354.0,0.27611872705400003,0.14500136080736,-0.11549425942331053,0.013944653935658363,0.007372721771634627,-0.005891883021421212,29.50745413196273
1617,D,267140149079103.0,5.5581665,2.716187069411765,7.536322226442577,87,1970-01-04 02:12:20.149079103,-0.5187988,-0.31123352,0.35777283,9.566239933457513,0.702865489791069,-35.110836029052734,46.07164764404297,-106.39937591552734,29557808.0,50354.0,0.27779678669249996,0.14048082290426,-0.11394835134011053,0.01394593088959563,0.0071875849393074585,-0.005776676611190652,29.557808135985397
1617,D,267140199433107.0,5.538849,2.688248369411765,7.606222626442577,87,1970-01-04 02:12:20.199433107,-0.48060608,-0.29534912,0.33683777,9.520775383105983,0.6570182570646829,-35.1981201171875,45.971614837646484,-106.4294204711914,29608162.0,50354.0,0.2793895592435,0.13606747104326003,-0.11222534823891053,0.014028280631630674,0.006962656396716712,-0.005694375234301013,29.608162140008062
1617,D,267140249787110.0,5.4496765,2.594757769411765,7.594320926442577,87,1970-01-04 02:12:20.249787110,-0.43489075,-0.27993774,0.31002808,9.520792022869674,0.6030029130115016,-35.30992889404297,45.87717819213867,-106.47969818115234,29658516.0,50354.0,0.27665810651350004,0.13301024555716,-0.11076511496901054,0.01399961208076399,0.006774569670848775,-0.005614230892185829,29.65851614298299
1617,D,267140300141114.0,5.4230347,2.512848569411765,7.602774226442577,87,1970-01-04 02:12:20.300141114,-0.4092102,-0.2622528,0.29933167,9.538741787818282,0.5708143021656596,-35.43584442138672,45.781944274902344,-106.54154968261719,29708870.0,50354.0,0.2737422498824,0.12859420479256,-0.11085193533581053,0.013857429772979575,0.006586415246454902,-0.00557965247552448,29.708870147005655
1617,D,267140350495118.0,5.4804077,2.440064069411765,7.610464626442577,87,1970-01-04 02:12:20.350495118,-0.39189148,-0.23512268,0.30874634,9.601232090367168,0.5515305152123211,-35.56258010864258,45.6806526184082,-106.60472869873047,29759224.0,50354.0,0.2745159693048,0.12469948150766001,-0.11044548540091052,0.013803497184476134,0.0063771751399806405,-0.005571605161888426,29.759224150970113
1617,D,267140400849122.0,5.370819,2.432251669411765,7.671637126442577,87,1970-01-04 02:12:20.400849122,-0.36869812,-0.21600342,0.2947235,9.502105332255047,0.5190931733277571,-35.702171325683594,45.58380126953125,-106.6785659790039,29809578.0,50354.0,0.2732013346259,0.12267029335636002,-0.10871172416761052,0.013789878561063234,0.0062280288217514326,-0.005517721065306654,29.809578154992778
1617,D,267140451203126.0,5.4985657,2.4420935694117647,7.746786626442577,87,1970-01-04 02:12:20.451203126,-0.34606934,-0.19917297,0.27227783,9.52067185368962,0.4832898475823441,-35.82017135620117,45.47103500366211,-106.73860168457031,29859932.0,50354.0,0.27365849859190006,0.12272139007786001,-0.10527954517361052,0.013768290020924553,0.006178226413823358,-0.005387658188203922,29.859932158957236
1617,D,267140501557130.0,5.5136414,2.3690040694117647,7.749945326442577,87,1970-01-04 02:12:20.501557130,-0.3065796,-0.15571594,0.2338562,9.563034866592762,0.4158451964189121,-35.945980072021484,45.35588073730469,-106.80743408203125,29910286.0,50354.0,0.27725433815670003,0.12112900525266,-0.10330797962221051,0.013870332490819504,0.006139421403236502,-0.005251608111784387,29.9102861629799
1617,D,267140551911134.0,5.5664673,2.3635260694117655,7.798788626442577,87,1970-01-04 02:12:20.551911134,-0.26234436,-0.12898254,0.19104004,9.564580807385669,0.34922393350379466,-36.06285858154297,45.23330307006836,-106.8730697631836,29960640.0,50354.0,0.2789638967399,0.11915091130516002,-0.10199872526821051,0.0140039064999917,0.006049527459176235,-0.005169006909026131,29.960640167002566
1617,D,267140602265138.0,5.597,2.378342369411765,7.830404826442577,87,1970-01-04 02:12:20.602265138,-0.1991272,-0.08999634,0.13725281,9.554698236806473,0.25804905899098274,-36.17033767700195,45.1085319519043,-106.93645477294922,30010994.0,50354.0,0.28106261621210005,0.11938602168426003,-0.09997299643671051,0.014099787516592507,0.006005644361874629,-0.005085042037364797,30.010994170967024
1617,D,267140652619142.0,5.540451,2.376892769411765,7.839926326442577,87,1970-01-04 02:12:20.652619142,-0.10601807,-0.055892944,0.0771637,9.516240097227874,0.14254153413374657,-36.28126907348633,44.989627838134766,-107.0078353881836,30061348.0,50354.0,0.28040760382700003,0.11972255509016003,-0.0989372725638105,0.014136135729924424,0.0060200366374495735,-0.005007963842626117,30.06134817498969
1617,D,267140702973146.0,5.5667267,2.332901669411765,7.806387626442577,87,1970-01-04 02:12:20.702973146,-0.017318726,-0.023223877,0.017868042,9.574928414025635,0.034037533078764226,-36.39148712158203,44.87242889404297,-107.08407592773438,30111702.0,50354.0,0.2796454129529,0.11857849458626002,-0.09954195360821051,0.014100454803467544,0.005999705527703228,-0.004997111477332974,30.111702178954147
1617,D,267140753327150.0,5.51297,2.352555069411765,7.746557626442577,87,1970-01-04 02:12:20.753327150,0.04360962,0.011978149,-0.023132324,9.572954504667877,0.05079743520741551,-36.50160217285156,44.77035903930664,-107.16415405273438,30162056.0,50354.0,0.2789535238159,0.11796574431336002,-0.10189269736811052,0.014063845431028078,0.005955474302775734,-0.005071520207630835,30.162056182976812
1617,D,267140803681153.0,5.4523926,2.374710769411765,7.701010326442577,87,1970-01-04 02:12:20.803681153,0.07640076,0.053359985,-0.04701233,9.557173388685179,0.1043768331566288,-36.613162994384766,44.6828727722168,-107.24781036376953,30212410.0,50354.0,0.27607493418019996,0.11901837202406002,-0.10454578165021051,0.013973951486967812,0.005966549097027225,-0.005197501586244269,30.21241018595174
1617,D,267140854035157.0,5.5323334,2.3456120694117653,7.715445126442577,87,1970-01-04 02:12:20.854035157,0.111968994,0.08918762,-0.07965088,9.607831059505667,0.16381620757242196,-36.716495513916016,44.58830261230469,-107.32850646972656,30262764.0,50354.0,0.27656244650199996,0.11884356811306003,-0.10532910106271051,0.013913751333435748,0.005988650066832271,-0.005284019922063213,30.262764189974405
1617,D,267140904389161.0,5.537689,2.4136360694117647,7.692312626442577,87,1970-01-04 02:12:20.904389161,0.14848328,0.13392639,-0.10810852,9.592832957277949,0.22731259198421214,-36.80561447143555,44.503082275390625,-107.40217590332031,30313118.0,50354.0,0.2787099539648,0.11982359039116001,-0.10554808305561052,0.013980093226552623,0.006008923049660749,-0.005309254864546968,30.31311819399707
