Subject-id_accel,Activity_accel,Timestamp_accel,accel_x,accel_y,accel_z,Segment_accel,DateTime,gyro_x,gyro_y,gyro_z,accel_magnitude,gyro_magnitude,Roll,Pitch,Yaw,Time_Difference,Difference_Microseconds,vx,vy,vz,dx,dy,dz,Time_diff
1632,D,2684849821304.0,1.5879391069355746,0.8379944057137254,8.967102,167,1970-01-01 00:44:44.849821304,-0.009750366,0.005844116,-0.002319336,9.203200941060786,0.011601838149030867,-5.7169013023376465,11.496501922607422,-147.41722106933594,15005473.0,50354.0,0.08123683868223394,0.042319305316218934,-0.04255902456100001,0.004081246729219547,0.002118536805115055,-0.0021086322300529897,15.005473189999975
1632,D,2684900175308.0,1.5719632069355747,0.8873566057137254,8.951279,167,1970-01-01 00:44:44.900175308,-0.0181427,0.01966858,-0.003112793,9.186402054783876,0.02693882110945557,-5.709059238433838,11.506288528442383,-147.4157257080078,15055827.0,50354.0,0.07955686055633393,0.04343916241470893,-0.042338121563000035,0.004048302965729424,0.002159140942061571,-0.0021374554479639493,15.055827193999903
1632,D,2684950529312.0,1.5422391069355748,0.7523163057137254,9.030228,167,1970-01-01 00:44:44.950529312,-0.015136719,0.02406311,-0.01335144,9.28266511849511,0.031407236029785575,-5.721380710601807,11.517566680908203,-147.41879272460938,15106181.0,50354.0,0.07840627165633393,0.04128204489100893,-0.04074879826100007,0.003977037779718339,0.0021330258363360588,-0.0020918793804088507,15.106181197999831
1632,D,2685000883316.0,1.5249051069355748,0.7032440057137255,9.0828705,167,1970-01-01 00:44:45.000883316,0.014831543,-0.036880493,0.0025024414,9.342712158310317,0.039829733173150084,-5.738423824310303,11.526398658752441,-147.4220428466797,15156535.0,50354.0,0.07722148987263394,0.03664664196080893,-0.03743571906550005,0.003918240152014824,0.0019620105488682184,-0.0019684515927292936,15.156535201999759
1632,D,2685051237320.0,1.6303128069355748,0.7456635057137254,8.902496,167,1970-01-01 00:44:45.051237320,-0.032333374,-0.014282227,0.013885498,9.141147062800371,0.03797678418470169,-5.753825664520264,11.525988578796387,-147.424072265625,15206889.0,50354.0,0.07943892141753395,0.03647914441520893,-0.040651627629500045,0.003944239175052557,0.0018410879235890017,-0.001966005127740017,15.206889206000142
1632,D,2685101591324.0,1.6360043069355747,0.8940247057137255,8.92334,167,1970-01-01 00:44:45.101591324,-0.039215088,-0.027526855,-0.039993286,9.145595640047807,0.06241004565065279,-5.745781898498535,11.523602485656738,-147.4238739013672,15257243.0,50354.0,0.08223606597593394,0.04128243009910893,-0.04466812702800006,0.004070491157605341,0.0019578031615469812,-0.00214809546301188,15.25724321000007
1632,D,2685151945327.0,1.7537869069355747,0.9030274057137254,8.966797,167,1970-01-01 00:44:45.151945327,-0.052841187,-0.030380249,-0.04585266,9.164554123368905,0.07627330464813079,-5.736577033996582,11.501748085021973,-147.423583984375,15307597.0,50354.0,0.08534477339163393,0.04524438100940893,-0.04304922075100005,0.004219182792757257,0.0021784855232791544,-0.002208459665031886,15.307597213000008
1632,D,2685202299331.0,1.7844266069355748,0.9581268757137255,9.0346985,167,1970-01-01 00:44:45.202299331,-0.079559326,-0.019592285,-0.06686401,9.220629487838098,0.10575603915793935,-5.719470500946045,11.474401473999023,-147.4225616455078,15357951.0,50354.0,0.08908160163873394,0.04685828134349893,-0.04024554779650007,0.004391532844139572,0.0023188687300591615,-0.002097112387720411,15.357951216999936
1632,D,2685252653335.0,1.8472012069355748,0.5511292057137254,8.825775,167,1970-01-01 00:44:45.252653335,-0.043762207,-0.008743286,-0.08288574,9.04845603682463,0.09413618702144382,-5.769539833068848,11.443243026733398,-147.43606567382812,15408305.0,50354.0,0.09143349346983394,0.03799854036209893,-0.04379605869050005,0.0045448285495484145,0.0021364402000818372,-0.002115915526523202,15.408305220999864
1632,D,2685303007339.0,1.8411435069355746,0.45843200571372544,8.485046,167,1970-01-01 00:44:45.303007339,0.0070648193,-0.021987915,-0.0032958984,8.73055383422532,0.023329016782796485,-5.837833404541016,11.423219680786133,-147.44973754882812,15458659.0,50354.0,0.09286145486113394,0.02541772262010893,-0.05763465968300002,0.004639993914128778,0.0015966312531030472,-0.002553721196489611,15.458659224999792
1632,D,2685353361343.0,1.5443448069355747,0.45936280571372534,9.289124,167,1970-01-01 00:44:45.353361343,0.0029296875,-0.0009460449,0.03327942,9.56870050940459,0.03342151799869168,-5.885782241821289,11.426365852355957,-147.45762634277344,15509013.0,50354.0,0.08523643927833392,0.02310731996730893,-0.04596892191000004,0.0044839706807493825,0.0012217149972234193,-0.0026084273737669627,15.50901322899972
1632,D,2685403715347.0,1.4432858069355747,0.22587280571372537,8.731842,167,1970-01-01 00:44:45.403715347,0.043045044,0.08934021,0.005126953,9.086319994251406,0.09930173504461161,-5.979970932006836,11.46609878540039,-147.47694396972656,15559367.0,50354.0,0.07521957596543394,0.017252176988908928,-0.03975533901800005,0.004039801095792344,0.001016131054866697,-0.0021582797173842583,15.559367233000103
1632,D,2685454069351.0,1.410769306935575,0.5478180057137254,8.966095,167,1970-01-01 00:44:45.454069351,0.08694458,0.0115356445,-0.0121154785,9.272303859181878,0.08853934664707404,-6.013522148132324,11.498974800109863,-147.48512268066406,15609721.0,50354.0,0.07185654560193394,0.019479213559308928,-0.04788824015100005,0.0037029355127016213,0.000924786219832481,-0.0022066023927379153,15.60972123700003
1632,D,2685504423355.0,1.6287717069355747,1.0626038057137255,9.026428,167,1970-01-01 00:44:45.504423355,0.05580139,-0.021194458,0.010299683,9.233959726069592,0.060572961342057176,-5.965646743774414,11.496319770812988,-147.4755401611328,15660075.0,50354.0,0.07652652410623394,0.040545589946308934,-0.04047144842900008,0.003735840546042543,0.001511244477860941,-0.002224631879378663,15.660075240999959
1632,D,2685554777359.0,1.7802457069355746,1.2103546557137255,9.122086,167,1970-01-01 00:44:45.554777359,0.036590576,-0.0046691895,0.043685913,9.289564410066465,0.05717631132945055,-5.895190715789795,11.469382286071777,-147.459716796875,15710429.0,50354.0,0.08582883142903393,0.05722627518335894,-0.03654406302200007,0.004087620786311439,0.002461602248369648,-0.0019390195318018308,15.710429244999887
1632,D,2685605131363.0,1.6925534069355748,0.9419983057137254,9.035721,167,1970-01-01 00:44:45.605131363,-0.0027008057,0.05871582,0.020126343,9.240106932251942,0.0621281864555469,-5.872040748596191,11.461116790771484,-147.45440673828125,15760783.0,50354.0,0.08743466328993393,0.054189790509858934,-0.036310093161000034,0.004362255006539454,0.0028051222859581467,-0.0018342490902193938,15.760783248999815
1632,D,2685655485367.0,1.6007260069355747,0.7747162057137255,8.962952,167,1970-01-01 00:44:45.655485367,-0.019348145,0.043029785,0.01763916,9.202904758803077,0.050369167926350045,-5.877829074859619,11.467938423156738,-147.4547119140625,15811137.0,50354.0,0.08291489580303393,0.043221721254208936,-0.040316609879000036,0.004288890849283652,0.002452529631683937,-0.0019292305024380821,15.811137252999742
1632,D,2685705839370.0,1.5883664069355747,0.6841706057137253,9.016922,167,1970-01-01 00:44:45.705839370,0.0078125,0.0034942627,-0.006225586,9.267724021149412,0.010583144575692392,-5.895615100860596,11.472406387329102,-147.45864868164062,15861491.0,50354.0,0.08029177970403394,0.036730393251308925,-0.04078991230200007,0.004109054469241448,0.0020129543869054235,-0.00204201890895104,15.861491256000136
1632,D,2685756193374.0,1.6983670069355747,0.5406311057137254,8.930618,167,1970-01-01 00:44:45.756193374,0.025817871,-0.0048675537,-0.016952515,9.179472705478247,0.0312672881270546,-5.936467170715332,11.461711883544922,-147.46783447265625,15911845.0,50354.0,0.08275008716103394,0.03083683268860893,-0.04160398542000004,0.004104905082061815,0.0017011400474893118,-0.002074431162946797,15.911845260000064
1632,D,2685806547378.0,1.5972470069355746,0.7237824057137254,9.029404,167,1970-01-01 00:44:45.806547378,0.027557373,-0.0008087158,-0.0184021,9.273710816195234,0.0331466455665773,-5.945496559143066,11.46445369720459,-147.47079467773438,15962199.0,50354.0,0.08297367402723392,0.03183413897720893,-0.04128972610600003,0.00417242713543702,0.0015778670536302965,-0.0020870149750901036,15.962199263999992
1632,D,2685856901382.0,1.4503354069355745,0.8427246557137255,8.952988,167,1970-01-01 00:44:45.856901382,0.014526367,0.027374268,-0.010986328,9.217984944081543,0.03287955732180859,-5.937459468841553,11.493682861328125,-147.47000122070312,16012553.0,50354.0,0.07672898243403392,0.03943994828555893,-0.04072651661600006,0.004020833781725341,0.0017944676950147065,-0.0020649229430117965,16.01255326799992
1632,D,2685907255386.0,1.4470853069355747,0.8303650057137254,9.049957,167,1970-01-01 00:44:45.907255386,0.010253906,0.0044555664,0.0029144287,9.314079117005038,0.011553724717554451,-5.930103778839111,11.518327713012695,-147.46852111816406,16062907.0,50354.0,0.07294836131313392,0.04212337840575893,-0.04020905373500007,0.0037684264835224452,0.0020535198761073097,-0.0020377148547271306,16.062907271999848
1632,D,2685957609390.0,1.5581082069355747,0.8371247057137254,8.962967,167,1970-01-01 00:44:45.957609390,0.010498047,-0.019256592,0.009185791,9.205367545060465,0.023778227069408558,-5.923109531402588,11.527275085449219,-147.46669006347656,16113261.000000002,50354.00000000186,0.07566175709873672,0.041982388464610484,-0.039957812452001515,0.003741556951255806,0.002117530892495369,-0.0020183611899902134,16.113261275999776
1632,D,2686007963394.0,1.6066007069355748,0.8227356357137254,8.967728,167,1970-01-01 00:44:46.007963394,0.0046691895,0.00079345703,0.029449463,9.201525255103789,0.029827869109839804,-5.918593406677246,11.529516220092773,-147.4644012451172,16163615.0,50353.99999999814,0.07967787632453098,0.04179030381611738,-0.04202809198499848,0.003910985950697467,0.0021091450735518076,-0.0020641591160102724,16.163615279999703
1632,D,2686058317398.0,1.6286343069355746,0.8106201557137255,8.968567,167,1970-01-01 00:44:46.058317398,-0.0038757324,0.02305603,0.037200928,9.199134922137738,0.04393757918978348,-5.916459560394287,11.52941608428955,-147.4622344970703,16213968.999999998,50353.99999999814,0.08145351194423091,0.041122998760767415,-0.0418871007849985,0.0040568049624424675,0.0020875082189781512,-0.002112732808370136,16.213969284000086
1632,D,2686108671402.0,1.6073483069355747,0.8088349057137254,9.033676,167,1970-01-01 00:44:46.108671402,-0.0022888184,0.01890564,0.023849487,9.26702829050669,0.030519828696127172,-5.913668155670166,11.530275344848633,-147.46058654785156,16264323.000000002,50354.000000003725,0.08147233426943995,0.040773020081561945,-0.04022672798900301,0.004101984030121894,0.0020618960663934785,-0.002067379867043189,16.264323288000014
1632,D,2686159025406.0,1.5786618069355747,0.8542450357137255,9.059006,167,1970-01-01 00:44:46.159025406,0.00035095215,0.0033416748,0.014038086,9.293100100047987,0.01443460482396178,-5.903386116027832,11.53398609161377,-147.45787048339844,16314677.0,50353.99999999814,0.08021417663693096,0.04187136368531738,-0.037949745285998635,0.00407078128508955,0.002080737650098644,-0.0019682490676446434,16.314677291999942
1632,D,2686209379410.0,1.5891446069355746,0.8247955757137254,9.045914,167,1970-01-01 00:44:46.209379410,0.00015258789,-0.0040130615,0.00982666,9.281040178355951,0.010615610788954016,-5.89822244644165,11.535948753356934,-147.4563446044922,16365030.999999998,50353.99999999814,0.07975586208203098,0.042273205473907366,-0.03764162915999864,0.0040275656648271554,0.002118507817721723,-0.0019031640344268031,16.36503129599987
1632,D,2686259733413.0,1.5680875069355746,0.7591370057137254,9.011536,167,1970-01-01 00:44:46.259733413,0.0048065186,-0.0062408447,0.00091552734,9.258455037734526,0.007930255603191586,-5.9038987159729,11.541746139526367,-147.4574432373047,16415385.0,50354.00000000186,0.07948963293093687,0.039878670602600405,-0.03883678135000149,0.00400932382794164,0.0020683377839783128,-0.0019254969414103443,16.41538529899981
1632,D,2686310087417.0,1.5400418069355746,0.8022888657137255,9.019501,167,1970-01-01 00:44:46.310087417,0.008270264,-0.005279541,-0.0053710938,9.26756013929766,0.011185681401183185,-5.902420997619629,11.551549911499023,-147.45745849609375,16465739.0,50354.0,0.07825337173533393,0.039312019164928935,-0.03950178145100005,0.0039714956284827,0.0019937839962770863,-0.001972329995640816,16.465739302999737
1632,D,2686360441421.0,1.5433530069355748,0.8440521657137254,8.996307,167,1970-01-01 00:44:46.360441421,0.006668091,-0.0030822754,-0.0042877197,9.240213860258306,0.008505786233587949,-5.8948540687561035,11.561600685119629,-147.4562225341797,16516093.000000002,50354.00000000186,0.0776306312288368,0.041449928148250464,-0.039885201984001514,0.003924691542629072,0.002033343547503993,-0.0019987260819431083,16.51609330700012
1632,D,2686410795425.0,1.5932645069355746,0.8570069057137254,8.968582,167,1970-01-01 00:44:46.410795425,0.0035095215,-0.0035705566,-0.00012207031,9.201743513345503,0.005008045202806112,-5.885963439941406,11.564726829528809,-147.45445251464844,16566447.0,50353.99999999814,0.07897061914673101,0.042827564241327346,-0.041167189646998524,0.0039427496807055255,0.002121854425892322,-0.0020406560640936124,16.566447311000047
1632,D,2686461149429.0,1.5794553069355748,0.8458832057137254,9.019501,167,1970-01-01 00:44:46.461149429,0.0013122559,-0.005722046,0.004257202,9.255226424980417,0.007251730472239354,-5.878329753875732,11.568157196044922,-147.45269775390625,16616800.999999998,50353.99999999814,0.07987956675383097,0.04287366433540734,-0.040583234308998545,0.003999371130418301,0.0021576998318763693,-0.002058230423940062,16.616801314999975
1632,D,2686511503433.0,1.5512112069355748,0.8178681057137255,9.00058,167,1970-01-01 00:44:46.511503433,-0.0019378662,-0.0008544922,0.004257202,9.245290133124511,0.004754918632086913,-5.875763893127441,11.576534271240234,-147.45196533203125,16667155.000000002,50354.000000003725,0.07882079081973976,0.04188826676781203,-0.03977762066300299,0.003995598902630086,0.0021340511393859118,-0.0020232452456302326,16.667155318999903
1632,D,2686561857437.0,1.5470761069355747,0.8181732557137255,8.951294,167,1970-01-01 00:44:46.561857437,-0.004547119,-1.5258789e-05,0.0053863525,9.198143672637052,0.007049064993675331,-5.874117851257324,11.58695125579834,-147.45132446289062,16717509.0,50353.99999999814,0.07800557970133104,0.041190613356657406,-0.0414948683019985,0.003948417530608853,0.0020916769648936895,-0.002046197454671767,16.71750932299983
1632,D,2686612211441.0,1.5749081069355746,0.8238495057137254,8.998047,167,1970-01-01 00:44:46.612211441,-0.0040283203,-0.0041046143,0.009765625,9.237376685582698,0.011333254370734893,-5.870798110961914,11.591230392456055,-147.4501190185547,16767862.999999998,50353.99999999814,0.07860219655263102,0.041341207064457396,-0.04155864164299849,0.003942913982745856,0.0020779036427423306,-0.0020910382198851118,16.76786332699976
1632,D,2686662565445.0,1.5828580069355747,0.8292969057137255,8.974991,167,1970-01-01 00:44:46.662565445,-0.00050354004,-0.0024261475,0.008148193,9.212765078968957,0.008516618661704212,-5.866905212402344,11.595005989074707,-147.44891357421875,16818217.0,50354.00000000186,0.07950307744893687,0.041621267200510466,-0.04096202227400158,0.003980616483537622,0.002088746214569173,-0.0020776227554383875,16.81821733100014
1632,D,2686712919449.0,1.5739774069355748,0.8200501057137255,8.950562,167,1970-01-01 00:44:46.712919449,0.0011901855,0.0032806396,-0.0005493164,9.191693472703541,0.003532829774671767,-5.8649749755859375,11.601027488708496,-147.44859313964844,16868571.0,50354.0,0.07947964521503394,0.04152560970670894,-0.04215755211900007,0.0040027080085107926,0.002093388919893063,-0.0020927015244926028,16.86857133500007
1632,D,2686763273452.0,1.6028470069355747,0.8350037057137254,8.978043,167,1970-01-01 00:44:46.763273452,0.0055999756,-0.0006713867,-0.0066070557,9.211136435342121,0.008686982896520215,-5.860125541687012,11.601452827453613,-147.44798278808594,16918925.0,50354.0,0.07998290826803393,0.041669289810308936,-0.042080711915000055,0.0040147887090432,0.0020945979851399593,-0.002120866773584021,16.918925338000008
1632,D,2686813627456.0,1.5907925069355746,0.8628205057137255,8.914505,167,1970-01-01 00:44:46.813627456,0.0074157715,0.005340576,-0.012268066,9.148997459441995,0.015297740432245027,-5.85195255279541,11.606066703796387,-147.44703674316406,16969279.0,50354.0,0.08040626204073394,0.04274612017110893,-0.042988519004000046,0.004038118140863849,0.0021253267771021577,-0.0021417880268476655,16.969279341999936
1632,D,2686863981460.0,1.5437497069355748,0.8707092757137255,8.959656,167,1970-01-01 00:44:46.863981460,0.0018615723,0.0046539307,-0.009307861,9.201930161339465,0.010571698008543887,-5.84229850769043,11.616316795349121,-147.44558715820312,17019633.0,50354.0,0.07891836931863393,0.043645079306998937,-0.04345144850300002,0.004011316243734805,0.002175071229260322,-0.0021762990619237405,17.019633345999864
1632,D,2686914335464.0,1.5532101069355746,0.8165100557137255,8.963806,167,1970-01-01 00:44:46.914335464,-0.00019836426,-0.0063171387,0.0014953613,9.209213912089156,0.006494743655620345,-5.841365337371826,11.624064445495605,-147.44529724121094,17069987.0,50354.0,0.07797215723383392,0.04247912110734894,-0.04221019722600002,0.003950032787011483,0.0021683489938320367,-0.002156703254519034,17.069987349999792
1632,D,2686964689468.0,1.5608395069355747,0.7760742657137254,8.926529,167,1970-01-01 00:44:46.964689468,0.000869751,-0.0012664795,0.0052337646,9.175459221262898,0.005454606219896576,-5.847386360168457,11.631793022155762,-147.44625854492188,17120341.0,50354.0,0.07840242712843393,0.04009649546057893,-0.04304423570500003,0.003937042910488818,0.00207900629833072,-0.002146450857903788,17.12034135399972
1632,D,2687015043472.0,1.5333432069355746,0.8362091457137254,9.00354,167,1970-01-01 00:44:47.015043472,0.0,0.0019073486,0.0067596436,9.250086822319368,0.0070235859986863495,-5.842536449432373,11.641396522521973,-147.4449462890625,17170695.0,50354.0,0.07790223818713393,0.040592459449508934,-0.04204385278700005,0.0039352825586500524,0.0020315058177712824,-0.0021422628039630865,17.170695358000103
1632,D,2687065397476.0,1.5596799069355747,0.8559082457137255,8.991333,167,1970-01-01 00:44:47.065397476,0.00048828125,0.0026550293,0.0073394775,9.230872241883493,0.00782020007007278,-5.834863662719727,11.647263526916504,-147.4430694580078,17221049.0,50354.0,0.07787304293793393,0.04260243956396893,-0.040412282479000076,0.003921954252885834,0.0020945979724623326,-0.0020759981175920853,17.22104936200003
1632,D,2687115751480.0,1.5710324069355748,0.8304566057137255,8.980408,167,1970-01-01 00:44:47.115751480,0.00062561035,0.0038757324,0.004211426,9.220342573837778,0.005757499361694527,-5.831591606140137,11.651566505432129,-147.44223022460938,17271403.0,50354.0,0.07882194392633393,0.04245760786438894,-0.040994676843000045,0.003945109684281672,0.0021415568141037664,-0.0020495830148499973,17.27140336599996
1632,D,2687166105484.0,1.5704068069355748,0.8476990057137255,9.0035095,167,1970-01-01 00:44:47.166105484,0.00024414063,-0.001739502,0.0012664795,9.241313971804479,0.0021655119900709503,-5.825366497039795,11.654889106750488,-147.44088745117188,17321757.0,50354.0,0.07909201508763393,0.04225092382890894,-0.04068810910250003,0.003975799746094669,0.0021327067024421607,-0.0020565275017498555,17.321757369999887
1632,D,2687216459488.0,1.5344571069355746,0.8623779757137254,8.994308,167,1970-01-01 00:44:47.216459488,-0.00047302246,0.001663208,-0.003692627,9.238380782671891,0.004077438566067851,-5.817220211029053,11.66406536102295,-147.439453125,17372111.0,50354.0,0.07817115875953393,0.04305460816139893,-0.040338148802500036,0.003959414927950146,0.002147737378919981,-0.002039998095274187,17.372111373999815
1632,D,2687266813492.0,1.4921445069355748,0.8222931057137255,8.998016,167,1970-01-01 00:44:47.266813492,-0.0015411377,0.005645752,-0.003768921,9.25472752524445,0.0069609185141119335,-5.8155927658081055,11.679365158081055,-147.43931579589844,17422465.0,50354.0,0.07620074883243393,0.04241496381709893,-0.04047645865200004,0.0038866215174429746,0.0021518674137026407,-0.0020346693718819486,17.422465377999742
1632,D,2687317167495.0,1.5465878069355747,0.8061188057137254,9.006882,167,1970-01-01 00:44:47.317167495,0.0016937256,0.006729126,0.00019836426,9.253542581790546,0.006941843523993948,-5.816207408905029,11.685778617858887,-147.43946838378906,17472819.0,50354.0,0.07650616346633393,0.040998526694008934,-0.04015988305400006,0.0038447019309460788,0.0021001014505981626,-0.0020301811751319643,17.472819381000136
1632,D,2687367521499.0,1.5422238069355747,0.8380707057137254,8.968918,167,1970-01-01 00:44:47.367521499,0.004180908,0.0019073486,0.0038146973,9.214360398216716,0.005972427134508486,-5.812206268310547,11.693788528442383,-147.43853759765625,17523173.0,50354.0,0.07776701000243393,0.041395759329208935,-0.04089248340000005,0.0038841356884231682,0.0020744409392065566,-0.0020406554302123607,17.523173385000064
1632,D,2687417875503.0,1.5077695069355748,0.8695954057137254,8.972931,167,1970-01-01 00:44:47.417875503,-0.0022125244,-0.005630493,0.004058838,9.222502248132587,0.00728504506189827,-5.8035783767700195,11.706435203552246,-147.43653869628906,17573527.0,50354.0,0.07678968166333393,0.04299390968740893,-0.041747267727000006,0.0038912738260690376,0.0021246786968313882,-0.0020806210141244806,17.57352738899999
1632,D,2687468229507.0,1.5619534069355747,0.8606995057137254,8.965469,167,1970-01-01 00:44:47.468229507,-0.004348755,-0.009384155,0.0037231445,9.204760027860528,0.01099253565297517,-5.796781539916992,11.710549354553223,-147.4348907470703,17623881.0,50354.0,0.07728641380253394,0.04356363498500893,-0.0418341032,0.0038791738555441556,0.0021792593022174644,-0.002104328175829079,17.62388139299992
1632,D,2687518583511.0,1.5623959069355746,0.8298004557137254,8.995956,167,1970-01-01 00:44:47.518583511,-0.0040283203,-0.0023651123,0.0014343262,9.237319112965858,0.004886554233712117,-5.794575214385986,11.713764190673828,-147.43431091308594,17674235.0,50354.0,0.07866174267533392,0.042561717528858935,-0.04125440277500003,0.003926306735643279,0.002168378000241651,-0.002091919314932576,17.674235396999848
1632,D,2687568937515.0,1.5402097069355747,0.8341034357137255,9.015976,167,1970-01-01 00:44:47.568937515,-0.0048065186,-0.008605957,-0.0017852783,9.260970193484209,0.010017601287056989,-5.791497230529785,11.719308853149414,-147.43368530273438,17724589.0,50354.0,0.07811430154043393,0.04189210827446893,-0.03998278803600004,0.003947150465220387,0.0021262939722503857,-0.002045308753048549,17.724589400999776
1632,D,2687619291519.0,1.5674619069355746,0.8163727057137254,8.991394,167,1970-01-01 00:44:47.619291519,-0.0035095215,-0.007385254,-0.0026855469,9.233153404708075,0.008606444094722155,-5.791623592376709,11.721365928649902,-147.43377685546875,17774943.0,50354.0,0.07824184822243394,0.041554037812718936,-0.04009764551000004,0.003936578782579725,0.002100923620037129,-0.0020161850753876442,17.774943404999703
1632,D,2687669645523.0,1.5675992069355746,0.7777374657137255,8.989471,167,1970-01-01 00:44:47.669645523,-0.002960205,0.0015411377,-0.0026855469,9.235147601846084,0.004283699476443918,-5.797845363616943,11.72373104095459,-147.43515014648438,17825297.0,50354.0,0.07893143366393393,0.04013491178602894,-0.04076496189500005,0.003957151718053084,0.002056682684047675,-0.0020358778666356874,17.825297409000086
1632,D,2687719999527.0,1.5460233069355747,0.8187378357137255,8.950073,167,1970-01-01 00:44:47.719999527,0.000289917,0.002243042,-0.00024414063,9.197118453395424,0.0022748393191321884,-5.797895431518555,11.730755805969238,-147.4351806640625,17875651.0,50354.0,0.07839167403173393,0.04019445866403893,-0.041805300712000046,0.00396092388245383,0.0020224525598213586,-0.0020788715016564416,17.875651413000014
1632,D,2687770353531.0,1.5549039069355748,0.8437164757137254,9.002457,167,1970-01-01 00:44:47.770353531,-0.0011444092,0.00091552734,0.0021514893,9.243848431839961,0.0026032227978693267,-5.79321813583374,11.73460578918457,-147.43411254882812,17926005.0,50354.0,0.07807204446363394,0.041855612198808935,-0.04147835219000005,0.003939287040557878,0.002065774634113921,-0.002096832529113657,17.926005416999942
1632,D,2687820707535.0,1.5686520069355747,0.8631867057137255,9.026413,167,1970-01-01 00:44:47.820707535,-0.00024414063,-0.0043182373,0.0018310547,9.262528629874046,0.004696758386453382,-5.7851786613464355,11.735322952270508,-147.43235778808594,17976359.0,50354.0,0.07864176724353393,0.042974701398798935,-0.03955634001000005,0.003945583637351365,0.0021357728054469736,-0.002040210445519403,17.97635942099987
1632,D,2687871061538.0,1.5545071069355747,0.8380860057137255,8.993881,167,1970-01-01 00:44:47.871061538,-0.0014343262,0.0009613037,-7.6293945e-05,9.236119108492904,0.0017283567969848682,-5.7818779945373535,11.739364624023438,-147.4316864013672,18026713.0,50354.0,0.07863177700993393,0.04283294305560894,-0.03977225796200004,0.00395967602366956,0.0021603790644286274,-0.0019972561111410462,18.02671342399981
1632,D,2687921415542.0,1.5593594069355747,0.8146790057137254,8.988419,167,1970-01-01 00:44:47.921415542,0.0023651123,-0.0023040771,0.0020141602,9.232086889278452,0.003867734322005551,-5.782219886779785,11.742514610290527,-147.43167114257812,18077067.0,50354.0,0.07839781721973393,0.04161166469270894,-0.040728832900000025,0.003953534093920348,0.0021260618892793995,-0.002026775964632576,18.077067427999737
1632,D,2687971769546.0,1.5346097069355746,0.7894715057137255,8.964157,167,1970-01-01 00:44:47.971769546,0.0008239746,0.0016174316,0.0026550293,9.216135006460911,0.0032162399950846654,-5.786998271942139,11.750239372253418,-147.4325408935547,18127421.0,50354.0,0.07789686037993393,0.04038769742620893,-0.04147719404800002,0.003935031097926838,0.0020644979400679954,-0.0020697011404697974,18.12742143200012
1632,D,2688022123550.0,1.5871304069355747,0.8198517057137255,8.958435,167,1970-01-01 00:44:48.022123550,0.00024414063,0.00016784668,0.004425049,9.196694618248536,0.00443495612239905,-5.786960601806641,11.749992370605469,-147.43231201171875,18177775.0,50354.0,0.07859605084693393,0.040517930494108935,-0.042232101216000045,0.003940022025958853,0.0020369609941498427,-0.0021075489268617296,18.177775436000047
1632,D,2688072477554.0,1.5938901069355746,0.8274964057137254,8.978348,167,1970-01-01 00:44:48.072477554,0.0011291504,0.004058838,0.0030059814,9.213972617899705,0.005175429519683378,-5.785370349884033,11.748308181762695,-147.43186950683594,18228129.0,50354.0,0.08008855347773393,0.041475283401408936,-0.04187481440900003,0.0039952022830821625,0.0020643431462474536,-0.0021175598146906272,18.228129439999975
1632,D,2688122831558.0,1.5643643069355746,0.8477448057137255,8.927536,167,1970-01-01 00:44:48.122831558,0.0013122559,0.0040283203,-0.001876831,9.168553330309477,0.00463377541417772,-5.781457901000977,11.75281810760498,-147.4311981201172,18278483.0,50354.0,0.07951537137803392,0.042177547980108934,-0.042652758532000026,0.004018348016093668,0.0021061273356924757,-0.0021281507039355584,18.278483443999903
1632,D,2688173185562.0,1.5532407069355747,0.8677185457137254,8.911819,167,1970-01-01 00:44:48.173185562,-0.0005340576,-0.0007324219,-0.0036010742,9.153659705742603,0.003713407431675524,-5.774819374084473,11.75924301147461,-147.4300079345703,18328837.0,50354.0,0.07849194143423394,0.043190220798888936,-0.04432775916500006,0.0039781501146744684,0.0021493043145488296,-0.002189908494057371,18.32883744799983
1632,D,2688223539566.0,1.5128354069355747,0.8184632057137254,8.9730835,167,1970-01-01 00:44:48.223539566,-0.0027008057,-0.006134033,0.00091552734,9.226480119676797,0.006764532695207331,-5.775245666503906,11.769266128540039,-147.42999267578125,18379191.0,50354.0,0.07719459831893394,0.04245299795568893,-0.04318100975750006,0.003919720011365508,0.002156239318584007,-0.0022032082751617856,18.37919145199976
1632,D,2688273893570.0,1.5877255069355747,0.7768524557137254,8.963135,167,1970-01-01 00:44:48.273893570,-0.002960205,0.0027160645,0.006362915,9.205494839038874,0.0075250586248487294,-5.782369136810303,11.768306732177734,-147.4311065673828,18429545.0,50354.0,0.07806282212853392,0.04016526240775893,-0.04188902682550007,0.003908916074605899,0.002080079941170527,-0.0021418083110501945,18.42954545600014
1632,D,2688324247574.0,1.5658749069355746,0.7769592757137255,8.948181,167,1970-01-01 00:44:48.324247574,0.0008087158,0.0057525635,0.0069274902,9.195396025397274,0.009040803533856818,-5.789353370666504,11.771327018737793,-147.43223571777344,18479899.0,50354.0,0.07939819762003393,0.03912031796214893,-0.04251599706800006,0.003964396094209693,0.0019961730569731705,-0.002125065286566653,18.47989946000007
1632,D,2688374601577.0,1.5617856069355747,0.8945740057137255,9.013748,167,1970-01-01 00:44:48.374601577,0.0013122559,0.0011444092,0.003036499,9.248711186469594,0.0035002877226208776,-5.776574611663818,11.772941589355469,-147.4295196533203,18530253.0,50354.0,0.07874510875773393,0.04208419342649893,-0.04124171356700005,0.003981574024673061,0.0020444859832319875,-0.002108767880657398,18.530253463000008
1632,D,2688424955581.0,1.5811795069355747,0.8780182057137255,8.953506,167,1970-01-01 00:44:48.424955581,0.0013122559,-0.00030517578,0.0016937256,9.187543631227255,0.0021642213869839605,-5.767634391784668,11.77333927154541,-147.42759704589844,18580607.0,50354.0,0.07913043267193393,0.04462855410710894,-0.041107646042000026,0.0039748325065747485,0.0021831668446536455,-0.002073309826875795,18.580607466999936
1632,D,2688475309585.0,1.5299557069355747,0.8440369057137255,8.935455,167,1970-01-01 00:44:48.475309585,0.0013122559,0.0045776367,-0.0053710938,9.18378375669288,0.0071781210572593535,-5.764667510986328,11.782217025756836,-147.42730712890625,18630961.0,50354.0,0.07832905127963392,0.04335618154040893,-0.043078828903000035,0.003964357427448623,0.0022151916893975577,-0.0021195628796902666,18.630961470999864
1632,D,2688525663589.0,1.5150632069355747,0.8351715557137255,8.998459,167,1970-01-01 00:44:48.525663589,0.0013122559,0.00592041,-0.0019378662,9.249064734070249,0.006366207310816012,-5.762155532836914,11.79114818572998,-147.4269256591797,18681315.0,50354.0,0.07666444119453393,0.042277431433358936,-0.041947047222000045,0.003902271160022124,0.002155997473840554,-0.002140696483199127,18.681315474999792
1632,D,2688576017593.0,1.5028409069355746,0.7983521057137254,9.049011,167,1970-01-01 00:44:48.576017593,-0.0027618408,0.009063721,-0.0016174316,9.30442251500164,0.009612225962339014,-5.76488733291626,11.800105094909668,-147.42758178710938,18731669.0,50354.0,0.07598177187493393,0.04112722522375893,-0.039088047810000026,0.0038431737064499923,0.002099879040656257,-0.002040220587620666,18.73166947899972
1632,D,2688626371597.0,1.5181760069355748,0.8624695057137255,8.958069,167,1970-01-01 00:44:48.626371597,-0.00093078613,3.0517578e-05,0.0034942627,9.206511446810943,0.003616236435713054,-5.758735656738281,11.809250831604004,-147.4261474609375,18782023.0,50354.0,0.07606014284053393,0.04181450571090893,-0.04010494684000003,0.0038279592867913343,0.0020882239597421327,-0.0019938420263030513,18.782023483000103
1632,D,2688676725601.0,1.5305508069355747,0.8237580057137255,8.96994,167,1970-01-01 00:44:48.676725601,0.0012512207,-0.00039672852,0.00061035156,9.219181914807637,0.0014475758306507864,-5.758591175079346,11.815738677978516,-147.4261016845703,18832377.0,50354.0,0.07675779499283393,0.04245415005520894,-0.04209571740700005,0.0038474972208307028,0.0021216319462235497,-0.0020695661237467213,18.83237748700003
1632,D,2688727079605.0,1.5379056069355748,0.7944458457137255,8.965637,167,1970-01-01 00:44:48.727079605,0.0013122559,-0.00039672852,0.0015869141,9.216382147069528,0.0020970706775035055,-5.76313591003418,11.820995330810547,-147.4269561767578,18882731.0,50354.0,0.07725452713203393,0.040741518367388936,-0.04190517787100007,0.0038775682341377986,0.002094617343875747,-0.002114890540414209,18.88273149099996
1632,D,2688777433609.0,1.5356168069355747,0.8671997457137255,8.965576,167,1970-01-01 00:44:48.777433609,0.0023651123,0.0027618408,-0.0005187988,9.209716177267284,0.0036729651497172376,-5.756041526794434,11.82685375213623,-147.42556762695312,18933085.0,50354.0,0.07738207381403393,0.041835251055368936,-0.042015050299000045,0.0038932857020191505,0.002079035323756775,-0.002112859584636093,18.933085494999887
1632,D,2688827787613.0,1.5662259069355746,0.8891571457137254,8.949097,167,1970-01-01 00:44:48.827787613,0.0013122559,0.0038604736,-0.0016021729,9.18529138751156,0.004380893740422858,-5.745954990386963,11.828551292419434,-147.42361450195312,18983439.0,50354.0,0.07809509400713394,0.04421979745546893,-0.04243147787900003,0.003914448654233544,0.002166607956357365,-0.0021261102399375083,18.983439498999815
1632,D,2688878141617.0,1.5359525069355746,0.8776062457137255,8.951279,167,1970-01-01 00:44:48.878141617,0.0013122559,0.0017547607,0.00050354004,9.194760402250404,0.002248277837197285,-5.737898826599121,11.834619522094727,-147.4219512939453,19033793.0,50354.0,0.07810354592603393,0.04448180190596893,-0.04279143344800005,0.003932613157597367,0.0022332401671229215,-0.0021456572384798813,19.033793502999742
1632,D,2688928495620.0,1.5165738069355748,0.8204163057137255,8.956055,167,1970-01-01 00:44:48.928495620,0.00024414063,-0.00039672852,-0.0005340576,9.208938535564688,0.0007086717758708521,-5.739086627960205,11.843033790588379,-147.42222595214844,19084147.0,50354.0,0.07685345500433394,0.042751113777288935,-0.04261625188200007,0.0039013524124238714,0.002196263118157383,-0.0021503092935534133,19.084147506000136
1632,D,2688978849624.0,1.5356015069355746,0.8233612457137255,8.947632,167,1970-01-01 00:44:48.978849624,0.00015258789,0.002746582,0.0037841797,9.196460220399903,0.004678355667196621,-5.739876747131348,11.848800659179688,-147.42221069335938,19134501.0,50354.0,0.07684461787733393,0.041385387412288935,-0.042708072401000045,0.003869656380941752,0.002118304690450002,-0.002148210512473094,19.134501510000064
1632,D,2689029203628.0,1.5357999069355748,0.8469818557137254,8.992783,167,1970-01-01 00:44:49.029203628,-0.002960205,0.00062561035,0.005859375,9.238071899829993,0.006594427749447037,-5.7363362312316895,11.852920532226562,-147.42117309570312,19184855.0,50354.0,0.07732867339703393,0.04205422826463893,-0.041783371545000045,0.0038816209544147596,0.0021007592038980133,-0.0021272410842284443,19.18485551399999
1632,D,2689079557632.0,1.5393704069355747,0.8062103657137254,9.011795,167,1970-01-01 00:44:49.079557632,-0.0028381348,-0.00039672852,0.0057373047,9.259808524345045,0.006413194826464773,-5.7389984130859375,11.85560417175293,-147.42141723632812,19235209.0,50354.0,0.07742356299233394,0.04162242055887893,-0.04016793969400007,0.003896197055575115,0.0021067269874297094,-0.0020632881630643063,19.23520951799992
1632,D,2689129911636.0,1.5261563069355746,0.8445557057137254,8.954102,167,1970-01-01 00:44:49.129911636,-0.0008239746,-0.00062561035,0.0032806396,9.20267466768473,0.0034399009631907195,-5.736382961273193,11.862184524536133,-147.4207000732422,19285563.0,50354.0,0.07718076607513392,0.04156133738032893,-0.04114181123100004,0.003892473192931638,0.0020943174736354365,-0.002047135599038728,19.285563521999848
1632,D,2689180265640.0,1.5563687069355747,0.8211792457137255,8.994415,167,1970-01-01 00:44:49.180265640,-0.00091552734,-0.0025024414,-0.0023345947,9.237899680731829,0.0035427017492289025,-5.7369513511657715,11.862518310546875,-147.42091369628906,19335917.0,50354.0,0.07760873227423393,0.04193820887208893,-0.04157938749100002,0.003897135199942034,0.002102268075997125,-0.002082671620223796,19.335917525999776
1632,D,2689230619644.0,1.5187863069355747,0.8580139557137254,9.021088,167,1970-01-01 00:44:49.230619644,-0.0012359619,0.008010864,0.0011138916,9.268130636836043,0.008181827322872206,-5.731285095214844,11.86833667755127,-147.41970825195312,19386271.0,50354.0,0.07742317778423392,0.04227704723233893,-0.03989288096900002,0.003903238399542045,0.0021202875029411807,-0.002051227303017421,19.386271529999703
1632,D,2689280973648.0,1.5010556069355747,0.8493012057137255,8.976364,167,1970-01-01 00:44:49.280973648,0.0050811768,-0.014175415,-0.002960205,9.229173960084319,0.015346776916900442,-5.727525234222412,11.876997947692871,-147.41908264160156,19436625.0,50354.0,0.07603055986553393,0.04298507381925893,-0.040347350996000016,0.0038635047528082058,0.0021466444217160797,-0.002020208320182806,19.436625534000086
1632,D,2689331327652.0,1.5763425069355748,0.8063172057137254,8.9466095,167,1970-01-01 00:44:49.331327652,1.5258789e-05,-0.002090454,0.00491333,9.188727113712275,0.005339573245649669,-5.731312274932861,11.875450134277344,-147.41961669921875,19486979.0,50354.0,0.07747965231293394,0.04168350474450893,-0.04222249619050005,0.003864926612017286,0.0021317008024999834,-0.002078861042614512,19.486979538000014
1632,D,2689381681656.0,1.5202207069355747,0.8092163557137254,8.984421,167,1970-01-01 00:44:49.381681656,-0.0015563965,0.001739502,0.005050659,9.236869180277937,0.005563936880258191,-5.734010219573975,11.881462097167969,-147.41989135742188,19537333.0,50354.0,0.07796217203563394,0.04067428847605893,-0.042019645101500074,0.003913558811623893,0.002073522159914237,-0.002120964391308687,19.537333541999942
1632,D,2689432035660.0,1.5382870069355747,0.8242005057137255,8.970947,167,1970-01-01 00:44:49.432035660,0.0013122559,0.0013427734,-0.0009613037,9.218503964100387,0.0021093033813242845,-5.734414577484131,11.885017395019531,-147.42005920410156,19587687.0,50354.0,0.07700404871213393,0.04112453632015894,-0.041406899864000035,0.003901584539766552,0.002059449011894377,-0.0021004301225963965,19.58768754599987
1632,D,2689482389663.0,1.5767087069355747,0.8886688657137255,9.016129,167,1970-01-01 00:44:49.482389663,0.0010070801,-0.0011749268,0.002532959,9.24851796674808,0.002968256156206073,-5.723912715911865,11.881311416625977,-147.41778564453125,19638041.0,50354.0,0.07842624708813394,0.04312491216442894,-0.040608587548000036,0.003913268557363344,0.0021211483644964692,-0.002064903926571926,19.63804154899981
1632,D,2689532743667.0,1.4864072069355747,0.8882111057137254,8.944702,167,1970-01-01 00:44:49.532743667,-0.0007019043,-0.00015258789,-0.004272461,9.197876496730158,0.004332421459998339,-5.714982986450195,11.893735885620117,-147.41612243652344,19688395.0,50354.0,0.07712006936353392,0.04473650704062894,-0.041269357913000064,0.003916189609303642,0.0022120869513257424,-0.0020614410328715998,19.688395552999737
1632,D,2689583097671.0,1.5446652069355746,0.8126038057137255,8.936569,167,1970-01-01 00:44:49.583097671,0.0005340576,-0.0060424805,-0.00039672852,9.184869819571396,0.00607899511692347,-5.718273639678955,11.896719932556152,-147.41680908203125,19738749.0,50354.0,0.07631331016403393,0.04282141702500893,-0.04327244003300004,0.003862992196365576,0.0022044458542005646,-0.002128508846886445,19.73874955700012
1632,D,2689633451675.0,1.5688504069355746,0.8056763057137254,8.969482,167,1970-01-01 00:44:49.633451675,0.0015869141,-0.005996704,0.0008392334,9.212596188500665,0.006259638002638042,-5.721980571746826,11.894877433776855,-147.4175262451172,19789103.0,50354.0,0.07838898261043392,0.04074343836540893,-0.04264855397300005,0.003894939625182777,0.0021039123641645504,-0.0021632328660890644,19.789103561000047
1632,D,2689683805679.0,1.5487241069355746,0.8699616057137255,8.998947,167,1970-01-01 00:44:49.683805679,-0.0027923584,0.0038757324,0.0024871826,9.239231040141302,0.00538559600751886,-5.71519660949707,11.895905494689941,-147.41598510742188,19839457.0,50354.0,0.07849117353573394,0.042187535696008936,-0.04107806306700007,0.003949771691292068,0.0020879531339443175,-0.0021079850372160832,19.839457564999975
1632,D,2689734159683.0,1.5185269069355747,0.8523529457137254,8.965668,167,1970-01-01 00:44:49.734159683,-0.0015258789,-0.001663208,0.0017852783,9.214787383034778,0.002877809214868161,-5.711813926696777,11.902228355407715,-147.41519165039062,19889811.0,50354.0,0.07722417877623393,0.043362713461288935,-0.04117408814500003,0.003920445425158415,0.0021538986230332886,-0.0020708624110645267,19.889811568999903
1632,D,2689784513687.0,1.5169705069355748,0.8392456457137254,8.974548,167,1970-01-01 00:44:49.784513687,0.00024414063,-0.002166748,0.0019073486,9.225008380276751,0.002896960514857384,-5.710356712341309,11.908273696899414,-147.41477966308594,19940165.0,50354.0,0.07642471838903393,0.042589377736368936,-0.041788381768,0.003868418283929949,0.0021640158000834323,-0.002088746104999602,19.94016557299983
1632,D,2689834867691.0,1.5284451069355747,0.8555878057137254,8.951309,167,1970-01-01 00:44:49.834867691,-0.00018310547,-0.0008239746,-0.0014038086,9.198423984577673,0.0016380294075574592,-5.706769943237305,11.91328239440918,-147.4141082763672,19990519.0,50354.0,0.07667442891043394,0.04267082180658893,-0.04214989831100002,0.0038545772315587033,0.0021465960438930504,-0.002113314077548984,19.99051957699976
1632,D,2689885221695.0,1.5685300069355748,0.8460663057137254,8.937073,167,1970-01-01 00:44:49.885221695,-0.001449585,-0.0029907227,-0.0005493164,9.177142310984808,0.003368600220837915,-5.705053329467773,11.912378311157227,-147.41375732421875,20040873.0,50354.0,0.07797254244193394,0.04284254556340893,-0.04309340638600004,0.0038935467977385665,0.0021529700502744367,-0.002146170682356371,20.04087358100014
1632,D,2689935575699.0,1.5765866069355747,0.8772400057137254,9.014816,167,1970-01-01 00:44:49.935575699,0.0014190674,-0.003967285,-0.0005493164,9.248307016477264,0.004249100029921245,-5.697116851806641,11.907857894897461,-147.41212463378906,20091227.0,50354.0,0.07918460098743393,0.04338768300280894,-0.04149449064700005,0.003956745400121195,0.0021710184646116675,-0.0021296694835998436,20.09122758500007
1632,D,2689985929702.0,1.5690488069355746,0.8401611757137254,8.9709015,167,1970-01-01 00:44:49.985929702,0.0033416748,-0.0012207031,-0.000289917,9.21054991868272,0.003569447911679571,-5.695806503295898,11.906002044677734,-147.41189575195312,20141581.0,50354.0,0.07919766281503393,0.04323900954479893,-0.04064279050250004,0.003987590255754733,0.0021810002382711235,-0.002067970327500964,20.141581588000008
1632,D,2690036283706.0,1.5385464069355748,0.8538178057137255,8.96637,167,1970-01-01 00:44:50.036283706,-0.0032653809,-0.00065612793,0.00077819824,9.211138252158499,0.003420352143179119,-5.692761421203613,11.909055709838867,-147.41119384765625,20191935.0,50354.0,0.07823992469963392,0.04264930881539893,-0.04186251544450005,0.003963806140856793,0.0021624101913547016,-0.0020772360878276216,20.191935591999936
1632,D,2690086637710.0,1.5433682069355747,0.8291596057137255,8.9640045,167,1970-01-01 00:44:50.086637710,-0.0021820068,0.00015258789,0.0018615723,9.210205096707307,0.002872261855671969,-5.693665504455566,11.91134262084961,-147.41127014160156,20242289.0,50354.0,0.07759336423343394,0.04237232228750894,-0.04203616121350006,0.00392341471546785,0.0021405896062779116,-0.002112316982218469,20.242289595999864
1632,D,2690136991714.0,1.5566434069355748,0.8196228457137255,9.01181,167,1970-01-01 00:44:50.136991714,-0.0058898926,0.0021209717,0.0035095215,9.254933214060932,0.007176774829315596,-5.695463180541992,11.91010856628418,-147.4114227294922,20292643.0,50354.0,0.07804899240243394,0.041511395779588935,-0.04089211833350003,0.003918607613021246,0.0021119403697753233,-0.0020878852941548214,20.292643599999792
1632,D,2690187345718.0,1.5598172069355747,0.8709686757137255,8.996094,167,1970-01-01 00:44:50.187345718,-0.0033569336,-0.0042877197,0.003829956,9.234071757493128,0.006657484989281842,-5.689230918884277,11.908766746520996,-147.40989685058594,20342997.0,50354.0,0.07846312887543394,0.04256402273497893,-0.04008420099200004,0.0039405056774128805,0.0021167668119412755,-0.002038740791658115,20.34299760399972
1632,D,2690237699722.0,1.5489987069355746,0.8476380057137255,8.9655,167,1970-01-01 00:44:50.237699722,0.0007019043,-0.0010070801,-0.0007019043,9.208707131054664,0.0014140543202200509,-5.687157154083252,11.910144805908203,-147.4095001220703,20393351.0,50354.0,0.07827065826353392,0.04326936041829894,-0.04125014786200004,0.003946086558797794,0.002161027087650077,-0.00204775490109716,20.393351608000103
1632,D,2690288053726.0,1.5608548069355748,0.8427246557137255,8.94928,167,1970-01-01 00:44:50.288053726,-0.0008239746,-0.0016021729,0.0009613037,9.190933101963996,0.002042057038031323,-5.686224937438965,11.910163879394531,-147.40924072265625,20443705.0,50354.0,0.07829678191873393,0.04255826072675894,-0.04242878394000003,0.003941898441468959,0.002160882017569122,-0.0021067844659789555,20.44370561200003
1632,D,2690338407730.0,1.5177182069355746,0.8544281457137255,8.997513,167,1970-01-01 00:44:50.338407730,-0.00019836426,0.0009765625,9.1552734e-05,9.245747804970334,0.001000702053137932,-5.6827006340026855,11.915349960327148,-147.4085235595703,20494059.0,50354.0,0.07750923277023393,0.042729216081538936,-0.041622792639000046,0.003922728031824144,0.0021472828036025156,-0.002116166543529485,20.49405961599996
1632,D,2690388761734.0,1.5564297069355746,0.8284882057137254,8.973801,167,1970-01-01 00:44:50.388761734,0.0013122559,0.00012207031,0.0012664795,9.217101546563725,0.0018278093531844495,-5.683639049530029,11.915172576904297,-147.40867614746094,20544413.0,50354.0,0.07739782202753394,0.04237078497988893,-0.04100542742200005,0.003900094918643402,0.0021425627267235695,-0.0020803306964757994,20.544413619999887
1632,D,2690439115738.0,1.5739316069355747,0.8432434557137255,8.999237,167,1970-01-01 00:44:50.439115738,0.0019683838,-0.0022888184,-0.0011291504,9.23685738430118,0.0032230738555145085,-5.681814670562744,11.911447525024414,-147.40834045410156,20594767.0,50354.0,0.07881310679933393,0.04208918803975893,-0.04096202227400002,0.003932922555074053,0.002126448740715674,-0.002063694480996194,20.594767623999815
1632,D,2690489469742.0,1.5388974069355748,0.8565338557137254,8.990158,167,1970-01-01 00:44:50.489469742,0.0024108887,0.00032043457,-0.0030822754,9.23396608300259,0.0039262557582108604,-5.6780829429626465,11.913585662841797,-147.4077606201172,20645121.0,50354.0,0.07837169608223393,0.04279529336980894,-0.040550202085000035,0.003957441782149234,0.0021371365884486904,-0.0020522332726865444,20.645121627999742
1632,D,2690539823745.0,1.5496701069355747,0.8664978457137255,8.977646,167,1970-01-01 00:44:50.539823745,-0.0011749268,-0.0014648438,0.0019378662,9.218612377231112,0.0026984339445054275,-5.673183441162109,11.914400100708008,-147.40663146972656,20695475.0,50354.0,0.07776086429673393,0.043380769146838936,-0.041093798692000055,0.003930949472661274,0.0021696547259816438,-0.0020555510075625314,20.695475631000136
1632,D,2690590177749.0,1.5823087069355748,0.8304413057137254,8.97554,167,1970-01-01 00:44:50.590177749,-0.0033111572,-0.0025177002,0.0026245117,9.213300194336691,0.0049183979061914835,-5.674238681793213,11.910139083862305,-147.4066925048828,20745829.0,50354.0,0.07885383059683393,0.04272383701548894,-0.041461836078000025,0.003943088173335358,0.002167855669348929,-0.002078503216604292,20.745829635000064
1632,D,2690640531753.0,1.5497159069355746,0.8144806057137255,9.007553,167,1970-01-01 00:44:50.640531753,-0.0022735596,0.00033569336,-0.00012207031,9.252720824194114,0.0023014483368704467,-5.677253246307373,11.909993171691895,-147.4072723388672,20796183.0,50354.0,0.07885498370343394,0.041414198964008934,-0.040708867539000035,0.003970634817637844,0.002118343331855818,-0.0020688118049652106,20.79618363899999
1632,D,2690690885757.0,1.5309171069355747,0.8615235057137255,8.96048,167,1970-01-01 00:44:50.690885757,-0.0013580322,-0.001083374,0.0026550293,9.20627056787416,0.0031728742906032897,-5.6734299659729,11.914313316345215,-147.40634155273438,20846537.0,50354.0,0.07756109739023392,0.042196755513408936,-0.04108803315900003,0.003938087673695276,0.00210507300087795,-0.002059400568873548,20.84653764299992
1632,D,2690741239761.0,1.5464657069355747,0.8823212057137254,8.966049,167,1970-01-01 00:44:50.741239761,0.00090026855,-0.0028839111,0.00061035156,9.206516896907953,0.0030821998185738618,-5.666227340698242,11.91594123840332,-147.40481567382812,20896891.0,50354.0,0.07747926710483392,0.04390477829960893,-0.04213297936700003,0.003903451256892324,0.002167778316810351,-0.002095255432367104,20.896891646999848
1632,D,2690791593765.0,1.5315732069355747,0.8386505557137255,9.004959,167,1970-01-01 00:44:50.791593765,-0.00016784668,0.00091552734,-0.00062561035,9.251601464510447,0.001121495041585838,-5.6655802726745605,11.91858959197998,-147.40472412109375,20947245.0,50354.0,0.07749578573453395,0.04332890603745893,-0.04101313158400005,0.0039018069053367646,0.002196282470554358,-0.002093369635413329,20.947245650999776
1632,D,2690841947769.0,1.5640897069355746,0.8261231057137255,9.01268,167,1970-01-01 00:44:50.841947769,-0.0004119873,-0.0012512207,0.002243042,9.253617668834616,0.0026012543492003586,-5.666779518127441,11.915864944458008,-147.40484619140625,20997599.0,50354.0,0.07793950518253392,0.04191400647375893,-0.03983910289700006,0.003913394319419018,0.002146160808294932,-0.00203561670752814,20.997599654999703
1632,D,2690892301773.0,1.5645322069355747,0.8387116057137255,8.974014,167,1970-01-01 00:44:50.892301773,0.00024414063,6.1035156e-05,0.000289917,9.214648396502572,0.000383903378955879,-5.666559219360352,11.914459228515625,-147.40478515625,21047953.0,50354.0,0.07876931392553393,0.04191554352960894,-0.040618205162000036,0.0039454579386838246,0.002110576580434793,-0.0020256736450014455,21.047953659000086
1632,D,2690942655777.0,1.5595731069355747,0.8557099057137254,8.915192,167,1970-01-01 00:44:50.942655777,0.00024414063,0.0025482178,0.00015258789,9.15676433620561,0.002564430086320992,-5.664572238922119,11.91590690612793,-147.40438842773438,21098307.0,50354.0,0.07865559948733394,0.04266045039320893,-0.043072660538000046,0.003963487044995774,0.0021293697989947856,-0.0021070849257289023,21.098307663000014
1632,D,2690993009781.0,1.5715970069355747,0.8498657657137254,8.956406,167,1970-01-01 00:44:50.993009781,0.0001373291,-0.0006866455,0.00050354004,9.194977270863502,0.0008624928383820132,-5.662919044494629,11.913984298706055,-147.4040069580078,21148661.0,50354.0,0.07883346995693394,0.04294127867952893,-0.04351597715400007,0.003965102301398332,0.0021551947328643213,-0.002180042131171487,21.148661666999942
1632,D,2691043363785.0,1.5608243069355747,0.8577088057137254,8.974243,167,1970-01-01 00:44:51.043363785,-1.5258789e-05,-0.00019836426,-0.0002593994,9.213820578112447,0.0003269086401541784,-5.659806251525879,11.913227081298828,-147.40338134765625,21199015.0,50354.0,0.07886497141933393,0.04299160498482893,-0.04202925012700007,0.003970373658530296,0.002163532212017538,-0.0021537721872537407,21.19901567099987
1632,D,2691093717788.0,1.5368985069355747,0.8244904057137254,9.005524,167,1970-01-01 00:44:51.093717788,0.0005950928,0.000869751,-0.0001373291,9.252415769881182,0.0010627612734380426,-5.661497116088867,11.915071487426758,-147.40374755859375,21249369.0,50354.0,0.07799136728483393,0.042352729546108935,-0.04079260624100006,0.003949172039554835,0.002148714310485423,-0.0020852058777771393,21.24936967399981
1632,D,2691144071792.0,1.5311154069355746,0.8151673057137254,9.010269,167,1970-01-01 00:44:51.144071792,0.0005950928,4.5776367e-05,-0.0017242432,9.25915064056815,0.001824622023634977,-5.664551258087158,11.917513847351074,-147.40447998046875,21299723.0,50354.0,0.07724338630953392,0.041281662200608936,-0.03988557963900007,0.0039083453912453995,0.0021056630810071158,-0.0020312346859007635,21.299723677999737
1632,D,2691194425796.0,1.5398587069355747,0.8533447657137254,8.927002,167,1970-01-01 00:44:51.194425796,0.0010986328,0.00019836426,-0.0023498535,9.17259134870644,0.002601567581352335,-5.6627888679504395,11.921380043029785,-147.4042510986328,21350077.0,50354.0,0.07731791526493394,0.042008128422328934,-0.041862528033000064,0.003891389889740377,0.0020969870585137067,-0.0020581721068579474,21.35007768200012
1632,D,2691244779800.0,1.5719327069355746,0.8597382057137254,8.942932,167,1970-01-01 00:44:51.244779800,0.0026855469,-0.0030059814,-0.0012817383,9.180845591951181,0.004229768244116037,-5.659712791442871,11.919605255126953,-147.4036865234375,21400431.0,50354.0,0.07834557242703392,0.04313028997162893,-0.043557871682000024,0.003919139629620675,0.0021435299599046774,-0.0021506294036245576,21.400431686000047
1632,D,2691295133804.0,1.5522183069355746,0.8387268457137255,8.999603,167,1970-01-01 00:44:51.295133804,0.0037994385,-0.0025939941,0.00030517578,9.242101206211993,0.004610604142931344,-5.65908670425415,11.919032096862793,-147.403564453125,21450785.0,50354.0,0.07865675007623392,0.04276225459978893,-0.04172999630500001,0.003952847473664775,0.002162516594674588,-0.0021472926523087,21.450785689999975
1632,D,2691345487808.0,1.5224942069355747,0.8357971657137254,9.053665,167,1970-01-01 00:44:51.345487808,0.0021972656,-0.001449585,0.0019378662,9.301174276843568,0.0032687303648772864,-5.658161640167236,11.921296119689941,-147.40328979492188,21501139.0,50354.0,0.07741203696173392,0.042159491035708936,-0.038942071564000015,0.0039293438512549165,0.00213807478986493,-0.0020310806527378137,21.501139693999903
1632,D,2691395841812.0,1.5489835069355746,0.8452271057137254,8.9991455,167,1970-01-01 00:44:51.395841812,4.5776367e-05,-0.0019836426,0.0019378662,9.24170031673759,0.002773492175834091,-5.656729698181152,11.921246528625488,-147.4029083251953,21551493.0,50354.0,0.07733059440213394,0.042323148081728934,-0.03895359004150005,0.003895955229848101,0.002127019405059733,-0.0019611790722416753,21.55149369799983
1632,D,2691446195816.0,1.5407742069355748,0.8541687457137255,8.991928,167,1970-01-01 00:44:51.446195816,-0.0010375977,0.00074768066,-0.0013580322,9.235522953407765,0.0018654454729689007,-5.654125690460205,11.922818183898926,-147.4024200439453,21601847.0,50354.0,0.07779082996213393,0.042785689351388934,-0.04050794249050007,0.0039054921012191724,0.0021427852000536086,-0.002000603004558167,21.60184770199976
1632,D,2691496549820.0,1.5352658069355747,0.8440827057137255,9.007233,167,1970-01-01 00:44:51.496549820,-0.0015411377,0.002822876,-0.0016784668,9.252526285642785,0.0036278072055223017,-5.6529693603515625,11.924764633178711,-147.40225219726562,21652201.0,50354.0,0.07744545942923393,0.04275687679258893,-0.04030432350300006,0.0039083840580064685,0.002153705187806931,-0.002034610420918353,21.65220170600014
1632,D,2691546903824.0,1.5433835069355746,0.8344086057137254,9.018158,167,1970-01-01 00:44:51.546903824,-0.0015411377,-0.0006866455,0.00033569336,9.262408384260542,0.00172025506393082,-5.653172492980957,11.924893379211426,-147.4022674560547,21702555.0,50354.0,0.07751115377533392,0.042259375747808935,-0.03964393079300006,0.003901342650651405,0.002140454190209597,-0.002012857198410395,21.70255571000007
1632,D,2691597257827.0,1.5366544069355748,0.8349426657137254,8.99675,167,1970-01-01 00:44:51.597257827,-0.00036621094,-0.0024108887,0.00093078613,9.242911222650477,0.0026101451293297374,-5.65355110168457,11.926636695861816,-147.40228271484375,21752909.0,50354.0,0.07754611455753394,0.042029256960728935,-0.039907861284000035,0.003903876844816615,0.002122134905702858,-0.0020028754691226317,21.752909713000008
1632,D,2691647611831.0,1.5369443069355746,0.8491181057137255,8.953033,167,1970-01-01 00:44:51.647611831,0.0005950928,-0.0008544922,0.0008087158,9.198938435050229,0.001318451214737322,-5.652318954467773,11.929824829101562,-147.40199279785156,21803263.0,50354.0,0.07738399481913392,0.04239959804222893,-0.041547513409000036,0.0039006753637763664,0.0021256652824094705,-0.002050801968645663,21.803263716999936
1632,D,2691697965835.0,1.5673093069355746,0.8599823457137254,8.958694,167,1970-01-01 00:44:51.697965835,0.0018463135,-0.0010223389,-0.00091552734,9.19712624629383,0.002300487052131121,-5.649262428283691,11.928141593933105,-147.4014129638672,21853617.0,50354.0,0.07815579323643393,0.04303002206558893,-0.04250564932100006,0.003916025243875031,0.0021508615454545305,-0.0021162064780532127,21.853617720999864
1632,D,2691748319839.0,1.5240506069355746,0.8560608057137254,8.962738,167,1970-01-01 00:44:51.748319839,0.001449585,-0.001449585,-0.001159668,9.21042338223967,0.0023552968421568436,-5.646866321563721,11.93292236328125,-147.40098571777344,21903971.0,50354.0,0.07783116855153392,0.04320481842348894,-0.042261306536000055,0.003927283736935666,0.0021711345789935136,-0.002134177647611692,21.903971724999792
1632,D,2691798673843.0,1.4909543069355746,0.8502777557137254,8.953598,167,1970-01-01 00:44:51.798673843,-0.0019989014,0.0024261475,-0.0007324219,9.20909257229667,0.0032277299047903346,-5.645761013031006,11.943092346191406,-147.40078735351562,21954325.0,50354.0,0.07590877871653393,0.04296048596105893,-0.042389608528000056,0.003870710652368144,0.002169383868489762,-0.0021312560885663307,21.95432572899972
1632,D,2691849027847.0,1.5265988069355747,0.8261688657137255,8.976547,167,1970-01-01 00:44:51.849027847,-0.002380371,0.0010375977,-0.002029419,9.22620106887005,0.0032956511590651236,-5.648163795471191,11.946686744689941,-147.4013671875,22004679.0,50354.0,0.07597293474793393,0.042207896587678935,-0.04204193933500005,0.0038239258998949074,0.0021442843674295735,-0.002125733080546754,22.004679733000103
1632,D,2691899381851.0,1.5494870069355746,0.8394592757137255,8.989777,167,1970-01-01 00:44:51.899381851,-0.00090026855,-0.00015258789,0.0010681152,9.233027048250495,0.001405217636796804,-5.648094177246094,11.94629192352295,-147.40127563476562,22055033.0,50354.0,0.07744661253583393,0.04193551971671894,-0.041131060652000034,0.0038626439419634237,0.0021184787922958253,-0.002094046620672701,22.05503373700003
1632,D,2691949735855.0,1.5403622069355747,0.8367127057137255,8.946838,167,1970-01-01 00:44:51.949735855,0.00018310547,0.0013427734,0.0015411377,9.193389661750487,0.002052236201623188,-5.649076461791992,11.94874095916748,-147.4014129638672,22105387.0,50354.0,0.07779313365763393,0.04220098197639893,-0.041879044145000044,0.003908471089912941,0.0021183047031276287,-0.002089945408474071,22.10538774099996
1632,D,2692000089859.0,1.5362271069355746,0.8431976757137254,8.95137,167,1970-01-01 00:44:52.000089859,-9.1552734e-05,-0.0009613037,-0.0016784668,9.19803730057003,0.0019364238961133496,-5.6489787101745605,11.951499938964844,-147.40147399902344,22155741.0,50354.0,0.07745928915533393,0.042295103673198935,-0.04284601718400003,0.003908790249162092,0.0021273579483999257,-0.0021331228690802347,22.155741744999887
1632,D,2692050443863.0,1.5364407069355748,0.8567475057137255,8.967957,167,1970-01-01 00:44:52.050443863,0.00021362305,-0.0018310547,-0.0028686523,9.212844611351331,0.00340992113401156,-5.646479606628418,11.953617095947266,-147.40109252929688,22206095.0,50354.0,0.07736055754983392,0.042799519832798935,-0.04231430412100001,0.003897899280496011,0.002142427336010508,-0.002144081409495986,22.206095748999815
1632,D,2692100797867.0,1.5059537069355746,0.8397034057137255,8.9664,167,1970-01-01 00:44:52.100797867,-0.0008087158,-0.001449585,-0.0049591064,9.219364308991699,0.005229536710256043,-5.646835803985596,11.960319519042969,-147.40138244628906,22256449.0,50354.0,0.07659836415803394,0.04271154459700893,-0.04193589381100003,0.003876223771838989,0.002152912069149273,-0.002121167233333965,22.256449752999742
1632,D,2692151151870.0,1.4983853069355746,0.8507050057137254,8.955963,167,1970-01-01 00:44:52.151151870,-0.0015411377,-0.0021820068,-0.0024719238,9.209767075423208,0.003639597004973761,-5.6456170082092285,11.968361854553223,-147.4012451171875,22306803.0,50354.0,0.07564024335223393,0.04255941257450893,-0.04223786674900002,0.003832911421286014,0.0021468668887073055,-0.002119242769619122,22.306803756000136
1632,D,2692201505874.0,1.5055417069355748,0.8214691557137255,8.962784,167,1970-01-01 00:44:52.201505874,0.00065612793,-0.0039978027,0.00074768066,9.217710041535456,0.004119703467240258,-5.648797035217285,11.974715232849121,-147.40184020996094,22357157.0,50354.0,0.07562987042823394,0.04210032886225894,-0.04232890678100004,0.0038085276546508395,0.002131478310153505,-0.0021291376571648114,22.357157760000064
1632,D,2692251859878.0,1.5569638069355747,0.8436402057137254,8.971298,167,1970-01-01 00:44:52.251859878,0.001663208,-0.00093078613,0.0006713867,9.213087826268513,0.002020738422458797,-5.648214340209961,11.973047256469727,-147.40170288085938,22407511.0,50354.0,0.07710470132273393,0.04192245839265893,-0.04194281748600004,0.0038453983129741187,0.0021154417147170672,-0.0021217092018702612,22.40751176399999
1632,D,2692302213882.0,1.5514096069355747,0.8405426457137254,9.018341,167,1970-01-01 00:44:52.302213882,-0.001373291,0.0014343262,0.0026245117,9.260340849066994,0.003291091229687249,-5.647537708282471,11.970881462097168,-147.40142822265625,22457865.0,50354.0,0.07825951744103393,0.04240267165038893,-0.04054405889700003,0.003911604935815384,0.0021230537990938165,-0.0020767720866947926,22.45786576799992
1632,D,2692352567886.0,1.5609158069355746,0.8219727057137255,9.016434,167,1970-01-01 00:44:52.352567886,0.0012207031,0.0017547607,-0.000289917,9.258329098533585,0.002157163192598812,-5.649731159210205,11.967334747314453,-147.40191650390625,22508219.0,50354.0,0.07835901694503393,0.041857149002888935,-0.03940766982500005,0.003943184840238031,0.002121409504587577,-0.002012944674033796,22.508219771999848
1632,D,2692402921890.0,1.5238217069355746,0.8162354057137254,8.94252,167,1970-01-01 00:44:52.402921890,0.0027313232,0.002532959,-0.0025787354,9.194661691529035,0.004530550074963569,-5.65390157699585,11.971891403198242,-147.40293884277344,22558573.0,50354.0,0.07766443638673393,0.04124516562140893,-0.04131661514200003,0.0039282024845339195,0.0020922669752959475,-0.002032395322614161,22.558573775999776
1632,D,2692453275894.0,1.4859341069355747,0.8595398357137255,8.960159,167,1970-01-01 00:44:52.453275894,0.0011444092,0.002822876,-0.00680542,9.21566734762667,0.007456007155630997,-5.6509599685668945,11.981650352478027,-147.40269470214844,22608927.0,50354.0,0.07577662212583393,0.042190993253418935,-0.042733450817000015,0.003863185530170921,0.0021006721719915413,-0.0021161285106497444,22.608927779999703
1632,D,2692503629898.0,1.4872006069355748,0.8296631057137255,8.976852,167,1970-01-01 00:44:52.503629898,0.001373291,0.0012512207,-0.0027160645,9.234486031694564,0.0032906667681413355,-5.652495384216309,11.990265846252441,-147.40316772460938,22659281.0,50354.0,0.07485461269113394,0.04252906245631893,-0.041869074053000034,0.0037924425989868007,0.0021329968426040706,-0.0021300377686519914,22.659281784000086
1632,D,2692553983902.0,1.5436734069355746,0.8469666057137254,8.988144,167,1970-01-01 00:44:52.553983902,-0.0007324219,-0.00012207031,-0.0007324219,9.231921515599115,0.0010429692420118228,-5.651167392730713,11.989731788635254,-147.40292358398438,22709635.0,50354.0,0.07630831504723393,0.042212506244608934,-0.04116449570800006,0.003805829031668888,0.0021335384751832607,-0.0020905361858726997,22.709635788000014
1632,D,2692604337906.0,1.5201596069355747,0.8439606057137254,8.960999,167,1970-01-01 00:44:52.604337906,-0.0015411377,-0.00038146973,0.0025177002,9.210702556008524,0.002976480952794357,-5.6507768630981445,11.99365234375,-147.40269470214844,22759989.0,50354.0,0.07713812379023394,0.042572474402108935,-0.04156362668900005,0.0038633209906109287,0.002134631457742416,-0.002082845937589272,22.759989791999942
1632,D,2692654691910.0,1.5719022069355746,0.8579224057137255,8.990219,167,1970-01-01 00:44:52.654691910,-0.002380371,-0.0020599365,0.005218506,9.227090648057512,0.006094449060719866,-5.64774751663208,11.9886474609375,-147.4017791748047,22810343.0,50354.0,0.07784884028783393,0.04284830857870894,-0.04151138441400006,0.003902106794593515,0.0021506390531080516,-0.002091579554540234,22.81034379599987
1632,D,2692705045913.0,1.5470456069355747,0.8876618057137254,8.995636,167,1970-01-01 00:44:52.705045913,-0.00093078613,-0.0008392334,0.00061035156,9.234726073638234,0.0013939887181287983,-5.639995098114014,11.987502098083496,-147.40013122558594,22860697.0,50354.0,0.07852574910983394,0.04394857369110893,-0.040639328665000064,0.003937043037265084,0.002185285104907205,-0.0020683085031899862,22.86069779899981
1632,D,2692755399917.0,1.5506772069355748,0.8526581057137255,8.943237,167,1970-01-01 00:44:52.755399917,0.00036621094,0.00045776367,-0.0007324219,9.186205178639897,0.0009381363812085972,-5.638721466064453,11.98746109008789,-147.39990234375,22911051.0,50354.0,0.07799136728483393,0.04381603441000893,-0.04182219447900006,0.003940631439468553,0.0022096495381618442,-0.002076133768196491,22.911051802999737
1632,D,2692805753921.0,1.5342435069355747,0.8195160057137254,8.983643,167,1970-01-01 00:44:52.805753921,0.0014190674,-0.0009918213,-0.0032196045,9.232161097100475,0.0036555868083382593,-5.642058849334717,11.988428115844727,-147.4007568359375,22961405.0,50354.0,0.07766904881313393,0.042100327603408934,-0.04212414224000002,0.003919062296098537,0.002163116246411822,-0.0021135169195742654,22.96140580700012
1632,D,2692856107925.0,1.5169553069355748,0.8668945757137254,8.989319,167,1970-01-01 00:44:52.856107925,-6.1035156e-05,-0.0005950928,-0.0022125244,9.236763903484741,0.002291969666351443,-5.63781213760376,11.991988182067871,-147.3999786376953,23011759.0,50354.0,0.07682003253683393,0.04245875920859893,-0.04096393572600002,0.003889571601148141,0.002128944128665922,-0.002091908538949983,23.011759811000047
1632,D,2692906461929.0,1.5457028069355747,0.8680390057137255,8.969269,167,1970-01-01 00:44:52.906461929,0.00039672852,0.00048828125,-0.002670288,9.211133467041861,0.0027434011920655994,-5.633775234222412,11.99179458618164,-147.3992919921875,23062113.0,50354.0,0.07710854333293395,0.04368042277959894,-0.041325829924000024,0.003875459754673146,0.0021687261849168576,-0.002071809429770051,23.062113814999975
1632,D,2692956815933.0,1.5007047069355748,0.8754852757137255,8.971527,167,1970-01-01 00:44:52.956815933,-0.0011901855,-0.0010986328,0.0007019043,9.222086934286404,0.0017652776552159097,-5.628674030303955,11.998332977294922,-147.39816284179688,23112467.0,50354.0,0.07669940197673393,0.043896710833498935,-0.04177377910800002,0.0038724226390615085,0.0022049294929769652,-0.0020921988565986652,23.112467818999903
1632,D,2693007169937.0,1.4985837069355747,0.8363617357137254,8.991226,167,1970-01-01 00:44:53.007169937,0.0012207031,0.00038146973,0.0014038086,9.245391972132147,0.0018990296992648227,-5.629446506500244,12.0043306350708,-147.3982696533203,23162821.0,50354.0,0.07551308439603394,0.04309917220670893,-0.04122096771900006,0.0038322537694071763,0.0021902953473033134,-0.0020895587408633815,23.16282182299983
1632,D,2693057523941.0,1.5365628069355748,0.8380249457137254,9.032867,167,1970-01-01 00:44:53.057523941,-0.001083374,0.0006866455,0.00050354004,9.277792867058524,0.0013779455135924106,-5.62941837310791,12.003114700317383,-147.3982391357422,23213175.0,50354.0,0.07641588377973393,0.04215603347829893,-0.03967661053900007,0.003825115631761308,0.002146470313531443,-0.002036758327801669,23.21317582699976
1632,D,2693107877945.0,1.4774197069355748,0.8752106057137254,8.999344,167,1970-01-01 00:44:53.107877945,-0.0015411377,-0.0021514893,0.0012817383,9.254131875582818,0.0029405551666416103,-5.624063968658447,12.011930465698242,-147.39703369140625,23263529.0,50354.0,0.07588303775173394,0.043134131478288935,-0.03947222365300003,0.003834429947397767,0.0021473504831120128,-0.0019927301984519865,23.26352983100014
1632,D,2693158231949.0,1.5511349069355747,0.8461426057137255,8.979401,167,1970-01-01 00:44:53.158231949,0.0022277832,-0.00440979,-0.0033111572,9.221942389609923,0.005947522831684976,-5.623587608337402,12.009771347045898,-147.39707946777344,23313883.0,50354.0,0.07624991951343393,0.04333850980410893,-0.04081833713500004,0.0038302514650651316,0.0021771216895669315,-0.0020214754489594777,23.31388383500007
1632,D,2693208585952.0,1.5660886069355746,0.8460816057137255,8.942947,167,1970-01-01 00:44:53.208585952,0.00079345703,0.00018310547,-6.1035156e-05,9.183364000096445,0.0008165947353909932,-5.623743534088135,12.00679874420166,-147.3971405029297,23364237.0,50354.0,0.07848233640873394,0.042605128971108935,-0.04223824440400005,0.003895694007352421,0.0021638029934436605,-0.002091115553407405,23.364237838000008
1632,D,2693258939956.0,1.5557736069355748,0.7776154057137254,8.991089,167,1970-01-01 00:44:53.258939956,0.0005950928,-0.0022125244,0.00033569336,9.239162941281249,0.0023156186415632628,-5.6339497566223145,12.003604888916016,-147.3992462158203,23414591.0,50354.0,0.07859912495863393,0.040879819656708935,-0.04194397562800002,0.003954839952846221,0.0021019005516025708,-0.002119455753745666,23.414591841999936
1632,D,2693309293960.0,1.5392484069355747,0.8539246057137254,8.945953,167,1970-01-01 00:44:53.309293960,0.0015716553,-0.0005493164,0.0033111572,9.191108232104682,0.0037061585088119056,-5.632479667663574,12.004790306091309,-147.39878845214844,23464945.0,50354.0,0.07792336924323394,0.04107728286770893,-0.04186829356600004,0.003940766836520428,0.002063433970257269,-0.0021101415014973396,23.464945845999864
1632,D,2693359647964.0,1.5357999069355748,0.8760803657137255,9.053055,167,1970-01-01 00:44:53.359647964,-0.00030517578,-0.00038146973,0.00061035156,9.294041738824726,0.0007817803005955797,-5.626053810119629,12.003100395202637,-147.39743041992188,23515299.0,50354.0,0.07742049139833393,0.043556335165628936,-0.04030817558400004,0.003911092379372754,0.0021308206012253476,-0.002068956963789552,23.515299849999792
1632,D,2693410001968.0,1.5108975069355748,0.8348206057137254,8.973373,167,1970-01-01 00:44:53.410001968,0.0015411377,-0.0014038086,-0.006713867,9.225572646526057,0.007030063590714116,-5.627483367919922,12.00756549835205,-147.39805603027344,23565653.0,50354.0,0.07670670078903394,0.043075353757628936,-0.03961782224400001,0.003880460317701361,0.0021811260320208636,-0.0020122968473155574,23.56565385399972
1632,D,2693460355972.0,1.4915952069355747,0.8612030457137254,8.976868,167,1970-01-01 00:44:53.460355972,0.00065612793,-0.001449585,-0.0001373291,9.230549808374663,0.001597078524825218,-5.624631881713867,12.014847755432129,-147.39747619628906,23616007.0,50354.0,0.07559375905713393,0.04270078747198894,-0.04153598234300004,0.0038344686775469683,0.0021595859077380894,-0.0020432093380869003,23.616007858000103
1632,D,2693510709976.0,1.5339230069355747,0.8081635057137254,8.975189,167,1970-01-01 00:44:53.510709976,-0.0025024414,-0.0024871826,-0.0017089844,9.225126632941043,0.003920321150826815,-5.630428791046143,12.015350341796875,-147.39871215820312,23666361.0,50354.0,0.07617347207063392,0.042029641665288935,-0.04149026091100004,0.0038210435781038114,0.0021332580143892453,-0.00209035172640596,23.66636186200003
1632,D,2693561063980.0,1.5215787069355746,0.8527649057137254,9.017136,167,1970-01-01 00:44:53.561063980,-0.002609253,-0.0025177002,-0.00074768066,9.26419420464513,0.003702167187530444,-5.628386974334717,12.016504287719727,-147.39828491210938,23716715.0,50354.0,0.07692836665013393,0.04181719461450893,-0.04047643347500001,0.0038546449934727723,0.002111011797016471,-0.002063675464556323,23.71671586599996
1632,D,2693611417984.0,1.5470303069355746,0.8256043057137255,8.973526,167,1970-01-01 00:44:53.611417984,-0.0005187988,-0.0025177002,0.001373291,9.219059694488948,0.002914428702617801,-5.631230354309082,12.015095710754395,-147.3988037109375,23767069.0,50354.0,0.07725836914223393,0.04225630163610893,-0.04051830282600003,0.0038819594470444457,0.002116718415101806,-0.002039204475850278,23.767069869999887
1632,D,2693661771988.0,1.5308713069355746,0.8488739457137254,8.989349,167,1970-01-01 00:44:53.661771988,-0.0015411377,-0.0035858154,-0.0028533936,9.235576114896523,0.004834773265599888,-5.630174160003662,12.015666961669922,-147.398681640625,23817423.0,50354.0,0.07749232893243393,0.042158338936188935,-0.04121789612500003,0.0038961583254259126,0.0021253074056887433,-0.0020578722809893287,23.817423873999815
1632,D,2693712125992.0,1.5260800069355747,0.8560455757137254,8.948975,167,1970-01-01 00:44:53.712125992,-0.0015411377,-0.002532959,-0.0018005371,9.196605901146876,0.0034688500334431726,-5.628624439239502,12.018340110778809,-147.39842224121094,23867777.0,50354.0,0.07696486322933394,0.042924758790978935,-0.041836016652,0.00388876872705683,0.002142137151476906,-0.00209104836198653,23.867777877999742
1632,D,2693762479995.0,1.5710172069355748,0.8396729057137254,8.9882965,167,1970-01-01 00:44:53.762479995,-0.00050354004,-0.005645752,-0.0007324219,9.227137348103003,0.005715287399334071,-5.629025936126709,12.012649536132812,-147.3985137939453,23918131.0,50354.0,0.07797561655363393,0.04269310420689893,-0.0418625154445,0.0039009364594957824,0.002155600936697571,-0.0021072779425935803,23.918131881000136
1632,D,2693812833999.0,1.5546750069355746,0.8562439357137255,8.926086,167,1970-01-01 00:44:53.812833999,-0.0015258789,-0.0004119873,-0.0007324219,9.168336195576988,0.0017419764040956783,-5.627816200256348,12.011890411376953,-147.3982696533203,23968485.0,50354.0,0.07869555286863393,0.04269809831661893,-0.04243879179750003,0.0039445100325444385,0.0021498943059346095,-0.002122454012431835,23.968485885000064
1632,D,2693863188003.0,1.5569638069355747,0.8676575057137255,8.987106,167,1970-01-01 00:44:53.863188003,-0.00048828125,-0.0014648438,-0.00074768066,9.22621136406104,0.001715579291912221,-5.623838901519775,12.008828163146973,-147.39747619628906,24018839.0,50354.0,0.07834173041683393,0.043402666590818935,-0.042468765016000026,0.003953727681278224,0.0021677589580745634,-0.002137717557893491,24.01883988899999
1632,D,2693913542007.0,1.5501889069355748,0.8300903757137255,8.998245,167,1970-01-01 00:44:53.913542007,-0.0014648438,-0.0026397705,-0.0028381348,9.242032620911594,0.004143569088845958,-5.625789165496826,12.006329536437988,-147.39797973632812,24069193.0,50354.0,0.07822878387713393,0.04274419841069894,-0.040652017873000004,0.003941975838379228,0.0021689196201432155,-0.002092731950796354,24.06919389299992
1632,D,2693963896011.0,1.5657224069355746,0.8412598057137255,8.964676,167,1970-01-01 00:44:53.963896011,0.002532959,-0.008636475,-0.0017242432,9.20506393694792,0.009163929088226962,-5.626234531402588,12.002344131469727,-147.39813232421875,24119547.0,50354.0,0.07844929914933392,0.04207958351779893,-0.041216737983000004,0.003944684096357382,0.0021356083576137912,-0.0020612096661865122,24.119547896999848
1632,D,2694014249993.0,1.5380429069355748,0.8251160057137255,9.01239,167,1970-01-01 00:44:54.014249993,-0.0035247803,0.00018310547,0.00045776367,9.258800265012754,0.0035590941760487147,-5.628756523132324,12.00153923034668,-147.3986053466797,24169901.0,50354.0,0.07814349930733394,0.04195434380430894,-0.04086060931800002,0.003942536886743527,0.0021157221881887103,-0.002066461372997278,24.169901879000008
1632,D,2694064603997.0,1.4980801069355747,0.8254822057137254,9.031601,167,1970-01-01 00:44:54.064603997,-0.00032043457,-0.008102417,0.0018920898,9.285819054275676,0.008326574527787772,-5.630669116973877,12.005767822265625,-147.3988800048828,24220255.0,50354.0,0.07644046912023393,0.041557111169108936,-0.03917563859300004,0.003891960573100877,0.002102567901865742,-0.0020150726136552487,24.220255882999936
1632,D,2694114958001.0,1.5347165069355746,0.8345764557137254,8.917999,167,1970-01-01 00:44:54.114958001,0.0015716553,0.00090026855,-0.00440979,9.166717466443567,0.0047672666894392635,-5.632876396179199,12.008469581604004,-147.39955139160156,24270609.0,50354.0,0.07635672034743393,0.04179529691875893,-0.04155212080000003,0.0038469748392274735,0.0020985635784282496,-0.002032482798237563,24.270609886999864
1632,D,2694165312005.0,1.5520200069355747,0.8823059557137255,8.991623,167,1970-01-01 00:44:54.165312005,0.00016784668,-0.007980347,0.001739502,9.230277472412853,0.008169453957052455,-5.626326560974121,12.005834579467773,-147.39808654785156,24320963.0,50354.0,0.07771476520973393,0.04322594847250893,-0.042558646906000024,0.003879057791872816,0.002140579895215951,-0.0021176567985339637,24.320963890999792
1632,D,2694215666009.0,1.5491208069355746,0.8166931557137255,8.919159,167,1970-01-01 00:44:54.215666009,-0.003112793,0.00022888184,-0.004425049,9.166594992017922,0.005415064709671694,-5.631700038909912,12.006205558776855,-147.39938354492188,24371317.0,50354.0,0.07807742227083393,0.042775700628408936,-0.042529441586000014,0.003922379904198257,0.0021652635194138094,-0.0021422628039630847,24.37131789499972
1632,D,2694266020013.0,1.5457791069355746,0.8131684057137254,9.040527,167,1970-01-01 00:44:54.266020013,0.0012054443,-0.0027923584,0.0005645752,9.285763376024091,0.0030933972507436046,-5.635279178619385,12.003057479858398,-147.4001007080078,24421671.0,50354.0,0.07792029513153392,0.04103502453205893,-0.041298185578,0.003927554531039415,0.0021101026273650995,-0.0021105281691080288,24.421671899000103
1632,D,2694316374016.0,1.5688351069355746,0.8699768457137255,8.969254,167,1970-01-01 00:44:54.316374016,-0.0019989014,0.0036315918,0.0022277832,9.20616280455714,0.004706068825989633,-5.631068706512451,11.999253273010254,-147.39910888671875,24472025.0,50354.0,0.07841664206263393,0.04237654799518894,-0.04003694376300003,0.003936095067737564,0.0021000531615185196,-0.002047774551418358,24.47202590200004
1632,D,2694366728020.0,1.5459317069355747,0.8518036057137255,8.964508,167,1970-01-01 00:44:54.366728020,0.002609253,0.0019836426,0.00022888184,9.207980509435746,0.003285639371450486,-5.629702568054199,11.999035835266113,-147.3988494873047,24522379.0,50354.0,0.07842048407283393,0.04334926642558893,-0.04195087412600004,0.003948688324712674,0.0021583188296719247,-0.002064207290991355,24.52237990599997
1632,D,2694417082024.0,1.5210904069355746,0.8696869057137254,8.989029,167,1970-01-01 00:44:54.417082024,0.0015258789,0.003479004,-0.0008544922,9.235353555748448,0.003893832581062269,-5.625237941741943,12.001930236816406,-147.3979949951172,24572733.0,50354.0,0.07721841576093394,0.04334196660620893,-0.04145299895100002,0.003918520581114774,0.002182625174041575,-0.0020998593124596306,24.572733909999897
1632,D,2694467436028.0,1.5686063069355747,0.8347443057137255,8.949951,167,1970-01-01 00:44:54.467436028,0.00044250488,0.0006866455,-0.0016479492,9.190761549544568,0.0018393012742002612,-5.627076148986816,11.998528480529785,-147.3984832763672,24623087.0,50354.0,0.07778929416513393,0.04291246461010893,-0.04181950054000002,0.0039026291128086113,0.002171627814733235,-0.0020965517196849083,24.623087913999825
1632,D,2694517790032.0,1.5665463069355747,0.8397949657137255,8.9313965,167,1970-01-01 00:44:54.517790032,-0.00047302246,0.0009918213,-0.0005645752,9.172628390071964,0.0012353966550275185,-5.628393650054932,11.99615478515625,-147.39877319335938,24673441.0,50354.0,0.07893373735943393,0.042159875236728934,-0.04327051399250003,0.003945815764694045,0.0021418663003238375,-0.002142311295884754,24.673441917999753
1632,D,2694568144036.0,1.5607785069355746,0.7846192057137255,8.973007,167,1970-01-01 00:44:54.568144036,-0.00047302246,0.002822876,0.0006713867,9.219816955565458,0.002939921641809071,-5.6377339363098145,11.993314743041992,-147.40069580078125,24723795.0,50354.0,0.07873665683883393,0.04089787559402894,-0.04269003308050002,0.0039696675147297905,0.0020911449926659907,-0.0021642286936569225,24.723795922000136
1632,D,2694618498040.0,1.5272397069355748,0.8476685057137254,9.004913,167,1970-01-01 00:44:54.618498040,-0.00012207031,0.002090454,0.0021209717,9.251597790410923,0.002980506674862579,-5.636347770690918,11.994784355163574,-147.4003143310547,24774149.0,50354.0,0.07774703457063392,0.04109610771060893,-0.04083910816000001,0.003939789898616173,0.0020643625176608674,-0.0021030131890120694,24.774149926000064
1632,D,2694668852044.0,1.5222043069355746,0.8361328557137254,9.012863,167,1970-01-01 00:44:54.668852044,0.0010528564,-0.001449585,0.0005493164,9.261491028562917,0.0018739134928152153,-5.636643886566162,11.996501922607422,-147.4003448486328,24824503.0,50354.0,0.07677585193723394,0.04239306687665893,-0.03983565364800005,0.0038904227136085895,0.0021020069485836435,-0.0020311484780400177,24.82450392999999
1632,D,2694719206048.0,1.5289029069355746,0.8528107057137254,8.963272,167,1970-01-01 00:44:54.719206048,-0.0013427734,-0.0010375977,0.0009918213,9.210233539111206,0.001965542897503522,-5.635186195373535,11.998838424682617,-147.3999786376953,24874857.0,50354.0,0.07681772632363393,0.04252253204605893,-0.040884049105000056,0.0038670255198738706,0.0021379200340772677,-0.002032279956212284,24.87485793399992
1632,D,2694769560052.0,1.5438260069355747,0.8177612757137255,8.93959,167,1970-01-01 00:44:54.769560052,-3.0517578e-05,0.00045776367,-0.0009460449,9.187471657637467,0.001051418020082814,-5.639647483825684,11.999564170837402,-147.4009552001953,24925211.0,50354.0,0.07736209586453392,0.04205999077639894,-0.04272884342600002,0.0038817853832315017,0.002129534177101022,-0.002105121795252989,24.925211937999848
1632,D,2694819914055.0,1.5437650069355746,0.8456848557137254,8.965073,167,1970-01-01 00:44:54.819914055,0.001663208,-0.0008392334,-0.0018005371,9.209564883326449,0.0025908507095963617,-5.639091491699219,11.999476432800293,-147.4009246826172,24975565.0,50354.0,0.07773627895623393,0.041880583250948934,-0.04268349964900001,0.0039049117828624724,0.002113371832286537,-0.002150426561599276,24.975565940999786
1632,D,2694870268059.0,1.5001859069355747,0.8588684557137255,8.986359,167,1970-01-01 00:44:54.870268059,0.00074768066,-0.0013885498,-0.00065612793,9.238174859930858,0.0017080985852532518,-5.636175155639648,12.005343437194824,-147.40036010742188,25025919.0,50354.0,0.07663755215853392,0.042915538721808935,-0.041505996536000025,0.0038866699459765104,0.0021349119629081254,-0.0021196389454497463,25.025919944999714
1632,D,2694920622063.0,1.5076016069355747,0.8729675757137254,8.989685,167,1970-01-01 00:44:54.920622063,-0.002380371,0.0023345947,0.0025787354,9.23852645975299,0.004215017766762348,-5.631178379058838,12.01007080078125,-147.399169921875,25076273.0,50354.0,0.07572706623673393,0.04360243576324893,-0.04088634021200004,0.0038360839973376588,0.002178263043610302,-0.0020743918623043977,25.076273949000097
1632,D,2694970976067.0,1.4883603069355746,0.8406342057137255,9.022736,167,1970-01-01 00:44:54.970976067,-0.0012969971,0.0011749268,-0.0007324219,9.277794263937695,0.0018971284359173628,-5.630877494812012,12.016341209411621,-147.39915466308594,25126627.0,50354.0,0.07542933310553393,0.04314335205099894,-0.03997047648300004,0.0038056646662402785,0.0021839986997993187,-0.0020357320739300172,25.126627953000025
1632,D,2695021330071.0,1.5581387069355748,0.8776520057137255,8.9544525,167,1970-01-01 00:44:55.021330071,-0.00021362305,0.002029419,-0.0012512207,9.193234465814372,0.00239368534380791,-5.625732421875,12.014235496520996,-147.3981475830078,25176981.0,50354.0,0.07670170567223393,0.043261291945108936,-0.04085752513550003,0.0038302031633078615,0.002175409721890008,-0.0020350065967489764,25.176981956999953
1632,D,2695071684075.0,1.5790738069355748,0.8255737757137255,8.940979,167,1970-01-01 00:44:55.071684075,0.0008544922,0.0004272461,-0.0036773682,9.180773142736882,0.0037994385148594377,-5.629156589508057,12.009161949157715,-147.3990478515625,25227335.0,50354.0,0.07898559946173393,0.04288211549899894,-0.04291592112450002,0.003919739281357909,0.002168832569220304,-0.0021091640564880215,25.22733596099988
1632,D,2695122038079.0,1.5613889069355746,0.8021668057137255,9.0000305,167,1970-01-01 00:44:55.122038079,0.002822876,0.0019378662,-0.0051879883,9.244220180892919,0.00621604190151702,-5.635162353515625,12.005026817321777,-147.40060424804688,25277689.0,50354.0,0.07906742974713393,0.04098162461859893,-0.04176840381850004,0.0039793011163916665,0.002111437384940762,-0.0021320972490899127,25.27768996499981
1632,D,2695172392083.0,1.4889859069355746,0.8191193057137255,8.947006,167,1970-01-01 00:44:55.172392083,0.0040740967,-0.00038146973,-0.0016174316,9.2061281059549,0.004399985006398968,-5.6390862464904785,12.013665199279785,-147.4015350341797,25328043.0,50354.0,0.07679928668883393,0.040819120427408935,-0.041616662039500055,0.003924256319708363,0.00205949735802334,-0.0020993858031068684,25.328043968999737
1632,D,2695222746087.0,1.4948453069355747,0.8550385057137254,8.967712,167,1970-01-01 00:44:55.222746087,-0.00016784668,-0.00038146973,0.0020446777,9.221534551846814,0.002086719569029482,-5.637078285217285,12.020646095275879,-147.40101623535156,25378397.0,50354.0,0.07512391847163394,0.042150271218308936,-0.04243034491400002,0.0038249705363251,0.002088920373464239,-0.0021160514940682714,25.37839797300012
1632,D,2695273100091.0,1.5158261069355747,0.8852051057137255,8.998215,167,1970-01-01 00:44:55.273100091,-0.0007171631,0.0005950928,0.002243042,9.243971810694285,0.0024289289339907523,-5.62992000579834,12.023423194885254,-147.3994140625,25428751.0,50354.0,0.07579967418703393,0.043814113404908935,-0.04114105592100002,0.003799803292367281,0.0021643253116587565,-0.0021040771588227963,25.428751977000047
1632,D,2695323454095.0,1.5293759069355748,0.8741425057137254,9.032471,167,1970-01-01 00:44:55.323454095,-0.002319336,0.00076293945,-0.00038146973,9.275504593401411,0.0024712173599601827,-5.624281406402588,12.022936820983887,-147.3982391357422,25479105.0,50354.0,0.07666905110323394,0.044295094812908935,-0.039510618578000055,0.0038387050966330744,0.0022183255353000007,-0.002030567208861325,25.479105980999975
1632,D,2695373808098.0,1.5609921069355748,0.8697327057137254,8.97522,167,1970-01-01 00:44:55.373808098,0.00024414063,-0.00289917,-0.0010528564,9.213609945312816,0.0030940746492510093,-5.620209693908691,12.019299507141113,-147.39743041992188,25529459.0,50354.0,0.07780619548523393,0.04390554619810893,-0.040089563693000055,0.0038892232833578557,0.0022206275387343967,-0.0020040937890369696,25.529459983999914
1632,D,2695424162102.0,1.5481137069355746,0.8473786057137255,8.985794,167,1970-01-01 00:44:55.424162102,-0.00047302246,-0.0010986328,-0.0035705566,9.228674200164809,0.003765583448909857,-5.61967658996582,12.017378807067871,-147.39747619628906,25579813.0,50354.0,0.07827795707583393,0.04323171148780894,-0.04126475052200003,0.003929730709030006,0.0021938547367583543,-0.0020482575689910573,25.57981398799984
1632,D,2695474516106.0,1.5310391069355747,0.8462189057137255,9.012238,167,1970-01-01 00:44:55.474516106,0.0002593994,0.00035095215,-0.0021209717,9.258073902064348,0.002165404445481461,-5.618880748748779,12.01732349395752,-147.3974151611328,25630167.0,50354.0,0.07752383039483393,0.04263970454520894,-0.040332748336000035,0.003922621603149005,0.002161984641463291,-0.0020543802287478676,25.63016799199977
1632,D,2695524870110.0,1.5261563069355746,0.8431061057137255,8.986221,167,1970-01-01 00:44:55.524870110,0.00090026855,0.0017547607,-0.0014801025,9.23406786465902,0.002465841030336271,-5.618962287902832,12.01891040802002,-147.39752197265625,25680521.0,50354.0,0.07697100893503392,0.042532135812708934,-0.04032199775700003,0.003889716569808083,0.0021443714246912986,-0.0020306445423834626,25.680521996000152
1632,D,2695575224114.0,1.5049161069355748,0.8498047057137255,9.0256195,167,1970-01-01 00:44:55.575224114,-0.0012359619,0.00062561035,-0.002105713,9.276225933568215,0.00252051926528002,-5.617490768432617,12.022359848022461,-147.39732360839844,25730876.0,50355.0,0.07631482570024085,0.04262326195471464,-0.03998588581125004,0.003859354101529631,0.002144000027289307,-0.002021951738539616,25.73087600000008
1632,D,2695625578118.0,1.5238065069355746,0.8259857557137255,9.03801,167,1970-01-01 00:44:55.625578118,-0.0014343262,-0.0006713867,-0.00033569336,9.286610816833814,0.001618870526290296,-5.619594097137451,12.02234172821045,-147.39773559570312,25781230.0,50354.0,0.07625414924943394,0.04219137644735894,-0.03868120007850005,0.003841229082307963,0.0021353781510490065,-0.0019806012214462383,25.781230004000008
1632,D,2695675932122.0,1.5394467069355746,0.8302124457137254,9.002975,167,1970-01-01 00:44:55.675932122,-0.00064086914,0.0002746582,0.00033569336,9.248848717930258,0.0007738477972958695,-5.621485233306885,12.021142959594727,-147.3981170654297,25831584.0,50354.0,0.07712352616563393,0.04169810211733894,-0.03925132065500006,0.0038615897339251636,0.0021120854018233984,-0.0019621070745073324,25.831584007999936
1632,D,2695726286126.0,1.5417813069355746,0.8422516057137255,8.969864,167,1970-01-01 00:44:55.726286126,-0.00090026855,-0.00038146973,-9.1552734e-05,9.214970457529244,0.0009820308142457904,-5.621963024139404,12.020686149597168,-147.39820861816406,25881938.0,50354.0,0.07757607770523392,0.04210762742278894,-0.040967032497000073,0.00389487192665684,0.0021099768526317998,-0.0020196574773079074,25.881938011999864
1632,D,2695776640130.0,1.5339383069355748,0.8536804657137255,8.977936,167,1970-01-01 00:44:55.776640130,0.00079345703,-0.00038146973,-0.002456665,9.223370615018336,0.00260965440922504,-5.620439052581787,12.021198272705078,-147.3980255126953,25932292.0,50354.0,0.07743739271843393,0.04269848176232894,-0.04159743940000006,0.003902774144856686,0.002135163410953713,-0.0020787257089507727,25.932292015999792
1632,D,2695826994134.0,1.5190152069355747,0.8517273357137255,8.958618,167,1970-01-01 00:44:55.826994134,-0.00047302246,4.5776367e-05,-0.003692627,9.207884777494707,0.0037230820410741917,-5.619635581970215,12.024599075317383,-147.3980255126953,25982646.0,50354.0,0.07686421061873394,0.042937052216538936,-0.041880579942000055,0.0038848514672198756,0.0021560458389859568,-0.002101726092973537,25.98264601999972
1632,D,2695877348138.0,1.5102414069355747,0.8321045057137254,8.925735,167,1970-01-01 00:44:55.877348138,0.0008544922,0.0037841797,-0.0035705566,9.17964745480501,0.005272480190153064,-5.622416973114014,12.0304536819458,-147.3988037109375,26033000.0,50354.0,0.07626759376743394,0.042393834271618934,-0.04319484451900006,0.003855399439030549,0.002148375729112351,-0.0021419439616546,26.033000024000103
1632,D,2695927702141.0,1.5144070069355746,0.8308075357137255,8.9366,167,1970-01-01 00:44:55.927702141,-0.00047302246,0.0031433105,0.00032043457,9.18945673129216,0.0031948128991735633,-5.625185966491699,12.035152435302734,-147.39938354492188,26083354.0,50354.0,0.07615157311603393,0.04186713646701893,-0.043749191705000044,0.003837457364625071,0.0021214384602866857,-0.0021889900000116504,26.08335402700004
1632,D,2695978056145.0,1.5322293069355746,0.8743103457137255,8.97316,167,1970-01-01 00:44:55.978056145,-0.0047454834,-0.0017242432,0.0065612793,9.217145292417925,0.008279070803238144,-5.620570659637451,12.035757064819336,-147.39804077148438,26133708.0,50354.0,0.07670516247433393,0.042929752900698934,-0.04255517248000003,0.003848474031958692,0.0021349312836110327,-0.002172884977085747,26.13370803099997
1632,D,2696028410149.0,1.5444974069355746,0.8768738057137254,8.969238,167,1970-01-01 00:44:56.028410149,-0.0023651123,0.0006866455,0.0025939941,9.210533142577662,0.003576876238439953,-5.6156487464904785,12.03471851348877,-147.39686584472656,26184062.0,50354.0,0.07746274847513393,0.04408956338048893,-0.04173344555400002,0.0038814854939747527,0.002190885326011467,-0.0021221345362420195,26.184062034999897
1632,D,2696078764153.0,1.5814389069355748,0.8649567057137254,8.960403,167,1970-01-01 00:44:56.078764153,0.00010681152,-0.000289917,-0.0005340576,9.195428656250709,0.0006169911569961683,-5.6127777099609375,12.02825927734375,-147.39630126953125,26234416.0,50354.0,0.07870169857433393,0.043854066786208935,-0.04205462854300004,0.003931752283364453,0.0022141567767069523,-0.0021095323415401706,26.234416038999825
1632,D,2696129118157.0,1.5669888069355746,0.8671387057137254,8.958893,167,1970-01-01 00:44:56.129118157,1.5258789e-05,-0.001449585,-0.0038604736,9.196713441545555,0.004123685962723605,-5.609694480895996,12.024147033691406,-147.39584350585938,26284770.0,50354.0,0.07926796455213393,0.043608966173508935,-0.042315084608000056,0.0039772022085350816,0.002202056780826817,-0.002124176268002729,26.284770042999753
1632,D,2696179472161.0,1.5467099069355748,0.8435181057137254,8.990509,167,1970-01-01 00:44:56.179472161,0.0016174316,-0.001449585,-0.0029296875,9.233924623516007,0.0036469782698228146,-5.609849452972412,12.022140502929688,-147.39602661132812,26335124.0,50354.0,0.07839359251913393,0.04306920654130893,-0.04155710584600006,0.003969445022383311,0.0021822963544409694,-0.002111650139060361,26.335124047000136
1632,D,2696229826165.0,1.5427884069355746,0.8645752357137254,8.980804,167,1970-01-01 00:44:56.229826165,0.000579834,0.0023040771,-0.0028686523,9.223294359667385,0.0037248013059216593,-5.606878280639648,12.021345138549805,-147.3955535888672,26385478.0,50354.0,0.07778429904833394,0.04300466605711893,-0.041005452599000076,0.003932090775994139,0.0021670818904106185,-0.0020786775339697683,26.385478051000064
1632,D,2696280180169.0,1.5209073069355747,0.8747223057137254,8.946762,167,1970-01-01 00:44:56.280180169,-0.0015411377,0.0033111572,-0.0033721924,9.193788948972934,0.0049709706291720225,-5.603005886077881,12.025078773498535,-147.39491271972656,26435832.0,50354.0,0.07713466698813393,0.043790294200518935,-0.04210687081800007,0.003900394807900152,0.0021852367144065484,-0.0020925189666698126,26.43583205499999
1632,D,2696330534173.0,1.5000333069355747,0.8380707057137254,8.966827,167,1970-01-01 00:44:56.330534173,-0.0010070801,0.0012207031,-0.0023345947,9.221192468823794,0.0028204004679182903,-5.604684829711914,12.031020164489746,-147.39537048339844,26486186.0,50354.0,0.07605822183543394,0.043122989648708934,-0.04245876974700004,0.003856937361910968,0.00218821574747201,-0.0021291091325050075,26.48618605899992
1632,D,2696380888177.0,1.5069607069355746,0.8494538057137254,8.9678955,167,1970-01-01 00:44:56.380888177,7.6293945e-05,-0.0015563965,-0.0034179688,9.219671515852312,0.003756421375329098,-5.604459762573242,12.03561782836914,-147.39549255371094,26536540.0,50354.0,0.07570708828723394,0.04248680462420893,-0.04192669161750005,0.003820995212958409,0.0021553977904092535,-0.002124572760774019,26.536540062999848
1632,D,2696431242180.0,1.4996518069355746,0.8417328057137254,8.965576,167,1970-01-01 00:44:56.431242180,-0.0016479492,-0.0024261475,-1.5258789e-05,9.21970431184439,0.002932944099054504,-5.605545520782471,12.04123592376709,-147.3956756591797,26586894.0,50354.0,0.07569748326173392,0.042579005315908934,-0.04195818804450005,0.003811912897888364,0.0021417018968623476,-0.0021119696152501768,26.586894065999786
1632,D,2696481596184.0,1.5002621069355746,0.8256653057137254,8.989944,167,1970-01-01 00:44:56.481596184,-0.001953125,-0.0015411377,0.0023956299,9.244827318059631,0.003453816048048926,-5.608749866485596,12.045828819274902,-147.3961944580078,26637248.0,50354.0,0.07552883260953393,0.04198008225140893,-0.04140307296000004,0.0038074249546909103,0.002128944147682362,-0.002098786468310299,26.637248069999714
1632,D,2696531950188.0,1.5333585069355746,0.8100556057137255,8.983398,167,1970-01-01 00:44:56.531950188,-0.0010681152,-0.0013580322,0.00024414063,9.233042807547486,0.0017449143772473987,-5.6144232749938965,12.045452117919922,-147.39735412597656,26687602.0,50354.0,0.07637746619543394,0.04118254538700893,-0.04095436846600007,0.003824544885012676,0.0020937854760524465,-0.0020735133027824045,26.687602074000097
1632,D,2696582304192.0,1.5173825069355746,0.8208435457137254,8.976685,167,1970-01-01 00:44:56.582304192,0.00022888184,-0.0027618408,0.00045776367,9.228791162675998,0.002808860815134544,-5.618285655975342,12.047687530517578,-147.3981170654297,26737956.0,50354.0,0.07680850650623393,0.041061147935488936,-0.04128819030900006,0.003856763234709892,0.002070649466780529,-0.0020706209022781784,26.737956078000025
1632,D,2696632658196.0,1.5395840069355746,0.8495453057137254,8.965103,167,1970-01-01 00:44:56.632658196,0.00044250488,-0.0028381348,-0.0004119873,9.210095178531347,0.002901818954923988,-5.6176981925964355,12.046954154968262,-147.39801025390625,26788310.0,50354.0,0.07696524591973393,0.04205538011238893,-0.04174880352400007,0.003871561764828593,0.002092624826661421,-0.002090622393733444,26.788310081999953
1632,D,2696683012200.0,1.5430783069355747,0.8438843057137254,8.922775,167,1970-01-01 00:44:56.683012200,-0.00047302246,-0.00019836426,-0.001159668,9.168711747969246,0.0012680412049826295,-5.618741989135742,12.047184944152832,-147.39828491210938,26838664.0,50354.0,0.07761218907633394,0.042635477326908935,-0.04310609559400007,0.0038917960808960007,0.0021322617177492024,-0.0021363917950938897,26.83866408599988
1632,D,2696733366204.0,1.5151089069355748,0.8240784057137255,8.931931,167,1970-01-01 00:44:56.733366204,-0.00047302246,0.0019683838,-7.6293945e-05,9.185427424690296,0.0020258592739404568,-5.62274694442749,12.05142879486084,-147.39913940429688,26889018.0,50354.0,0.07699597948363393,0.04199429718560893,-0.04394126703800003,0.003892569859834311,0.0021307238329016623,-0.002191591448985867,26.88901808999981
1632,D,2696783720208.0,1.5387296069355747,0.8083618557137254,8.969147,167,1970-01-01 00:44:56.783720208,0.0014648438,0.002166748,-0.002243042,9.218226565810884,0.0034455480939418683,-5.6284708976745605,12.05070972442627,-147.4004669189453,26939372.0,50354.0,0.07688649226373394,0.041099948461958934,-0.04277375919400004,0.0038742989911834808,0.0020920638226688162,-0.002183224215443066,26.939372093999737
1632,D,2696834074212.0,1.5242337069355747,0.8427704057137254,8.986588,167,1970-01-01 00:44:56.834074212,0.0033721924,0.0017547607,-0.0019836426,9.234859636495866,0.004287855485136715,-5.628242492675781,12.051739692687988,-147.4005584716797,26989726.0,50354.0,0.07711622735333393,0.04157055694595893,-0.041397659905000064,0.0038773264717989176,0.0020813953146551485,-0.002119183818655526,26.98972609800012
1632,D,2696884428216.0,1.5105466069355746,0.8841828057137254,8.956924,167,1970-01-01 00:44:56.884428216,0.00048828125,0.0030670166,0.0012664795,9.204992730126367,0.0033539498695862127,-5.622033596038818,12.056000709533691,-147.3992156982422,27040080.0,50354.0,0.07640666396233392,0.04347950100410893,-0.041705398376000034,0.0038652458346545696,0.002141305309008859,-0.0020922856983407396,27.040080102000047
1632,D,2696934782220.0,1.4827451069355746,0.8537415057137254,8.916077,167,1970-01-01 00:44:56.934782220,-0.0028839111,0.0005340576,0.0031433105,9.174050229031417,0.0042991349888356865,-5.621581077575684,12.06552505493164,-147.39894104003906,27090434.0,50354.0,0.07536210548013392,0.043755720388808934,-0.04348065382300003,0.003821082308253013,0.0021963211690094932,-0.0021447292362142246,27.090434105999975
1632,D,2696985136223.0,1.4870633069355748,0.8588532057137255,8.955566,167,1970-01-01 00:44:56.985136223,-0.0002593994,-0.002822876,-0.0005645752,9.211024788878401,0.0028904432387700336,-5.619622707366943,12.072667121887207,-147.39852905273438,27140788.0,50354.0,0.07477086643603394,0.04311799704960893,-0.04351484418900007,0.0037798978339333585,0.0021872195839470468,-0.0021902856534481265,27.140788108999914
1632,D,2697035490227.0,1.4998959069355746,0.8396118557137254,9.003143,167,1970-01-01 00:44:57.035490227,-0.0004272461,-0.0001373291,-0.002166748,9.256391619313325,0.0022127348253182127,-5.6200456619262695,12.076191902160645,-147.39874267578125,27191142.0,50354.0,0.07520267212763393,0.042762254851558934,-0.04132278350700007,0.0037758837804174657,0.0021622071021157037,-0.0021359569525021957,27.19114211299984
1632,D,2697085844231.0,1.5250577069355746,0.8030365457137254,8.962845,167,1970-01-01 00:44:57.085844231,-0.0015411377,0.00033569336,0.0010375977,9.215486395638388,0.0018879630370732022,-5.626893043518066,12.077042579650879,-147.40008544921875,27241496.0,50354.0,0.07615925713643394,0.04135695880273893,-0.04113952012400005,0.0038108392930814375,0.0021178694421742574,-0.0020761534185176904,27.24149611699977
1632,D,2697136198235.0,1.5240659069355746,0.8188904057137254,8.944748,167,1970-01-01 00:44:57.136198235,-0.00016784668,-0.001083374,0.0031738281,9.196514443872799,0.003357835097233429,-5.631261825561523,12.078605651855469,-147.40086364746094,27291850.0,50354.0,0.07676778522643393,0.04083525485608893,-0.04260973103900003,0.0038502441455699242,0.0020693533632883095,-0.0021085548965308534,27.291850121000152
1632,D,2697186552239.0,1.5343198069355748,0.8419464557137254,8.950531,167,1970-01-01 00:44:57.186552239,-0.0001373291,0.002166748,0.00064086914,9.197740012608168,0.002263707011036355,-5.631803035736084,12.07860279083252,-147.4009552001953,27342204.0,50354.0,0.07700097711813393,0.041814889660158935,-0.04291976061700003,0.003871436129549186,0.0020808826884855724,-0.0021533760114231136,27.34220412500008
1632,D,2697236906243.0,1.5293149069355747,0.8415039457137254,8.932846,167,1970-01-01 00:44:57.236906243,0.0002746582,0.0068969727,-0.004486084,9.181624112366777,0.008232169775121779,-5.632717609405518,12.080143928527832,-147.40138244628906,27392558.0,50354.0,0.07713313119113394,0.04238423075673894,-0.04321941727100005,0.003880634444902438,0.002119881254736238,-0.002168726081686178,27.392558129000008
1632,D,2697287260247.0,1.5117825069355746,0.8393982357137254,8.96933,167,1970-01-01 00:44:57.287260247,-0.0009460449,0.0050964355,-0.002243042,9.221011168450504,0.005647999041451783,-5.633405685424805,12.083040237426758,-147.40164184570312,27442912.0,50354.0,0.07656570958903394,0.04232007422179893,-0.04274611484800006,0.003869675714322287,0.002132600286444648,-0.002164354202160066,27.442912132999936
1632,D,2697337614251.0,1.5277127069355747,0.8014801457137254,8.945648,167,1970-01-01 00:44:57.337614251,0.0,0.00079345703,0.0031433105,9.198360735692152,0.003241909153240829,-5.6403489112854,12.083905220031738,-147.4029541015625,27493266.0,50354.0,0.07652537099963393,0.04131239500919893,-0.042423798894000046,0.0038543741359808913,0.0021056146778288334,-0.002144322918282337,27.493266136999864
1632,D,2697387968255.0,1.5044431069355746,0.8406799757137254,8.922958,167,1970-01-01 00:44:57.387968255,0.0005950928,0.00038146973,0.0007324219,9.177346868901708,0.0010178882232925789,-5.641256332397461,12.089128494262695,-147.4031219482422,27543620.0,50354.0,0.07634058692583394,0.04134466537717893,-0.043591306738000046,0.0038487062226895048,0.0020810568093478352,-0.0021656023144968665,27.543620140999792
1632,D,2697438322259.0,1.4770535069355746,0.8590668057137254,8.967438,167,1970-01-01 00:44:57.438322259,-0.0017547607,-0.00010681152,0.003189087,9.224692462009424,0.0036415477078624416,-5.638629913330078,12.096966743469238,-147.40240478515625,27593974.0,50354.0,0.07506514024743394,0.042794524715998934,-0.04304269990800006,0.003811941993041366,0.002118372388975939,-0.0021811843853263447,27.59397414499972
1632,D,2697488676263.0,1.4872617069355747,0.8478058057137254,8.9952545,167,1970-01-01 00:44:57.488676263,-0.006591797,0.0027923584,0.006210327,9.250619430309124,0.009477194446152751,-5.637628555297852,12.102262496948242,-147.40182495117188,27644328.0,50354.0,0.07463256413963393,0.042973931737908935,-0.041222490927500056,0.0037689391033532077,0.0021593924281400386,-0.0021215447096653867,27.644328149000103
1632,D,2697539030266.0,1.4980954069355747,0.8637818057137254,8.963226,167,1970-01-01 00:44:57.539030266,-0.0031585693,0.0022888184,0.0011444092,9.215656384931002,0.004065085744252597,-5.6345038414001465,12.106841087341309,-147.40109252929688,27694682.0,50354.0,0.07516233605593393,0.043092641292908934,-0.04132853645150003,0.0037713862022238118,0.0021668981091969015,-0.0020783872163210853,27.69468215200004
1632,D,2697589384270.0,1.5341519069355747,0.8234375457137254,9.021637,167,1970-01-01 00:44:57.589384270,-0.0007324219,0.0074157715,-0.0031585693,9.268772009842033,0.008093619017640647,-5.636845111846924,12.104052543640137,-147.4017791748047,27745036.0,50354.0,0.07634289062133394,0.04247912161088894,-0.04066430424900002,0.0038144470920535734,0.002154440274628919,-0.00206433375031649,27.74503615599997
1632,D,2697639738274.0,1.5212887069355747,0.7846192057137255,8.994659,167,1970-01-01 00:44:57.639738274,-0.0021209717,0.017440796,-0.007217407,9.24908005987373,0.01899396877615276,-5.6457929611206055,12.104501724243164,-147.404052734375,27795390.0,50354.0,0.07692682833543393,0.04048604483068893,-0.03987291560800003,0.0038588717141745453,0.002088813995499606,-0.0020276855843396903,27.795390159999897
1632,D,2697690092278.0,1.4858731069355746,0.7586334657137255,8.964783,167,1970-01-01 00:44:57.690092278,0.007537842,0.008895874,-0.019210815,9.230226207299044,0.022472450894485563,-5.658742427825928,12.110713005065918,-147.4078369140625,27845744.0,50354.0,0.07571131298783393,0.03885447250852893,-0.041304328766000015,0.003842970484095915,0.0019975562050494884,-0.002043799481604199,27.845744163999825
1632,D,2697740446282.0,1.5110501069355746,0.7824524057137254,8.9531555,167,1970-01-01 00:44:57.740446282,0.009338379,0.006881714,-0.029830933,9.211104480154296,0.032006997259598186,-5.667829513549805,12.113251686096191,-147.41131591796875,27896098.0,50354.0,0.07545353575563392,0.03879991898492893,-0.04234926238550004,0.0038058773968142907,0.0019551046146307886,-0.002106146464421317,27.896098167999753
1632,D,2697790800286.0,1.5150479069355747,0.8804901557137255,9.003632,167,1970-01-01 00:44:57.790800286,0.016082764,-0.008560181,-0.02909851,9.249839094837279,0.03433154935118072,-5.660048007965088,12.113031387329102,-147.41122436523438,27946452.0,50354.0,0.07618806969523394,0.04186790486905893,-0.04137116111250006,0.0038178807004365,0.0020309738011718525,-0.0021078291024091487,27.946452172000136
1632,D,2697841154290.0,1.4906186069355747,0.9110993057137254,8.972382,167,1970-01-01 00:44:57.841154290,0.005340576,-0.0006866455,-0.03201294,9.221842154516553,0.03246261790888169,-5.64866828918457,12.118017196655273,-147.4104461669922,27996806.0,50354.0,0.07567366581973393,0.045106847870358936,-0.04088709552200006,0.0038234229150603464,0.002189763349720324,-0.0020710161272868097,27.996806176000064
1632,D,2697891508294.0,1.4659299069355747,0.8285645057137254,8.953369,167,1970-01-01 00:44:57.891508294,0.0018463135,-1.5258789e-05,-0.02658081,9.216341764380394,0.026644860041423073,-5.651036739349365,12.127043724060059,-147.41226196289062,28047160.0,50354.0,0.07443702193373393,0.04379951578030893,-0.04215256707300004,0.0037793367855690606,0.002238395517632865,-0.0020906895851543175,28.04716017999999
1632,D,2697941862298.0,1.4159879069355745,0.8227814057137255,8.963257,167,1970-01-01 00:44:57.941862298,-0.0046081543,-0.003967285,-0.011886597,9.23742636655809,0.013351615054525893,-5.654262065887451,12.14293384552002,-147.4134521484375,28097514.0,50354.0,0.07255804479983392,0.041575936012008936,-0.04238230719800002,0.003700894795151038,0.002149497749775187,-0.0021283345295209687,28.09751418399992
1632,D,2697992216302.0,1.4392270069355746,0.7828797057137254,8.863007,167,1970-01-01 00:44:57.992216302,-0.011230469,-0.001953125,-0.0029449463,9.139059291440754,0.01177331049176355,-5.665622234344482,12.158336639404297,-147.41586303710938,28147868.0,50354.0,0.07188574588653393,0.04042572980240893,-0.04465735127200004,0.003636661318110684,0.0020645559402095986,-0.002191397481299192,28.147868187999848
1632,D,2698042570305.0,1.4305295069355748,0.8085144457137254,9.029953,167,1970-01-01 00:44:58.042570305,-0.010360718,-0.009887695,0.01600647,9.30037453939383,0.021478316315518053,-5.669648170471191,12.168793678283691,-147.415771484375,28198222.0,50354.0,0.07225185974973393,0.04006653055048893,-0.04297814608000003,0.0036289524971043164,0.0020265536389049094,-0.002206398916831306,28.198222190999786
1632,D,2698092924309.0,1.4636105069355747,0.8503998057137254,8.925858,167,1970-01-01 00:44:58.092924309,-0.014724731,-0.021270752,0.03147888,9.188010138594835,0.0407453369077035,-5.668650150299072,12.177129745483398,-147.4137725830078,28248576.0,50354.0,0.07286576312923394,0.04176648410818893,-0.041395746453000024,0.0036536263912237744,0.0020603098100615324,-0.0021242814923033426,28.248576194999714
1632,D,2698143278313.0,1.5436276069355748,0.8176392057137254,8.957291,167,1970-01-01 00:44:58.143278313,-0.017349243,-0.021865845,0.030578613,9.2047493202227,0.041402451415838204,-5.672516345977783,12.17189884185791,-147.41281127929688,28298930.0,50354.0,0.07571323399293393,0.04199621819070893,-0.04322515762700005,0.003740773410544821,0.0021088935557793515,-0.002130500502022162,28.298930199000097
1632,D,2698193632317.0,1.5309018069355746,0.8409699057137254,8.920486,167,1970-01-01 00:44:58.193632317,-0.009902954,-0.02558899,0.016830444,9.16931740205381,0.03218895388768253,-5.672939300537109,12.169757843017578,-147.41184997558594,28349284.0,50354.0,0.07740742705303394,0.04175880159840893,-0.04336040847100004,0.0038551188831543338,0.002108700133230621,-0.0021799647976493484,28.349284203000025
1632,D,2698243986321.0,1.5981778069355748,0.8332642057137254,9.037598,167,1970-01-01 00:44:58.243986321,-0.006088257,-0.028961182,0.0025939941,9.270297386696795,0.029707671425509063,-5.672691345214844,12.153459548950195,-147.41146850585938,28399638.0,50354.0,0.07878083743843393,0.042152192223408935,-0.041338519132000054,0.003932351935101688,0.0021126270914519087,-0.0021324649002607337,28.399638206999953
1632,D,2698294340325.0,1.6003598069355747,0.7981690057137254,8.950928,167,1970-01-01 00:44:58.294340325,0.000869751,-0.028274536,-0.011962891,9.188866147689495,0.030713459816425405,-5.6791887283325195,12.139786720275879,-147.4132843017578,28449992.0,50354.0,0.08052958150443393,0.04107459396410893,-0.040572080898000074,0.004010958417724584,0.0020954007958431374,-0.002062263176955313,28.44999221099988
1632,D,2698344694329.0,1.6242856069355747,0.7608612457137255,8.972702,167,1970-01-01 00:44:58.344694329,0.005645752,-0.015213013,-0.025497437,9.20912388129633,0.030222997431635434,-5.690990924835205,12.122596740722656,-147.41700744628906,28500346.0,50354.0,0.08118689758503393,0.03925170464018893,-0.04220596749000006,0.004071535794035532,0.002022375219960407,-0.002084102924264679,28.50034621499981
1632,D,2698395048333.0,1.6015652069355746,0.8185547057137255,9.030762,167,1970-01-01 00:44:58.395048333,0.016921997,-0.027267456,-0.021362305,9.264385755778822,0.03855147486274643,-5.69182014465332,12.107095718383789,-147.4182586669922,28550700.0,50354.0,0.08121724594083393,0.03976495540908894,-0.04019598687200006,0.004088849121550775,0.001989402450060669,-0.002074634004972077,28.550700218999737
1632,D,2698445402337.0,1.5771512069355746,0.8318146057137255,8.950577,167,1970-01-01 00:44:58.445402337,0.010543823,-0.0077819824,-0.013885498,9.189903413893042,0.019092891563020065,-5.692063808441162,12.099249839782715,-147.41905212402344,28601054.0,50354.0,0.08003054315203394,0.04155134815380893,-0.04075302799700008,0.004059735585991134,0.00204730057480308,-0.0020380533473568167,28.60105422300012
1632,D,2698495756341.0,1.4716672069355747,0.8435944057137255,8.985123,167,1970-01-01 00:44:58.495756341,-0.003036499,-0.006790161,0.002746582,9.244508565775684,0.007929080984934257,-5.690399646759033,12.10667610168457,-147.4185028076172,28651408.0,50354.0,0.07676010120603394,0.04218177268070893,-0.041902081100000065,0.003947518053003076,0.0021081487832506564,-0.0020810076817351724,28.651408227000047
1632,D,2698546110345.0,1.5059995069355747,0.8232697057137255,8.9197235,167,1970-01-01 00:44:58.546110345,-0.0026397705,-0.01512146,0.01499939,9.175570834658657,0.021461794920191794,-5.692868709564209,12.110445022583008,-147.41819763183594,28701762.0,50354.0,0.07496871485513393,0.04196663773340893,-0.04267887966950005,0.0038200764019720237,0.0021186045289962453,-0.0021294948492937044,28.701762230999975
1632,D,2698596464348.0,1.5424069069355746,0.8439606057137254,8.939209,167,1970-01-01 00:44:58.596464348,-0.0047302246,-0.006881714,0.015289307,9.18483838829311,0.017421134316814454,-5.691792011260986,12.108407974243164,-147.41714477539062,28752116.0,50354.0,0.07674972828203393,0.04197585755080893,-0.04383485644750004,0.0038198152428644758,0.0021134202037707533,-0.0021781563342177113,28.752116233999914
1632,D,2698646818352.0,1.5874967069355748,0.8064545057137255,8.974731,167,1970-01-01 00:44:58.646818352,-0.008987427,0.0005950928,0.016357422,9.213824931535287,0.01867332948370549,-5.696328639984131,12.098676681518555,-147.41720581054688,28802470.0,50354.0,0.07880158328643393,0.041552501260408936,-0.04244993262000003,0.003916315371359316,0.0021029934897900324,-0.0021723921343524497,28.80247023799984
1632,D,2698697172356.0,1.5876797069355746,0.8036621557137255,8.984573,167,1970-01-01 00:44:58.697172356,-0.00579834,-0.0035552979,0.015274048,9.223654069635932,0.016719971059174964,-5.700880527496338,12.088631629943848,-147.41734313964844,28852824.0,50354.0,0.07994141657203394,0.040537907184758935,-0.04130780319200005,0.003996672507436645,0.002066790213423992,-0.002108768514538726,28.85282424199977
1632,D,2698747526360.0,1.5621976069355747,0.8017243057137254,8.980057,167,1970-01-01 00:44:58.747526360,-0.0036468506,-0.00032043457,0.013137817,9.224653575965913,0.01363834422273688,-5.705615520477295,12.08299732208252,-147.4176483154297,28903178.0,50354.0,0.07930446113133394,0.040418814939358935,-0.04117371049000005,0.004009333462937693,0.0020382473929189157,-0.002076637069971717,28.903178246000152
1632,D,2698797880364.0,1.6372250069355747,0.8766297057137254,9.015289,167,1970-01-01 00:44:58.797880364,0.002670288,0.012237549,0.010009766,9.236678186047534,0.016033822342320654,-5.697582721710205,12.065850257873535,-147.4155731201172,28953532.0,50354.0,0.08055186314943394,0.04225591894570893,-0.04040037375800005,0.004024702676416893,0.0020815017750243536,-0.0020537907191118987,28.95353225000008
1632,D,2698848234368.0,1.5664548069355746,0.7938965057137255,8.9869995,167,1970-01-01 00:44:58.848234368,-0.0022735596,-0.007461548,0.015029907,9.231327376316502,0.016933454350477495,-5.703423976898193,12.05954647064209,-147.41598510742188,29003886.0,50354.0,0.08065904667383393,0.042058838425108935,-0.04022558243550007,0.004058807076620415,0.0021227926463250816,-0.0020299196990837525,29.003886254000008
1632,D,2698898588372.0,1.6568173069355747,0.8754852757137255,8.986923,167,1970-01-01 00:44:58.898588372,0.01109314,-0.032821655,0.004425049,9.205245810045204,0.03492706472996301,-5.695639610290527,12.038586616516113,-147.41412353515625,29054240.0,50354.0,0.08115232201093393,0.04203002511099894,-0.04093975321750003,0.0040739248293764005,0.002117105317248588,-0.0020434996557355837,29.054240257999936
1632,D,2698948942376.0,1.6453427069355746,0.7664154457137254,8.983185,167,1970-01-01 00:44:58.948942376,0.0016021729,0.0052337646,-0.0058135986,9.214591158844643,0.007984809238274233,-5.70598840713501,12.021526336669922,-147.41659545898438,29104594.0,50354.0,0.08313848266923393,0.04133813446337893,-0.041035790884,0.004136349589432587,0.002098960153604112,-0.0020638982738434663,29.104594261999864
1632,D,2698999296380.0,1.5674313069355748,0.7962006057137254,9.017563,167,1970-01-01 00:44:58.999296380,-0.00045776367,0.0155181885,0.0034484863,9.260653062117246,0.015903326056532698,-5.710816383361816,12.016313552856445,-147.41751098632812,29154948.0,50354.0,0.08088801134723393,0.03934198432678893,-0.040264367604,0.004129695039852611,0.0020312833507800565,-0.002046894090252376,29.154948265999792
1632,D,2699049650384.0,1.5838498069355746,0.7846802057137254,8.929062,167,1970-01-01 00:44:59.049650384,-0.00036621094,0.017349243,0.0047302246,9.172305108125997,0.017986254971284876,-5.7187886238098145,12.011590957641602,-147.41900634765625,29205302.0,50354.0,0.07933980460393393,0.03980183618930893,-0.04162702237500002,0.004034055722202554,0.001992603969133796,-0.0020617795255012837,29.20530226999972
1632,D,2699100004388.0,1.5537900069355748,0.9032257557137254,8.879501,167,1970-01-01 00:44:59.100004388,0.0017242432,0.009979248,0.0066223145,9.118804196812137,0.012100142751024076,-5.708324432373047,12.013212203979492,-147.4165802001953,29255656.0,50354.0,0.07899635759383393,0.04249640839085893,-0.04510300934900005,0.003986429555653202,0.002072022903794886,-0.00218360200871515,29.255656274000103
1632,D,2699150358391.0,1.5445126069355748,0.8542755557137255,8.94928,167,1970-01-01 00:44:59.150358391,0.0025634766,0.0055236816,0.0043792725,9.193215885058041,0.007500699855758952,-5.704833984375,12.013557434082031,-147.41571044921875,29306010.0,50354.0,0.07800596490943394,0.044248610517808935,-0.04459398076300006,0.003952847473664776,0.002183979341063531,-0.0022583011200498267,29.30601027700004
1632,D,2699200712395.0,1.5890225069355748,0.8042725057137254,8.960159,167,1970-01-01 00:44:59.200712395,0.0006713867,0.012435913,0.0011444092,9.199540318266349,0.012506492900151926,-5.709316730499268,12.006927490234375,-147.41664123535156,29356364.0,50354.0,0.07889301356193394,0.04175726454255893,-0.04256325429700002,0.003950245580973629,0.0021653699163948817,-0.002194357707105622,29.35636428099997
1632,D,2699251066399.0,1.5221585069355748,0.8085755057137255,9.026062,167,1970-01-01 00:44:59.251066399,0.0015258789,0.011413574,-0.0014190674,9.277036022218017,0.011602229533873392,-5.711924076080322,12.008468627929688,-147.41732788085938,29406718.0,50354.0,0.07833020438623395,0.040606674383708935,-0.04063011388300003,0.003958408958281023,0.0020736768903466462,-0.0020945594306678614,29.406718284999897
1632,D,2699301420403.0,1.5296658069355746,0.7872589557137254,8.977142,167,1970-01-01 00:44:59.301420403,0.0008544922,0.003479004,0.0007324219,9.230022468109924,0.003656510302388939,-5.718619346618652,12.009952545166016,-147.41871643066406,29457072.0,50354.0,0.07683578075033393,0.040178324235358935,-0.040202532892000035,0.0039066140077833695,0.002033923910232272,-0.0020351235478541767,29.457072288999825
1632,D,2699351774407.0,1.5392941069355748,0.7757691057137255,8.958115,167,1970-01-01 00:44:59.351774407,0.0027313232,0.0011138916,-0.0042266846,9.210687413710106,0.005154196700484563,-5.727236270904541,12.010372161865234,-147.42074584960938,29507426.0,50354.0,0.07726720375153394,0.03935235750255893,-0.04191323451100004,0.0038798508408035277,0.002002343974115558,-0.002067428675905333,29.507426292999753
1632,D,2699402128411.0,1.5544919069355747,0.8922547057137254,8.959564,167,1970-01-01 00:44:59.402128411,0.0027313232,0.0045166016,-0.005279541,9.197629108067096,0.007465478524961531,-5.717187404632568,12.00895881652832,-147.41896057128906,29557780.0,50354.0,0.07789225047123392,0.04199583550030893,-0.042355795817000046,0.003906449578966627,0.0020481034552332043,-0.0021216413765680585,29.557780297000136
1632,D,2699452482415.0,1.5933865069355746,0.8423889557137254,8.981232,167,1970-01-01 00:44:59.452482415,0.002105713,0.00831604,-0.0002593994,9.215441847125348,0.008582414378756677,-5.714931011199951,12.001025199890137,-147.41856384277344,29608134.0,50354.0,0.07925413482603393,0.04367312346375893,-0.04177377910800002,0.003956474542629313,0.0021568873798383367,-0.0021181303078867267,29.608134301000064
1632,D,2699502836419.0,1.5732449069355747,0.7794312057137255,8.985397,167,1970-01-01 00:44:59.502836419,-0.0015411377,0.008483887,0.001876831,9.229853173169044,0.008824621161369553,-5.722769737243652,11.996048927307129,-147.42013549804688,29658488.0,50354.0,0.07972627910703393,0.04083256620425894,-0.04112338166700001,0.0040026498815928496,0.0021275997487716857,-0.002087101816832176,29.65848830499999
1632,D,2699553190423.0,1.5136441069355746,0.8142059757137254,8.963409,167,1970-01-01 00:44:59.553190423,-0.0017089844,0.0017242432,-0.0022888184,9.217321970697087,0.0033365149423265224,-5.72531795501709,12.00070571899414,-147.42076110839844,29708842.0,50354.0,0.07771860470223393,0.04012300331679894,-0.04157211133800001,0.003963989839665937,0.002038218373831674,-0.002082024427386886,29.70884230899992
1632,D,2699603544427.0,1.5206326069355747,0.8515595057137254,8.986267,167,1970-01-01 00:44:59.603544427,-0.0027923584,-0.010177612,-0.007736206,9.234463919738582,0.013085485651324927,-5.721642971038818,12.002946853637695,-147.4202880859375,29759196.0,50354.0,0.07639398482513392,0.04193897752589893,-0.04155020734800003,0.0038800926665305403,0.002066074491676604,-0.002092770617557423,29.759196312999848
1632,D,2699653898430.0,1.5155515069355747,0.8160065057137255,9.006241,167,1970-01-01 00:44:59.653898430,-0.0016174316,-0.010314941,-0.022460938,9.258401520762181,0.02476909018623824,-5.723445415496826,12.005061149597168,-147.4217071533203,29809550.0,50354.0,0.07644200743493393,0.041984309469708936,-0.04047182608400006,0.003847951777131728,0.0021129365966884193,-0.0020650687357174667,29.809550315999786
