Subject-id_accel,Activity_accel,Timestamp_accel,accel_x,accel_y,accel_z,Segment_accel,DateTime,gyro_x,gyro_y,gyro_z,accel_magnitude,gyro_magnitude,Roll,Pitch,Yaw,Time_Difference,Difference_Microseconds,vx,vy,vz,dx,dy,dz,Time_diff
1618,D,197148188915506.0,1.5569336512584409,0.8551008189932473,9.023773,92,1970-01-03 06:45:48.188915506,0.002822876,-0.00015258789,0.007598877,9.210801883034467,0.008107702734849105,-6.4052581787109375,10.186450004577637,-71.4717788696289,15039077.0,50354.0,0.07818654162066753,0.04366319986257598,-0.03986292033900004,0.003931433870378379,0.002220640528939326,-0.002038953458843995,15.039077316992916
1618,D,197148239269510.0,1.5485717512584407,0.8765699489932474,8.973907,92,1970-01-03 06:45:48.239269510,0.0048065186,-0.0034484863,0.00079345703,9.16123468987976,0.005968605605322743,-6.390768051147461,10.182887077331543,-71.46920013427734,15089431.0,50354.0,0.07818730951916752,0.04359827492559598,-0.04034161064000002,0.003937024450147627,0.002196982150741806,-0.0020193094764582847,15.089431320986478
1618,D,197148289623514.0,1.5437500512584408,0.9177381589932473,9.008789,92,1970-01-03 06:45:48.289623514,0.0021820068,-0.0031738281,-0.002319336,9.192230847561456,0.0044959601827075655,-6.369753837585449,10.179329872131348,-71.4655990600586,15139785.0,50354.0,0.07785538602196752,0.04517529523477598,-0.04071886280800002,0.003928686945639157,0.002235052175927685,-0.0020408595400002974,15.139785325009143
1618,D,197148339977518.0,1.5334350512584407,0.8941023189932473,9.015472,92,1970-01-03 06:45:48.339977518,0.0002746582,-0.002090454,0.003036499,9.202864922934864,0.0036967230393882954,-6.352937698364258,10.177277565002441,-71.46247863769531,15190139.0,50354.0,0.07747428932606752,0.04561670771426597,-0.039672380803000014,0.003910735236237479,0.0022858702582480295,-0.002024010340394148,15.190139329002704
1618,D,197148390331521.0,1.5574676512584407,0.8933393589932473,9.003769,92,1970-01-03 06:45:48.390331521,0.0012817383,-0.0018157959,0.0020599365,9.187286000597238,0.0030303970373823873,-6.336795806884766,10.171903610229492,-71.45951843261719,15240493.0,50354.0,0.07781965734126753,0.045002419126665985,-0.039798769343000015,0.003909835695243494,0.002281517756474144,-0.002000845147225843,15.240493332006736
1618,D,197148440685525.0,1.5371582512584407,0.9031355189932473,8.975815,92,1970-01-03 06:45:48.440685525,-0.0008087158,-0.004119873,-0.0005950928,9.162481442869156,0.0042404610860035585,-6.320085525512695,10.170445442199707,-71.4565658569336,15290847.0,50354.0,0.07791339634766753,0.045229848003065974,-0.040797213632000014,0.003920891092726318,0.0022717777895252616,-0.002029165063361576,15.290847336000297
1618,D,197148491038938.0,1.5547363512584407,0.8784773189932473,8.990662,92,1970-01-03 06:45:48.491038938,0.002029419,-0.003829956,0.00065612793,9.176385404080833,0.0043837892627295715,-6.30729341506958,10.165864944458008,-71.45426940917969,15341200.0,50353.0,0.07784308446026628,0.044854775615566986,-0.04112639180950001,0.003921403039060946,0.0022680155265345126,-0.002062549652397925,15.341200749011477
1618,D,197148541392942.0,1.5358001512584407,0.9030592189932474,9.005768,92,1970-01-03 06:45:48.541392942,0.001083374,-0.004211426,-0.0016479492,9.19207157105357,0.004650327380210198,-6.290778636932373,10.163939476013184,-71.45142364501953,15391554.0,50354.0,0.07781043752386753,0.04485374541688598,-0.04037308189000004,0.003918888722994536,0.0022585914340340686,-0.0020519122493323125,15.391554753005039
1618,D,197148591746946.0,1.5494567512584407,0.8919508189932474,8.982285,92,1970-01-03 06:45:48.591746946,0.0018615723,-0.0024108887,-0.00021362305,9.167761466996913,0.003053435861354596,-6.276745319366455,10.160663604736328,-71.44896697998047,15441908.0,50354.0,0.07767751303466752,0.04519296772638598,-0.04058398961900007,0.003914720131212237,0.002267106096808158,-0.002038256189382096,15.4419087569986
1618,D,197148642100950.0,1.5440094512584408,0.8587019189932473,8.967468,92,1970-01-03 06:45:48.642100950,0.0007019043,-0.0038604736,-0.0022277832,9.15753253875517,0.004512088657025445,-6.268631458282471,10.158527374267578,-71.44762420654297,15492262.0,50354.0,0.07788419858076753,0.04407618398428598,-0.04154826871900005,0.003916577213341809,0.002247529432619588,-0.002067843868175829,15.492262760992162
1618,D,197148692454954.0,1.5535461512584408,0.8679792489932473,9.003754,92,1970-01-03 06:45:48.692454954,0.0031585693,-0.0018005371,0.0013427734,9.19047074901425,0.003875762412110224,-6.258510112762451,10.154146194458008,-71.44579315185547,15542616.0,50354.0,0.07798715740456753,0.043472651766395976,-0.041007743706000015,0.003924373129642782,0.0022042170376949197,-0.002078512724824227,15.542616764985723
1618,D,197148742808958.0,1.5300018512584408,0.8978864789932474,9.013199,92,1970-01-03 06:45:48.742808958,-7.6293945e-05,-0.0016174316,-0.0021209717,9.200871807128177,0.0026684127677185014,-6.243981838226318,10.153311729431152,-71.4433364868164,15592970.0,50354.0,0.07763448805936753,0.04445920143351598,-0.039856374319000014,0.003918086167845493,0.0022138602680141835,-0.002035915899515426,15.592970769008389
1618,D,197148793162962.0,1.5326568512584406,0.8984052789932473,9.044327,92,1970-01-03 06:45:48.793162962,-0.0005950928,-0.0009460449,0.0017242432,9.230851887850266,0.0020547873384304492,-6.2292375564575195,10.151298522949219,-71.44064331054688,15643324.0,50354.0,0.07710855815326753,0.04522523759082597,-0.03883486789800006,0.0038959656744955136,0.002257985121315857,-0.001981209405297411,15.64332477300195
1618,D,197148843516966.0,1.5528595512584407,0.8919660689932474,8.950577,92,1970-01-03 06:45:48.843516966,-0.0015869141,0.0015869141,0.002380371,9.136101189500422,0.0032715071173999638,-6.217399597167969,10.148884773254395,-71.43843078613281,15693678.0,50354.0,0.07768404646616753,0.04507617942825598,-0.04041150199200008,0.0038972134065035167,0.0022735187762894264,-0.0019951858547205335,15.693678776995512
1618,D,197148893870970.0,1.5379669512584409,0.8583509589932473,9.018784,92,1970-01-03 06:45:48.893870970,0.0018157959,-0.001739502,0.0013122559,9.208879053309445,0.002836370481010127,-6.209899425506592,10.14670181274414,-71.43704986572266,15744032.0,50354.0,0.07781773885386753,0.04406773181361598,-0.04105459810300006,0.0039150684490025225,0.0022443762533366106,-0.0020510720020918186,15.744032780989073
1618,D,197148944224973.0,1.5480835512584408,0.8829633789932473,8.98201,92,1970-01-03 06:45:48.944224973,0.005554199,-0.0012664795,0.00021362305,9.168619938130641,0.005700765883897755,-6.199126243591309,10.144105911254883,-71.43518829345703,15794386.0,50354.0,0.07769749350186754,0.04384107108748598,-0.040263209462000016,0.003915407005020342,0.002213279930641044,-0.0020473384410640066,15.794386783993104
1618,D,197148994578977.0,1.5383789512584407,0.8759443189932473,9.013824,92,1970-01-03 06:45:48.994578977,0.0020141602,-0.0038452148,-0.0025634766,9.202178015238172,0.005041223110332516,-6.189418315887451,10.14203929901123,-71.43360137939453,15844740.0,50354.0,0.07770786642586754,0.044284019112205975,-0.04038808738200003,0.003912640746900586,0.0022187253959576442,-0.002030557700641389,15.844740787986666
1618,D,197149044932981.0,1.5315734512584407,0.9064008789932473,8.996811,92,1970-01-03 06:45:49.044932981,0.001663208,-0.00090026855,0.0017852783,9.183715439493184,0.002600761988693697,-6.175410747528076,10.141788482666016,-71.43106079101562,15895094.0,50354.0,0.07729219163816753,0.04487410504970598,-0.04001544260500007,0.0039024364618782106,0.0022447340920244575,-0.0020243196744827016,15.895094792009331
1618,D,197149095286985.0,1.5574218512584408,0.8764936589932474,8.993256,92,1970-01-03 06:45:49.095286985,-0.0024719238,-0.0032196045,0.0015411377,9.178659391109328,0.004341815958765178,-6.166726589202881,10.137466430664062,-71.42941284179688,15945448.0,50354.0,0.07777163473146753,0.04488793578288598,-0.04053328314100004,0.0039040419565083023,0.002259938902042168,-0.002027975268107045,15.945448796002893
1618,D,197149145640989.0,1.5763427512584407,0.8737013189932473,9.041748,92,1970-01-03 06:45:49.145640989,0.00010681152,-0.0032653809,0.0026245117,9.223213460422656,0.004190725806626629,-6.157778739929199,10.129055976867676,-71.42768859863281,15995802.0,50354.0,0.07889879139756753,0.04406465896076598,-0.03940190429200002,0.003944491318650716,0.0022395594778609257,-0.0020125282140006427,15.995802799996454
1618,D,197149195994993.0,1.5700256512584407,0.8745710189932473,8.998169,92,1970-01-03 06:45:49.195994993,0.0014038086,-0.002609253,-0.0004119873,9.181491871756533,0.0029914232964935355,-6.149582862854004,10.12299633026123,-71.42627716064453,16046156.0,50354.0,0.07921611727016753,0.04401625265348598,-0.039278209691000016,0.003980859055527566,0.002217613111712022,-0.0019809292297499922,16.046156803990016
1618,D,197149246348997.0,1.5450622512584407,0.8991224189932473,9.00264,92,1970-01-03 06:45:49.246348997,0.0014801025,-0.0013275146,0.0016174316,9.18776971542796,0.0025630223183573664,-6.13763427734375,10.12094783782959,-71.42410278320312,16096509.999999998,50353.99999999814,0.07842856812166463,0.04465627968818432,-0.040262831806998536,0.003969020244110011,0.0022325083467661508,-0.0020026048017950356,16.09651080801268
1618,D,197149296703001.0,1.5559570512584409,0.9002516189932473,8.984161,92,1970-01-03 06:45:49.296703001,-6.1035156e-05,-0.0001373291,0.001739502,9.167656279794862,0.0017459816092899587,-6.126171588897705,10.117837905883789,-71.4219970703125,16146864.0,50354.00000000186,0.07807436297947042,0.04530284015438765,-0.04061551122300154,0.003940274296333423,0.002264900760276518,-0.0020362740424663874,16.146864812006243
1618,D,197149347057005.0,1.5332367512584408,0.9007856189932474,9.001083,92,1970-01-03 06:45:49.347057005,0.0026245117,-0.003326416,0.002029419,9.188152238837063,0.004698047099173644,-6.114511013031006,10.117683410644531,-71.41986083984375,16197218.0,50354.0,0.07777663236596753,0.04534471454078598,-0.04065471181200005,0.003923860509812091,0.002282233484560387,-0.002046140405352235,16.197218815999804
1618,D,197149397411009.0,1.5790588512584407,0.8861372189932474,8.979126,92,1970-01-03 06:45:49.397411009,0.0010528564,-0.00045776367,0.00061035156,9.160125947477018,0.0013002242896466988,-6.105885982513428,10.111170768737793,-71.41831970214844,16247572.000000002,50354.00000000186,0.07835826638457041,0.044989356291987644,-0.040781478007001534,0.003931008345842439,0.0022743409013568257,-0.0020503189510730786,16.247572819993366
1618,D,197149447765013.0,1.5063964512584407,0.8963300789932473,9.048264,92,1970-01-03 06:45:49.447765013,-0.00018310547,-0.0025024414,0.0012207031,9.239538374723153,0.002790314790830506,-6.094849109649658,10.11402416229248,-71.41630554199219,16297926.0,50353.99999999814,0.07768250815146464,0.04487717916140432,-0.03959360196999856,0.003928638580493609,0.0022625697631099657,-0.0020236033885808564,16.297926823986927
1618,D,197149498119016.0,1.5479614512584408,0.8972608689932473,8.98822,92,1970-01-03 06:45:49.498119016,-0.0040283203,0.0038757324,0.0019989014,9.17331655187387,0.005936688713645328,-6.085066795349121,10.112398147583008,-71.41448211669922,16348279.999999998,50353.99999999814,0.07689956891166468,0.045157239297454306,-0.03936464233199859,0.003891912954218263,0.0022667965535385997,-0.0019879317167913087,16.34828082699096
1618,D,197149548473020.0,1.5386993512584408,0.9053480189932473,9.002304,92,1970-01-03 06:45:49.548473020,-0.0016784668,-0.0002593994,-0.00015258789,9.18794818975571,0.0017052336824016972,-6.07393217086792,10.11166000366211,-71.41251373291016,16398634.000000002,50354.000000003725,0.07771285902497327,0.045384283972839334,-0.04052177725200302,0.0038926770981610207,0.002279563931376351,-0.002011300385866557,16.398634831013624
1618,D,197149598827024.0,1.5400421512584408,0.8630811789932473,9.012939,92,1970-01-03 06:45:49.598827024,0.0013122559,-0.0012664795,0.0023498535,9.202312516129291,0.0029745247254758717,-6.069387435913086,10.1102876663208,-71.41160583496094,16448988.0,50353.99999999814,0.07751347480886465,0.04452374191770433,-0.03989942698899856,0.003908133406934393,0.0022636143678461344,-0.0020247646591756217,16.448988835007185
1618,D,197149649181028.0,1.5482055512584407,0.8715040189932474,9.012085,92,1970-01-03 06:45:49.649181028,0.0017852783,-0.00074768066,0.0015869141,9.199205406153423,0.0025029065780743267,-6.06362771987915,10.107767105102539,-71.4105224609375,16499341.999999998,50353.99999999814,0.07775281240626465,0.04367165152970436,-0.03965317075199856,0.0039091393132151655,0.0022204954208253263,-0.0020028957533250106,16.499342839000747
1618,D,197149699535032.0,1.5424682512584407,0.9028150689932474,8.962479,92,1970-01-03 06:45:49.699535032,0.0034179688,-0.0023345947,-4.5776367e-05,9.148515757079823,0.004139436991526414,-6.053795337677002,10.107539176940918,-71.40882110595703,16549696.0,50354.00000000186,0.0778138943259704,0.044672031678237634,-0.04092360217200153,0.003916702975397627,0.002224228912126438,-0.0020286814119076253,16.549696842994308
1618,D,197149749889036.0,1.5450164512584408,0.8847791789932473,9.025131,92,1970-01-03 06:45:49.749889036,0.0018920898,-0.0018615723,-0.0004272461,9.211221001010305,0.002688492973648349,-6.046142101287842,10.105195045471191,-71.40750885009766,16600050.0,50354.0,0.07773360235526752,0.04500626038155598,-0.04059514303000004,0.003916219323943527,0.0022578303591894236,-0.0020523974479507933,16.60005084698787
1618,D,197149800243040.0,1.5617248512584407,0.8901960189932473,8.990616,92,1970-01-03 06:45:49.800243040,0.0014038086,-0.0010528564,0.0012969971,9.173968406903562,0.002182060187497891,-6.038382053375244,10.101339340209961,-71.40608978271484,16650404.000000002,50354.00000000186,0.0782184257734704,0.04468855055970763,-0.039886737781001526,0.00392640421219738,0.0022582462550682775,-0.0020262923131786612,16.650404851010535
1618,D,197149850597044.0,1.5431091512584407,0.8827345189932473,8.991089,92,1970-01-03 06:45:49.850597044,-6.1035156e-05,-0.0024261475,0.0013122559,9.178405160107188,0.002758973093219469,-6.032060146331787,10.10033893585205,-71.4049072265625,16700758.0,50353.99999999814,0.07817040568136463,0.04463707215488432,-0.04074381321499853,0.003937401609538236,0.0022489512030851983,-0.002030035382426218,16.700758855004096
1618,D,197149900951048.0,1.5346405512584407,0.8851759189932473,9.002975,92,1970-01-03 06:45:49.900951048,0.002456665,-0.0024108887,0.001876831,9.19128926401429,0.00392046959541503,-6.0251922607421875,10.100350379943848,-71.40361785888672,16751112.0,50354.0,0.07748850426026753,0.04451068109718598,-0.04043265067200004,0.003919024375600474,0.0022444729836273744,-0.002043779831282963,16.751112858997658
1618,D,197149951305052.0,1.5628997512584408,0.8782179189932473,8.994293,92,1970-01-03 06:45:49.951305052,0.0014953613,-0.0019226074,0.00039672852,9.178556129567742,0.002467775952280482,-6.019789695739746,10.096253395080566,-71.40265655517578,16801466.0,50354.0,0.07798677219646752,0.04439696665898598,-0.040351983564000035,0.003914401035351218,0.0022384278475571415,-0.002033914736159774,16.80146686299122
1618,D,197150001659055.0,1.5353576512584408,0.8730604189932474,8.978134,92,1970-01-03 06:45:50.001659055,0.0021362305,-0.0022125244,0.0009765625,9.168041267768956,0.003226828053388011,-6.015561580657959,10.096904754638672,-71.4018783569336,16851820.0,50354.0,0.07800482662316753,0.04409193471548598,-0.040977405421,0.003927400483481952,0.0022278850699050806,-0.0020476300264753457,16.85182086599525
1618,D,197150052013059.0,1.5549346512584408,0.8874189189932473,8.965012,92,1970-01-03 06:45:50.052013059,0.0012969971,-0.002029419,0.00062561035,9.15033145249311,0.0024883993379272015,-6.009425163269043,10.094931602478027,-71.40076446533203,16902174.0,50354.0,0.07780428930046754,0.04432358829248598,-0.04171461315800003,0.00392280611160936,0.00222603762277171,-0.0020819369517634835,16.902174869988812
1618,D,197150102367063.0,1.5341827512584407,0.8832990789932473,9.003372,92,1970-01-03 06:45:50.102367063,-0.0008239746,-0.0022735596,-0.000579834,9.191944178706077,0.002486808167863641,-6.003598213195801,10.095126152038574,-71.3997573852539,16952528.0,50354.0,0.07777470884316753,0.04458136703530598,-0.041079196032000026,0.003917012436262301,0.002238360060287818,-0.0020844997339766313,16.952528874011477
1618,D,197150152721067.0,1.5363494512584408,0.9113294689932473,8.960587,92,1970-01-03 06:45:50.152721067,0.0007019043,-0.0031738281,-0.0006713867,9.146912432183786,0.003319128583776921,-5.9940900802612305,10.096186637878418,-71.39810943603516,17002882.0,50354.0,0.07730678926276753,0.04518336295265598,-0.04119060425700002,0.0039044868778131277,0.002260006606906918,-0.0020713067618761544,17.00288287800504
1618,D,197150203075071.0,1.5206939512584408,0.8640424789932474,9.009872,92,1970-01-03 06:45:50.203075071,-0.0034637451,0.004058838,-0.00022888184,9.202611614159371,0.00534079422227629,-5.9917073249816895,10.098502159118652,-71.39768981933594,17053236.0,50354.0,0.07696718174516752,0.04469853953445598,-0.04102695375700004,0.003884155768066781,0.002262956658918018,-0.002069991458118479,17.0532368819986
1618,D,197150253429075.0,1.5410186512584407,0.8991224189932473,8.986465,92,1970-01-03 06:45:50.253429075,-0.0010223389,0.00065612793,0.0036621094,9.17262844047753,0.0038583320158518826,-5.984070777893066,10.098231315612793,-71.39617156982422,17103590.0,50354.0,0.07708473819356754,0.04439120263660598,-0.04037542335100003,0.003878565188297533,0.002243012438640827,-0.002049467648448118,17.103590885992162
1618,D,197150303783079.0,1.5317108512584408,0.8800337189932473,8.997574,92,1970-01-03 06:45:50.303783079,0.00012207031,0.0014190674,-0.0011749268,9.187023791759515,0.0018463765682234206,-5.9794464111328125,10.099050521850586,-71.39542388916016,17153944.0,50354.0,0.07736211068486752,0.04479381408608598,-0.04068505009700001,0.00388850831421236,0.002245411166027216,-0.0020408595400002974,17.153944889985723
1618,D,197150354137083.0,1.5584899512584407,0.8560011189932474,8.9861145,92,1970-01-03 06:45:50.354137083,0.003479004,0.0004272461,0.00033569336,9.173549413657218,0.0035211785092393853,-5.978728771209717,10.095937728881836,-71.39531707763672,17204298.0,50354.0,0.07780198560496754,0.04370814911598598,-0.04069387463550005,0.003906566452289178,0.0022282139275385656,-0.0020488771879901544,17.20429889400839
1618,D,197150404491087.0,1.5281860512584406,0.8934004189932473,9.018143,92,1970-01-03 06:45:50.404491087,0.0018157959,-0.0036773682,-0.0004119873,9.206471849570788,0.004121878839096237,-5.9717116355896,10.096585273742676,-71.39409637451172,17254652.0,50354.0,0.07771324171536753,0.04404468252188598,-0.04017600892250005,0.003915406878244076,0.002209353042146702,-0.0020360610583397684,17.25465289800195
1618,D,197150454845091.0,1.5344116512584407,0.9105207589932474,9.025452,92,1970-01-03 06:45:50.454845091,0.0037078857,-0.0014190674,-0.0002746582,9.21088196465706,0.003979648951457212,-5.961970806121826,10.096224784851074,-71.3924331665039,17305006.0,50354.0,0.07710702235626753,0.04541732349816598,-0.03918560868500004,0.0038979097885315566,0.0022523849255668485,-0.00199808744650403,17.30500690199551
1618,D,197150505199095.0,1.5495178512584407,0.8957655189932473,8.974426,92,1970-01-03 06:45:50.505199095,0.0011291504,-0.0032043457,-0.0035095215,9.159676158253474,0.004884624156461877,-5.955748558044434,10.094789505004883,-71.3915023803711,17355360.0,50354.0,0.07764409308486753,0.04547686962086598,-0.04028627159400006,0.003896168833461458,0.002288443100157868,-0.0020008635297843855,17.355360905989073
1618,D,197150555553098.0,1.5479003512584408,0.8819868189932474,9.041992,92,1970-01-03 06:45:50.555553098,0.00024414063,-0.0027618408,0.00062561035,9.227517171604683,0.002842315528189747,-5.9507904052734375,10.091822624206543,-71.39059448242188,17405714.0,50354.0,0.07798369808476753,0.04475847061348598,-0.039869844014000046,0.003918240898277902,0.002271855161080279,-0.0020180905226626186,17.405714908993104
1618,D,197150605907102.0,1.5311462512584408,0.8943311789932473,8.99646,92,1970-01-03 06:45:50.605907102,0.00044250488,-0.0031738281,0.0008087158,9.184620897709543,0.0033049987325781327,-5.944725513458252,10.092745780944824,-71.38948822021484,17456068.0,50354.0,0.07752115631156753,0.04472235823530598,-0.03931509399600001,0.003915145719136527,0.0022528588279260354,-0.0019936391842777716,17.456068912986666
1618,D,197150656261106.0,1.5360748512584408,0.8889295689932474,9.016434,92,1970-01-03 06:45:50.656261106,0.0030059814,-0.0013580322,-0.0009765625,9.203851932621786,0.003440036329719361,-5.939234733581543,10.092405319213867,-71.38858032226562,17506422.0,50354.0,0.07722342569806753,0.04489715585205598,-0.03995856776200001,0.0038960043412565822,0.002256350506177512,-0.0019958729820811665,17.50642291700933
1618,D,197150706615110.0,1.5605957512584407,0.8921797189932473,8.98613,92,1970-01-03 06:45:50.706615110,0.0023498535,-0.002609253,-0.0024414063,9.169572153189474,0.004276736771318869,-5.9338908195495605,10.089069366455078,-71.38777160644531,17556776.0,50354.0,0.07796487575956752,0.04484298854363598,-0.04021864617200005,0.0039071758657988785,0.0022593876154503364,-0.0020186217152163197,17.556776921002893
1618,D,197150756969114.0,1.5078003512584408,0.8837721189932474,9.034256,92,1970-01-03 06:45:50.756969114,0.00047302246,-0.0020599365,-0.00044250488,9.22680130652605,0.002159374724433097,-5.929323196411133,10.092618942260742,-71.3869857788086,17607130.0,50354.0,0.07725300867306753,0.04471313942498598,-0.039769941678000076,0.003907920676360453,0.002254754633865995,-0.0020138726762994534,17.607130924996454
1618,D,197150807323118.0,1.5583526512584407,0.9096815189932473,8.951767,92,1970-01-03 06:45:50.807323118,0.0025024414,-0.0024108887,0.0009460449,9.13457845094515,0.0036013328417459083,-5.9219651222229,10.090627670288086,-71.38565826416016,17657484.0,50354.0,0.07719653414436753,0.04515378224358598,-0.04063509892900005,0.0038885761395145626,0.0022625794868496364,-0.002024357707362442,17.657484928990016
1618,D,197150857677122.0,1.5249511512584408,0.8856641889932473,8.999573,92,1970-01-03 06:45:50.857677122,0.00061035156,-0.0029144287,-0.002746582,9.18961434559252,0.004050942650408929,-5.917962074279785,10.092414855957031,-71.38509368896484,17707838.0,50354.0,0.07762833983596752,0.045201418889975975,-0.04150831282000004,0.003898025852202896,0.00227487289893969,-0.002068124677604575,17.70783893301268
1618,D,197150908031126.0,1.5312530512584408,0.8822004189932473,8.99971,92,1970-01-03 06:45:50.908031126,-0.00012207031,-0.0014190674,0.0014038086,9.188981053803841,0.001999833000967885,-5.9146013259887695,10.093270301818848,-71.38443756103516,17758192.0,50354.0,0.07694605320676753,0.04450952723527598,-0.04030125190900003,0.003891719493636941,0.0022586524905954686,-0.002059719411182035,17.758192937006243
1618,D,197150958385130.0,1.5395385512584407,0.8836652889932474,9.003021,92,1970-01-03 06:45:50.958385130,-0.004135132,0.003921509,0.00065612793,9.19062568442469,0.005736554135980161,-5.911251068115234,10.09300708770752,-71.38378143310547,17808546.0,50354.0,0.07731332017656753,0.044459200929975976,-0.04021444161300002,0.003883788243672227,0.0022399656690165483,-0.0020271436158033956,17.808546940999804
1618,D,197151008739134.0,1.5406372512584408,0.9024946189932473,8.990341,92,1970-01-03 06:45:51.008739134,0.00093078613,-0.0015411377,-0.00035095215,9.176164416022807,0.0018342943171016175,-5.904969215393066,10.092704772949219,-71.38270568847656,17858900.0,50354.0,0.07754958617996753,0.04497014800337598,-0.04045032492600001,0.0038989833933384833,0.0022515627180950022,-0.002030896827152404,17.858900944993366
1618,D,197151059093138.0,1.5378906512584407,0.8942548889932473,8.988983,92,1970-01-03 06:45:51.059093138,-0.00047302246,-0.00064086914,-0.002456665,9.176119369695156,0.0025825697327456214,-5.90025520324707,10.092877388000488,-71.38198852539062,17909254.0,50354.0,0.07750809700166753,0.04523676236257598,-0.04080375965200004,0.0039038872894640256,0.0022711393822835726,-0.002045734087420307,17.909254948986927
1618,D,197151109447141.0,1.5290100512584408,0.8555280789932473,9.021439,92,1970-01-03 06:45:51.109447141,0.00018310547,0.00044250488,0.0018463135,9.213335382843265,0.0019074096891465097,-5.901165008544922,10.093494415283203,-71.38206481933594,17959608.0,50354.0,0.07721535898726753,0.044054285784995977,-0.04002080530600004,0.003895472451433418,0.0022480807192114195,-0.002034920071947568,17.95960895199096
1618,D,197151159801145.0,1.5468475512584408,0.8614179689932473,8.975281,92,1970-01-03 06:45:51.159801145,0.0004272461,-0.0017700195,0.00090026855,9.164410742353775,0.002031253731680157,-5.9018731117248535,10.092512130737305,-71.38214874267578,18009962.0,50354.0,0.07744086685856753,0.04322755065015598,-0.040365780559999995,0.003893779798120589,0.002197494795927821,-0.002023893072348283,18.009962956013624
1618,D,197151210155149.0,1.5533477512584408,0.8830702189932473,9.035156,92,1970-01-03 06:45:51.210155149,0.0019226074,0.00074768066,-0.0007019043,9.219768317140687,0.002179017033029179,-5.898131370544434,10.08912181854248,-71.38154602050781,18060316.0,50354.0,0.07805361713146754,0.04392097910893598,-0.040020427651,0.0039148846234171135,0.0021941385337446583,-0.002023883564128347,18.060316960007185
1618,D,197151260509153.0,1.5376617512584407,0.9416334189932474,8.971619,92,1970-01-03 06:45:51.260509153,0.005569458,-0.0046539307,-0.0075683594,9.154618668085641,0.010486085894256963,-5.886110782623291,10.089803695678711,-71.37982940673828,18110670.0,50354.0,0.07782234624486753,0.04594056349358598,-0.04011262582500001,0.003924489129925988,0.0022624440581036956,-0.0020175098873652523,18.110670964000747
1618,D,197151310863157.0,1.5208770512584409,0.9281446589932474,9.0208435,92,1970-01-03 06:45:51.310863157,-0.0007324219,-0.0035858154,-0.004272461,9.207073376536016,0.005625694349944527,-5.876066207885742,10.091729164123535,-71.37825775146484,18161024.0,50354.0,0.07700483143096754,0.04707540266946598,-0.040472971637500035,0.0038980838523444998,0.0023418629800871595,-0.0020289035873133636,18.161024967994308
1618,D,197151361217161.0,1.5320007512584408,0.9047529189932473,8.996109,92,1970-01-03 06:45:51.361217161,-0.0018005371,-0.002090454,-0.0013580322,9.183111951424406,0.0030750907679008843,-5.870361804962158,10.092597961425781,-71.37728881835938,18211378.0,50354.0,0.07686230443396753,0.04614686232096598,-0.03985638690750003,0.00387391287967147,0.0023470569656641057,-0.002022452260087467,18.21137897198787
1618,D,197151411571165.0,1.5561706512584408,0.8212873589932473,9.049286,92,1970-01-03 06:45:51.411571165,-0.0016174316,-0.0017852783,0.0024719238,9.239427516640825,0.0034516243802209835,-5.877011299133301,10.088118553161621,-71.3783187866211,18261732.0,50354.0,0.07775089140116753,0.04345651607886598,-0.039140290085000015,0.0038926964315411953,0.0022559442579725693,-0.0019888993366401738,18.261732976010535
1618,D,197151461925169.0,1.6104309512584407,0.8372785689932474,9.018387,92,1970-01-03 06:45:51.461925169,0.005004883,0.0058135986,0.004211426,9.198270206497797,0.008751165149800738,-5.881168842315674,10.076684951782227,-71.3789291381836,18312086.0,50354.0,0.07972552854656753,0.041757714368915975,-0.038579396879000014,0.003964783825024126,0.002145438679983806,-0.001956748558692629,18.312086980004096
1618,D,197151512279173.0,1.5477935512584406,0.9075758189932474,9.02298,92,1970-01-03 06:45:51.512279173,0.0008239746,0.0027160645,-0.002609253,9.206408313154364,0.0038554042236339384,-5.8743577003479,10.075019836425781,-71.37786865234375,18362440.0,50354.0,0.07951461829986751,0.04393019892633598,-0.03924170304100001,0.004009189177152696,0.0021573645930345587,-0.001959301832685841,18.362440983997658
1618,D,197151562633177.0,1.4981109512584407,0.9510328189932473,8.976669,92,1970-01-03 06:45:51.562633177,0.0043792725,0.0027008057,-0.0061187744,9.16573180619678,0.007994484299597072,-5.861433506011963,10.082401275634766,-71.37596893310547,18412794.0,50354.0,0.07668673765986753,0.04679418967858598,-0.040292037127000045,0.00393268153899825,0.0022841679319061206,-0.002002420976209737,18.41279498799122
1618,D,197151612987180.0,1.4978210512584407,0.9249250489932473,8.993225,92,1970-01-03 06:45:51.612987180,-0.0023956299,-0.00076293945,-0.004638672,9.184432049940218,0.0052762104910365655,-5.853025436401367,10.088937759399414,-71.37470245361328,18463148.0,50354.0,0.07542858002736753,0.04723099124229598,-0.04104117876200004,0.0038298073534115177,0.0023672719800450453,-0.0020477263764373554,18.46314899099525
1618,D,197151663341184.0,1.4685394512584407,0.8684980489932473,9.013748,92,1970-01-03 06:45:51.663341184,-0.0062408447,-0.004776001,0.0020599365,9.215315737707,0.008124140970315037,-5.853515148162842,10.098889350891113,-71.37459564208984,18513502.0,50354.0,0.07468405837186752,0.045153013338005976,-0.04010764077900003,0.003779385896977541,0.0023259520833182625,-0.0020430838295837587,18.513502994988812
1618,D,197151713695188.0,1.5584899512584407,0.8708936789932473,8.973846,92,1970-01-03 06:45:51.713695188,-0.007858276,0.00076293945,0.002960205,9.160019469032449,0.008431926941012198,-5.854341983795166,10.096184730529785,-71.37454223632812,18563856.0,50354.0,0.07621151926716753,0.04379266553551597,-0.040595545862000045,0.003799097958217986,0.0022393853569986624,-0.002031864130060459,18.563856999011477
1618,D,197151764049192.0,1.6195251512584408,0.8021681189932474,9.005692,92,1970-01-03 06:45:51.764049192,-0.0016326904,0.0065307617,-0.002609253,9.188029636603781,0.007219745670205291,-5.865199565887451,10.08338737487793,-71.37659454345703,18614211.0,50355.0,0.08001447524361878,0.04212351341880497,-0.04079918200500004,0.0039333799767953224,0.002163154595622415,-0.0020493157608713944,18.61421100300504
1618,D,197151814403196.0,1.5969421512584407,0.8692610189932474,8.985947,92,1970-01-03 06:45:51.814403196,0.000869751,0.009277344,-0.0043640137,9.16545671164427,0.01028932427665319,-5.865428447723389,10.075201034545898,-71.37688446044922,18664565.0,50354.0,0.08098099727546754,0.04208157140708598,-0.040493704897000056,0.004053383011613036,0.0021200314206614567,-0.0020467110135316564,18.6645650069986
1618,D,197151864757200.0,1.4828521512584407,0.9660017189932474,9.001099,92,1970-01-03 06:45:51.864757200,0.0041046143,0.0064849854,-0.0059814453,9.191049568037998,0.009730394753907455,-5.850024700164795,10.084464073181152,-71.37454986572266,18714919.0,50354.0,0.07753998115446753,0.04620640995428598,-0.04060934285800005,0.003991082673930476,0.002222826506735262,-0.0020419314333276375,18.714919010992162
1618,D,197151915111204.0,1.4546539512584407,0.9046461189932473,8.9530945,92,1970-01-03 06:45:51.915111204,-0.0047454834,0.010543823,-0.0048980713,9.154972277202543,0.012557185935347468,-5.845861911773682,10.09921932220459,-71.37408447265625,18765273.0,50354.0,0.07395759114306752,0.047097300616985985,-0.041436470250500027,0.0038142543777350403,0.0023491075210529144,-0.0020656674366327068,18.765273014985723
1618,D,197151965465208.0,1.5167266512584408,0.8364240789932473,8.987228,92,1970-01-03 06:45:51.965465208,-0.008285522,0.0066375732,-0.0007019043,9.183984727563479,0.01063954521792171,-5.852151393890381,10.10273551940918,-71.37517547607422,18815627.0,50354.0,0.07481044942956754,0.04383492437470598,-0.04178570041750002,0.0037455329574972327,0.0022894006286158287,-0.0020952845909082375,18.81562701900839
1618,D,197152015819212.0,1.5590851512584407,0.8826276889932473,8.970779,92,1970-01-03 06:45:52.015819212,-0.0032958984,-0.0026550293,-0.006362915,9.155736380067891,0.007641911681261833,-5.8510589599609375,10.099740028381348,-71.3752670288086,18865981.0,50354.0,0.07743971375196752,0.04328056636259598,-0.04134045776100003,0.0038332023584215086,0.0021933067102930517,-0.002092867284460096,18.86598102300195
1618,D,197152066173216.0,1.5296661512584409,0.8548872189932474,9.00618,92,1970-01-03 06:45:52.066173216,-0.0063171387,0.011627197,-0.01637268,9.198344707334817,0.021051427548131902,-5.854043006896973,10.100958824157715,-71.3765869140625,18916335.0,50354.0,0.07776549154346753,0.04374541283837598,-0.040863303257000015,0.0039076014537231685,0.0021910530783428714,-0.0020696440911501875,18.91633502699551
1618,D,197152116527220.0,1.4973632512584407,0.8161298889932473,8.973434,92,1970-01-03 06:45:52.116527220,-0.007583618,0.009185791,-0.0059661865,9.176089450957377,0.013322364640647968,-5.863572120666504,10.107830047607422,-71.3785171508789,18966689.0,50354.0,0.07621151926716754,0.04207119772777598,-0.040796458322000045,0.0038766792011793597,0.002160604804224008,-0.002055947817274485,18.966689030989073
1618,D,197152166881223.0,1.4806549512584408,0.7743818189932474,9.020935,92,1970-01-03 06:45:52.166881223,0.00019836426,0.0041503906,0.0066986084,9.230068053964015,0.007882667379051602,-5.878087043762207,10.115456581115723,-71.38077545166016,19017043.0,50354.0,0.07497756428476753,0.04004431327197598,-0.040424971687000065,0.0038064875565870693,0.0020674222204407552,-0.0020449119433365963,19.017043033993104
1618,D,197152217235227.0,1.4905426512584408,0.8672620889932473,8.966019,92,1970-01-03 06:45:52.217235227,0.0036315918,-0.0022735596,0.0044555664,9.164757756004803,0.006181391768961773,-5.8784098625183105,10.122854232788086,-71.38064575195312,19067397.0,50354.0,0.07480584203856754,0.04133166867137598,-0.040611659142000066,0.003771096821002607,0.0020488030973877724,-0.0020402592543817366,19.067397037986666
1618,D,197152267589231.0,1.5183593512584408,0.8892347189932474,9.030746,92,1970-01-03 06:45:52.267589231,0.0021972656,-0.00033569336,-0.0011444092,9.220956052101101,0.0025000677122702275,-5.87434720993042,10.124134063720703,-71.37999725341797,19117751.0,50354.0,0.07575512571736753,0.044223320134675975,-0.04036464759500004,0.0037906734851911776,0.00215401795316997,-0.0020387404747174514,19.11775104200933
1618,D,197152317943235.0,1.5268890512584408,0.8919203189932473,8.946777,92,1970-01-03 06:45:52.317943235,-0.0005187988,0.0037231445,-0.0021209717,9.136952917520038,0.004316187914695395,-5.871441841125488,10.1265869140625,-71.37960052490234,19168105.0,50354.0,0.07667021903016753,0.04484414039138598,-0.040849103429,0.00383761290470869,0.002242451453664662,-0.002044718609531249,19.168105046002893
1618,D,197152368297239.0,1.4835846512584407,0.8328687789932473,9.036148,92,1970-01-03 06:45:52.368297239,-0.0021362305,0.0015106201,-0.0018310547,9.238142572209139,0.003193464443209968,-5.876530647277832,10.132866859436035,-71.38058471679688,19218459.0,50354.0,0.07579469640826753,0.043425015120005975,-0.040713097275,0.0038386091759934795,0.002222352528310315,-0.002053491527124608,19.218459049996454
1618,D,197152418651243.0,1.4957000512584409,0.8433973189932473,8.955414,92,1970-01-03 06:45:52.418651243,-0.0043792725,0.009017944,0.0041656494,9.155897431378909,0.01085605713600074,-5.881249904632568,10.139822959899902,-71.3812026977539,19268813.0,50354.0,0.07500945095526754,0.04220335154900597,-0.04049564352600004,0.0037967960181717227,0.002155865387625714,-0.0020445924671467783,19.268813053990016
1618,D,197152469005247.0,1.4824707512584407,0.8537580589932473,8.992416,92,1970-01-03 06:45:52.469005247,-0.004776001,0.0018310547,0.0046691895,9.193413462660512,0.006925624697693584,-5.883610248565674,10.147272109985352,-71.38136291503906,19319167.0,50354.0,0.07498140629496754,0.04272928095156597,-0.041596684090000044,0.003776319812989169,0.0021383488884669003,-0.002066838532388034,19.31916705801268
1618,D,197152519359251.0,1.4832336512584408,0.8430616489932473,8.963821,92,1970-01-03 06:45:52.519359251,0.0007019043,0.0030822754,0.0018463135,9.166410271143652,0.0036608694087724436,-5.8878254890441895,10.155240058898926,-71.38203430175781,19369521.0,50354.0,0.07466753974216754,0.04272082978797598,-0.041385021051000045,0.00376771151437695,0.002151377438089448,-0.0020892303903349593,19.369521062006243
1618,D,197152569713255.0,1.5005828512584407,0.8583204189932473,9.017715,92,1970-01-03 06:45:52.569713255,0.00061035156,0.0002593994,-0.0031738281,9.214442672082033,0.003242375962757003,-5.88869047164917,10.158721923828125,-71.3823471069336,19419875.0,50354.0,0.07512354808386752,0.04283569632569598,-0.04074806812800003,0.003771290218196085,0.002154056657963919,-0.0020678647862596854,19.419875065999804
1618,D,197152620067259.0,1.4736816512584408,0.8628370189932474,8.980362,92,1970-01-03 06:45:52.620067259,-0.0023956299,0.004196167,-0.002029419,9.182296145070156,0.005240744373390483,-5.889575958251953,10.167494773864746,-71.38261413574219,19470229.0,50354.0,0.07488305737986753,0.043333580816185976,-0.04033161537100003,0.003776716305760458,0.002169483890601162,-0.0020413431914543248,19.470229069993366
1618,D,197152670421263.0,1.4722168512584408,0.8475935189932473,9.020905,92,1970-01-03 06:45:52.670421263,-0.00491333,0.0039367676,-0.0018310547,9.223768611002757,0.006556806550425431,-5.8922953605651855,10.175074577331543,-71.38316345214844,19520583.0,50354.0,0.07416888659786754,0.04306350965488598,-0.04025130074100003,0.0037526807935274365,0.0021752195467901786,-0.0020288360789518256,19.520583073986927
1618,D,197152720775266.0,1.4833557512584408,0.8583814689932473,8.970535,92,1970-01-03 06:45:52.720775266,0.0010986328,0.001159668,0.0019836426,9.171378678650683,0.002546892589803229,-5.893741130828857,10.182089805603027,-71.38333129882812,19570937.0,50354.0,0.07441245141356753,0.04295133227253598,-0.04049871512000002,0.0037408323471139013,0.002165595675206703,-0.0020330431493323984,19.57093707699096
1618,D,197152771129270.0,1.4839660512584407,0.8389417789932473,8.96698,92,1970-01-03 06:45:52.771129270,0.0018310547,-0.0016021729,0.00036621094,9.169794676714119,0.002460453163232778,-5.898254871368408,10.18873405456543,-71.38412475585938,19621291.0,50354.0,0.07470826102196752,0.04273350741455598,-0.04185638484500005,0.003754412176989466,0.002157287208801914,-0.002073454351818807,19.621291081013624
1618,D,197152821483274.0,1.4991180512584408,0.8853742689932473,8.979355,92,1970-01-03 06:45:52.821483274,-0.00030517578,0.001373291,0.0005187988,9.174449752275347,0.0014994040890503962,-5.895229339599609,10.192816734313965,-71.38355255126953,19671645.0,50354.0,0.07510510844906752,0.04341310514015598,-0.04163432370500005,0.0037718512031722495,0.002168913264289983,-0.0021020455691633526,19.671645085007185
1618,D,197152871837278.0,1.4869720512584408,0.8590986189932474,8.947968,92,1970-01-03 06:45:52.871837278,0.00033569336,7.6293945e-05,1.5258789e-05,9.14857679252257,0.0003445919741280971,-5.89691686630249,10.199409484863281,-71.38386535644531,19721999.0,50354.0,0.07518079051106753,0.043920593900835976,-0.04211298882900005,0.0037837480781193204,0.0021988005407550543,-0.002108506087668521,19.721999089000747
1618,D,197152922191282.0,1.4797393512584407,0.8191816189932474,9.00145,92,1970-01-03 06:45:52.922191282,0.00047302246,0.0002746582,0.0025939941,9.206340818495402,0.0026510361682418634,-5.903930187225342,10.205344200134277,-71.3849868774414,19772353.0,50354.0,0.07469289298116752,0.04225406155178598,-0.041556703014000045,0.0037733697292840025,0.002169619300330663,-0.0021065518315312136,19.772353092994308
1618,D,197152972545286.0,1.4873687512584408,0.8338453189932473,8.978439,92,1970-01-03 06:45:52.972545286,0.0028686523,-0.0012207031,0.0015563965,9.180916163267163,0.003484487357109672,-5.9087371826171875,10.210573196411133,-71.38578796386719,19822707.0,50354.0,0.07470288069706754,0.041618259217685985,-0.04078953464700004,0.003761337393896924,0.0021116534200129955,-0.002073231225590999,19.82270709698787
1618,D,197153022899290.0,1.4687225512584408,0.8610670189932473,9.005585,92,1970-01-03 06:45:53.022899290,-0.0005645752,0.0013275146,-0.0030212402,9.208047816069266,0.003347974389950473,-5.908901691436768,10.217940330505371,-71.38594818115234,19873061.0,50354.0,0.07442551072346754,0.04267280793348598,-0.04068542775200004,0.0037546055107948117,0.0021221961976650564,-0.002051295128319625,19.873061101010535
1618,D,197153073253294.0,1.4384643512584407,0.8193037189932474,8.90242,92,1970-01-03 06:45:53.073253294,-6.1035156e-05,0.0010986328,-0.0036010742,9.11717135272517,0.0037654288883750583,-5.917372703552246,10.232604026794434,-71.38763427734375,19923415.0,50354.0,0.07319424464466753,0.04230669407028598,-0.042599358115000055,0.003716622580903537,0.0021395289219489667,-0.0020968610537734616,19.923415105004096
1618,D,197153123607298.0,1.4668914512584408,0.8148481189932474,8.977264,92,1970-01-03 06:45:53.123607298,0.0005493164,-0.0027618408,0.001739502,9.185497160357652,0.0033098912852022196,-5.924970626831055,10.240194320678711,-71.38890075683594,19973769.0,50354.0,0.07314814303996753,0.04114304082498598,-0.04331239593200006,0.003684462294736057,0.0021010139754582624,-0.0021630002316413216,19.973769108997658
1618,D,197153173961302.0,1.5165283512584407,0.8785993689932473,8.981369,92,1970-01-03 06:45:53.173961302,0.0017700195,0.0012512207,0.00579834,9.173983240005814,0.006190255974197572,-5.922163009643555,10.240262985229492,-71.38813781738281,20024123.0,50354.0,0.07511356036796753,0.04263592740503598,-0.04132469695900002,0.003732784906701581,0.0021093030831272628,-0.002130908087716709,20.02412311299122
1618,D,197153224315305.0,1.4544708512584408,0.8731519789932474,8.98497,92,1970-01-03 06:45:53.224315305,0.0021209717,0.0005493164,0.00390625,9.189282868602545,0.004478734031175534,-5.920228958129883,10.249691009521484,-71.38762664794922,20074477.0,50354.0,0.07480084692176753,0.044103843688255984,-0.041130682997000005,0.0037743950323336595,0.002183847216815812,-0.002075979101152213,20.07447711599525
1618,D,197153274669309.0,1.4693634512584408,0.8403150689932474,9.008408,92,1970-01-03 06:45:53.274669309,0.0015716553,0.0028381348,0.005554199,9.212816574067979,0.006432280781852587,-5.923142433166504,10.255965232849121,-71.38789367675781,20124831.0,50354.0,0.07361337623446754,0.043139959867155984,-0.04044992209400004,0.0037366248964045305,0.0021965372421146076,-0.002053954894376108,20.124831119988812
1618,D,197153325023313.0,1.4621460512584408,0.8149091789932473,9.004166,92,1970-01-03 06:45:53.325023313,0.0046691895,-0.004135132,0.0018005371,9.212651402922384,0.006491731748371205,-5.929916858673096,10.262866020202637,-71.38904571533203,20175185.0,50354.0,0.07380661474486754,0.04167358089155598,-0.039966624402000064,0.003711593112886719,0.002135350515682091,-0.002024647391129795,20.175185124011477
1618,D,197153375377317.0,1.4440643512584408,0.8694288189932473,8.994324,92,1970-01-03 06:45:53.375377317,0.003829956,-0.0014801025,-0.0012359619,9.200723246478839,0.004287991160286347,-5.928183078765869,10.272917747497559,-71.3888168334961,20225539.0,50354.0,0.07316965930416754,0.04240657777530597,-0.04032121727000003,0.003700421651732556,0.0021168861547555835,-0.0020214069897759464,20.22553912800504
1618,D,197153425731321.0,1.4628936512584407,0.8862135189932473,9.012634,92,1970-01-03 06:45:53.425731321,0.0027923584,-0.004180908,-0.002960205,9.213494468358274,0.005834386924136893,-5.923624038696289,10.279223442077637,-71.38815307617188,20275893.0,50354.0,0.07318848162936753,0.04420180714348598,-0.04010801843400002,0.0036848589142836124,0.0021805393071004254,-0.002024966867319609,20.2758931319986
1618,D,197153476085325.0,1.5040313512584407,0.8501264689932473,8.964569,92,1970-01-03 06:45:53.476085325,0.0033721924,-0.00039672852,-0.0006713867,9.162658966785063,0.0034611898535237906,-5.925600051879883,10.280508041381836,-71.3885726928711,20326247.0,50354.0,0.07469827078836754,0.04371583187753597,-0.04085716006900005,0.0037233447656213163,0.00221350239763227,-0.002038460299170033,20.326247135992162
1618,D,197153526439329.0,1.4786102512584407,0.8244306689932474,8.98761,92,1970-01-03 06:45:53.526439329,0.00088500977,-0.0025787354,0.0010070801,9.192459172229755,0.002906428888520176,-5.931297302246094,10.284842491149902,-71.38953399658203,20376601.0,50354.0,0.07509396762656753,0.04216032506308598,-0.04148718931700006,0.00377131918657282,0.002162104003294039,-0.002073183684491325,20.376601139985723
1618,D,197153576793333.0,1.4504730512584407,0.8639662189932473,8.967651,92,1970-01-03 06:45:53.576793333,-0.00064086914,-0.00074768066,0.0033569336,9.174014783571566,0.0034983914616222318,-5.931009769439697,10.294174194335938,-71.38932037353516,20426955.0,50354.0,0.07374553030746753,0.04250876844883598,-0.041409593803000036,0.003747332039485201,0.002131713767349659,-0.0020870923086122426,20.42695514400839
1618,D,197153627147337.0,1.5056793512584408,0.8418256889932473,8.9683075,92,1970-01-03 06:45:53.627147337,0.00048828125,-0.002380371,0.00019836426,9.166879682973946,0.002438018264162086,-5.934182167053223,10.29460620880127,-71.38985443115234,20477309.0,50354.0,0.07442704903816753,0.042946722867375976,-0.04189557284550004,0.0037305410301850537,0.0021515129048682684,-0.0020973741807092865,20.47730914800195
1618,D,197153677501341.0,1.4635650512584408,0.8324415189932474,8.971924,92,1970-01-03 06:45:53.677501341,0.0028686523,-0.0017700195,0.001663208,9.179028463842643,0.003758775851249917,-5.938562870025635,10.301407814025879,-71.39057922363281,20527663.0,50354.0,0.07475666632216754,0.042153025495475976,-0.04178799152450005,0.003755998401627157,0.0021425563645315238,-0.0021069011001434925,20.52766315199551
1618,D,197153727855345.0,1.4568969512584407,0.8766462189932474,9.022812,92,1970-01-03 06:45:53.727855345,0.00048828125,-0.0049438477,0.000869751,9.22549404784761,0.005043462646029794,-5.935164451599121,10.307581901550293,-71.38990783691406,20578017.0,50354.0,0.07352847183736753,0.04302970197928598,-0.040415731728000046,0.003733374923442615,0.0021446455296320823,-0.002069643140328195,20.578017155989073
1618,D,197153778209348.0,1.5005981512584408,0.8671552789932473,8.983078,92,1970-01-03 06:45:53.778209348,0.002746582,0.000869751,0.00032043457,9.179649146450716,0.0028987683243709016,-5.933881759643555,10.308287620544434,-71.38968658447266,20628371.0,50354.0,0.07446085419606753,0.043903690314805975,-0.040134907470000016,0.003725927261543795,0.0021887220177883534,-0.002028023443088048,20.628371158993104
1618,D,197153828563352.0,1.4543640512584408,0.9121839589932473,9.030548,92,1970-01-03 06:45:53.828563352,0.0012054443,-0.0048828125,-0.00390625,9.2300621495067,0.006368182074427422,-5.924907684326172,10.31454086303711,-71.38825225830078,20678725.0,50354.0,0.07439708337276753,0.04479842399478598,-0.039940138198000026,0.0037477962941705606,0.002233253131972597,-0.002016049424783237,20.678725162986666
1618,D,197153878917356.0,1.4935485512584408,0.8230879189932473,8.99527,92,1970-01-03 06:45:53.878917356,-0.006713867,0.0045776367,0.0036315918,9.1973924568736,0.008900518347416803,-5.931069374084473,10.315886497497559,-71.3891372680664,20729079.0,50354.0,0.07421959559356753,0.04368894007206598,-0.03963318021400006,0.003741722126335418,0.0022278463651111318,-0.002003417437658926,20.72907916700933
1618,D,197153929271360.0,1.4993927512584408,0.8512251189932474,8.992462,92,1970-01-03 06:45:53.929271360,-0.002029419,0.0025787354,0.0022583008,9.190668578129578,0.003983508534452362,-5.932468891143799,10.316357612609863,-71.38927459716797,20779433.0,50354.0,0.07535328317346754,0.042154179357385975,-0.040592071436000056,0.003765796368717642,0.002161272217875312,-0.002019831160792053,20.779433171002893
1618,D,197153979625364.0,1.4558593512584408,0.8964369189932473,9.0466,92,1970-01-03 06:45:53.979625364,0.0009613037,-0.0017700195,-0.008834839,9.247008942851794,0.009061537065527843,-5.925812244415283,10.321810722351074,-71.38851928710938,20829787.0,50354.0,0.07440438218506754,0.04400088713038598,-0.03929973602600005,0.003770448740731838,0.002169126108962635,-0.002011436036470777,20.829787174996454
1618,D,197154029979368.0,1.4697296512584408,0.7896864189932473,8.975006,92,1970-01-03 06:45:54.029979368,-0.008834839,0.011001587,-0.0066375732,9.185487908091732,0.015593161150319978,-5.937760829925537,10.327364921569824,-71.39096069335938,20880141.0,50354.0,0.07365755431636753,0.04245152728048598,-0.03973922573800003,0.0037277553752966307,0.0021766124376225234,-0.00198996394033223,20.880141178990016
1618,D,197154080333372.0,1.4460937512584409,0.8774244189932473,9.030182,92,1970-01-03 06:45:54.080333372,-0.0013427734,-0.00340271,-0.00062561035,9.234609049899477,0.0037111809519174196,-5.934250831604004,10.334399223327637,-71.39032745361328,20930495.0,50354.0,0.07341168580516753,0.04197284956798598,-0.040152581724000026,0.0037027622585398884,0.0021255525359139787,-0.0020114360364707757,20.93049518301268
1618,D,197154130687376.0,1.4652587512584407,0.8625013189932473,8.975113,92,1970-01-03 06:45:54.130687376,-0.007675171,0.006729126,-0.0023651123,9.178736497094459,0.010477745119763522,-5.934406280517578,10.340346336364746,-71.39043426513672,20980849.0,50354.0,0.07329912195586753,0.04380611030528597,-0.04014988778500003,0.00369373800699958,0.0021596568727293678,-0.0020217752748280943,20.980849187006243
1618,D,197154181041380.0,1.4924957512584407,0.7823774189932473,8.946274,92,1970-01-03 06:45:54.181041380,-0.004180908,-0.00019836426,-0.0051879883,9.154077797199516,0.006665925493511478,-5.9475531578063965,10.342178344726562,-71.39301300048828,21031203.0,50354.0,0.07446738510986753,0.04141311198628598,-0.04226243950100001,0.0037203173483940123,0.002145564359634907,-0.002074895164079623,21.031203190999804
1618,D,197154231395384.0,1.5294830512584408,0.8148939189932474,8.999084,92,1970-01-03 06:45:54.231395384,-0.00021362305,0.00592041,0.0014038086,9.195600665425616,0.006088314049145728,-5.954073429107666,10.337254524230957,-71.39414978027344,21081557.0,50354.0,0.07608436031096752,0.040214500476485976,-0.04165892163400002,0.0037904412944603644,0.0020551383989752094,-0.002112888109295896,21.081557194993366
1618,D,197154281749388.0,1.4165374512584408,0.8765852189932474,9.03241,92,1970-01-03 06:45:54.281749388,0.0066833496,0.001739502,-0.0007171631,9.24236022698095,0.006943151445548756,-5.949857234954834,10.348731994628906,-71.39347839355469,21131911.0,50354.0,0.07417195819186752,0.04258637025708598,-0.03949027556200003,0.0037830033309458784,0.002084677522459141,-0.0020430933378036936,21.131911198986927
1618,D,197154332103391.0,1.4363739512584408,0.8382093489932473,8.96402,92,1970-01-03 06:45:54.332103391,0.001449585,0.00289917,0.004623413,9.175731342127058,0.0056464529688729365,-5.953116416931152,10.358841896057129,-71.39386749267578,21182265.0,50354.0,0.07182775038116754,0.04317338283819598,-0.04037308189000004,0.003675834662743304,0.0021591733036799145,-0.002010719750569006,21.18226520199096
1618,D,197154382457395.0,1.4583007512584407,0.8538801189932473,8.981079,92,1970-01-03 06:45:54.382457395,0.0044403076,-0.0038757324,0.010665894,9.186725094689672,0.012186013623751761,-5.953330039978027,10.364592552185059,-71.39341735839844,21232619.0,50354.0,0.07287922498526753,0.042601736535495975,-0.04166544247700006,0.0036432875188007357,0.0021595601804714425,-0.0020654839279879616,21.232619206013624
1618,D,197154432811399.0,1.4689971512584408,0.8480055189932474,8.966568,92,1970-01-03 06:45:54.432811399,0.006439209,-0.006134033,0.0020141602,9.171179828355525,0.009118476555984231,-5.954679489135742,10.368789672851562,-71.3935775756836,21282973.0,50354.0,0.07370057929166753,0.04284837470758598,-0.041601291481000044,0.0036904397322803945,0.0021513774507670746,-0.002096406560860569,21.282973210007185
1618,D,197154483165403.0,1.4651825512584407,0.7943708489932473,8.994659,92,1970-01-03 06:45:54.483165403,0.0054626465,-0.0059661865,0.005203247,9.205011535342516,0.009618194606045018,-5.963988780975342,10.372538566589355,-71.39501953125,21333327.0,50354.0,0.07387384237026753,0.04135010981679598,-0.04125938782100001,0.0037154812141825394,0.0021198652448703647,-0.0020861833227864557,21.333327214000747
1618,D,197154533519407.0,1.4897338512584408,0.8362257189932474,8.970459,92,1970-01-03 06:45:54.533519407,0.006011963,-0.0046539307,0.009094238,9.17243581350267,0.01185360429887954,-5.9668288230896,10.373323440551758,-71.39513397216797,21383681.0,50354.0,0.07439593026616753,0.04105352979219598,-0.04116142411400003,0.0037329880656675257,0.002074676434435591,-0.002075108782087496,21.383681217994308
1618,D,197154583873411.0,1.4320251512584408,0.8662855189932473,8.969925,92,1970-01-03 06:45:54.583873411,0.007232666,-0.009017944,0.0022735596,9.179432202570933,0.011781504348318348,-5.9648542404174805,10.382791519165039,-71.39466857910156,21434035.0,50354.0,0.07356112640636753,0.04286412543878598,-0.04178415203200004,0.0037251148158444153,0.002112794805750433,-0.002088320770627844,21.43403522198787
1618,D,197154634227415.0,1.4323150512584408,0.8945600589932473,8.962753,92,1970-01-03 06:45:54.634227415,0.0074005127,-0.008071899,0.0011138916,9.169553851294442,0.01100744730560237,-5.958586692810059,10.392318725585938,-71.39351654052734,21484389.0,50354.0,0.07211549327876754,0.04433280911696598,-0.04197816599400006,0.0036677002538126457,0.0021953572213101675,-0.0021088838809406045,21.484389226010535
1618,D,197154684581419.0,1.4965240512584408,0.8510725189932473,8.974777,92,1970-01-03 06:45:54.684581419,0.00920105,-0.0155181885,0.00289917,9.173897148764512,0.018272347471327603,-5.959031581878662,10.390914916992188,-71.3934555053711,21534743.0,50354.0,0.07373938208406754,0.04394979141596598,-0.041856007190000065,0.0036721881970100995,0.0022226910336176284,-0.0021106929782535714,21.534743230004096
1618,D,197154734935423.0,1.5044128512584407,0.8323042189932474,8.978622,92,1970-01-03 06:45:54.734935423,0.010223389,-0.015792847,0.002105713,9.17819020411307,0.018930550077826555,-5.9623188972473145,10.388154029846191,-71.39395904541016,21585097.0,50354.0,0.07555458839466753,0.04238237613228597,-0.04145647337700006,0.0037587742947431126,0.0021735849823623396,-0.0020975583232353623,21.585097233997658
1618,D,197154785289427.0,1.4922210512584408,0.8656294189932473,9.016937,92,1970-01-03 06:45:54.785289427,0.009124756,-0.014038086,-1.5258789e-05,9.21444031964631,0.016743036266865508,-5.959717750549316,10.386438369750977,-71.39350128173828,21635451.0,50354.0,0.07544625176366754,0.04274887520358598,-0.04039501105700004,0.0038017481526664023,0.0021433495148832486,-0.0020607748235948204,21.63545123799122
1618,D,197154835643430.0,1.4827301512584408,0.8891126789932473,8.981171,92,1970-01-03 06:45:54.835643430,0.0073242188,-0.011413574,-0.001739502,9.178815577102643,0.013672590087169053,-5.954165935516357,10.387412071228027,-71.39259338378906,21685805.0,50354.0,0.07490034642576752,0.04417914180100598,-0.040330834884000036,0.0037852763026154073,0.0021885866841246117,-0.002032434623256559,21.68580524099525
1618,D,197154885997434.0,1.4960815512584407,0.8646070589932473,8.966904,92,1970-01-03 06:45:54.885997434,0.00491333,-0.009231567,7.6293945e-05,9.164892788897776,0.010457937737930583,-5.952958583831787,10.386754035949707,-71.39237976074219,21736159.0,50354.0,0.07499754223426752,0.04415340184328598,-0.041590515725000055,0.003773979142793703,0.002223948451332339,-0.0020625338442827952,21.736159244988812
1618,D,197154936351438.0,1.4898864512584407,0.8885023189932474,8.998627,92,1970-01-03 06:45:54.936351438,0.00642395,-0.012802124,-0.00018310547,9.194663801854356,0.014324630540681317,-5.947422981262207,10.386069297790527,-71.3913803100586,21786513.0,50354.0,0.07517771639936753,0.04413803480956598,-0.04115102601300003,0.0037809624866190304,0.0022229135006088543,-0.002083183796337628,21.786513249011477
1618,D,197154986705442.0,1.4842407512584408,0.8629133189932473,8.999481,92,1970-01-03 06:45:54.986705442,0.0039367676,-0.012435913,-0.0009765625,9.199073041626935,0.013080663041160605,-5.946173667907715,10.386178970336914,-71.39115905761719,21836867.0,50354.0,0.07487960057776753,0.04409539151758598,-0.040330834884000036,0.0037779930695333295,0.002221452974638705,-0.002051468811803771,21.83686725300504
1618,D,197155037059446.0,1.5197479512584409,0.8826276889932473,9.022293,92,1970-01-03 06:45:55.037059446,0.0050964355,-0.010757446,-0.0025482178,9.213083237174672,0.012173319728193008,-5.941444396972656,10.38035774230957,-71.39043426513672,21887221.0,50354.0,0.07563142356326753,0.043947485958075974,-0.03973499600200007,0.0037894160547988403,0.002216655526204741,-0.002015817424216825,21.8872212569986
1618,D,197155087413450.0,1.5487396512584408,0.8753187189932473,8.971054,92,1970-01-03 06:45:55.087413450,0.0045166016,-0.012252808,-0.002380371,9.15853613414696,0.01327392782847743,-5.9388298988342285,10.371524810791016,-71.39004516601562,21937575.0,50354.0,0.07725531236856754,0.04425981671387598,-0.04045070258100004,0.003849229350555812,0.0022207952593717344,-0.002018835333224194,21.937575260992162
1618,D,197155137767454.0,1.5298187512584407,0.8400099189932473,8.994492,92,1970-01-03 06:45:55.137767454,0.0026855469,-0.0063171387,-0.0022888184,9.188406709777922,0.00723582014531289,-5.9415693283081055,10.365386962890625,-71.3906478881836,21987929.0,50354.0,0.07750886490016752,0.04318682911858598,-0.041150648358000044,0.003896497691094943,0.0022016442021238944,-0.0020544772125912054,21.987929264985723
1618,D,197155188121458.0,1.5534240512584407,0.8624708189932473,9.018173,92,1970-01-03 06:45:55.188121458,0.0021362305,-0.005935669,-0.001739502,9.205174080049517,0.006543814975585362,-5.940334320068359,10.355219841003418,-71.39049530029297,22038283.0,50354.0,0.07762680403896753,0.04286335754028597,-0.039964333295000036,0.0039058507368806036,0.0021664855495104195,-0.002042231893077583,22.03828326900839
1618,D,197155238475462.0,1.5273773512584408,0.9001142589932474,9.005508,92,1970-01-03 06:45:55.238475462,0.0009765625,-0.0026245117,-0.0015716553,9.193583056024542,0.003211204814685795,-5.93346643447876,10.349918365478516,-71.38932800292969,22088637.0,50354.0,0.07756533691116753,0.04437660450846598,-0.039686983462999995,0.00390727253270155,0.002196440524501428,-0.002005381202016167,22.08863727300195
1618,D,197155288829466.0,1.5154449512584407,0.8965894789932474,8.967331,92,1970-01-03 06:45:55.288829466,0.0023345947,-0.005554199,-0.0018615723,9.158653514894032,0.006305942465087704,-5.927862167358398,10.347475051879883,-71.3884048461914,22138991.0,50354.0,0.07660913711046753,0.04523561001128598,-0.040967032497000025,0.0038816507324427063,0.002256166724963795,-0.0020306261598249204,22.13899127699551
1618,D,197155339183470.0,1.5322143512584407,0.8466322189932474,8.978165,92,1970-01-03 06:45:55.339183470,0.00030517578,-0.0023040771,-0.00035095215,9.171316469315279,0.002350546947208807,-5.9302077293396,10.342241287231445,-71.38883972167969,22189345.0,50354.0,0.07673091825946753,0.04388909269020598,-0.04165544720800003,0.003860642574048855,0.0022438926399154634,-0.0020801861715327866,22.189345280989073
1618,D,197155389537473.0,1.5407287512584407,0.8639051589932474,8.986649,92,1970-01-03 06:45:55.389537473,0.0051574707,-0.004638672,-0.001159668,9.17636130351087,0.007032894981098927,-5.9293904304504395,10.335526466369629,-71.3887710571289,22239699.0,50354.0,0.07736748849206754,0.04306619956556598,-0.04116907792200002,0.003879735586783399,0.002189273393123571,-0.0020852730691980114,22.239699283993104
1618,D,197155439891477.0,1.5206787512584408,0.9039442189932473,8.989624,92,1970-01-03 06:45:55.439891477,0.0060577393,-0.007797241,-0.0041046143,9.178837135216474,0.01069303657482803,-5.922206401824951,10.331918716430664,-71.3876953125,22290053.0,50354.0,0.07707705669086753,0.044509143789565976,-0.04088057467900006,0.0038884503140707567,0.0022048844196521575,-0.0020657641035353794,22.290053287986666
1618,D,197155490245481.0,1.5059845512584407,0.9080641189932473,8.999725,92,1970-01-03 06:45:55.490245481,0.0038757324,-0.0045166016,-0.0051879883,9.190944781974439,0.007895328634735176,-5.9145188331604,10.330549240112305,-71.38658905029297,22340407.0,50354.0,0.07620230196746752,0.045620933925485975,-0.040551360227000066,0.003859114412940902,0.002269204966631863,-0.002050211825128365,22.34040729200933
1618,D,197155540599485.0,1.5240356512584408,0.8808576689932474,8.99147,92,1970-01-03 06:45:55.540599485,0.0013275146,-0.0060424805,-0.004333496,9.182317502314024,0.0075533471513038125,-5.911561489105225,10.326521873474121,-71.3862533569336,22390761.0,50354.0,0.07628681863876753,0.04503968385613598,-0.04050488348500005,0.00383921858950318,0.002282562373887896,-0.0020407530479370274,22.390761296002893
1618,D,197155590953489.0,1.5387909512584408,0.8861829889932473,8.967926,92,1970-01-03 06:45:55.590953489,0.0020141602,-0.0061798096,-0.004348755,9.156131172936718,0.007820393727526844,-5.908177852630615,10.320979118347168,-71.3858413696289,22441115.0,50354.0,0.07711278537156753,0.044488782646125984,-0.04130548690800004,0.0038621418301682062,0.0022540582011274495,-0.0020597396953845634,22.441115299996454
1618,D,197155641307493.0,1.5229522512584408,0.8487989489932474,8.983841,92,1970-01-03 06:45:55.641307493,0.0013580322,-0.0067443848,-0.0054626465,9.178284274912773,0.008784730193390697,-5.910567760467529,10.31743335723877,-71.38652038574219,22491469.0,50354.0,0.07708550860976753,0.04368164025268598,-0.041497562241000034,0.0038822504475680727,0.002219866737323389,-0.002084732368424375,22.491469303990016
1618,D,197155691661497.0,1.5855743512584408,0.8818800189932473,8.992584,92,1970-01-03 06:45:55.691661497,0.003967285,-0.002822876,-0.0025787354,9.17262904785603,0.00550979631618213,-5.907381534576416,10.30441665649414,-71.38609313964844,22541823.0,50354.0,0.07826337427156753,0.043573304376995976,-0.04087674777500002,0.003911218824303373,0.0021968177409415024,-0.0020739380032728334,22.54182330801268
1618,D,197155742015501.0,1.5541259512584407,0.8731672189932473,9.020813,92,1970-01-03 06:45:55.742015501,0.002609253,-0.0069885254,-0.007980347,9.206563237618232,0.010923993167558425,-5.905307769775391,10.295541763305664,-71.3860855102539,22592177.0,50354.0,0.07904823451646753,0.04418682431078598,-0.03994590373100001,0.003960634374456359,0.0022095367599722867,-0.002034871896966563,22.592177312006243
1618,D,197155792369505.0,1.5464660512584407,0.8653852589932474,8.993515,92,1970-01-03 06:45:55.792369505,0.002960205,-0.00033569336,-0.001083374,9.181933691739022,0.003170047775325963,-5.904882907867432,10.28914737701416,-71.3861083984375,22642531.0,50354.0,0.07806360484736753,0.043771535738265976,-0.039922463944000015,0.0039556047796632755,0.0022145276309549814,-0.0020108458929534757,22.642531315999804
1618,D,197155842723509.0,1.5399658512584407,0.9008619189932473,9.027023,92,1970-01-03 06:45:55.842723509,0.0014190674,-0.004928589,-0.0030975342,9.212381739455541,0.0059916158035068804,-5.898438453674316,10.28286361694336,-71.38508605957031,22692885.0,50354.0,0.07770709600966752,0.04446880520016598,-0.039766114774000036,0.003921838935477572,0.0022216270638069015,-0.0020063193463830875,22.692885319993366
1618,D,197155893077513.0,1.5389434512584408,0.8943464189932473,9.013824,92,1970-01-03 06:45:55.893077513,6.1035156e-05,-0.00010681152,-0.00064086914,9.200262066867577,0.0006525697247627983,-5.893435478210449,10.277482032775879,-71.38422393798828,22743239.0,50354.0,0.07751769950946752,0.045197960325485974,-0.039254795081000056,0.003908094676785263,0.0022575401556393392,-0.0019895094474193377,22.743239323986927
1618,D,197155943431516.0,1.5260345512584408,0.8864576189932474,8.982559,92,1970-01-03 06:45:55.943431516,-0.001739502,-0.000579834,0.001373291,9.172682773478604,0.0022908519913431773,-5.890370845794678,10.27503490447998,-71.38359069824219,22793593.0,50354.0,0.07716695116936753,0.04483530326438598,-0.040374265209000046,0.0038944954501410303,0.0022667674774022066,-0.002004820850921333,22.79359332699096
1618,D,197155993785520.0,1.5594360512584406,0.8599226189932473,9.057236,92,1970-01-03 06:45:55.993785520,0.0024871826,0.0022888184,0.0031738281,9.242669194847696,0.0046365883753327645,-5.890130996704102,10.265597343444824,-71.38343811035156,22843947.0,50354.0,0.07768289335956753,0.043968615251785984,-0.039281281285000046,0.0038986545357049987,0.0022358162564816617,-0.0020054876940794404,22.843947331013624
1618,D,197156044139524.0,1.5346557512584407,0.8740980189932473,8.982971,92,1970-01-03 06:45:56.044139524,0.0037384033,-0.0016326904,0.0011138916,9.172797406505943,0.004228722226897105,-5.888820648193359,10.262022018432617,-71.38316345214844,22894301.0,50354.0,0.07789994931196752,0.04365743760258598,-0.03927090836100007,0.003917109229941238,0.0022061611327145233,-0.0019777084787173447,22.894301335007185
1618,D,197156094493528.0,1.5296814512584407,0.9231855489932473,8.986954,92,1970-01-03 06:45:56.094493528,0.00062561035,0.0012359619,-0.002319336,9.172784386442649,0.0027015383782531635,-5.879918098449707,10.259455680847168,-71.38170623779297,22944655.0,50354.0,0.07715081774776752,0.04525020839119598,-0.04104039827500004,0.0039037131622629492,0.0022384278031854486,-0.002021997767174575,22.944655339000747
1618,D,197156144847532.0,1.5476715512584407,0.9273664589932473,8.995712,92,1970-01-03 06:45:56.144847532,-0.00036621094,4.5776367e-05,-0.00039672852,9.177816993492534,0.0005418481770134441,-5.870473861694336,10.253911972045898,-71.38004302978516,22995009.0,50354.0,0.07747851654436752,0.04659134790507598,-0.04071961811800004,0.003893102749473084,0.002312294862871239,-0.002058471932726563,22.995009342994308
1618,D,197156195201536.0,1.5362884512584407,0.8706190189932473,8.996628,92,1970-01-03 06:45:56.195201536,-0.00036621094,-0.002090454,0.00033569336,9.186234686825026,0.0021486736398624554,-5.870193958282471,10.249966621398926,-71.37995147705078,23045363.0,50354.0,0.07764486098336752,0.045267880379265976,-0.04047605582000007,0.003905541276015785,0.0023127397905148774,-0.002044263482737029,23.04536334698787
1618,D,197156245555540.0,1.5417511512584408,0.8618147189932474,8.966263,92,1970-01-03 06:45:56.245555540,-0.0010070801,-0.0029754639,0.00039672852,9.156430896149203,0.003166226344815009,-5.8718390464782715,10.24604606628418,-71.38021850585938,23095717.0,50354.0,0.07749580307256752,0.04361748422128598,-0.04121749329300006,0.003905976498936277,0.0022378668245480967,-0.002056798486018005,23.095717351010535
1618,D,197156295909544.0,1.5494720512584408,0.8757612189932473,8.996262,92,1970-01-03 06:45:56.295909544,-0.0001373291,-0.001663208,-0.0017242432,9.18305779905979,0.002399611373893083,-5.870728015899658,10.240307807922363,-71.38008117675781,23146071.0,50354.0,0.07782772656976754,0.043746949390685984,-0.041226708075000056,0.00391058050580507,0.0021995743450486183,-0.0020756976578421393,23.146071355004096
1618,D,197156346263548.0,1.5592529512584408,0.8883650189932474,8.991486,92,1970-01-03 06:45:56.346263548,-0.0010528564,0.0011291504,-0.006439209,9.175429032734014,0.006621699160375842,-5.867825031280518,10.233492851257324,-71.37989044189453,23196425.0,50354.0,0.07826836938836754,0.04441540629378598,-0.04059166860400004,0.003930031407937967,0.0022196636290679507,-0.0020599412696471857,23.196425358997658
1618,D,197156396617552.0,1.5179931512584408,0.8940412589932474,8.983856,92,1970-01-03 06:45:56.396617552,-0.00010681152,0.001373291,-0.002609253,9.174630593389853,0.0029505148854894313,-5.864139080047607,10.233444213867188,-71.3793716430664,23246779.0,50354.0,0.07747582512306754,0.044875642860865976,-0.040904014466000053,0.003921171585214401,0.0022480807445666726,-0.0020518168126533926,23.24677936299122
1618,D,197156446971555.0,1.5181305512584407,0.9078809889932473,8.997711,92,1970-01-03 06:45:56.446971555,-0.0061187744,0.004699707,-0.0057373047,9.186828635225487,0.009614744472142068,-5.858476638793945,10.233181953430176,-71.37860870361328,23297133.0,50354.0,0.07644048645826752,0.04536699643755598,-0.04074728764100004,0.0038751509766832733,0.0022720389296163697,-0.0020557348331479413,23.29713336599525
1618,D,197156497325559.0,1.5451843512584407,0.8596479489932474,9.014816,92,1970-01-03 06:45:56.497325559,-0.0062561035,0.007598877,0.0025634766,9.203602175712739,0.01017119338831923,-5.860214710235596,10.228363037109375,-71.3787841796875,23347487.0,50354.0,0.07712507930066753,0.04450107607168598,-0.039967807721000025,0.003866320249112708,0.0022626084615651847,-0.0020321639559290755,23.347487369988812
1618,D,197156547679563.0,1.5703308512584409,0.8786604189932473,8.989365,92,1970-01-03 06:45:56.547679563,-0.0014801025,0.004989624,0.007003784,9.172402448414779,0.008725826115075767,-5.8590407371521,10.220429420471191,-71.37823486328125,23397841.0,50354.0,0.07843932625376754,0.04376538978079598,-0.04017793496300006,0.003916645038644012,0.0022222848107679386,-0.0020178293635550702,23.397841374011477
1618,D,197156598033567.0,1.5265228512584408,0.8529646189932474,9.021744,92,1970-01-03 06:45:56.598033567,0.0023498535,0.0021820068,-4.5776367e-05,9.214332596909331,0.003207032993669415,-5.861290454864502,10.218301773071289,-71.37867736816406,23448195.0,50354.0,0.07796948566826753,0.043597123581385976,-0.040003508707000056,0.003937904657761077,0.0021995259989196552,-0.0020187282072795932,23.44819537800504
1618,D,197156648387571.0,1.5102722512584408,0.8795606689932474,9.010452,92,1970-01-03 06:45:56.648387571,0.0036773682,0.001953125,0.002380371,9.203472693844228,0.004796238134375444,-5.859393119812012,10.219094276428223,-71.37825012207031,23498549.0,50354.0,0.07645739029606753,0.043619789175635984,-0.03947260130800002,0.0038880054561540645,0.002195860212483542,-0.002000970021847657,23.4985493819986
1618,D,197156698741575.0,1.4963256512584409,0.8978407189932474,8.999512,92,1970-01-03 06:45:56.698741575,0.0019226074,-0.0015411377,0.0035247803,9.193456736727722,0.0043006512051274445,-5.854915142059326,10.222192764282227,-71.37730407714844,23548903.0,50354.0,0.07569711539166754,0.04474963474533598,-0.04003233637200004,0.0038307939897001065,0.002224876986058311,-0.0020016958159693615,23.548903385992162
1618,D,197156749095579.0,1.5265991512584407,0.9098341189932473,8.998001,92,1970-01-03 06:45:56.749095579,0.003829956,-0.0023040771,0.0036468506,9.18542653135213,0.00576860932490672,-5.848581790924072,10.220608711242676,-71.37602233886719,23599257.0,50354.0,0.07610817775296753,0.04551182939598598,-0.040345815199000046,0.003822001865502478,0.002272512882686063,-0.0020236807221030695,23.599257389985723
1618,D,197156799449583.0,1.5373718512584407,0.8754713189932474,9.031143,92,1970-01-03 06:45:56.799449583,0.0012817383,-0.0034637451,0.003326416,9.219366095865137,0.004970455370739878,-5.8474225997924805,10.216358184814453,-71.37564849853516,23649611.0,50354.0,0.07714159793036753,0.04494863501218598,-0.03954944151200002,0.003858369602379327,0.0022775231124045454,-0.0020115228782128488,23.64961139400839
1618,D,197156849803587.0,1.5365020512584409,0.8865186789932473,8.973511,92,1970-01-03 06:45:56.849803587,0.0038146973,-0.0010528564,0.0018463135,9.16197033386623,0.004366840463072872,-5.845361232757568,10.214058876037598,-71.37522888183594,23699965.0,50354.0,0.07739092324366753,0.044361622179305976,-0.04016602624200003,0.0038906652855986803,0.0022485643453101934,-0.0020069963316424596,23.69996539800195
1618,D,197156900157591.0,1.5058776512584409,0.8824293189932473,8.976456,92,1970-01-03 06:45:56.900157591,0.0034637451,-0.0046539307,-0.001449585,9.170692294494737,0.0059797907781461304,-5.843995571136475,10.21623420715332,-71.37506103515625,23750319.0,50354.0,0.07659799377026753,0.044536803745305976,-0.04154288084100002,0.003876978963659844,0.002238195669503955,-0.0020571851536286922,23.75031940199551
1618,D,197156950511595.0,1.5212738512584407,0.9255201189932474,8.966995,92,1970-01-03 06:45:56.950511595,0.0021514893,-0.0008392334,0.0037384033,9.154498468289189,0.0043941868577861976,-5.836020469665527,10.216588973999023,-71.37348175048828,23800673.0,50354.0,0.07621459337886753,0.04551874300018598,-0.041706934173000004,0.0038473625066537736,0.0022673285004112514,-0.002095980592607479,23.800673405989073
1618,D,197157000865598.0,1.5187866512584407,0.8676130189932474,9.015015,92,1970-01-03 06:45:57.000865598,0.0009613037,-0.004058838,0.0,9.207624250016899,0.004171123435464083,-5.83671236038208,10.215649604797363,-71.37357330322266,23851027.0,50354.0,0.07653960327186753,0.04514571301508598,-0.04073613423000002,0.003845892409075557,0.002282659009096502,-0.002075669133182332,23.851027408993104
1618,D,197157051219602.0,1.5295135512584408,0.8430921689932473,9.0251465,92,1970-01-03 06:45:57.051219602,0.0018920898,-0.0019683838,0.001876831,9.218151560411465,0.0033131606055136356,-5.8410162925720215,10.212868690490723,-71.374267578125,23901381.0,50354.0,0.07674705419876754,0.04307042451793598,-0.03927205391450004,0.0038592981751381797,0.002221017694668894,-0.002014366152914078,23.901381412986666
1618,D,197157101573606.0,1.5056488512584407,0.8683607189932473,9.028641,92,1970-01-03 06:45:57.101573606,-0.0024871826,-0.00032043457,-0.002319336,9.223219904384607,0.0034158564197415914,-5.8414435386657715,10.213834762573242,-71.37442016601562,23951735.0,50354.0,0.07641628380816753,0.043089249360835975,-0.03892899211250003,0.0038561933610006044,0.002169242109245842,-0.0019688677358217807,23.95173541700933
1618,D,197157151927610.0,1.5460083512584408,0.8900129189932473,8.963898,92,1970-01-03 06:45:57.151927610,-0.0012207031,-0.00018310547,0.0028533936,9.150541231362899,0.0031089385178891026,-5.8393754959106445,10.21045207977295,-71.3739013671875,24002089.0,50354.0,0.07683157338776753,0.04427057308358597,-0.04047104559700002,0.0038583213006220573,0.0021994582496832117,-0.001999054749412083,24.002089421002893
1618,D,197157202281614.0,1.5371124512584406,0.8852522189932474,8.972809,92,1970-01-03 06:45:57.202281614,-0.00039672852,-0.0009460449,0.0023956299,9.161300980173728,0.002606038581673612,-5.837932109832764,10.20822811126709,-71.37352752685547,24052443.0,50354.0,0.07762373244496754,0.04469585037908598,-0.04187672786100003,0.003888721234950771,0.0022399076435196917,-0.0020732698923520677,24.052443424996454
1618,D,197157252635618.0,1.5205261512584407,0.8513166489932473,9.012329,92,1970-01-03 06:45:57.252635618,0.0024414063,-0.0015716553,0.002243042,9.20634088958517,0.0036690329131069104,-5.841091632843018,10.2073974609375,-71.37398529052734,24102797.0,50354.0,0.07698216709556753,0.04372159438929598,-0.040657380574000056,0.003892512732732051,0.0022260860069335526,-0.0020779612480679973,24.102797428990016
1618,D,197157302989622.0,1.5449859512584407,0.8762342589932474,9.004974,92,1970-01-03 06:45:57.302989622,0.0049438477,-0.0032348633,-0.00077819824,9.192326426184056,0.0059591579229972816,-5.840272426605225,10.203009605407715,-71.37390899658203,24153151.0,50354.0,0.07718039820506753,0.04349454921037598,-0.039847562369000035,0.003881350906574089,0.002195840847408941,-0.0020268729484759136,24.15315143301268
1618,D,197157353343626.0,1.5220977512584408,0.9002210689932474,9.000458,92,1970-01-03 06:45:57.353343626,0.0023498535,-0.0034637451,-0.001449585,9.189558275818788,0.004429518965018805,-5.835902214050293,10.202417373657227,-71.37321472167969,24203505.0,50354.0,0.07721996637826753,0.04472581579271598,-0.04014643853600002,0.003887337979114627,0.0022211241296828466,-0.0020140089607851865,24.203505437006243
1618,D,197157403697630.0,1.5121032512584407,0.9251386789932473,9.000565,92,1970-01-03 06:45:57.403697630,0.0007324219,-0.0016937256,0.00044250488,9.189046905268407,0.0018976192496174737,-5.827777862548828,10.203537940979004,-71.37174224853516,24253859.0,50354.0,0.07639207864036753,0.04595708237505598,-0.04025744392900004,0.0038674904574341755,0.002283123327169995,-0.0020243285488213067,24.253859440999804
1618,D,197157454051634.0,1.5215332512584407,0.8811475889932473,9.002304,92,1970-01-03 06:45:57.454051634,0.002456665,-0.0048675537,-0.0016326904,9.193339999464536,0.005691569193716338,-5.826691150665283,10.202845573425293,-71.37162780761719,24304213.0,50354.0,0.07637786622386752,0.04547686936909598,-0.04021096718700003,0.0038462889018468466,0.0023020326030625143,-0.0020259531866675335,24.304213444993366
1618,D,197157504405638.0,1.5305816512584407,0.8923170189932473,8.984726,92,1970-01-03 06:45:57.504405638,0.0011291504,-0.00390625,0.0019226074,9.173424793514267,0.004497798228339608,-5.824184894561768,10.201359748840332,-71.37108612060547,24354567.0,50354.0,0.07684309690066753,0.044650518435275975,-0.04060974569000002,0.003857644188586419,0.002269137242750673,-0.0020348230881042303,24.354567448986927
1618,D,197157554759641.0,1.5190765512584408,0.8860914189932473,9.008011,92,1970-01-03 06:45:57.554759641,-0.00079345703,-0.0034332275,0.0009613037,9.198873833561656,0.0036524963968286622,-5.822458267211914,10.20103931427002,-71.3707046508789,24404921.0,50354.0,0.07678124456476752,0.04477498924318598,-0.040466060551000035,0.0038678000450752584,0.0022514660068206366,-0.0020412455737296585,24.40492145199096
1618,D,197157605113645.0,1.5422699512584408,0.8874494689932473,8.996414,92,1970-01-03 06:45:57.605113645,0.0030517578,-0.0018615723,-0.0008392334,9.183301637610453,0.0036719190892044026,-5.820570945739746,10.197559356689453,-71.37042999267578,24455275.0,50354.0,0.07707552089386754,0.04465243893683598,-0.04017179177500005,0.0038736517839520557,0.002251514359288413,-0.0020302192080117044,24.455275456013624
1618,D,197157655467649.0,1.5403778512584407,0.9045393189932474,9.00325,92,1970-01-03 06:45:57.655467649,0.0007171631,-0.0038452148,-0.0022277832,9.188659617774933,0.004501446184987986,-5.816056251525879,10.19421100616455,-71.3697280883789,24505629.0,50354.0,0.07761182372396754,0.04511690171513598,-0.04029165947200006,0.0038945632754432335,0.002260122689594698,-0.0020258283120457216,24.505629460007185
1618,D,197157705821653.0,1.5208007512584407,0.8952162189932473,9.0013275,92,1970-01-03 06:45:57.705821653,0.0021514893,-0.0007171631,-0.00038146973,9.19112728231268,0.0022997278697538047,-5.813068866729736,10.194141387939453,-71.3692398071289,24555983.0,50354.0,0.07707129367556753,0.04531244517988598,-0.040167952282500044,0.003894456846768094,0.002276739666775968,-0.002025731645143049,24.555983464000747
1618,D,197157756175657.0,1.5160095512584408,0.8943769589932473,8.967636,92,1970-01-03 06:45:57.756175657,0.0010681152,-0.003753662,-0.0039520264,9.159068568973662,0.005554220121404265,-5.810905933380127,10.195569038391113,-71.3690414428711,24606337.0,50354.0,0.07645777298646754,0.04505658744216598,-0.04106460596050002,0.0038654013113500574,0.0022752211343254024,-0.002045192118884013,24.606337467994308
1618,D,197157806529661.0,1.5318176512584407,0.8738081189932473,8.999207,92,1970-01-03 06:45:57.806529661,-0.001083374,0.0052337646,0.0027618408,9.189225535871,0.006016124642710938,-5.811593532562256,10.194086074829102,-71.3690414428711,24656691.0,50354.0,0.07673514547776752,0.044517595708465973,-0.04111799378900002,0.003856938108174046,0.0022552092091834607,-0.0020691113138931625,24.65669147198787
1618,D,197157856883665.0,1.5314666512584407,0.8888838189932473,9.020401,92,1970-01-03 06:45:57.856883665,-0.0010070801,-0.0024719238,0.0033416748,9.20855016897248,0.004276845574693747,-5.809536457061768,10.191779136657715,-71.36849212646484,24707045.0,50354.0,0.07712430888446753,0.044379294922685976,-0.039789529384000044,0.0038737194824779923,0.0022381570154205127,-0.002037008710926623,24.707045476010535
1618,D,197157907237669.0,1.5217163512584408,0.8743116489932473,9.003082,92,1970-01-03 06:45:57.907237669,0.0024261475,0.0013275146,-0.0020141602,9.19475054021302,0.0034213050165446297,-5.809981822967529,10.191619873046875,-71.36870574951172,24757399.0,50354.0,0.07686998845436753,0.044391972297495974,-0.039691968509000065,0.003877114424099851,0.002234994194802521,-0.0020011056724520636,24.757399480004096
1618,D,197157957591673.0,1.5394470512584408,0.8471662589932474,8.964294,92,1970-01-03 06:45:57.957591673,0.0023345947,-0.0015258789,0.000579834,9.156409999724339,0.002848656928850735,-5.815310478210449,10.189592361450195,-71.36962127685547,24807753.0,50354.0,0.07707091098516754,0.04334164928937598,-0.041104574448000045,0.0038757700251891747,0.0022088693906926753,-0.002034214562028392,24.807753483997658
1618,D,197158007945677.0,1.5165283512584407,0.8979322589932474,8.979538,92,1970-01-03 06:45:58.007945677,0.0034332275,-0.004638672,0.00018310547,9.170281851111751,0.005773894405293897,-5.812185287475586,10.190713882446289,-71.36907196044922,24858107.0,50354.0,0.07694029270916752,0.043936345387345976,-0.041697341736000024,0.0038775400754122746,0.0021973980719758287,-0.0020847038437645697,24.85810748799122
1618,D,197158058299680.0,1.5490142512584408,0.9136030189932474,8.986023,92,1970-01-03 06:45:58.058299680,0.001876831,-0.0018615723,-0.0016174316,9.169397215942857,0.0030990371103565137,-5.806654930114746,10.186803817749023,-71.36817932128906,24908461.0,50354.0,0.07718116610356753,0.045609023693865984,-0.04115027070300006,0.0038803159685282303,0.002254483757357674,-0.002085854338376705,24.90846149099525
1618,D,197158108653684.0,1.5160705512584407,0.8757154589932473,9.006912,92,1970-01-03 06:45:58.108653684,-0.00016784668,-0.0029449463,-0.0009460449,9.199359948806691,0.003097722093843591,-5.807003498077393,10.187322616577148,-71.3682632446289,24958815.0,50354.0,0.07716964007296753,0.04504967132026598,-0.040461075505000055,0.003886090247106624,0.0022825139643708006,-0.0020547288634788193,24.958815494988812
1618,D,197158159007688.0,1.5383331512584408,0.8940717789932473,8.992203,92,1970-01-03 06:45:58.159007688,0.0018310547,-0.0017852783,0.0006713867,9.17921409704579,0.002644000760926492,-5.804572105407715,10.18493366241455,-71.36780548095703,25009169.0,50354.0,0.07690072201826753,0.04455793329078597,-0.040305481645000044,0.0038790295063710254,0.002256050661292455,-0.0020334596093655524,25.009169499011477
1618,D,197158209361692.0,1.5321991512584408,0.8989546189932474,8.989075,92,1970-01-03 06:45:58.209361692,0.001083374,-0.0035095215,-0.0024108887,9.176749961603997,0.0043934980034849155,-5.801543235778809,10.18354320526123,-71.36737060546875,25059523.0,50354.0,0.07730679178046754,0.04514302562210598,-0.04075456379400005,0.003882482574910753,0.002258401042549881,-0.002040848764017705,25.05952350300504
1618,D,197158259715696.0,1.5361358512584407,0.8934156489932473,9.006943,92,1970-01-03 06:45:58.259715696,0.0037994385,-0.001373291,0.0018463135,9.194103301815122,0.004441906643125844,-5.799010753631592,10.181209564208984,-71.36686706542969,25109877.0,50354.0,0.07725147035836752,0.04512650623709598,-0.040383454814000054,0.0038913133658694506,0.0022727160036191277,-0.0020428118944936188,25.1098775069986
1618,D,197158310069700.0,1.5490295512584407,0.9038831789932473,8.957184,92,1970-01-03 06:45:58.310069700,0.0015258789,-0.0013580322,-0.0027160645,9.142075108979636,0.0033984649831743595,-5.7958269119262695,10.178313255310059,-71.36644744873047,25160231.0,50354.0,0.07767520933916752,0.04525059259221598,-0.04118637452100005,0.0039005890147448398,0.002275424217225587,-0.002053683593167298,25.160231510992162
1618,D,197158360423704.0,1.5038940512584407,0.8732740489932473,8.982101,92,1970-01-03 06:45:58.360423704,0.0029144287,-0.0016174316,-0.00038146973,9.177486601926661,0.0033549215762769366,-5.797072410583496,10.181658744812012,-71.36669921875,25210585.0,50354.0,0.07686345754056753,0.04474348752901598,-0.04181182155500004,0.0038908200160310898,0.002265780955212257,-0.0020896455826054545,25.210585514985723
1618,D,197158410777708.0,1.5218994512584407,0.9231397689932473,8.94191,92,1970-01-03 06:45:58.410777708,0.002380371,-0.0017089844,-0.00030517578,9.130043947298253,0.002946171419619532,-5.791059494018555,10.183403968811035,-71.36566925048828,25260939.0,50354.0,0.07618040301286753,0.04522831069544598,-0.042196375053000036,0.0038531852771538345,0.002265219963897279,-0.002115074365999618,25.26093951900839
1618,D,197158461131712.0,1.5070373512584407,0.8799421189932474,9.003342,92,1970-01-03 06:45:58.461131712,0.0013580322,-0.0039978027,-0.0011901855,9.197050391944835,0.004386709405553823,-5.7911176681518555,10.185453414916992,-71.3657455444336,25311293.0,50354.0,0.07625954187696753,0.04539619269383598,-0.04166159039600004,0.0038379804924913775,0.0022816531218319523,-0.002111291996109475,25.31129352300195
1618,D,197158511484096.0,1.5722686512584407,0.9037153189932473,8.964203,92,1970-01-03 06:45:58.511484096,0.0027008057,-0.0007324219,-0.0012512207,9.144937495833185,0.003065346066737097,-5.787971496582031,10.17870807647705,-71.36526489257812,25361645.0,50352.0,0.07752460791936501,0.04490535965874799,-0.04109868708000005,0.003871669755272468,0.002273431882028654,-0.0020835727457357784,25.361645906988997
1618,D,197158561838100.0,1.5246460512584408,0.8697645189932474,9.0117035,92,1970-01-03 06:45:58.561838100,-0.00012207031,-0.0015106201,-0.0021514893,9.203130896148577,0.0026316877579078404,-5.789658069610596,10.178034782409668,-71.36566162109375,25411999.0,50354.0,0.07797102146526753,0.04465090188098598,-0.04088980204950007,0.003914913461016894,0.0022547579967858826,-0.0020642241908134244,25.411999911011662
1618,D,197158612192103.0,1.5095550512584408,0.8833906189932473,8.988419,92,1970-01-03 06:45:58.612192103,-0.003967285,0.0056915283,0.0027618408,9.181650228499796,0.007467302676701309,-5.789682865142822,10.180753707885742,-71.36551666259766,25462353.0,50354.0,0.07639208115806753,0.04413918690908598,-0.040280115817500045,0.0038863998347477076,0.0022354680654676417,-0.002043615022137462,25.46235391398659
1618,D,197158662546107.0,1.5323516512584408,0.8817579189932473,8.990997,92,1970-01-03 06:45:58.662546107,-0.00018310547,-0.003112793,0.0037231445,9.18029831582748,0.004856419755527025,-5.7897186279296875,10.17939567565918,-71.36532592773438,25512707.0,50354.0,0.07658608504926753,0.04444114474088598,-0.040801443368000026,0.003851531290602075,0.002230187009951344,-0.0020413904156133355,25.512707918009255
1618,D,197158712900111.0,1.5370513512584407,0.8881971189932474,8.949265,92,1970-01-03 06:45:58.712900111,0.0034332275,0.00024414063,-0.0013885498,9.137961078264082,0.0037114318343535674,-5.789271831512451,10.178650856018066,-71.36534118652344,25563061.0,50354.0,0.07727835939436753,0.04456215799138598,-0.04178722362600002,0.0038738451177574,0.0022408361528904112,-0.0020793348689079395,25.563061922002817
1618,D,197158763254115.0,1.5464050512584409,0.8697187489932473,8.994598,92,1970-01-03 06:45:58.763254115,0.0016326904,-0.002822876,-6.1035156e-05,9.182567998977529,0.0032615996296136815,-5.791101932525635,10.175050735473633,-71.36566162109375,25613415.0,50354.0,0.07763218184616753,0.04425904780829598,-0.04169656124900003,0.003900182696812951,0.0022362514984185927,-0.0021018712517978763,25.613415925996378
1618,D,197158813608119.0,1.5416595512584408,0.8867933189932473,8.97905,92,1970-01-03 06:45:58.813608119,0.003768921,-0.0023040771,0.0015869141,9.16646347407575,0.004693807958125708,-5.79032039642334,10.172773361206055,-71.36546325683594,25663769.0,50354.0,0.07774820249756755,0.044223704335695974,-0.04094666430400002,0.003912011936622218,0.0022277302507292857,-0.0020807084897478826,25.66376992998994
1618,D,197158863962123.0,1.5359222512584407,0.8817732189932473,9.025497,92,1970-01-03 06:45:58.863962123,0.0037994385,-0.0048217773,-0.0037231445,9.213462889170772,0.007179629113955525,-5.789654731750488,10.17000961303711,-71.36554718017578,25714123.0,50354.0,0.07748427704196753,0.04452719972688598,-0.040168720181000026,0.003908288137366874,0.002234481511583626,-0.0020422420351788465,25.714123934012605
1618,D,197158914316127.0,1.5493041512584407,0.8904096689932474,8.987137,92,1970-01-03 06:45:58.914316127,0.000869751,-0.0024719238,-0.0025634766,9.172693593070731,0.0036658268308466238,-5.788389682769775,10.166440963745117,-71.36543273925781,25764477.0,50354.0,0.07767674513616753,0.04461824857083598,-0.03996511378200003,0.003906489055378906,0.002244414951791746,-0.0020175295376864523,25.764477938006166
1618,D,197158964670131.0,1.5211822512584408,0.8805067189932473,9.006348,92,1970-01-03 06:45:58.964670131,0.0019683838,-0.0031738281,-0.0027008057,9.19742566838698,0.004608912129950466,-5.78835916519165,10.166694641113281,-71.36556243896484,25814831.0,50354.0,0.07730563615616753,0.04458636190033598,-0.04044722815500004,0.00390199141379712,0.0022459044778326965,-0.002024541532947851,25.814831941999728
1618,D,197159015024135.0,1.5233795512584407,0.8768598689932473,9.020828,92,1970-01-03 06:45:59.015024135,0.0035247803,-0.004425049,-0.0030670166,9.211579976485027,0.006435194297015797,-5.788596153259277,10.166138648986816,-71.36576843261719,25865185.0,50354.0,0.07665293250196753,0.044245218585735976,-0.03959898984800007,0.003876214883105867,0.0022365127018978337,-0.0020153236306615337,25.86518594599329
1618,D,197159065378139.0,1.5227539512584407,0.8743574189932474,8.99678,92,1970-01-03 06:45:59.065378139,0.00036621094,-0.0051727295,-0.003189087,9.188391908968065,0.0060878170821990815,-5.789764881134033,10.166301727294922,-71.3661117553711,25915539.0,50354.0,0.07669250319286754,0.04409039765963598,-0.03983988338400006,0.0038607780344888623,0.0022240258102097297,-0.0020000325113620674,25.91553994998685
1618,D,197159115732143.0,1.5400421512584408,0.9098188489932474,8.989227,92,1970-01-03 06:45:59.115732143,0.0022583008,-0.0035858154,-0.0017852783,9.174468609972978,0.004598392457653945,-5.785325527191162,10.16419792175293,-71.36540985107422,25965893.0,50354.0,0.07711201747306753,0.04492020589909598,-0.040635501761000066,0.003872336416806248,0.002241019965798195,-0.0020261287717956685,25.965893954009516
1618,D,197159166086146.0,1.5435516512584408,0.8886701689932474,9.052856,92,1970-01-03 06:45:59.166086146,0.0015258789,-0.0052490234,-0.0018310547,9.238259680866358,0.0057648342895182045,-5.783365726470947,10.159749984741211,-71.36514282226562,26016247.0,50354.0,0.07763564116596754,0.04528055800584598,-0.03922367630900004,0.003896081801554986,0.002270984632834724,-0.002010614526268393,26.016247957013547
1618,D,197159216440150.0,1.5384399512584408,0.8841688189932473,8.992783,92,1970-01-03 06:45:59.216440150,0.0032043457,-0.0043792725,-0.0032348633,9.180739453012501,0.006317451983517693,-5.783041954040527,10.157841682434082,-71.36524963378906,26066601.0,50354.0,0.07759530257656753,0.044634767200535976,-0.03913414689700005,0.003908249470605806,0.0022637981427210785,-0.0019728149148574648,26.06660196100711
1618,D,197159266794154.0,1.5312225512584408,0.8878462189932473,8.972504,92,1970-01-03 06:45:59.266794154,0.0016021729,-0.0037994385,-0.0036315918,9.161782462560438,0.005494647388013529,-5.7825541496276855,10.157681465148926,-71.3653335571289,26116955.0,50354.0,0.07728489282586753,0.04461402261138597,-0.041157169201000036,0.0038994186796471085,0.002247016781094759,-0.0020214944653993484,26.11695596500067
1618,D,197159317148158.0,1.5184204512584407,0.8631880189932474,8.981476,92,1970-01-03 06:45:59.317148158,0.0036315918,-0.0031585693,-0.000289917,9.175302127354472,0.004821729035482887,-5.785695552825928,10.159226417541504,-71.36592102050781,26167309.0,50354.0,0.07678086187436753,0.04408578900978598,-0.04144184554,0.0038789135060878182,0.0022331951571862465,-0.002079595394134158,26.167309968994232
1618,D,197159367502162.0,1.5529052512584407,0.9147932189932473,8.984726,92,1970-01-03 06:45:59.367502162,0.0036010742,-0.0054626465,-0.0050201416,9.167334441891146,0.008246821439919652,-5.780600547790527,10.155346870422363,-71.36526489257812,26217663.0,50354.0,0.07732676721226753,0.044764233628785975,-0.041134132246000016,0.0038799677775142112,0.002236977019971326,-0.0020790153927181224,26.217663972987793
1618,D,197159417856166.0,1.5397369512584407,0.8823988189932473,8.982483,92,1970-01-03 06:45:59.417856166,0.0035095215,-0.0025787354,-0.0026855469,9.170598844623752,0.005116520260320975,-5.7807722091674805,10.153717041015625,-71.3654556274414,26268017.0,50354.0,0.07786345273276753,0.04524790394038598,-0.04110877900700003,0.003907224167556148,0.0022662355875790424,-0.002070629776616782,26.26801797701046
1618,D,197159468210170.0,1.5311462512584408,0.9235059889932473,9.034821,92,1970-01-03 06:45:59.468210170,0.00018310547,-0.0026397705,-0.0022888184,9.219399494259543,0.0034986576817392025,-5.773812294006348,10.152134895324707,-71.36433410644531,26318371.0,50354.0,0.07731562638976754,0.045467265350675974,-0.03984753719200001,0.003906943675068065,0.0022839358172410673,-0.002038237172942224,26.31837198100402
1618,D,197159518564174.0,1.5225860512584408,0.9002516189932473,9.033539,92,1970-01-03 06:45:59.518564174,-0.0010070801,0.0018157959,-0.0009918213,9.221871959256177,0.0023010942113278433,-5.770750999450684,10.152100563049316,-71.36383056640625,26368725.0,50354.0,0.07688381818046754,0.04591674529627598,-0.03856210028000003,0.0038822794159448087,0.0023007752360583093,-0.001974119442632545,26.36872598499758
1618,D,197159568918178.0,1.5432769512584408,0.8852979789932474,8.990433,92,1970-01-03 06:45:59.568918178,0.0001373291,-0.0019683838,6.1035156e-05,9.177479105134813,0.0019741122957109593,-5.77072811126709,10.1498441696167,-71.36382293701172,26419079.0,50354.0,0.07718923281436753,0.04495478222850598,-0.03967965695600007,0.0038790972048969624,0.0022878724484914352,-0.0019698927219307747,26.419079988991143
1618,D,197159619272182.0,1.5588104512584409,0.8578169189932473,9.005234,92,1970-01-03 06:45:59.619272182,0.0010223389,-0.000289917,-1.5258789e-05,9.19203860575723,0.001062761273280108,-5.774757385253906,10.144866943359375,-71.36454772949219,26469433.0,50354.0,0.07810125453316753,0.04388640378660598,-0.04039229194100006,0.00390974859994889,0.002236754540302474,-0.0020159714573797726,26.46943399301381
1618,D,197159669626185.0,1.5504181512584407,0.8784315189932473,8.979965,92,1970-01-03 06:45:59.669626185,0.0028533936,-0.0017700195,0.000869751,9.166660993096082,0.0034686151226249085,-5.775743007659912,10.141971588134766,-71.36468505859375,26519787.0,50354.0,0.07828104852556753,0.043713526923185975,-0.040655844777000044,0.003937237244109773,0.002205503455480432,-0.0020405489381490885,26.519787995988736
1618,D,197159719980189.0,1.5486480512584408,0.8666212189932473,9.006836,92,1970-01-03 06:45:59.719980189,0.0045928955,-0.002960205,-0.0015563965,9.194477381372018,0.0056815378887373,-5.7780656814575195,10.138591766357422,-71.36520385742188,26570142.0,50355.0,0.07802673931386878,0.04393606531065496,-0.04061631782250004,0.003935439328327408,0.00220679760846753,-0.002046229873848913,26.5701420000114
1618,D,197159770334193.0,1.5415222512584408,0.9920484689932473,8.984024,92,1970-01-03 06:45:59.770334193,0.0061798096,-0.0064697266,-0.0051116943,9.16154944138696,0.01030421406938211,-5.760833263397217,10.13715934753418,-71.36243438720703,26620496.0,50354.0,0.07780121770646753,0.04679572673443597,-0.04051331778000005,0.003923280473901007,0.0022843543283192548,-0.0020426008355641447,26.620496004004963
1618,D,197159820688197.0,1.5007812512584409,0.9472334189932473,9.015823,92,1970-01-03 06:45:59.820688197,-0.00012207031,-0.006790161,-0.00390625,9.203952164878343,0.007834537422784098,-5.7509565353393555,10.141011238098145,-71.36084747314453,26670850.0,50354.0,0.07659607528286753,0.048825300093835976,-0.040287052081000065,0.0038872606455924896,0.002407450592455403,-0.0020343109119904,26.670850007998524
1618,D,197159871042201.0,1.5228912512584407,0.8344251789932473,8.98967,92,1970-01-03 06:45:59.871042201,-0.0070343018,-0.0015563965,0.0060424805,9.185490776382224,0.00940294328769326,-5.759764671325684,10.14209270477295,-71.3620376586914,26721204.0,50354.0,0.07612700259586754,0.04485681852150598,-0.04014490273900005,0.003845108931752913,0.0023586347003784645,-0.002025035326503143,26.721204011992086
1618,D,197159921396205.0,1.5841552512584407,0.7441389189932472,8.993439,92,1970-01-03 06:45:59.921396205,-0.0010528564,0.0006713867,0.010391235,9.188423371341148,0.010465994053370318,-5.782180309295654,10.133525848388672,-71.36547088623047,26771558.0,50354.0,0.07822610979386753,0.039743508295005975,-0.04070846470700002,0.00388614831063636,0.0021299824282593216,-0.002035645232187944,26.771558015985647
1618,D,197159971750209.0,1.5857574512584407,0.8223402189932474,8.991867,92,1970-01-03 06:45:59.971750209,0.00982666,0.0016326904,0.0059051514,9.178005878953627,0.011580144116321441,-5.791245937347412,10.125201225280762,-71.36687469482422,26821912.0,50354.0,0.07980889211126752,0.039439245257085975,-0.04065315083800005,0.003978847242965585,0.001993584186181019,-0.002048441394576467,26.821912020008313
1618,D,197160022104213.0,1.5788452512584408,0.9325391889932473,9.005707,92,1970-01-03 06:46:00.022104213,0.01071167,0.0044403076,-0.00592041,9.181751004587206,0.013019503075755915,-5.7825493812561035,10.118159294128418,-71.3657455444336,26872266.0,50354.0,0.07967520224126753,0.04418259885487598,-0.040344279402000076,0.0040153310435137755,0.0021053471692068664,-0.002039272301152483,26.872266024001874
1618,D,197160072458217.0,1.5133087512584407,0.9532606189932473,8.968948,92,1970-01-03 06:46:00.072458217,0.0033111572,0.0071411133,-0.009277344,9.155240816242188,0.012166691122112237,-5.771761417388916,10.122544288635254,-71.36437225341797,26922620.0,50354.0,0.07785116132136753,0.04747878176567598,-0.04092131106500008,0.003966041255416463,0.002307758579883637,-0.0020460237711876633,26.922620027995436
1618,D,197160122812221.0,1.5074493512584408,0.8815901189932474,8.956421,92,1970-01-03 06:46:00.122812221,0.0002746582,0.004928589,-9.1552734e-05,9.150884391066912,0.004937085026698559,-5.772844314575195,10.127806663513184,-71.36459350585938,26972974.0,50354.0,0.07605362674706753,0.04619603703028598,-0.04216218468700004,0.0038748608491989893,0.0023584509128259344,-0.0020917931725481067,26.972974031988997
1618,D,197160173166225.0,1.4785034512584407,0.9481641889932473,8.983551,92,1970-01-03 06:46:00.173166225,0.00024414063,-0.006362915,0.0059661865,9.176281511635862,0.00872591962472862,-5.762899398803711,10.136282920837402,-71.3625259399414,27023328.0,50354.0,0.07517733370896754,0.046067724212175976,-0.041794524956000015,0.003807541891401595,0.0023229247168014646,-0.0021137780786818126,27.023328036011662
1618,D,197160223520228.0,1.5637542512584408,0.9022199789932474,8.99704,92,1970-01-03 06:46:00.223520228,-0.0020751953,-0.0023040771,0.001739502,9.178738073941444,0.0035554288101283223,-5.7603936195373535,10.131132125854492,-71.3619613647461,27073682.0,50354.0,0.07659492217626752,0.046587122197395976,-0.04077186039300003,0.0038211700864225636,0.002332771068053793,-0.002078773883931774,27.07368203898659
1618,D,197160273874232.0,1.5855896512584406,0.8502790589932473,8.994675,92,1970-01-03 06:46:00.273874232,-0.004058838,-0.00064086914,-0.00036621094,9.17787123283119,0.0041254078122561445,-5.76630163192749,10.122749328613281,-71.36298370361328,27124036.0,50354.0,0.07929103143366753,0.044122668279385976,-0.040491791445000015,0.003924740654037335,0.0022838003948339397,-0.0020459749623253274,27.124036043009255
1618,D,197160324228236.0,1.5385315512584408,0.8460981189932474,9.021332,92,1970-01-03 06:46:00.324228236,-0.0047302246,0.0012207031,0.0019836426,9.21252823198646,0.005272568519168768,-5.772287368774414,10.121179580688477,-71.36389923095703,27174390.0,50354.0,0.07865599951576752,0.04270968821016598,-0.039880191761000036,0.003976632398213926,0.0021861782393374496,-0.0020235254211774635,27.174390047002817
1618,D,197160374582240.0,1.5330383512584407,0.8980695789932474,8.940857,92,1970-01-03 06:46:00.374582240,0.00289917,-0.002456665,-0.0039520264,9.129461596249008,0.005482599955990037,-5.7708940505981445,10.12261962890625,-71.36387634277344,27224744.0,50354.0,0.07733291543566753,0.04391291013220598,-0.04123516754700007,0.00392733291173228,0.002180897158465899,-0.002042241401297519,27.224744050996378
1618,D,197160424936244.0,1.5336791512584407,0.9257185189932473,8.981857,92,1970-01-03 06:46:00.424936244,0.0037078857,-0.007797241,-0.0040130615,9.166845960110502,0.00952103178122664,-5.7644734382629395,10.122610092163086,-71.3629379272461,27275098.0,50354.0,0.07721074656086752,0.04591751294300598,-0.04222902962200006,0.0038909457780867632,0.002261660561764612,-0.0021013780921239167,27.27509805498994
1618,D,197160475290248.0,1.5585662512584408,0.8782636789932473,8.956268,92,1970-01-03 06:46:00.475290248,-0.003479004,-0.0042877197,0.0063476563,9.142045148284135,0.008413129593719199,-5.766391754150391,10.119559288024902,-71.3629150390625,27325452.0,50354.0,0.07785346249916753,0.04541885979870598,-0.041841026875000055,0.0039040515915045025,0.0022995758565180825,-0.002116631812424972,27.325452059012605
1618,D,197161616647670.0,1.5188934512584407,0.8620435789932474,9.007065,92,1970-01-03 06:46:01.616647670,0.00018310547,-0.0029907227,-0.0044403076,9.20038415282421,0.0053567043472695945,-5.769909381866455,10.121264457702637,-71.36373901367188,28466809.0,1141357.0,1.7562400868427799,0.9931559355268458,-0.9340106685595005,1.0466777555981386,0.5926923063341929,-0.5568975817730176,28.46680948100402
1618,D,197161667001674.0,1.5258972512584408,0.8456403889932473,9.020599,92,1970-01-03 06:46:01.667001674,0.0,-0.0049438477,0.002532959,9.214072407404426,0.005554953769067416,-5.775642395019531,10.121379852294922,-71.3646011352539,28517163.0,50354.0,0.07665869551726753,0.04299435926199598,-0.039586703472,0.04614689264347891,0.02608715597189867,-0.02451226103563709,28.51716348499758
1618,D,197161717355678.0,1.5314056512584409,0.8564741189932473,9.022202,92,1970-01-03 06:46:01.717355678,0.0030517578,-0.0028533936,0.0019836426,9.213565759673063,0.004624923639468716,-5.779356956481934,10.120736122131348,-71.36516571044922,28567517.0,50354.0,0.07697371517666754,0.04285413696757598,-0.03920559922300002,0.0038680032040412037,0.0021614075895719335,-0.0019837538049520156,28.567517488991143
1618,D,197161767709682.0,1.5311004512584407,0.8806745589932473,8.96669,92,1970-01-03 06:46:01.767709682,0.0019683838,0.0018005371,-0.0009460449,9.156822580257925,0.0028304539539435827,-5.780149936676025,10.121953964233398,-71.3653793334961,28617871.0,50354.0,0.07710471614306753,0.043736192265665975,-0.04056286611600004,0.0038792326653369707,0.0021800847191053327,-0.0020083306518400047,28.61787149301381
1618,D,197161818063685.0,1.5152465512584408,0.8523542489932473,8.995743,92,1970-01-03 06:46:01.818063685,0.0028686523,0.00010681152,0.0008544922,9.190934729983516,0.0029951179674531756,-5.784855842590332,10.124625205993652,-71.3661880493164,28668225.0,50354.0,0.07669787848236753,0.043632466298675975,-0.04122902435900006,0.0038722879248845785,0.0021996807166744375,-0.002059274426489078,28.668225495988736
1618,D,197161868417689.0,1.5177948512584407,0.8462049589932473,8.96431,92,1970-01-03 06:46:01.868417689,0.0045776367,0.0007171631,0.0027008057,9.160351936683874,0.005363155050745875,-5.790832996368408,10.127727508544922,-71.36715698242188,28718579.0,50354.0,0.07636288339116754,0.042764625179475976,-0.041288945619000074,0.0038536108016899925,0.0021752195721454317,-0.0020775549301361097,28.7185795000114
1618,D,197161918771693.0,1.4747039512584408,0.8540785189932474,9.025818,92,1970-01-03 06:46:01.918771693,0.0021972656,0.00065612793,-0.0017700195,9.227459824853266,0.002896799787325609,-5.794562339782715,10.135642051696777,-71.367919921875,28768933.0,50354.0,0.07534214235096753,0.04280803712526598,-0.04053174734400007,0.0038194774331097347,0.0021544629188464883,-0.002059999586729455,28.768933504004963
1618,D,197161969125697.0,1.5338928512584407,0.8896467189932473,8.980774,92,1970-01-03 06:46:01.969125697,-0.00065612793,0.0021362305,0.0044555664,9.1692338154695,0.004984581883615244,-5.793415069580078,10.135740280151367,-71.36750030517578,28819287.0,50354.0,0.07574744169696752,0.04390177031678598,-0.04011723321600005,0.003803982457574861,0.002183092821968542,-0.002030499383559123,28.819287507998524
1618,D,197162019479701.0,1.5053283512584408,0.8561689189932473,8.967545,92,1970-01-03 06:46:02.019479701,-0.001953125,0.0024414063,0.0015258789,9.16471804179868,0.0034790039385964914,-5.797889232635498,10.140501022338867,-71.36820220947266,28869641.0,50354.0,0.07651847221576753,0.043954400317585976,-0.04158437253700004,0.0038335989145809306,0.002211954808061583,-0.0020570013280432832,28.869641511992086
1618,D,197162069833705.0,1.5119354512584409,0.8238966189932473,9.00032,92,1970-01-03 06:46:02.069833705,0.0046539307,0.001953125,0.0006713867,9.198959716655784,0.00509161352882997,-5.806466579437256,10.143099784851074,-71.3697280883789,28919995.0,50354.0,0.07596565075596753,0.042299010049885975,-0.041092262895000044,0.0038390927640593745,0.002171602112821841,-0.0020815496502714663,28.919995515985647
1618,D,197162120187709.0,1.5171539512584407,0.9163801189932473,8.982681,92,1970-01-03 06:46:02.120187709,0.0041503906,-0.004180908,0.0013427734,9.171465064395145,0.006042249104495768,-5.800552845001221,10.145276069641113,-71.36863708496094,28970349.0,50354.0,0.07626338388716752,0.04381494743228598,-0.04071118382300004,0.0038326704052102116,0.0021680911075286436,-0.002059565378019088,28.970349520008313
1618,D,197162170541713.0,1.5183898512584408,0.9179670189932473,9.02623,92,1970-01-03 06:46:02.170541713,0.0016021729,-0.0035858154,1.5258789e-05,9.213752298930967,0.003927500848505741,-5.794010639190674,10.14604377746582,-71.36748504638672,29020703.0,50354.0,0.07642588631596753,0.046183357893085974,-0.04005884775300005,0.0038442577559043315,0.0022658873331768896,-0.002033547084988955,29.020703524001874
1618,D,197162220895717.0,1.5248291512584407,0.8547804189932473,8.972763,92,1970-01-03 06:46:02.220895717,-0.0005645752,-0.0017547607,0.0027160645,9.166494200465648,0.003282519861155417,-5.798520565032959,10.147195816040039,-71.36813354492188,29071057.0,50354.0,0.07661912482636753,0.04463246224618597,-0.040308553239000025,0.0038532142455305696,0.00228646990364645,-0.0020234100547755858,29.071057527995436
1618,D,197162271249721.0,1.5176879512584407,0.8327924789932474,8.999893,92,1970-01-03 06:46:02.271249721,0.0019378662,-0.0041656494,0.0042266846,9.196587143654888,0.006242821721040891,-5.805788993835449,10.148494720458984,-71.36920166015625,29121411.0,50354.0,0.07660145309006752,0.04248802285260598,-0.040971639888000025,0.003857634490202086,0.002193432453332285,-0.0020463914223584805,29.121411531988997
1618,D,197162321603725.0,1.5271179512584407,0.8726942189932473,8.990326,92,1970-01-03 06:46:02.321603725,0.0048675537,-0.0028839111,0.0040893555,9.18146819964005,0.00698089182414877,-5.806607246398926,10.148755073547363,-71.36917877197266,29171765.0,50354.0,0.07665907820766753,0.04293903859520598,-0.04052945623700004,0.003858640396483075,0.0021507971260715615,-0.0020519530971391266,29.171765536011662
1618,D,197162371957728.0,1.5547668512584407,0.8955061189932473,9.008347,92,1970-01-03 06:46:02.371957728,0.003967285,0.00038146973,-0.0018463135,9.19202812252745,0.0043924643386615584,-5.803621292114258,10.1444673538208,-71.3687744140625,29222119.0,50354.0,0.07759261367296753,0.04451797990948598,-0.040316609879000036,0.0038835948464787493,0.0022019053548926293,-0.002035461406602534,29.22211953898659
1618,D,197162422311732.0,1.4935485512584408,0.8947431689932474,9.018448,92,1970-01-03 06:46:02.422311732,0.003540039,-0.00050354004,-0.0019836426,9.212793956764656,0.00408904226658749,-5.800697326660156,10.149344444274902,-71.3683853149414,29272473.0,50354.0,0.07674743688916753,0.04507310632363598,-0.03960858228500004,0.003885819453002875,0.0022556347780913117,-0.00201227656311303,29.272473543009255
1618,D,197162472665736.0,1.5046722512584407,0.8687727189932474,9.017487,92,1970-01-03 06:46:02.472665736,0.0027618408,-0.003616333,0.0004119873,9.212434202063811,0.004568956391430643,-5.801957607269287,10.152209281921387,-71.36859130859375,29322827.0,50354.0,0.07548620514496752,0.04440003951183598,-0.03937846450500008,0.0038327864054934187,0.0022526653926996775,-0.001988656877031833,29.322827547002817
1618,D,197162523019740.0,1.5326111512584408,0.8723127189932474,8.977371,92,1970-01-03 06:46:02.523019740,0.0021514893,-0.0047302246,0.0026855469,9.167852528168027,0.005849452378347845,-5.803287506103516,10.151784896850586,-71.36869049072266,29373181.0,50354.0,0.07646968422516753,0.043835308072185976,-0.040412660134000064,0.00382579342667189,0.002221501346122921,-0.002008901145036107,29.373181550996378
1618,D,197162573373744.0,1.5253784512584407,0.9066297689932473,8.988037,92,1970-01-03 06:46:02.573373744,0.004486084,-0.010223389,3.0517578e-05,9.17619099749149,0.011164388188474279,-5.7988996505737305,10.151999473571777,-71.36790466308594,29423535.0,50354.0,0.07699100422256754,0.044788435020035974,-0.04115412278400004,0.0038636797530486266,0.0022312799798328725,-0.0020536068935264884,29.42353555498994
1618,D,197162623727748.0,1.5389892512584407,0.8885481189932474,8.982468,92,1970-01-03 06:46:02.623727748,-0.00079345703,-0.0015563965,-0.004257202,9.170106169702292,0.004601707617012696,-5.797872543334961,10.150629043579102,-71.367919921875,29473889.0,50354.0,0.07715158564626753,0.04519719368583598,-0.04102579561500001,0.0038808479851276606,0.0022655681739277385,-0.0020690438055316245,29.473889559012605
1618,D,197162674081752.0,1.4935638512584408,0.8857099689932474,8.97847,92,1970-01-03 06:46:02.674081752,-0.00047302246,-0.0010986328,-0.0025787354,9.174549866578326,0.0028426432312398,-5.797354221343994,10.156408309936523,-71.3679428100586,29524243.0,50354.0,0.07635058946206752,0.04467049588123598,-0.04126666397400003,0.003864724262702552,0.002262598820230171,-0.0020718772550722543,29.524243563006166
1618,D,197162724435756.0,1.4933502512584407,0.8888075189932473,8.986145,92,1970-01-03 06:46:02.724435756,-0.00045776367,0.0021514893,-0.0001373291,9.181793623057755,0.0022039312755376852,-5.7962164878845215,10.162043571472168,-71.36775207519531,29574597.0,50354.0,0.07520153635906754,0.044677026795035976,-0.04117408814500003,0.0038156278717987177,0.002249502578420499,-0.0020756108161000646,29.574597566999728
1618,D,197162774789760.0,1.5164367512584407,0.9167005689932474,8.984467,92,1970-01-03 06:46:02.774789760,-0.0026397705,0.0018615723,-0.00015258789,9.173311142337786,0.003233747483179877,-5.7908406257629395,10.164102554321289,-71.3667984008789,29624951.0,50354.0,0.07577740736236752,0.04545727713123598,-0.04102310167600001,0.0038011968660745707,0.002269311369951749,-0.0020694786481233185,29.62495157099329
1618,D,197162825143764.0,1.5177795512584407,0.8670179189932473,8.997238,92,1970-01-03 06:46:02.825143764,-0.0029449463,0.004470825,-0.0045166016,9.190458332270659,0.007004332580883867,-5.793288230895996,10.165520668029785,-71.3674545288086,29675305.0,50354.0,0.07639246384846753,0.04490868037203598,-0.04074381321500004,0.0038311808474751938,0.002275143712059878,-0.0020586456162107083,29.67530557498685
1618,D,197162875497768.0,1.5108367512584409,0.8553297189932473,8.965485,92,1970-01-03 06:46:02.875497768,-0.0016326904,0.0020599365,-0.0050201416,9.161802784641843,0.005666642569488124,-5.797974109649658,10.168691635131836,-71.36852264404297,29725659.0,50354.0,0.07625147264846753,0.043363546481585975,-0.041221723029000075,0.003843116389183334,0.00222242985549364,-0.002063646306015191,29.725659579009516
1618,D,197162925851771.0,1.5254547512584407,0.8557874789932474,9.031082,92,1970-01-03 06:46:02.925851771,-0.0015563965,0.0027008057,-0.008041382,9.223375860200564,0.008624415688282235,-5.801419258117676,10.16775894165039,-71.36951446533203,29776013.0,50354.0,0.07644471115886754,0.04308079769370598,-0.04036963264100007,0.0038444318197172755,0.0021764092533013255,-0.0020542255617035936,29.776013582013547
1618,D,197162976205775.0,1.5176727512584407,0.8875868189932473,9.012497,92,1970-01-03 06:46:02.976205775,-0.0069732666,0.0060577393,-0.015197754,9.203367897293587,0.017784666967530095,-5.800418853759766,10.1687650680542,-71.37005615234375,29826367.0,50354.0,0.07661682113086753,0.043892934700405985,-0.039186011517000054,0.00385363019845866,0.002189737660486557,-0.002002972452965969,29.82636758600711
1618,D,197163026559779.0,1.5290710512584407,0.8353101889932474,8.97142,92,1970-01-03 06:46:03.026559779,-0.014770508,0.016921997,-0.011001587,9.166445046589626,0.025011133632137552,-5.808714389801025,10.169540405273438,-71.37200927734375,29876721.0,50354.0,0.07670786871596753,0.04337737797007598,-0.04068812169100004,0.0038602557162737664,0.0021972046621047247,-0.0020109910517778187,29.87672159000067
1618,D,197163076913783.0,1.4756652512584407,0.8395826189932474,9.002365,92,1970-01-03 06:46:03.076913783,-0.009002686,0.011123657,-0.0007019043,9.205837231327216,0.01432748302789445,-5.815220355987549,10.177403450012207,-71.3731689453125,29927075.0,50354.0,0.07565024588846753,0.04216877622667598,-0.04094321505500005,0.003835920251395861,0.002153795524211624,-0.0020552321652540445,29.927075593994232
1618,D,197163127267787.0,1.4666168512584408,0.8364546189932474,8.997406,92,1970-01-03 06:46:03.127267787,0.0010223389,-0.0002746582,-0.0015106201,9.202960970310015,0.0018446102677271588,-5.821631908416748,10.186015129089355,-71.37438201904297,29977429.0,50354.0,0.07407783649506754,0.04219758954078598,-0.040288965533000064,0.003769703930170263,0.00212409199092739,-0.0020451826106640788,29.977429597987793
1618,D,197163177621791.0,1.4926635512584407,0.8599989189932473,8.988007,92,1970-01-03 06:46:03.177621791,-0.0010681152,0.0012969971,0.00032043457,9.18662324029097,0.0017104823505463408,-5.824426651000977,10.19084358215332,-71.37487030029297,30027783.0,50354.0,0.07450580269416754,0.04271161072588598,-0.04065045689900005,0.003740890283867371,0.0021377589351139997,-0.002037811838570467,30.02778360201046
1618,D,197163227975795.0,1.5404388512584408,0.8563825689932474,8.992889,92,1970-01-03 06:46:03.227975795,0.0017700195,0.00091552734,0.003479004,9.183287948823978,0.004009317669215515,-5.827470779418945,10.188064575195312,-71.375244140625,30078137.0,50354.0,0.07636441918816753,0.043213336723035976,-0.04076418140800005,0.0037984595763315503,0.0021633324019215082,-0.0020497763486553417,30.07813760600402
1618,D,197163278329799.0,1.5052978512584407,0.8694898689932473,9.018997,92,1970-01-03 06:46:03.278329799,0.0031280518,-0.0014648438,0.0011444092,9.213728773905993,0.0036387013945810833,-5.827902793884277,10.18993854522705,-71.37528991699219,30128491.0,50354.0,0.07668251295926753,0.04345229037118598,-0.039983946178000024,0.0038532626106759726,0.0021819804933512262,-0.002032995608232724,30.12849160999758
1618,D,197163328683803.0,1.4739563512584408,0.8534376189932473,8.967194,92,1970-01-03 06:46:03.328683803,-0.00033569336,0.005645752,-0.002456665,9.170327084504216,0.006166231312534188,-5.831908226013184,10.198305130004883,-71.37615203857422,30178845.0,50354.0,0.07500868305676753,0.04337814536503598,-0.04063086919300004,0.003819129242095715,0.0021861298805308602,-0.0020296392065956687,30.178845613991143
1618,D,197163379037807.0,1.4792053512584407,0.8609907189932473,8.973953,92,1970-01-03 06:46:03.379037807,0.00088500977,0.0005493164,0.0011749268,9.175209848441273,0.0015701731705970055,-5.83441162109375,10.205252647399902,-71.37654113769531,30229199.0,50354.0,0.07435175218426754,0.04316416226548598,-0.04176494198100006,0.0037604476780635403,0.0021788756792136513,-0.002074479337927801,30.22919961801381
1618,D,197163429391810.0,1.4699432512584407,0.8520948489932473,9.01004,92,1970-01-03 06:46:03.429391810,0.0008087158,0.0012207031,0.006378174,9.213095312072436,0.006544099699561068,-5.837619304656982,10.212461471557617,-71.3768081665039,30279553.0,50354.0,0.07425071436556753,0.04313035534519598,-0.04068620823900004,0.0037413643003251975,0.00217263706988414,-0.002075872609088943,30.279553620988736
1618,D,197163479745814.0,1.4985382512584406,0.8302137189932474,9.005829,92,1970-01-03 06:46:03.479745814,0.00035095215,-0.0025634766,0.0071105957,9.206076243608278,0.007566713348554686,-5.844272613525391,10.21498966217041,-71.37763977050781,30329907.0,50354.0,0.07473745878886752,0.04235548281619598,-0.03988366618700003,0.0037510752355092115,0.0021522769473893656,-0.002028507728423404,30.3299076250114
1618,D,197163530099818.0,1.5123474512584407,0.8670789789932474,8.97821,92,1970-01-03 06:46:03.530099818,0.0034942627,-0.0010070801,0.0033416748,9.17279168305989,0.004938711634969422,-5.845285415649414,10.216259002685547,-71.37767791748047,30380261.0,50354.0,0.07580506933226752,0.042732738257205985,-0.04068505009700001,0.0037902092305058177,0.0021422661419650416,-0.002028478569882269,30.380261629004963
1618,D,197163580453822.0,1.5214874512584406,0.8552992189932473,8.974991,92,1970-01-03 06:46:03.580453822,0.0038757324,0.0010681152,0.0026855469,9.169213937832616,0.004834701011332594,-5.848177433013916,10.216254234313965,-71.37811279296875,30430615.0,50354.0,0.07638286134066753,0.04336431589070598,-0.04146145842300004,0.0038316355305524864,0.00216766553228198,-0.0020682026450080412,30.430615632998524
1618,D,197163630807826.0,1.4374420512584407,0.8801252189932474,8.981171,92,1970-01-03 06:46:03.630807826,0.0041046143,-0.0032196045,0.0016021729,9.188025836305503,0.005457166818934451,-5.846970081329346,10.228818893432617,-71.37782287597656,30480969.0,50354.0,0.07449696808486753,0.04369278107518598,-0.04138690932600006,0.0037987014654466966,0.0021918365303102622,-0.0020858733548165752,30.480969636992086
1618,D,197163681161830.0,1.4531128512584408,0.8702680689932474,9.0,92,1970-01-03 06:46:03.681161830,0.002029419,-0.0019836426,0.005630493,9.204518004391952,0.006305222507187575,-5.847113609313965,10.238188743591309,-71.37759399414062,30531323.0,50354.0,0.07277550078066752,0.04406965181163598,-0.04075725773300004,0.003707878948627576,0.0022095947727915166,-0.0020681436940444458,30.531323640985647
1618,D,197163731515834.0,1.5050384512584407,0.8608839189932473,8.956558,92,1970-01-03 06:46:03.731515834,0.0016326904,-0.003753662,0.0045776367,9.153537961783066,0.006140880564681506,-5.84946870803833,10.240459442138672,-71.37777709960938,30581677.0,50354.0,0.07447737534346753,0.04358521360153598,-0.04137693923400006,0.0037073856621773487,0.002206886546507431,-0.0020678926770381616,30.581677645008313
1618,D,197163781869838.0,1.5094635512584407,0.8436262189932473,8.974548,92,1970-01-03 06:46:03.781869838,0.0036468506,-0.0017547607,-1.5258789e-05,9.172121923365706,0.004047089972267308,-5.854135513305664,10.241514205932617,-71.37861633300781,30632031.0,50354.0,0.07589611691736751,0.04291445174408598,-0.042017744238000046,0.0037859534146510443,0.002177802074406724,-0.0020996279457745465,30.632031649001874
1618,D,197163832223842.0,1.4986145512584408,0.8575575189932473,8.965164,92,1970-01-03 06:46:03.832223842,0.0029754639,-0.0049743652,0.0012054443,9.163451845871009,0.005920370809634878,-5.856663703918457,10.244366645812988,-71.3790283203125,30682385.0,50354.0,0.07573438238706753,0.042830702971285974,-0.04180107097600003,0.003817601080987762,0.0021588057602689196,-0.0021103063106428805,30.682385652995436
1618,D,197163882577846.0,1.5091735512584408,0.8543836689932474,8.970413,92,1970-01-03 06:46:03.882577846,0.002532959,-0.0033874512,0.0011749268,9.16701921086859,0.004389892927329855,-5.859565258026123,10.245441436767578,-71.37947845458984,30732739.0,50354.0,0.07572708105706753,0.043101543289935984,-0.04190517787100003,0.003813345265132989,0.0021635161641187853,-0.002107472227220921,30.732739656988997
1618,D,197163932931850.0,1.4962799512584408,0.8716718789932474,8.998901,92,1970-01-03 06:46:03.932931850,0.0038757324,-0.0053863525,0.00340271,9.195454170883448,0.007457380923270985,-5.859115123748779,10.247641563415527,-71.3792495727539,30783093.0,50354.0,0.07566830283286753,0.04345690053165598,-0.04105578142200002,0.0038116815801968952,0.0021792819400962213,-0.002088708072119862,30.783093661011662
1618,D,197163983285853.0,1.4718963512584406,0.8853437489932473,8.988388,92,1970-01-03 06:46:03.983285853,0.0036010742,-0.0074920654,0.0051116943,9.188218530855396,0.009758493632135818,-5.856685161590576,10.253755569458008,-71.37854766845703,30833447.0,50354.0,0.07472977476846752,0.04423638246581598,-0.040603224847000026,0.003786572399768813,0.002207853786027352,-0.0020559288008346146,30.83344766398659
1618,D,197164033639857.0,1.5037872512584407,0.8625013189932473,8.975647,92,1970-01-03 06:46:04.033639857,0.0090789795,-0.009628296,0.0026550293,9.172276766338568,0.013497449137110862,-5.857874393463135,10.255002975463867,-71.37867736816406,30883801.0,50354.0,0.07491878606056752,0.04400549527669598,-0.04118869080500002,0.0037677018159926155,0.002221665755923224,-0.002059275060370405,30.883801668009255
1618,D,197164083993861.0,1.4820739512584407,0.8532087189932474,9.006668,92,1970-01-03 06:46:04.083993861,0.0059051514,-0.009048462,-0.004547119,9.20748220202842,0.011722703136330245,-5.860208988189697,10.25864028930664,-71.37930297851562,30934155.0,50354.0,0.07517502749576753,0.04319643162638598,-0.040728455245000045,0.003778911943907848,0.0021954829136388945,-0.0020624279861008515,30.934155672002817
