Subject-id_accel,Activity_accel,Timestamp_accel,accel_x,accel_y,accel_z,Segment_accel,DateTime,gyro_x,gyro_y,gyro_z,accel_magnitude,gyro_magnitude,Roll,Pitch,Yaw,Time_Difference,Difference_Microseconds,vx,vy,vz,dx,dy,dz,Time_diff
1630,D,1556909017660012.0,3.9318542,1.348587,8.450888885850379,157,1970-01-19 00:28:29.017660012,-0.031280518,0.008071899,0.0084991455,9.81760767629786,0.03340451816812653,19.710922241210938,64.93254089355469,-86.70825958251953,15005508.0,50354.0,0.1973238135041,0.06807693876490001,-0.06742527059789005,0.009910760060944428,0.003432637213343039,-0.0033800241480907703,15.005508191883564
1630,D,1556909068014015.0,3.8832397,1.3610077,8.453238885850379,157,1970-01-19 00:28:29.068014015,-0.02998352,0.012573242,0.007003784,9.797823805646404,0.03325884658703034,19.70075798034668,64.93890380859375,-86.71588134765625,15055862.0,50354.0,0.19676061912030002,0.06821946576190001,-0.06787397509189007,0.009921863760184519,0.0034315345767712445,-0.003406429108731595,15.055862195091322
1630,D,1556909118368019.0,3.8170776,1.3777161,8.458426885850379,157,1970-01-19 00:28:29.118368019,-0.02545166,0.009902954,0.0050811768,9.76941178710187,0.027779018203575416,19.703914642333984,64.95220947265625,-86.7116928100586,15106216.0,50354.0,0.1938708886621,0.0689528491126,-0.06768419086589006,0.009834929471437485,0.0034535873715952864,-0.003412947944319031,15.106216198997572
1630,D,1556909168722023.0,3.8312378,1.4013672,8.453100885850379,157,1970-01-19 00:28:29.168722023,-0.019897461,-0.00018310547,0.0046539307,9.783155221378259,0.020435301632715567,19.712936401367188,64.96224212646484,-86.70256042480469,15156570.0,50354.0,0.1925616368258,0.0699689802441,-0.06768766529189006,0.009729211694208859,0.003497634897713636,-0.0034082572224844307,15.156570202903822
1630,D,1556909219076027.0,3.8802032,1.3956299,8.459189885850378,157,1970-01-19 00:28:29.219076027,-0.01625061,-0.0065460205,0.0006866455,9.79609222071175,0.017532945896260286,19.71367835998535,64.96548461914062,-86.70115661621094,15206924.0,50354.0,0.194150950057,0.0704199959867,-0.06766845524089007,0.009736262799948256,0.0035345732545628513,-0.0034078610466538053,15.206924207042903
1630,D,1556909269430031.0,3.9150238,1.3921967,8.478003885850379,157,1970-01-19 00:28:29.269430031,-0.015701294,-0.008834839,0.0002593994,9.792409330311838,0.018018110374816706,19.709144592285156,64.9632568359375,-86.70464324951172,15257278.0,50354.0,0.19626043017900002,0.0701891103082,-0.06704147240989007,0.009829387320201773,0.0035401154691866977,-0.0033915918484636923,15.257278210949153
1630,D,1556909319784035.0,3.8564606,1.3921661,8.462057885850378,157,1970-01-19 00:28:29.319784035,-0.013412476,-0.008560181,-0.0012359619,9.78361469369019,0.01595928610626392,19.711498260498047,64.9693603515625,-86.70196533203125,15307632.0,50354.0,0.1956626627388,0.0701019022156,-0.06696926477389009,0.009867447710391452,0.0035321068223117128,-0.003373988330076033,15.307632215088233
1630,D,1556909370138039.0,3.81987,1.4046631,8.46764288585038,157,1970-01-19 00:28:29.370138039,-0.007751465,-0.011566162,-0.002822876,9.765961005051453,0.014206686523177916,19.72219467163086,64.97894287109375,-86.69209289550781,15357986.0,50354.0,0.1932669755162,0.07041576876840001,-0.06723012367089008,0.009792081502346136,0.003537813402364169,-0.003378738002874231,15.357986218994483
1630,D,1556909420492043.0,3.8613129,1.3781891,8.486548885850379,157,1970-01-19 00:28:29.420492043,-0.0033721924,-0.017623901,-0.002822876,9.761318255411059,0.01816431107836999,19.719135284423828,64.9827880859375,-86.69489288330078,15408340.0,50354.0,0.1933891418733,0.0700638698394,-0.06661351376389005,0.009734841067515442,0.003536855861228581,-0.0033697812596954592,15.408340222900733
1630,D,1556909470846047.0,3.9019928,1.3693695,8.496985885850378,157,1970-01-19 00:28:29.470846047,-0.0022125244,-0.018539429,-0.0048828125,9.766785931893004,0.019298900221950282,19.70831871032715,64.9811782836914,-86.70478057861328,15458694.0,50354.0,0.1954567476089,0.0691752828722,-0.06587474505289008,0.00978997295949335,0.003505624147819953,-0.003335656892230073,15.458694227039814
1630,D,1556909521200051.0,3.9198303,1.3488007,8.508108885850378,157,1970-01-19 00:28:29.521200051,-0.0022125244,-0.015686035,-0.0060272217,9.760994209257303,0.016949169881229326,19.688953399658203,64.977783203125,-86.72245025634766,15509048.0,50354.0,0.1969300401887,0.0684353711254,-0.0653319289328901,0.009879122156380175,0.0034646234356975752,-0.0033033904309399875,15.509048230946064
1630,D,1556909571554055.0,3.960022,1.3927917,8.482443885850378,157,1970-01-19 00:28:29.571554055,-0.0008087158,-0.012466431,-0.0074310303,9.806558020748865,0.014535684863206437,19.679851531982422,64.96929168701172,-86.7309341430664,15559402.0,50354.0,0.1983910413571,0.0690250718548,-0.06569805286689011,0.009952998870078607,0.0034608415729124953,-0.0032989418517730663,15.559402235085145
1630,D,1556909621908058.0,3.8948517,1.4165192,8.49074488585038,157,1970-01-19 00:28:29.621908058,-0.0022125244,-0.009246826,-0.008163452,9.776311395708584,0.012531600211113316,19.686246871948242,64.96769714355469,-86.72528076171875,15609756.0,50354.0,0.1977621551449,0.0707300205293,-0.06613522629489008,0.009973949028330854,0.003518613960954486,-0.0033191664694561395,15.609756238060072
1630,D,1556909672262062.0,3.8908386,1.4053497,8.512289885850379,157,1970-01-19 00:28:29.672262062,-0.0025787354,-0.0067443848,-0.0095825195,9.753585508476617,0.011998386664946434,19.689250946044922,64.96595764160156,-86.72267150878906,15660110.0,50354.0,0.19602032468310002,0.07104619329530001,-0.06538379355289006,0.009914261494629557,0.0035694997354619546,-0.0033112543627075606,15.660110241966322
1630,D,1556909722616066.0,3.9208527,1.3838501,8.501028885850378,157,1970-01-19 00:28:29.722616066,-0.00079345703,-0.015350342,-0.008148193,9.7727163148105,0.017397000394914906,19.68157196044922,64.96172332763672,-86.7298583984375,15710464.0,50354.0,0.1966749518601,0.0702236833646,-0.0651248732848901,0.009886888977528147,0.0035567516846663027,-0.0032858167049747916,15.710464245872572
1630,D,1556909772972716.0,3.9441223,1.3396606,8.523917385850378,157,1970-01-19 00:28:29.772972716,-0.0008087158,-0.006134033,-0.01071167,9.755219965462384,0.012370135661307785,19.65701675415039,64.95572662353516,-86.75233459472656,15760820.0,50356.0,0.19802434055,0.0685725524046,-0.0648347027711184,0.009937738784301499,0.0034946116241969176,-0.003272122205938182,15.760820895899087
1630,D,1556909823326720.0,3.895218,1.3408813,8.508948885850378,157,1970-01-19 00:28:29.823326720,-0.0033569336,-0.0128479,-0.009490967,9.749282820175528,0.01632225450726394,19.638917922973633,64.95652770996094,-86.76885986328125,15811174.0,50354.0,0.1973710707331,0.0674880034163,-0.0646327258773901,0.00995487026987461,0.003425596613902799,-0.0032596014510834987,15.811174900038168
1630,D,1556909873680724.0,3.8906708,1.358963,8.48732688585038,157,1970-01-19 00:28:29.873680724,-0.010284424,-0.012924194,-0.008163452,9.76957051063585,0.018424063507210237,19.627531051635742,64.95838928222656,-86.77897644042969,15861528.0,50354.0,0.19602532231760003,0.0679739799411,-0.06555396489589008,0.009904540987837477,0.0034105263549892603,-0.003277710313598875,15.861528903944418
1630,D,1556909924034728.0,3.9808502,1.3946228,8.482031885850379,157,1970-01-19 00:28:29.924034728,-0.021774292,0.021469116,-0.013320923,9.815619253720515,0.033354006108631824,19.617721557617188,64.94940185546875,-86.78695678710938,15911882.0,50354.0,0.198181284217,0.0693270296866,-0.06623165420489005,0.009924939732721625,0.0034568275193966025,-0.0033179665321003415,15.911882908083498
1630,D,1556909974388732.0,3.9182281,1.391861,8.52138488585038,157,1970-01-19 00:28:29.974388732,-0.033218384,0.056610107,-0.013381958,9.754383609426615,0.0669868796857763,19.615201950073242,64.94776153564453,-86.78760528564453,15962236.0,50354.0,0.1988750943591,0.0701553026326,-0.06537417593889006,0.00999668844341047,0.003511746680800498,-0.003313439985529952,15.962236911989748
1630,D,1556910024742736.0,3.9389343,1.3492432,8.51811888585038,157,1970-01-19 00:28:30.024742736,-0.026535034,0.0154418945,-0.0071105957,9.759688469232955,0.03151381770492342,19.59591293334961,64.94364166259766,-86.80391693115234,16012590.0,50354.0,0.1978197777448,0.06901278044340001,-0.06446561353989005,0.009987586794959891,0.0035038348276044524,-0.003268976379707247,16.012590915896
1630,D,1556910075096740.0,3.86557,1.3074951,8.489401885850379,157,1970-01-19 00:28:30.075096740,-0.015625,-0.0072631836,-0.0034179688,9.750683442702517,0.01756635909131663,19.57207489013672,64.9513168334961,-86.82490539550781,16062944.000000002,50354.00000000186,0.19649400476110726,0.06688870017910246,-0.06527084953089246,0.009927638102151594,0.003421591577632871,-0.003266374930733212,16.06294492003508
1630,D,1556910125450744.0,3.814331,1.3568268,8.433172885850379,157,1970-01-19 00:28:30.125450744,-0.009811401,-0.012023926,0.0002746582,9.788401818178658,0.015521398879067063,19.5714168548584,64.96621704101562,-86.82518005371094,16113298.0,50353.99999999814,0.19335686747699285,0.06707963247629752,-0.06740953497288757,0.009815275410338282,0.0033729207112648805,-0.003340494040651546,16.11329892394133
1630,D,1556910175804747.0,3.8893738,1.3973236,8.475256885850378,157,1970-01-19 00:28:30.175804747,-0.007858276,-0.02671814,0.001449585,9.785403555265741,0.027887502638708993,19.574947357177734,64.96619415283203,-86.82173919677734,16163651.999999998,50353.99999999814,0.19395617574959284,0.06934124462079744,-0.06776566363788758,0.009751380489315386,0.0034346684226734324,-0.00340330597542336,16.163652926916257
1630,D,1556910226158751.0,3.9296722,1.4090424,8.520651885850379,157,1970-01-19 00:28:30.226158751,-0.010696411,-0.03715515,0.001449585,9.762114080608749,0.03869133852008284,19.577056884765625,64.95734405517578,-86.81962585449219,16214006.000000002,50354.000000003725,0.19686012114201457,0.07065587678200522,-0.06556320485489493,0.009839581906840728,0.003524707525558623,-0.003356820922043034,16.214006931055337
1630,D,1556910276512755.0,3.9334717,1.3774872,8.495444885850379,157,1970-01-19 00:28:30.276512755,-0.015777588,-0.02809143,-0.00091552734,9.781938954510231,0.032231954840700114,19.568204879760742,64.95166778564453,-86.82714080810547,16264360.0,50353.99999999814,0.19797037397029268,0.07015645573919739,-0.06505493157888766,0.009940647375442192,0.003545232095886187,-0.0032885728209932226,16.264360934961587
1630,D,1556910326866759.0,3.9458923,1.3444214,8.519156885850379,157,1970-01-19 00:28:30.326866759,-0.015579224,-0.009063721,-0.0009460449,9.760894916027999,0.018048774467005594,19.548002243041992,64.94542694091797,-86.84479522705078,16314713.999999998,50353.99999999814,0.19837874742799266,0.06852949282219746,-0.06509257119388766,0.009978881829444262,0.003491696126930109,-0.0032767236773100427,16.314714938867837
1630,D,1556910377220763.0,3.9948425,1.3818512,8.499090885850379,157,1970-01-19 00:28:30.377220763,-0.021453857,-0.0038909912,-0.0038909912,9.804102199963223,0.02214830930823849,19.53451156616211,64.93317413330078,-86.85614013671875,16365068.0,50354.00000000186,0.19992388005960737,0.06863936525020255,-0.06500077585189247,0.010028065252255677,0.0034535003396889427,-0.0032753601985717274,16.365068943006918
1630,D,1556910427574767.0,3.979004,1.3840485,8.490240885850378,157,1970-01-19 00:28:30.427574767,-0.015487671,-0.014419556,0.0007171631,9.80596026089461,0.02117323478246483,19.52431297302246,64.92311096191406,-86.86480712890625,16415422.0,50354.0,0.20075753333050003,0.06963705674690002,-0.06572879398389009,0.010087955944922735,0.0034813854766210513,-0.003291378379755497,16.415422946913168
1630,D,1556910477928771.0,3.9855347,1.376358,8.514426885850378,157,1970-01-19 00:28:30.477928771,-0.017791748,-0.008010864,0.0017089844,9.785698684427805,0.019586752323992953,19.51129913330078,64.9115219116211,-86.87577056884766,16465776.000000002,50354.00000000186,0.2005231908499074,0.06949875445050258,-0.06534267951189252,0.010103044792690492,0.0035030223185171347,-0.0032999864882034408,16.46577695105225
1630,D,1556910528282775.0,3.9302063,1.3477783,8.48515988585038,157,1970-01-19 00:28:30.528282775,-0.016845703,-0.0025024414,0.001449585,9.785797387465959,0.017092139105356823,19.495925903320312,64.9105453491211,-86.88896179199219,16516130.0,50353.99999999814,0.19929461115699265,0.06858557962509747,-0.06547060384888764,0.010066212801127352,0.003476549279021254,-0.0032934860351742402,16.5161309549585
1630,D,1556910578636779.0,3.9562988,1.3634949,8.516547385850378,157,1970-01-19 00:28:30.578636779,-0.014450073,-0.010040283,0.0022888184,9.77010862985994,0.017744029477364958,19.482948303222656,64.90325164794922,-86.90005493164062,16566484.0,50354.0,0.1985585389027,0.0682617253564,-0.06541721602039006,0.010016748759052884,0.003445404597519162,-0.0032953626408488055,16.56648495886475
1630,D,1556910628990783.0,3.9951935,1.3946228,8.510321885850379,157,1970-01-19 00:28:30.628990783,-0.017303467,-0.0116119385,-0.0008087158,9.795923193327472,0.020854282706270214,19.47547149658203,64.89031219482422,-86.90613555908203,16616838.000000002,50354.00000000186,0.20019472163710741,0.06944112933290257,-0.06478371234639246,0.010039410840611102,0.0034669447725126992,-0.003278068773490605,16.61683896300383
1630,D,1556910679344786.0,3.9800568,1.3696136,8.529425885850378,157,1970-01-19 00:28:30.679344786,-0.014038086,-0.005493164,-0.0025939941,9.768984905774612,0.015296127440144018,19.46198081970215,64.87979125976562,-86.91780090332031,16667192.0,50353.99999999814,0.20079287680309257,0.06959517984279742,-0.06445947035188769,0.010095664765928542,0.003500517156116469,-0.0032539556107944794,16.667192965978757
1630,D,1556910729698790.0,3.983368,1.3666077,8.543585885850378,157,1970-01-19 00:28:30.729698790,-0.012054443,-0.0013580322,-0.0011291504,9.7571384107721,0.012183137039461799,19.447874069213867,64.8685531616211,-86.93009185791016,16717545.999999998,50353.99999999814,0.20049514618959258,0.06888984367009746,-0.06362198262388775,0.01010322855488646,0.0034866374369840252,-0.003224706741570979,16.717546969885007
1630,D,1556910780052794.0,3.9326782,1.377594,8.524679885850379,157,1970-01-19 00:28:30.780052794,-0.012680054,0.0010070801,-0.002380371,9.755193316527162,0.01294079386546177,19.443445205688477,64.86474609375,-86.93355560302734,16767900.0,50354.00000000186,0.19930229517740738,0.06909076620090256,-0.06374147266589243,0.01006570018129733,0.003473937814722296,-0.0032066297138309144,16.767900974024087
1630,D,1556910830406798.0,3.9517212,1.3704376,8.53085988585038,157,1970-01-19 00:28:30.830406798,-0.009460449,0.006591797,-0.002822876,9.756294935222499,0.011870994561627345,19.43492317199707,64.85885620117188,-86.94086456298828,16818254.0,50354.0,0.1985055236938,0.0691871915932,-0.06406187516789005,0.01001560745572039,0.0034814241433821207,-0.003217704888411142,16.818254977930337
1630,D,1556910880760802.0,4.011673,1.385437,8.53366788585038,157,1970-01-19 00:28:30.880760802,-0.0068969727,0.002670288,-0.001953125,9.78031462549682,0.007649403093909634,19.424713134765625,64.8446044921875,-86.9498062133789,16868608.0,50354.0,0.2004943757734,0.06938465480420002,-0.06383558429189004,0.010045620468885696,0.00348882337674734,-0.0032200743368188834,16.868608982069418
1630,D,1556910931114806.0,3.989029,1.3895264,8.543356885850379,157,1970-01-19 00:28:30.931114806,-0.007369995,0.004928589,-0.0026245117,9.76289300718296,0.009246398082193028,19.418663024902344,64.83281707763672,-86.9549331665039,16918962.0,50354.0,0.20143367425400002,0.0698652535218,-0.06352094732289006,0.010119342515539852,0.0035058949419237025,-0.003206455396465319,16.918962985975668
1630,D,1556910981468810.0,3.9302979,1.356308,8.51235088585038,157,1970-01-19 00:28:30.981468810,-0.00843811,0.009216309,0.0015716553,9.76240405091412,0.012594131662707005,19.40922737121582,64.83223724365234,-86.96299743652344,16969316.0,50354.0,0.1993848933613,0.0691318726888,-0.06405764543189005,0.010091409076850409,0.0034995306466042765,-0.003212046229787099,16.969316989881918
1630,D,1556911031822814.0,3.9349365,1.3411865,8.544440885850378,157,1970-01-19 00:28:31.031822814,-0.013931274,0.015289307,-0.0027770996,9.733158240832752,0.02086996851918194,19.394033432006836,64.83010864257812,-86.97608184814453,17019670.0,50354.0,0.19802300648880003,0.06791481902650001,-0.06403035356389007,0.01000553869452597,0.0034504245573161087,-0.003224871550716756,17.019670994021
1630,D,1556911082176818.0,4.0174866,1.4049072,8.503180885850378,157,1970-01-19 00:28:31.082176818,-0.016815186,0.01373291,-0.0029907227,9.812938381654469,0.021915467586866386,19.39034080505371,64.81746673583984,-86.9786376953125,17070024.0,50354.0,0.2002181563887,0.0691384010849,-0.0642612266538901,0.010026517757766818,0.003450588922744719,-0.0032299971151430514,17.07002499792725
1630,D,1556911132530822.0,3.9416504,1.4120941,8.50516388585038,157,1970-01-19 00:28:31.132530822,-0.016281128,0.0069274902,0.001663208,9.781377781553882,0.01777164905895747,19.39797592163086,64.813720703125,-86.97089385986328,17120379.0,50355.0,0.2003911718175,0.07092505023075,-0.06525139951050421,0.0100863413609116,0.003526447545499778,-0.003260804145254037,17.12037900206633
1630,D,1556911182884826.0,3.9259644,1.3747864,8.539618885850379,157,1970-01-19 00:28:31.182884826,-0.026016235,0.013824463,-0.00018310547,9.738582747079182,0.029461734307856653,19.394655227661133,64.81189727783203,-86.9726333618164,17170733.0,50354.0,0.1980829378196,0.07016529034850001,-0.06433270415689005,0.010032382658333268,0.003552231504763778,-0.0032625389780339856,17.17073300597258
1630,D,1556911233238829.0,3.8939667,1.343811,8.480810885850378,157,1970-01-19 00:28:31.233238829,-0.022415161,0.016235352,-0.0024871826,9.774696418244707,0.027788705880367436,19.38506507873535,64.81927490234375,-86.98021697998047,17221087.0,50354.0,0.1968824053047,0.06844612673980001,-0.0649458396378901,0.009944042443840501,0.00348981964803213,-0.00325484589712118,17.221087008947507
1630,D,1556911283592833.0,3.9126892,1.3843384,8.485678885850378,157,1970-01-19 00:28:31.283592833,-0.02053833,0.005432129,-7.6293945e-05,9.783411256796231,0.021244689817165714,19.386695861816406,64.82154083251953,-86.97779083251953,17271441.0,50354.0,0.19654817559430002,0.06868661744380002,-0.06630388701789011,0.009905401735294124,0.003452591100310498,-0.0033044743680125787,17.271441013086587
1630,D,1556911333946837.0,4.013153,1.3652496,8.545828885850378,157,1970-01-19 00:28:31.333946837,-0.02130127,0.0063323975,0.0013122559,9.767125348919464,0.022261297744246428,19.370725631713867,64.8082504272461,-86.99120330810547,17321795.0,50354.0,0.1995489290694,0.069226377076,-0.0646669288318901,0.009972536804117976,0.0034722354630250052,-0.0032974522306499165,17.321795016992837
1630,D,1556911384300841.0,3.9317474,1.3692017,8.511771385850379,157,1970-01-19 00:28:31.384300841,-0.017745972,0.0178833,0.002380371,9.76531148001342,0.025306088342776825,19.36644172668457,64.8079605102539,-86.99411010742188,17372149.0,50354.0,0.2000287573708,0.0688452803801,-0.06400999795939008,0.010060167411504915,0.00347623011977223,-0.0032396989858240613,17.372149020899087
1630,D,1556911434654845.0,3.9313507,1.4223633,8.505102885850379,157,1970-01-19 00:28:31.434654845,-0.019042969,0.02053833,0.0025177002,9.778775375460945,0.02812110385139497,19.379615783691406,64.80593872070312,-86.98114013671875,17422503.0,50354.0,0.19796922086370003,0.07028323200500002,-0.06503535646139007,0.010020395098010008,0.0035028385563196634,-0.0032489748882519815,17.422503025038168
1630,D,1556911485008849.0,3.9167633,1.3840027,8.473746885850378,157,1970-01-19 00:28:31.485008849,-0.016494751,0.015975952,0.0015869141,9.795798508200248,0.023017952759076636,19.381542205810547,64.8092269897461,-86.97850799560547,17472857.0,50354.0,0.197591966178,0.070655876782,-0.06599269929789008,0.009959044006148884,0.003548423941930299,-0.0032988933598513963,17.472857028944418
1630,D,1556911535362853.0,3.8702698,1.3502808,8.452566885850379,157,1970-01-19 00:28:31.535362853,-0.016098022,0.011550903,0.0023956299,9.791815791565151,0.01995767308695247,19.377737045288086,64.8208236694336,-86.98108673095703,17523211.0,50354.0,0.19605413235870003,0.06884105567950001,-0.06731539816989009,0.009910827822858499,0.0035121142685831863,-0.0033562979699463015,17.5232110330835
1630,D,1556911585716857.0,3.9110413,1.3805542,8.492697885850378,157,1970-01-19 00:28:31.585716857,-0.015151978,0.00440979,-0.0012817383,9.775861122751916,0.015832609962551054,19.378620147705078,64.82291412353516,-86.97957611083984,17573565.0,50354.0,0.1959100695647,0.068754232795,-0.0668382688428901,0.009868482711825444,0.0034642365779224867,-0.003377586874380767,17.57356503698975
1630,D,1556911636070861.0,3.9530334,1.3783722,8.50221938585038,157,1970-01-19 00:28:31.636070861,-0.015029907,0.006439209,0.00016784668,9.783822555993574,0.016352054595136264,19.374204635620117,64.81929779052734,-86.98286437988281,17623919.0,50354.0,0.1979938087219,0.06946148997280001,-0.06558816785039008,0.00991731794362173,0.003479857252124901,-0.0033341003966267154,17.623919040896
1630,D,1556911686424865.0,3.9036865,1.3840485,8.483420885850379,157,1970-01-19 00:28:31.686424865,-0.011184692,0.0038909912,0.002319336,9.78181880277234,0.012067164834137199,19.377687454223633,64.82270050048828,-86.97913360595703,17674273.0,50354.0,0.1978086369223,0.0695494659639,-0.06582173487939005,0.009965118173984024,0.0034998788376182964,-0.003308507121027675,17.67427304503508
1630,D,1556911736778869.0,3.8654327,1.3933868,8.53302688585038,157,1970-01-19 00:28:31.736778869,-0.010757446,0.015182495,-0.0013427734,9.722962082225123,0.01865566507181367,19.388612747192383,64.82791900634766,-86.96868896484375,17724627.0,50354.0,0.19560311409840003,0.0699274885481,-0.06504609445189007,0.009904927655448165,0.0035116112837486244,-0.003294859339073639,17.72462704894133
1630,D,1556911787132872.0,3.9337158,1.4094849,8.440710885850379,157,1970-01-19 00:28:31.787132872,-0.013687134,0.008605957,-0.00077819824,9.836116015669683,0.016186590917192666,19.396251678466797,64.82917022705078,-86.96111297607422,17774981.0,50354.0,0.1963591617845,0.0705679007909,-0.06612140412189005,0.009868434219903775,0.0035372524173880038,-0.0033024041115920625,17.774981051916257
1630,D,1556911837486876.0,3.8838196,1.3781738,8.483725885850378,157,1970-01-19 00:28:31.837486876,-0.008087158,-0.005874634,-0.001663208,9.772800658852692,0.01013309972329218,19.39896583557129,64.83464813232422,-86.9583511352539,17825335.0,50354.0,0.1968220887658,0.0701848830899,-0.0673626553988901,0.009899124345104903,0.0035437328397669014,-0.0033607281665546814,17.825335056055337
1630,D,1556911887840880.0,3.8743286,1.3862305,8.501623885850378,157,1970-01-19 00:28:31.887840880,-0.014465332,0.0017700195,-0.0037231445,9.753942288479527,0.015041296615268394,19.40507698059082,64.84014129638672,-86.95223236083984,17875689.0,50354.0,0.1953268972314,0.0695994070611,-0.0658290487978901,0.009873135020451507,0.003519349073131727,-0.0033533675365623353,17.875689059961587
1630,D,1556911938194884.0,3.8806,1.3893433,8.442984885850379,157,1970-01-19 00:28:31.938194884,-0.010070801,-0.005432129,-0.0018920898,9.81005859830383,0.011597804191548763,19.411436080932617,64.84776306152344,-86.94605255126953,17926043.0,50354.0,0.1952458373622,0.06988062156260001,-0.06685478495489007,0.009833449738863067,0.0035116886806588954,-0.0033405808823937467,17.926043063867837
1630,D,1556911988548888.0,3.9300995,1.3917389,8.460715885850378,157,1970-01-19 00:28:31.988548888,-0.010696411,-0.010025024,-0.0047454834,9.814028980845455,0.015408891172994005,19.41229248046875,64.84770965576172,-86.94499206542969,17976397.0,50354.0,0.19664998131150002,0.07001930654940001,-0.06788472567089007,0.009866761026747746,0.0035222604900758247,-0.0033923366590252672,17.976397068006918
1630,D,1556912038902892.0,3.8550873,1.33815,8.533911885850378,157,1970-01-19 00:28:32.038902892,-0.011764526,-0.007293701,-0.0049591064,9.710285362456156,0.014703567001533947,19.40427589416504,64.85498046875,-86.95185089111328,18026751.0,50354.0,0.19600764806360002,0.0687304128353,-0.0655954565918901,0.009885941134776895,0.0034933016849485925,-0.003360630548830017,18.026751071913168
1630,D,1556912089256896.0,3.9312592,1.3775787,8.497870885850379,157,1970-01-19 00:28:32.089256896,-0.009811401,-0.008117676,-0.0059661865,9.778867437889437,0.014062561451476729,19.40056800842285,64.85299682617188,-86.95492553710938,18077105.0,50354.0,0.19603684583050002,0.0683739014799,-0.06466000515689009,0.009870504222771756,0.00345187532151379,-0.003279441760449039,18.07710507605225
1630,D,1556912139610900.0,3.8860168,1.34375,8.513693885850378,157,1970-01-19 00:28:32.139610900,-0.012741089,-0.007156372,-0.00093078613,9.741703522055229,0.01464292907611402,19.391496658325195,64.85721588134766,-86.9626235961914,18127459.0,50354.0,0.196815557852,0.0685148926799,-0.0651690337428901,0.009890844967514304,0.0034464491705612846,-0.0032687057123797665,18.1274590799585
1630,D,1556912189964904.0,3.8948822,1.3555908,8.455374885850379,157,1970-01-19 00:28:32.189964904,-0.00982666,-0.01222229,-0.0027313232,9.799755662082676,0.015918785946879184,19.385313034057617,64.86307525634766,-86.96793365478516,18177813.0,50354.0,0.195899694123,0.0679613033216,-0.06623895553489009,0.009887391898974576,0.003436061186729766,-0.0033084589460466722,18.17781308386475
1630,D,1556912240318908.0,3.874771,1.3814087,8.47106088585038,157,1970-01-19 00:28:32.240318908,-0.009689331,-0.017578125,-0.002822876,9.781154057359116,0.020269243761289222,19.38979721069336,64.86898040771484,-86.96363830566406,18228167.0,50354.0,0.1956165586164,0.0689094364115,-0.06731232657589005,0.009857204695219876,0.0034459946142602585,-0.003362420629703112,18.22816708800383
1630,D,1556912290672911.0,3.9293213,1.3662262,8.515585885850378,157,1970-01-19 00:28:32.290672911,-0.011764526,-0.015716553,-0.0017852783,9.760467318220021,0.01971297361675645,19.383026123046875,64.86585235595703,-86.9693832397461,18278521.0,50354.0,0.1964836318371,0.0691772038773,-0.06579639422889008,0.00987190649504777,0.003476607342551118,-0.00335127826370195,18.278521090978757
1630,D,1556912341026915.0,3.9854736,1.377533,8.479178885850379,157,1970-01-19 00:28:32.341026915,-0.013961792,-0.0050354004,-0.0028076172,9.81765848552912,0.01510528408807064,19.373870849609375,64.85810852050781,-86.97711944580078,18328875.0,50354.0,0.1992707911973,0.0690796253784,-0.06559200734289009,0.009963909108737089,0.0034808921901707587,-0.0033079657863727095,18.328875094885007
1630,D,1556912391380919.0,3.9644623,1.4132538,8.51454888585038,157,1970-01-19 00:28:32.391380919,-0.015029907,-0.0028381348,-0.0017547607,9.782287233141936,0.01539585329515336,19.37907600402832,64.84945678710938,-86.9717788696289,18379229.0,50354.0,0.2001555361543,0.0702636392636,-0.06561811589189005,0.010056356643731234,0.0035082453738916343,-0.00330347727268206,18.379229099024087
1630,D,1556912441734923.0,3.8835907,1.346756,8.502722885850378,157,1970-01-19 00:28:32.441734923,-0.013977051,0.0025024414,-0.0028076172,9.751098642221116,0.014474214381401528,19.371898651123047,64.8551025390625,-86.9776840209961,18429583.0,50354.0,0.19759043038100002,0.0694887667346,-0.06502534860389007,0.01001405019945925,0.0035185463258166814,-0.0032892105056102562,18.429583102930337
1630,D,1556912492088927.0,3.9636993,1.3749847,8.460257885850378,157,1970-01-19 00:28:32.492088927,-0.017150879,0.001449585,-0.004928589,9.825587971032755,0.017903768784135562,19.36455535888672,64.85196685791016,-86.98365020751953,18479937.0,50354.0,0.19757122033000002,0.0685252656039,-0.0663922331108901,0.00994898487995085,0.003474779292186415,-0.003308700454833021,18.479937107069418
1630,D,1556912542442931.0,3.9810333,1.3894653,8.514410885850378,157,1970-01-19 00:28:32.542442931,-0.010787964,-0.013458252,-0.0017547607,9.785733140201044,0.017337355602140267,19.360206604003906,64.84195709228516,-86.98722839355469,18530291.0,50354.0,0.2000245326702,0.06960055765,-0.06609796433489011,0.010010268273286035,0.0034775938520634404,-0.003335705701092409,18.530291110975668
1630,D,1556912592796935.0,3.9239044,1.4085693,8.557287885850378,157,1970-01-19 00:28:32.592796935,-0.020370483,0.001449585,-0.0028076172,9.7266128017502,0.020614087141254882,19.368698120117188,64.83654022216797,-86.97867584228516,18580645.0,50354.0,0.1990226164729,0.0704461171242,-0.0636550400248901,0.01004681007397583,0.003525955130790034,-0.0032667913907661866,18.580645114881918
1630,D,1556912643150939.0,3.8950348,1.4131165,8.464743885850378,157,1970-01-19 00:28:32.643150939,-0.014007568,0.0077056885,-0.0017242432,9.799448118818953,0.016079882186956548,19.38230323791504,64.84069061279297,-86.96568298339844,18630999.0,50354.0,0.19685743223840002,0.07104158338660001,-0.06490550608389009,0.0099670719864044,0.003562235835760412,-0.0032367688693807593,18.630999119021
1630,D,1556912693504943.0,3.8517456,1.3868408,8.479544885850379,157,1970-01-19 00:28:32.693504943,-0.01828003,-0.010299683,0.001373291,9.765121760457674,0.021026861270100918,19.391521453857422,64.84956359863281,-86.95658874511719,18681353.0,50354.0,0.19504069013080003,0.0704945249421,-0.06686284159489009,0.00986681902688935,0.00356345459939168,-0.003317531689508649,18.68135312292725
1630,D,1556912743858947.0,3.9735413,1.3633728,8.529303885850378,157,1970-01-19 00:28:32.743858947,-0.021362305,-0.00932312,-0.0048980713,9.765569079285985,0.02381721528448086,19.378154754638672,64.84101867675781,-86.96788787841797,18731707.0,50354.0,0.19701724828130002,0.06924212780720002,-0.06523741447489008,0.009870842715401442,0.003518149706269127,-0.0033258881470688553,18.73170712706633
1630,D,1556912794212951.0,3.9536896,1.3660583,8.549048885850379,157,1970-01-19 00:28:32.794212951,-0.01725769,-0.013458252,-0.0017242432,9.740048963352445,0.021952799949991577,19.368608474731445,64.8335189819336,-86.97583770751953,18782061.0,50354.0,0.1995838923693,0.06871888680470001,-0.06348751226689008,0.009985226918160157,0.0034734444648838072,-0.0032409074805777992,18.78206113097258
1630,D,1556912844566954.0,3.998352,1.379364,8.49774888585038,157,1970-01-19 00:28:32.844566954,-0.02015686,-0.011154175,-0.00064086914,9.806393266556057,0.02304615669140582,19.358646392822266,64.82341003417969,-86.98402404785156,18832415.0,50354.0,0.2002085513632,0.0691214972471,-0.06428197250189005,0.010065574355853153,0.0034704073492721685,-0.0032168523180235776,18.832415133947507
1630,D,1556912894920958.0,3.9412994,1.3589172,8.490057885850378,157,1970-01-19 00:28:32.894920958,-0.012832642,-0.003753662,0.00035095215,9.787365906623968,0.013374970897986942,19.349529266357422,64.82238006591797,-86.99173736572266,18882769.0,50354.0,0.19989660329780004,0.06894170577240001,-0.06576718890889006,0.010073447478899999,0.003476017262421952,-0.003274247736839211,18.882769138086587
1630,D,1556912945274962.0,3.9601593,1.369278,8.47116788585038,157,1970-01-19 00:28:32.945274962,-0.010726929,0.00010681152,-0.00064086914,9.813496791738888,0.010746586794254725,19.34200096130371,64.8199234008789,-86.99807739257812,18933123.0,50354.0,0.1989350256899,0.0686877705504,-0.06643641874589007,0.010041383923023325,0.003465097325379136,-0.0033284902299243993,18.933123141992837
1630,D,1556912995628966.0,3.9723358,1.3970947,8.51454888585038,157,1970-01-19 00:28:32.995628966,-0.009750366,-0.005783081,0.00024414063,9.78316008195132,0.011339015285011913,19.342220306396484,64.81180572509766,-86.99747467041016,18983477.0,50354.0,0.19971642913270002,0.0696489654679,-0.06581980883889005,0.010036847678068601,0.003482904002732739,-0.003329815041902009,18.983477145899087
1630,D,1556913045982970.0,3.9853516,1.4044342,8.559347885850379,157,1970-01-19 00:28:33.045982970,-0.010650635,-0.00064086914,-0.0027008057,9.749110963366926,0.011006411340077283,19.34317970275879,64.79939270019531,-86.99618530273438,19033831.0,50354.0,0.20035069566980002,0.07053409311530001,-0.06359970097889006,0.010072490001152545,0.003529388865949227,-0.00325839499868225,19.033831150038168
1630,D,1556913096336974.0,3.9309998,1.3725739,8.509131885850378,157,1970-01-19 00:28:33.096336974,-0.008758545,0.00050354004,-0.0006866455,9.76787152428052,0.008799837790071954,19.340301513671875,64.79866027832031,-86.99839782714844,19084185.0,50354.0,0.1993099791978,0.0699167329337,-0.06373608478789008,0.010062256811141567,0.0035361304474356733,-0.003205933078250224,19.084185153944418
1630,D,1556913146690978.0,3.8962097,1.3673401,8.529852885850378,157,1970-01-19 00:28:33.146690978,-0.011367798,0.002166748,-0.001159668,9.734418991603254,0.011630410918558811,19.339637756347656,64.80134582519531,-86.99848937988281,19134539.0,50354.0,0.19706565358150002,0.068982814778,-0.0644786804028901,0.009979549306484436,0.003497073912737471,-0.0032280631432082727,19.1345391580835
1630,D,1556913197044982.0,3.9755707,1.3563538,8.443732885850379,157,1970-01-19 00:28:33.197044982,-0.019851685,-0.0040893555,-0.007858276,9.842736384329154,0.021738553940793333,19.325151443481445,64.7997055053711,-87.01089477539062,19184893.0,50354.0,0.19818781513080003,0.0685744413203,-0.06612523102589009,0.009951296581769579,0.003463279036786899,-0.003288214678042399,19.18489316198975
1630,D,1556913247398986.0,3.9374084,1.3603516,8.51676088585038,157,1970-01-19 00:28:33.247398986,-0.013305664,-0.020263672,-0.004043579,9.761842845146049,0.02457656665471646,19.316720962524414,64.79730224609375,-87.01814270019531,19235247.0,50354.0,0.1992250748007,0.0683984918558,-0.06645484830989005,0.010005664329805377,0.0034485675385746697,-0.0033379686574369367,19.235247165896
1630,D,1556913297752990.0,3.985077,1.3796997,8.54184688585038,157,1970-01-19 00:28:33.297752990,-0.01789856,-0.010864258,-0.0056762695,9.761246715350099,0.021693560966351152,19.30929946899414,64.78704071044922,-87.02423095703125,19285601.0,50354.0,0.1994644149158,0.06898627158010001,-0.06398463213189004,0.01003780528259232,0.0034589361890256546,-0.003284074799082698,19.28560117003508
1630,D,1556913348106994.0,3.976532,1.3525238,8.526312885850379,157,1970-01-19 00:28:33.348106994,-0.013595581,-0.00440979,-0.0018463135,9.767978096402267,0.014411625311252832,19.2950382232666,64.780517578125,-87.03657531738281,19335955.0,50354.0,0.200449429793,0.0687891910595,-0.06374414142789006,0.010068630868233458,0.0034687728228772093,-0.0032158273319145836,19.33595517394133
1630,D,1556913398460997.0,3.9771729,1.3855743,8.525015885850378,157,1970-01-19 00:28:33.398460997,-0.01008606,0.0011444092,-0.002822876,9.774040453523604,0.01053598157041007,19.292081832885742,64.77298736572266,-87.03884887695312,19386309.0,50354.0,0.20025042826730002,0.0689370958637,-0.06416789551489009,0.010088420326384176,0.0034675347258654064,-0.0032204413541083755,19.386309176916257
1630,D,1556913448815001.0,3.9625092,1.3501587,8.531103885850378,157,1970-01-19 00:28:33.448815001,-0.013549805,-0.0018615723,-0.0030212402,9.757622537452008,0.014006804036333496,19.279048919677734,64.76852416992188,-87.05010223388672,19436663.0,50354.0,0.1998973762317,0.068877549741,-0.06404727250789012,0.010074521273871324,0.003469759332389532,-0.0032280732853095374,19.436663181055337
1630,D,1556913499169005.0,3.973175,1.3831177,8.511160885850378,157,1970-01-19 00:28:33.499169005,-0.010025024,-0.002822876,-0.0047302246,9.784573441228508,0.011438739435724425,19.275836944580078,64.76263427734375,-87.05270385742188,19487017.0,50354.0,0.19979672110340002,0.0688156999228,-0.0643960998428901,0.010063098288605814,0.0034667029467854923,-0.0032338187856755943,19.487017184961587
1630,D,1556913549523009.0,4.0162354,1.3845825,8.54032088585038,157,1970-01-19 00:28:33.549523009,-0.012557983,-0.0025939941,-0.0027008057,9.776073489390074,0.013104430313763215,19.268354415893555,64.74955749511719,-87.0589370727539,19537371.0,50354.0,0.20114938564080004,0.0696823879354,-0.06416404343389007,0.010094620129498726,0.0034869663580059016,-0.0032367587272794946,19.537371188867837
1630,D,1556913599877013.0,3.9283447,1.3505707,8.519446885850378,157,1970-01-19 00:28:33.599877013,-0.00982666,-0.0006866455,-0.0023651123,9.754401516440698,0.010130571799749584,19.260238647460938,64.7507095336914,-87.0658950805664,19587725.0,50354.0,0.2000206931777,0.0688629521164,-0.06395542681189006,0.010100259074413375,0.0034881560264841695,-0.0032256639023780067,19.587725193006918
1630,D,1556913650231017.0,4.027542,1.3970337,8.537558885850379,157,1970-01-19 00:28:33.650231017,-0.010757446,-0.0009460449,-0.006439209,9.78498034815787,0.012573028988331054,19.255699157714844,64.73631286621094,-87.06967163085938,19638079.0,50354.0,0.20030535944590003,0.06917643597880001,-0.06402496568589008,0.010079009026904378,0.0034754176740728507,-0.003222162341916611,19.638079196913168
1630,D,1556913700585021.0,3.9698029,1.3823853,8.530981885850379,157,1970-01-19 00:28:33.700585021,-0.010894775,-0.0024261475,-0.0020141602,9.7652068449262,0.011341920265265724,19.253448486328125,64.73039245605469,-87.07125091552734,19688433.0,50354.0,0.20134915254730001,0.069977432163,-0.06373454899089008,0.010112455648452798,0.003503476938206099,-0.003216601301017294,19.68843320105225
1630,D,1556913750939025.0,3.9802704,1.3826904,8.526388885850379,157,1970-01-19 00:28:33.750939025,-0.0118255615,9.1552734e-05,-0.0034637451,9.773654048637301,0.012322735768130352,19.250070571899414,64.72372436523438,-87.0738525390625,19738787.0,50354.0,0.20015899547410002,0.0696163108989,-0.06401577608089007,0.010108770642734789,0.003514551669069456,-0.0032163699343322086,19.7387872049585
1630,D,1556913801293029.0,3.922821,1.3827972,8.51181688585038,157,1970-01-19 00:28:33.801293029,-0.012268066,-0.0017547607,-0.0008239746,9.763595969271405,0.012420288347541115,19.25349235534668,64.72520446777344,-87.07022094726562,19789141.0,50354.0,0.19897613217780002,0.06962668130520001,-0.06449829328589006,0.010049025108891888,0.0035057208147226265,-0.003235598724447423,19.78914120886475
1630,D,1556913851647033.0,3.9950256,1.3711548,8.526861885850378,157,1970-01-19 00:28:33.851647033,-0.015487671,-0.0023651123,-0.0017547607,9.777621438889286,0.015765179805828942,19.24461555480957,64.7171630859375,-87.07760620117188,19839495.0,50354.0,0.1993476238482,0.069336249504,-0.06448638456489007,0.010028597205466602,0.003498669708983229,-0.0032474472342490916,19.83949521300383
1630,D,1556913902001036.0,4.0204926,1.3717041,8.53858088585038,157,1970-01-19 00:28:33.902001036,-0.017288208,-0.005554199,-0.0017547607,9.777575056105045,0.01824309314499955,19.23306655883789,64.70523071289062,-87.08734893798828,19889849.0,50354.0,0.20180670172139997,0.0690569585253,-0.06381254733689007,0.010099862454865818,0.003484325798553686,-0.003230182208491119,19.889849215978757
1630,D,1556913952355040.0,4.012207,1.3661194,8.512244385850378,157,1970-01-19 00:28:33.952355040,-0.011672974,-0.0036468506,-0.0014190674,9.797126542802006,0.012311441572339899,19.221332550048828,64.69662475585938,-87.09748840332031,19940203.0,50354.0,0.20223927782920004,0.06893018225950001,-0.06418057213439006,0.010172665627145456,0.00347410224353891,-0.0032224827689284197,19.940203219885007
1630,D,1556914002709044.0,4.003189,1.4332886,8.511465885850379,157,1970-01-19 00:28:34.002709044,-0.011795044,-0.0055999756,-0.000289917,9.803733627338717,0.013060124101608696,19.23263931274414,64.68638610839844,-87.0867919921875,19990557.0,50354.0,0.20180362509199998,0.070480695216,-0.06486324648939007,0.010172588166847053,0.0035099476622006643,-0.003248936221490912,19.990557224024087
1630,D,1556914053063048.0,4.003784,1.3609619,8.505896885850378,157,1970-01-19 00:28:34.053063048,-0.016464233,0.0073242188,-0.0035247803,9.798687588826967,0.018361351406468714,19.220138549804688,64.68045043945312,-87.09734344482422,20040911.0,50354.0,0.20159155922099997,0.0703508448385,-0.06502305749689008,0.0101562805554484,0.0035457156839521467,-0.0032701474754625757,20.040911227930337
1630,D,1556914103417052.0,3.9320526,1.3482361,8.502447885850378,157,1970-01-19 00:28:34.103417052,-0.013092041,0.005203247,-0.0015563965,9.770953786780439,0.014173838116540709,19.212182998657227,64.6843032836914,-87.10394287109375,20091265.0,50354.0,0.19980055807820002,0.068209478046,-0.06525010368289011,0.010105849337241958,0.003488533249263056,-0.003279887379023326,20.091265232069418
1630,D,1556914153771056.0,3.9571228,1.3489532,8.529227885850378,157,1970-01-19 00:28:34.153771056,-0.013961792,0.0093688965,-0.000869751,9.75696465028131,0.016836398791932237,19.202009201049805,64.68338012695312,-87.11246490478516,20141619.0,50354.0,0.1986257690458,0.0679071350061,-0.06466269909589009,0.01003117963800095,0.0034270079668127216,-0.003270814635561349,20.141619235975668
1630,D,1556914204125060.0,3.9593658,1.3709106,8.554449885850378,157,1970-01-19 00:28:34.204125060,-0.013961792,0.016784668,-0.0019378662,9.738160224273733,0.021918303792278052,19.199079513549805,64.68000793457031,-87.11438751220703,20191973.0,50354.0,0.19931343348220001,0.0684780108926,-0.0633534447418901,0.010018915302047458,0.0034337688182915697,-0.0032230624534037924,20.191973239881918
1630,D,1556914254479064.0,4.0034637,1.373764,8.543677885850379,157,1970-01-19 00:28:34.254479064,-0.014572144,0.020767212,-0.002609253,9.766280888336292,0.02550358163528584,19.19223403930664,64.6719741821289,-87.11984252929688,20242327.0,50354.0,0.2004801583215,0.0691026724042,-0.0629896370918901,0.010065603260841756,0.003463868863363534,-0.0031809397713290838,20.242327244021
1630,D,1556914304833068.0,3.9240112,1.3771515,8.475775885850378,157,1970-01-19 00:28:34.304833068,-0.016555786,0.02923584,-0.0017547607,9.795896306545853,0.03364383414085946,19.19588279724121,64.67855834960938,-87.1156234741211,20292681.0,50354.0,0.1995900355573,0.0692597995435,-0.06497041238989008,0.01007256727128655,0.0034835519562272433,-0.00322165016580278,20.29268124792725
1630,D,1556914355187072.0,3.9120483,1.3747559,8.516989885850379,157,1970-01-19 00:28:34.355187072,-0.013961792,0.023651123,-0.0017547607,9.753454090820478,0.027520654791023006,19.199974060058594,64.68374633789062,-87.11116027832031,20343035.0,50354.0,0.1972884700315,0.06928477260980001,-0.06564233616589008,0.009992210135209218,0.0034881366931036346,-0.003288437170388877,20.34303525206633
1630,D,1556914405541076.0,3.905487,1.3713837,8.496481885850379,157,1970-01-19 00:28:34.405541076,-0.014190674,0.018310547,-0.0017547607,9.768921533541135,0.02323210160807131,19.203399658203125,64.6908187866211,-87.10733795166016,20393389.0,50354.0,0.1968220862481,0.06913955670920001,-0.06512102120389007,0.00992252147545149,0.0034851093392644634,-0.003292229048498955,20.39338925597258
1630,D,1556914455895079.0,3.917328,1.3707733,8.498907885850379,157,1970-01-19 00:28:34.455895079,-0.014587402,0.017471313,-0.0015258789,9.77137945156291,0.022811562451332396,19.205177307128906,64.696044921875,-87.10498046875,20443743.0,50354.0,0.196955013255,0.069039286789,-0.06557627171789006,0.00991412603418955,0.0034789287427541816,-0.0032905657438916584,20.443743258947507
1630,D,1556914506249083.0,3.9207458,1.3905487,8.516974885850379,157,1970-01-19 00:28:34.506249083,-0.013366699,0.01838684,-0.0006866455,9.759197158316319,0.022742383546692533,19.213115692138672,64.69873809814453,-87.09706115722656,20494097.0,50354.0,0.1973391840626,0.069521803994,-0.06506031945689006,0.009927145005865216,0.003488552582643591,-0.0032890374560074387,20.494097263086587
1630,D,1556914556603087.0,3.9145966,1.3905487,8.477347885850378,157,1970-01-19 00:28:34.556603087,-0.015029907,0.021972656,-0.0006866455,9.792598418912739,0.026630193355769223,19.22157096862793,64.70479583740234,-87.0886001586914,20544451.0,50354.0,0.19727041560480002,0.07001968923980001,-0.06560313557689008,0.009935085890826131,0.0035132361751473826,-0.0032897138073854824,20.544451266992837
1630,D,1556914606957091.0,3.8799744,1.3743439,8.488974885850379,157,1970-01-19 00:28:34.606957091,-0.016021729,0.02330017,-0.0014190674,9.765973489607813,0.028312673389563264,19.228431701660156,64.71510314941406,-87.08154296875,20594805.0,50354.0,0.196243914067,0.0696117009902,-0.06630809157689009,0.00990751027814691,0.0035154995118207104,-0.003321128966050724,20.594805270899087
1630,D,1556914657311095.0,3.9068756,1.3722992,8.491934885850378,157,1970-01-19 00:28:34.657311095,-0.016799927,0.01966858,-0.0033874512,9.77372386353308,0.026087648649391736,19.23104476928711,64.7215347290039,-87.07833862304688,20645159.0,50354.0,0.19604952244999999,0.0691522333287,-0.06594083467789008,0.00987677185118851,0.0034936595743469455,-0.003329631216316601,20.645159275038168
1630,D,1556914707665099.0,3.9189758,1.3842163,8.490988885850378,157,1970-01-19 00:28:34.707665099,-0.011459351,0.0061187744,-0.0014953613,9.781102867777607,0.013076399768928527,19.236085891723633,64.72516632080078,-87.07325744628906,20695513.0,50354.0,0.1970314606978,0.0694007907435,-0.0658901281998901,0.009896599912712162,0.0034883494870657796,-0.0033191081523738716,20.695513278944418
1630,D,1556914758019103.0,3.8882446,1.3358765,8.48299288585038,157,1970-01-19 00:28:34.758019103,-0.018539429,0.01878357,-0.0009460449,9.769350973097723,0.02640886083388977,19.22893524169922,64.73576354980469,-87.07877349853516,20745867.0,50354.0,0.19656238801080003,0.0684837764256,-0.06611526093389009,0.009909512328936424,0.0034715197476164307,-0.003323499682221184,20.7458672830835
1630,D,1556914808373107.0,3.8882446,1.3508148,8.484717885850378,157,1970-01-19 00:28:34.808373107,-0.012634277,0.020111084,-0.0009460449,9.769840412767099,0.023769216560934465,19.227149963378906,64.7453842163086,-87.07969665527344,20796221.0,50354.0,0.19578866858840002,0.0676428268601,-0.06627314590089008,0.00987822255199806,0.0034272594909240685,-0.00333314291887926,20.79622128698975
1630,D,1556914858727111.0,3.8802643,1.3505249,8.449133885850378,157,1970-01-19 00:28:34.858727111,-0.012939453,0.012130737,0.00035095215,9.79892068014307,0.017739994123842535,19.226058959960938,64.75758361816406,-87.07998657226562,20846575.0,50354.0,0.19558774857530004,0.06801162962690001,-0.06712561394389012,0.009853684054930478,0.003415372250973199,-0.003358580576612031,20.846575290896
1630,D,1556914909081115.0,3.8434753,1.3815155,8.487768885850379,157,1970-01-19 00:28:34.909081115,-0.014694214,0.0124053955,-0.0022583008,9.753638583737166,0.019362687961450416,19.238922119140625,64.77042388916016,-87.06768798828125,20896929.0,50354.0,0.1944605919092,0.0687845811508,-0.0670487989168901,0.009820247068378259,0.003444118198750153,-0.0033781091925958635,20.89692929503508
1630,D,1556914959435119.0,3.81073,1.3932495,8.455939885850379,157,1970-01-19 00:28:34.959435119,-0.012786865,0.011459351,-0.0009613037,9.771399054525164,0.01719723078501477,19.2591552734375,64.78842163085938,-87.04873657226562,20947283.0,50354.0,0.1927099268381,0.069860258405,-0.06687744425489006,0.009747792150500773,0.0034906611254963762,-0.003371861024335909,20.94728329894133
1630,D,1556915009789122.0,3.8270264,1.3756104,8.455237885850378,157,1970-01-19 00:28:35.009789122,-0.017333984,0.0040740967,-0.0020446777,9.77590651111262,0.01792333596544137,19.270719528198242,64.80438995361328,-87.03746795654297,20997637.0,50354.0,0.1922957928828,0.0697115857023,-0.06769647724189008,0.009693289005413101,0.0035140003190894924,-0.0033881676215244344,20.997637301916257
1630,D,1556915060143126.0,3.8294678,1.3712006,8.442786385850379,157,1970-01-19 00:28:35.060143126,-0.014709473,-0.006378174,-0.002822876,9.787566982585071,0.016279383539415153,19.27997398376465,64.82013702392578,-87.0285415649414,21047991.0,50354.0,0.19276755447340002,0.069156460547,-0.06802764291139007,0.009694739896387049,0.003496280800418626,-0.003417126173099135,21.047991306055337
1630,D,1556915110497130.0,3.8425903,1.3678436,8.467963385850378,157,1970-01-19 00:28:35.110497130,-0.013961792,-0.01361084,-0.0018463135,9.769355919489643,0.019585593554884834,19.28632926940918,64.83209991455078,-87.02230072021484,21098345.0,50354.0,0.19315940678370003,0.06896091582340001,-0.06770725299789007,0.009716483103570008,0.003477381184877561,-0.0034173974743079466,21.098345309961587
1630,D,1556915160851134.0,3.877594,1.3554993,8.466025885850378,157,1970-01-19 00:28:35.160851134,-0.013031006,-0.011062622,-0.00024414063,9.783217009300033,0.0170952720813135,19.284818649291992,64.84012603759766,-87.02316284179688,21148699.0,50354.0,0.1943710801211,0.0685656041933,-0.0671221521063901,0.009756855068802152,0.0034625051944604567,-0.003394599932310462,21.148699313867837
1630,D,1556915211205138.0,3.8970642,1.3680573,8.460135885850379,157,1970-01-19 00:28:35.211205138,-0.010757446,-0.008392334,-0.0014343262,9.798037659932008,0.013719008931350633,19.285293579101562,64.84544372558594,-87.02230072021484,21199053.0,50354.0,0.1957425695014,0.06857098451820001,-0.06731922507389008,0.009821891356545683,0.0034526878939894366,-0.0033848305532679143,21.199053318006918
1630,D,1556915261559142.0,3.8816833,1.3934784,8.450720885850378,157,1970-01-19 00:28:35.261559142,-0.010437012,-0.00033569336,-0.0013275146,9.80405487132755,0.01052645260917966,19.296066284179688,64.8524169921875,-87.01211547851562,21249407.0,50354.0,0.1958455258075,0.06952718431890001,-0.06770455905889007,0.009859013475592177,0.0034768975968116674,-0.003399493813111006,21.249407321913168
1630,D,1556915311913146.0,3.867691,1.3701172,8.470145385850378,157,1970-01-19 00:28:35.311913146,-0.01133728,0.011459351,-0.0031433105,9.777593693703329,0.016423490616766317,19.30078125,64.86138153076172,-87.00730895996094,21299761.0,50354.0,0.19510599675110002,0.0695790464212,-0.06745254987739009,0.009842986483457872,0.003502277571343498,-0.003402850531688726,21.29976132605225
1630,D,1556915362267150.0,3.8764648,1.3728638,8.451102885850378,157,1970-01-19 00:28:35.362267150,-0.013015747,0.013183594,-0.0032043457,9.798733786318184,0.01880118751807857,19.30523681640625,64.87014770507812,-87.0026626586914,21350115.0,50354.0,0.1949746105766,0.069060032637,-0.0674429322633901,0.009821059450689503,0.0034905160934483015,-0.0033962635538584227,21.3501153299585
1630,D,1556915412621154.0,3.8342133,1.3976746,8.455786885850378,157,1970-01-19 00:28:35.412621154,-0.011383057,-0.0017242432,-0.002090454,9.781351553285775,0.011701153755254703,19.322153091430664,64.88191223144531,-86.98688507080078,21400469.0,50354.0,0.19413174252370002,0.0697538452968,-0.0678044362178901,0.009796530652006256,0.003494917004739283,-0.0034051229962531924,21.40046933386475
1630,D,1556915462975158.0,3.8733978,1.383194,8.467703885850378,157,1970-01-19 00:28:35.462975158,-0.01612854,-0.0032043457,-0.002822876,9.783908330600907,0.016684311876972467,19.32910919189453,64.88829803466797,-86.97994232177734,21450823.0,50354.0,0.1940545246647,0.0700139287422,-0.06738647284089011,0.009773365649002348,0.003518933246979903,-0.00340370151737291,21.45082333800383
1630,D,1556915513329161.0,3.8446198,1.3926849,8.47653888585038,157,1970-01-19 00:28:35.513329161,-0.013259888,-0.0053253174,-0.002105713,9.765874917538932,0.01444360281999113,19.342456817626953,64.8970947265625,-86.96737670898438,21501177.0,50354.0,0.1943165291152,0.0698883030653,-0.06686399973689007,0.009778018021016542,0.003522318490217428,-0.0033800241480907716,21.501177340978757
1630,D,1556915563683165.0,3.8697205,1.3979187,8.475806885850378,157,1970-01-19 00:28:35.563683165,-0.014373779,-0.008468628,-0.0014038086,9.77719478371961,0.01674197902067312,19.354171752929688,64.90213012695312,-86.95616912841797,21551531.0,50354.0,0.1942239457331,0.0702590268372,-0.06665999050589007,0.00978228353525565,0.003528489324955243,-0.0033617335023424758,21.551531344885007
1630,D,1556915614037169.0,3.9138947,1.3553009,8.506613885850378,157,1970-01-19 00:28:35.614037169,-0.018569946,0.00077819824,-0.0035552979,9.760866364172287,0.018923229906688748,19.34654998779297,64.9019546508789,-86.9623031616211,21601885.0,50354.0,0.19596807989040002,0.0693178098692,-0.0659027922308901,0.009823864629122861,0.003514126017757033,-0.003337533180963915,21.601885349024087
1630,D,1556915664391173.0,3.883606,1.3465576,8.521185885850379,157,1970-01-19 00:28:35.664391173,-0.01940918,0.004699707,-0.0049591064,9.734337981105584,0.02057659472421931,19.339677810668945,64.90528106689453,-86.96771240234375,21652239.0,50354.0,0.19631767512390003,0.0680246914545,-0.06476028514789009,0.009876578453995033,0.0034578721558267953,-0.003289704299165549,21.652239352930337
1630,D,1556915714745177.0,3.8628845,1.3782806,8.467856885850379,157,1970-01-19 00:28:35.714745177,-0.022064209,0.007156372,-0.0053253174,9.778918328283584,0.023799201339725833,19.345624923706055,64.91314697265625,-86.96139526367188,21702593.0,50354.0,0.1950333913185,0.0686032513614,-0.06573607013689006,0.009853045799820307,0.003439881716275915,-0.00328550673700491,21.702593357069418
1630,D,1556915765099181.0,3.8950348,1.417633,8.471960885850379,157,1970-01-19 00:28:35.765099181,-0.025482178,0.009002686,-0.008331299,9.793561217637638,0.028280740688066873,19.360143661499023,64.9149398803711,-86.94718933105469,21752947.0,50354.0,0.1953211342161,0.0703927167072,-0.06697540796189005,0.009827955889384626,0.003499501488063142,-0.003341276884092987,21.752947360975668
1630,D,1556915815453185.0,3.8789825,1.3600006,8.440756885850378,157,1970-01-19 00:28:35.815453185,-0.0262146,0.014190674,-0.010864258,9.807328803475013,0.031727158454939515,19.357282638549805,64.92343139648438,-86.9487075805664,21803301.0,50354.0,0.19572643356210004,0.06993248114719999,-0.06765770466189007,0.009845404613951744,0.003532967506380229,-0.0033896578765289127,21.803301364881918
1630,D,1556915865807189.0,3.7573242,1.3162384,8.417013885850379,157,1970-01-19 00:28:35.865807189,-0.016967773,0.0287323,-0.010940552,9.775528432557557,0.03511617948943525,19.355119705200195,64.95105743408203,-86.9499282836914,21853655.0,50354.0,0.1922592937859,0.067379669303,-0.06904110528089008,0.0097683166574406,0.003457108011884686,-0.0034416659379293765,21.853655369021
1630,D,1556915916161193.0,3.9620209,1.2584839,8.456991885850378,157,1970-01-19 00:28:35.916161193,-0.030654907,0.03488159,-0.010375977,9.812243464250418,0.047582660106506004,19.310405731201172,64.95266723632812,-86.98898315429688,21904009.0,50354.0,0.19434995158270002,0.06482378334710001,-0.06863235668589009,0.009733660970645243,0.0033284863273715685,-0.0034662047519376242,21.90400937292725
1630,D,1556915966515197.0,3.8323822,1.2832031,8.428900885850378,157,1970-01-19 00:28:35.966515197,-0.02178955,0.016326904,-0.0017547607,9.789414467501233,0.027284271449719535,19.290258407592773,64.97014617919922,-87.00619506835938,21954363.0,50354.0,0.19623968684870002,0.06399205359900001,-0.06833307768689009,0.00983387532678736,0.0032431963267919605,-0.0034483787412034872,21.95436337706633
1630,D,1556916016869201.0,3.732071,1.4137726,8.431280885850379,157,1970-01-19 00:28:36.016869201,-0.011947632,-0.000579834,0.001159668,9.76644989200824,0.012017776322814632,19.324974060058594,64.9930419921875,-86.97418212890625,22004717.0,50354.0,0.1904502382164,0.0679017571989,-0.06898040353389007,0.009735692243364024,0.003320690474458729,-0.003457141516695582,22.00471738097258
1630,D,1556916067223204.0,3.7843628,1.4156799,8.426764885850378,157,1970-01-19 00:28:36.067223204,-0.015899658,-0.02645874,0.0015106201,9.790940613842363,0.030905436738397473,19.35233497619629,65.00773620605469,-86.9488296508789,22055071.0,50354.0,0.1892412537826,0.0712371255925,-0.06903418160589007,0.009559492694058824,0.0035030996520390785,-0.003474793210064245,22.055071383947507
1630,D,1556916117577208.0,3.8525238,1.3014679,8.484686885850378,157,1970-01-19 00:28:36.117577208,-0.016967773,-0.027801514,-0.0040893555,9.74899700828146,0.032826092208441515,19.333131790161133,65.01500701904297,-86.96571350097656,22105425.0,50354.0,0.19227389392820002,0.0684096301606,-0.0676895787438901,0.009605406873914812,0.003515886369595799,-0.0034422941143264158,22.105425388086587
1630,D,1556916167931212.0,3.8856964,1.2973328,8.503363885850378,157,1970-01-19 00:28:36.167931212,-0.021438599,-0.006362915,-0.00021362305,9.744653388034374,0.02236394082418207,19.31015396118164,65.0179214477539,-86.98562622070312,22155779.0,50354.0,0.19482516997540003,0.06543000522390001,-0.0657610457208901,0.00974599313190094,0.003369680500075557,-0.0033598863721497714,22.155779391992837
1630,D,1556916218285216.0,3.8773193,1.2999573,8.436270885850378,157,1970-01-19 00:28:36.218285216,-0.020126343,-0.0076293945,0.004470825,9.802601458404386,0.021983303190624113,19.290184020996094,65.02566528320312,-87.00277709960938,22206133.0,50354.0,0.1954494462789,0.0653919728477,-0.0669800153528901,0.009825944013434514,0.0032937049419086736,-0.003342021694654564,22.206133395899087
1630,D,1556916268639220.0,3.8156433,1.341919,8.445639885850378,157,1970-01-19 00:28:36.268639220,-0.021362305,-0.016693115,0.005722046,9.775506926549687,0.027708301531172316,19.291208267211914,65.0381088256836,-87.0008773803711,22256487.0,50354.0,0.1936857193802,0.0665145196051,-0.0684333325008901,0.009797256065799162,0.003321009760484146,-0.0034093018589146243,22.256487400038168
1630,D,1556916318993224.0,3.8966064,1.3883209,8.53842888585038,157,1970-01-19 00:28:36.318993224,-0.028442383,0.0052490234,0.0030059814,9.729783895878354,0.02907846834944342,19.298322677612305,65.03338623046875,-86.9930648803711,22306841.0,50354.0,0.19417131069690002,0.0687392499623,-0.06586130053489007,0.009765076446251148,0.0034052841563984304,-0.0033811359759418377,22.306841403944418
1630,D,1556916369347228.0,3.89299,1.4115753,8.506766885850379,157,1970-01-19 00:28:36.369347228,-0.036712646,0.027236938,-0.005722046,9.760343812426592,0.046069631845319495,19.312746047973633,65.03135681152344,-86.97822570800781,22357195.0,50354.0,0.19611866856280002,0.0704929866274,-0.06432230605589005,0.009826330807821469,0.0035054500206188775,-0.0032776326631360716,22.3571954080835
1630,D,1556916419701232.0,3.8303223,1.3244476,8.48013988585038,157,1970-01-19 00:28:36.419701232,-0.037246704,0.025634766,-0.006866455,9.747477218113824,0.04573408347179811,19.30523109436035,65.04268646240234,-86.98331451416016,22407549.0,50354.0,0.1944498337771,0.0688848485533,-0.06578984820889006,0.009833343183411664,0.0035091157563444846,-0.0032758337079243694,22.40754941198975
1630,D,1556916470055236.0,3.809967,1.2664185,8.437537385850378,157,1970-01-19 00:28:36.470055236,-0.024353027,0.011138916,-0.0024261475,9.770598818738671,0.026889246278197186,19.281784057617188,65.06068420410156,-87.00344848632812,22457903.0,50354.0,0.19235956370610002,0.0652302357997,-0.06753283933039007,0.009738700200434528,0.0033766154787554814,-0.0033566653041764557,22.457903415896
1630,D,1556916520409240.0,3.854416,1.2554321,8.412604885850378,157,1970-01-19 00:28:36.520409240,-0.016220093,-0.0110321045,-0.0012664795,9.809300044287891,0.019657128909163962,19.250028610229492,65.07353973388672,-87.0315933227539,22508257.0,50354.0,0.192966170791,0.0634926325562,-0.0692331680253901,0.009701346017433488,0.003240855656596494,-0.0034433577671964775,22.50825742003508
1630,D,1556916570763244.0,3.8672943,1.2987671,8.509177385850379,157,1970-01-19 00:28:36.570763244,-0.011184692,-0.015640259,0.0061035156,9.732242942239017,0.020173446393747112,19.23247528076172,65.07633209228516,-87.04698944091797,22558611.0,50354.0,0.1944095002231,0.06430707325840002,-0.0674294877453901,0.009752957269121995,0.0032176131932941847,-0.003440755684340933,22.55861142394133
1630,D,1556916621117247.0,3.8924713,1.3549347,8.512778885850379,157,1970-01-19 00:28:36.621117247,-0.0064849854,-0.0024414063,0.0064086914,9.746657892810425,0.0094385817695418,19.231712341308594,65.07379913330078,-87.04728698730469,22608965.0,50354.0,0.1953676185112,0.06681225021860002,-0.06490740694739007,0.009813418518373472,0.00330119120718043,-0.003331845997680126,22.608965426916257
1630,D,1556916671471251.0,3.8979187,1.3638763,8.468832885850379,157,1970-01-19 00:28:36.671471251,-0.008956909,-0.005142212,0.0031738281,9.789908625571302,0.01080470952388701,19.23273277282715,65.07292175292969,-87.04593658447266,22659319.0,50354.0,0.19613864903000003,0.06845150454700001,-0.06592316042389007,0.009856953297884793,0.0034055355537335125,-0.00329392119470672,22.659319431055337
1630,D,1556916721825255.0,3.8408966,1.3651123,8.46767388585038,157,1970-01-19 00:28:36.721825255,-0.01083374,-0.014312744,0.0009613037,9.768570877665978,0.017976336334213645,19.24003028869629,65.0788345336914,-87.03890228271484,22709673.0,50354.0,0.19484015280810002,0.0687077459822,-0.06705876900889006,0.009843673293877846,0.0034532584505736694,-0.003348086037329106,22.709673434961587
1630,D,1556916772179259.0,3.820221,1.3448029,8.494559885850379,157,1970-01-19 00:28:36.772179259,-0.01171875,-0.016326904,-0.0016326904,9.733185867778053,0.02016339687974147,19.242473602294922,65.08639526367188,-87.03629302978516,22760027.0,50354.0,0.19288395781520004,0.0682275349904,-0.06641104032989006,0.009761729933162825,0.0034476195690471504,-0.003360369389722467,22.760027438867837
1630,D,1556916822533263.0,3.857071,1.3018341,8.483816885850379,157,1970-01-19 00:28:36.822533263,-0.010391235,-0.013504028,-0.00491333,9.75163427163713,0.017733509205425445,19.226316452026367,65.09186553955078,-87.05067443847656,22810381.0,50354.0,0.193291180684,0.06663437974900001,-0.06600460801889008,0.00972273146199436,0.0033954184273938745,-0.0033338287784772376,22.810381443006918
1630,D,1556916872887267.0,3.9103394,1.3046265,8.464209885850378,157,1970-01-19 00:28:36.872887267,-0.0090789795,-0.018692017,-0.005508423,9.790979427346358,0.02149795553620479,19.205245971679688,65.0913314819336,-87.0696029663086,22860735.0,50354.0,0.1955600916408,0.0656228585262,-0.06676872996889008,0.00979010848332149,0.0033298404880547114,-0.0033428343305183413,22.860735446913168
1630,D,1556916923241271.0,3.8820343,1.2854309,8.510412885850378,157,1970-01-19 00:28:36.923241271,-0.0118255615,-0.013717651,-0.0070495605,9.735218658759303,0.019434869616008325,19.181398391723633,65.09264373779297,-87.09092712402344,22911089.0,50354.0,0.19618859264490002,0.06520987515980001,-0.0660991224768901,0.009863056624261068,0.0032939757360124227,-0.0033452139210274076,22.91108945105225
1630,D,1556916973595275.0,3.893692,1.2644348,8.499518885850378,157,1970-01-19 00:28:36.973595275,-0.009719849,-0.0007171631,-0.0071105957,9.747009867109556,0.01206442533665243,19.150480270385742,65.09464263916016,-87.11869049072266,22961443.0,50354.0,0.1957694610551,0.0641979687289,-0.06521014778389009,0.009868327918004901,0.003258101285585801,-0.003305973497355663,22.9614434549585
1630,D,1556917023949279.0,3.9107056,1.3087006,8.459891885850379,157,1970-01-19 00:28:37.023949279,-0.0075531006,0.0030517578,-0.0049591064,9.79558590948192,0.009537048318536618,19.133522033691406,65.09512329101562,-87.13383483886719,23011797.0,50354.0,0.1964913183752,0.0647838299658,-0.06648211500089009,0.009875949643716663,0.003247374745736462,-0.003315616100132411,23.01179745886475
1630,D,1556917074303283.0,3.8837433,1.335907,8.475500885850378,157,1970-01-19 00:28:37.074303283,-0.008102417,0.0041046143,-0.00440979,9.774362487750283,0.010096695877253783,19.129016876220703,65.0968246459961,-87.13756561279297,23062151.0,50354.0,0.1962408399553,0.0665832855452,-0.06708681618689008,0.009887817550287,0.003307429867220447,-0.003362864980514742,23.06215146300383
1630,D,1556917124657286.0,3.9001465,1.3238373,8.468954885850378,157,1970-01-19 00:28:37.124657286,-0.007537842,0.000289917,-0.004425049,9.785188003504764,0.008745522999584074,19.118703842163086,65.09719848632812,-87.14666748046875,23112505.0,50354.0,0.1959749934946,0.0669643822411,-0.0668586370358901,0.009874818038768133,0.0033623296318556753,-0.003372344675789937,23.112505465978757
1630,D,1556917175011290.0,3.9013824,1.3268433,8.477423885850378,157,1970-01-19 00:28:37.175011290,-0.0070495605,-0.006713867,-0.0043945313,9.778406897100655,0.010681021425103918,19.109268188476562,65.09642028808594,-87.15503692626953,23162859.0,50354.0,0.1964190931153,0.06673618546620001,-0.0668102216648901,0.009879305918577453,0.0033661791931666927,-0.0033653808555095437,23.162859469885007
1630,D,1556917225365294.0,3.9175262,1.3408966,8.514075885850378,157,1970-01-19 00:28:37.225365294,-0.008682251,-0.006378174,-0.003326416,9.75357703814857,0.011275088886848432,19.102890014648438,65.09076690673828,-87.16059112548828,23213213.0,50354.0,0.19685666182220002,0.0671656874623,-0.06567421024789011,0.009901503682061438,0.0033712474547208456,-0.0033355605422680673,23.213213474024087
1630,D,1556917275719298.0,3.9273071,1.3531342,8.488608885850379,157,1970-01-19 00:28:37.275719298,-0.011962891,0.0005645752,-0.0050811768,9.782249830634875,0.01300952973428303,19.099464416503906,65.08540344238281,-87.16321563720703,23263567.0,50354.0,0.19750936799410002,0.0678276134516,-0.06539260550289008,0.009928953532684987,0.00339872633710926,-0.003299869220157393,23.263567477930337
1630,D,1556917326073302.0,3.8843842,1.3430786,8.484457885850379,157,1970-01-19 00:28:37.326073302,-0.012817383,0.0012817383,-0.0036468506,9.7674737373917,0.013387594232613126,19.09784698486328,65.08628845214844,-87.1641616821289,23313921.0,50354.0,0.1966749518601,0.06788254966559999,-0.06613829788889006,0.009924378620969194,0.0034167747768017445,-0.0033115535546948487,23.313921482069418
1630,D,1556917376427306.0,3.864334,1.3417969,8.50340988585038,157,1970-01-19 00:28:37.376427306,-0.0129852295,0.0062408447,-0.0018310547,9.742137521685402,0.014522984853382602,19.098485946655273,65.0887451171875,-87.1629867553711,23364275.0,50354.0,0.1950894781214,0.0675971104635,-0.06576565311189006,0.009863453053644226,0.003410971403070351,-0.003320945774346641,23.364275485975668
1630,D,1556917426781310.0,3.8594208,1.309555,8.50185288585038,157,1970-01-19 00:28:37.426781310,-0.013961792,0.013290405,0.0024414063,9.737214489274724,0.0194300531557937,19.089683532714844,65.09356689453125,-87.17021942138672,23414629.0,50354.0,0.19446097459960002,0.0667530867863,-0.06532769919689005,0.009807711748156618,0.0033825349161582152,-0.003300537331078157,23.414629489881918
1630,D,1556917477135314.0,3.6783142,1.2597198,8.628760885850378,157,1970-01-19 00:28:37.477135314,-0.048797607,0.07388306,0.00090026855,9.544198048120633,0.0885478598688425,19.08545684814453,65.11869812011719,-87.17127990722656,23464983.0,50354.0,0.189777554095,0.0646866316396,-0.062171737069890085,0.009673973436943945,0.003309257790808885,-0.0032100533068887232,23.464983494021
1630,D,1556917527489318.0,4.1094666,1.1427155,8.278143885850378,157,1970-01-19 00:28:37.527489318,-0.05848694,0.17582703,-0.00030517578,10.020153569945764,0.18529964857344225,18.99907684326172,65.12025451660156,-87.24581909179688,23515337.0,50354.0,0.1960729572016,0.060486113548100004,-0.06780405856289011,0.009714558322914499,0.003151474205590723,-0.0032724006066465073,23.51533749792725
1630,D,1556917577843322.0,3.6563416,1.5137634,8.197928885850379,157,1970-01-19 00:28:37.577843322,-0.01789856,0.037612915,0.053878784,9.966510183894165,0.06810296021605435,19.087446212768555,65.15919494628906,-87.16350555419922,23565691.0,50354.0,0.1955197530514,0.0668821692653,-0.07865111582689008,0.009859129666039782,0.0032067512563929723,-0.0036873019256114955,23.56569150206633
1630,D,1556917628197326.0,3.3136597,1.68396,8.696402885850379,157,1970-01-19 00:28:37.628197326,-0.029632568,-0.09744263,0.0664978,9.41362210564818,0.12163516199040278,19.273488998413086,65.19779205322266,-86.99263000488281,23616045.0,50354.0,0.17548372273010002,0.0805090820418,-0.06812060898389007,0.009340754509750828,0.0037108695341588572,-0.0036952717155610123,23.61604550597258
1630,D,1556917678551329.0,3.6421204,1.3724365,8.346869885850378,157,1970-01-19 00:28:37.678551329,-0.07006836,-0.0639801,0.07702637,9.803929622077742,0.12221329692172002,19.308124542236328,65.22894287109375,-86.95692443847656,23666399.0,50354.0,0.1751256755777,0.07695089468050001,-0.06437072142689008,0.008827292821195482,0.003964369833937348,-0.003335734225752212,23.666399508947507
1630,D,1556917728905333.0,4.09433,1.1783447,8.293982885850378,157,1970-01-19 00:28:37.728905333,-0.089767456,-0.06112671,0.099105835,10.003750539789669,0.1470259751308702,19.229007720947266,65.21437072753906,-87.02313232421875,23716753.0,50354.0,0.19478061172080002,0.06422101827240001,-0.07450244976689012,0.009313130595314337,0.003554285252415164,-0.0034964098311458043,23.716753513086587
1630,D,1556917779259337.0,3.993637,1.4185028,8.710959885850379,157,1970-01-19 00:28:37.779259337,-0.013122559,-0.018478394,0.07548523,9.618207694025006,0.07881416463860172,19.243942260742188,65.17832946777344,-87.00762176513672,23767107.0,50354.0,0.20363074515900004,0.0653808295075,-0.0653357558368901,0.010030802732162726,0.003262985721554543,-0.0035207065024863747,23.767107516992837
1630,D,1556917829613341.0,4.0390167,1.5050659,8.729269885850378,157,1970-01-19 00:28:37.829613341,-0.0063476563,0.031829834,0.081222534,9.633881062699846,0.08746731448004816,19.284761428833008,65.13470458984375,-86.96845245361328,23817461.0,50354.0,0.20223812220490003,0.0736066891599,-0.05437653503789008,0.010218560473620911,0.00349928875748913,-0.0030139963473543403,23.817461520899087
1630,D,1556917879967345.0,4.145508,1.3314819,8.478049885850378,157,1970-01-19 00:28:37.879967345,-0.054489136,0.16564941,0.11819458,9.878406872685323,0.21066264907845195,19.26126480102539,65.10856628417969,-86.98381042480469,23867815.0,50354.0,0.20606177837190004,0.07141576396060001,-0.06024051010789009,0.010279766596822096,0.003651230302214829,-0.0028857133456353075,23.867815525038168
1630,D,1556917930321349.0,3.9720917,1.4287872,8.36328788585038,157,1970-01-19 00:28:37.930321349,-0.061813354,0.26361084,0.1354065,9.92432171959483,0.3027317062028438,19.29453468322754,65.11177825927734,-86.94631958007812,23918169.0,50354.0,0.2043768076469,0.0694952951307,-0.06945483892189006,0.010333612280195328,0.003547717734741661,-0.0032653398025227747,23.918169528944418
1630,D,1556917980675353.0,3.5492096,1.7388306,8.442724885850378,157,1970-01-19 00:28:37.980675353,-0.020690918,0.25413513,0.15074158,9.740275578869857,0.2962022996681424,19.48182487487793,65.14859771728516,-86.77066802978516,23968523.0,50354.0,0.18936380283010001,0.0797511133506,-0.07034421644689007,0.009913207349979431,0.00375757682633369,-0.0035197208170197774,23.9685235330835
1630,D,1556918031029357.0,3.3169556,1.6351776,8.355505885850379,157,1970-01-19 00:28:38.031029357,0.020324707,0.12878418,-0.041030884,9.720548863556735,0.13668208432245135,19.636350631713867,65.22093963623047,-86.63123321533203,24018877.0,50354.0,0.17286944124040002,0.0849474044514,-0.07054014386089008,0.00911994638596298,0.004146614582700954,-0.003547045539468981,24.01887753698975
1630,D,1556918081383361.0,3.5748749,1.6079559,7.987387885850378,157,1970-01-19 00:28:38.081383361,0.061569214,-0.009140015,-0.0952301,10.14555603865672,0.11376765767470129,19.73505210876465,65.2749252319336,-86.54631805419922,24069231.0,50354.0,0.1735156164985,0.08165237212950001,-0.0820041635098901,0.008720936598692287,0.00419448257497732,-0.0038406080266741327,24.069231540896
1630,D,1556918131737365.0,3.6517487,1.6094513,8.300085885850379,157,1970-01-19 00:28:38.131737365,0.1491394,-0.0945282,-0.048217773,9.886260752471804,0.18303850649707434,19.831817626953125,65.2955322265625,-86.46682739257812,24119585.0,50354.0,0.1819447023772,0.0810046610744,-0.08339947284989008,0.0089494244483335,0.004095216124974591,-0.004164367352630186,24.11958554503508
1630,D,1556918182091369.0,3.4421234,1.6316528,8.267691885850379,157,1970-01-19 00:28:38.182091369,0.10928345,-0.07966614,-0.063430786,9.844293406918771,0.14937546960254183,19.955890655517578,65.34362030029297,-86.36084747314453,24169939.0,50354.0,0.17860241786170003,0.0816012779257,-0.07634225904189006,0.009077494846254787,0.004093929726205518,-0.004021817583839349,24.16993954894133
1630,D,1556918232445372.0,3.390274,1.4510345,8.524451885850379,157,1970-01-19 00:28:38.232445372,0.048965454,-0.105407715,-0.06312561,9.560520627812862,0.13226203047291932,20.02235221862793,65.38972473144531,-86.3046875,24220293.0,50354.0,0.1720192693398,0.0776128181521,-0.07069339625989006,0.008827602218672166,0.004008533296950771,-0.003701916693532918,24.220293551916257
1630,D,1556918282799376.0,3.4862823,1.5831451,8.216605385850379,157,1970-01-19 00:28:38.282799376,0.052520752,-0.08695984,-0.040863037,9.89899986738749,0.10949991304258863,20.119775772094727,65.43413543701172,-86.2198715209961,24270647.0,50354.0,0.1731310579651,0.0763915397892,-0.07197960107039007,0.008689849790555468,0.003877367719888111,-0.0035920780537844633,24.270647556055337
1630,D,1556918333153380.0,3.6710968,1.7536926,8.382193885850379,157,1970-01-19 00:28:38.333153380,0.077301025,-0.14544678,-0.032348633,9.843086015193913,0.1678590132682416,20.249223709106445,65.43404388427734,-86.10736083984375,24321001.0,50354.0,0.1802013336007,0.0840115627729,-0.07556123073639007,0.008895849622452146,0.004038468913205992,-0.0037146355223993035,24.321001559961587
1630,D,1556918383507384.0,3.8323975,1.8207397,8.364783885850379,157,1970-01-19 00:28:38.383507384,0.13691711,-0.18632507,-0.009063721,9.932205622253464,0.2313989579916531,20.380403518676758,65.40953826904297,-85.99576568603516,24371355.0,50354.0,0.1889154759911,0.0899934820171,-0.07183054064189007,0.00929325391509275,0.00438092501267783,-0.003710882627990959,24.371355563867837
1630,D,1556918433861388.0,3.8184662,1.7362823,8.463461885850379,157,1970-01-19 00:28:38.433861388,0.09944153,-0.1594696,-0.004837036,9.822378548918012,0.18799619179697813,20.48309898376465,65.38629913330078,-85.90819549560547,24421709.0,50354.0,0.19262579537490002,0.089555142894,-0.06978445620589006,0.009606064589181782,0.004520495729386766,-0.00356544077563656,24.421709568006918
1630,D,1556918484215392.0,3.7424774,1.6554413,8.588431885850378,157,1970-01-19 00:28:38.484215392,0.04133606,-0.09954834,0.016281128,9.665718811849715,0.10901200384375835,20.568784713745117,65.37140655517578,-85.83255767822266,24472063.0,50354.0,0.1903618770172,0.08539342507719999,-0.0641536705098901,0.009642480627815904,0.004404680095810903,-0.003372160216323197,24.472063571913168
1630,D,1556918534569396.0,3.8164063,1.5311432,8.49843488585038,157,1970-01-19 00:28:38.534569396,0.043045044,-0.08404541,0.006362915,9.755670328992565,0.09464139391580864,20.601015090942383,65.35997009277344,-85.80572509765625,24522417.0,50354.0,0.19031001491490002,0.08022863795650001,-0.06327315528889008,0.009584176223174484,0.0041698666809994655,-0.0032082251931358887,24.52241757605225
1630,D,1556918584923400.0,3.9960327,1.6677856,8.532141885850379,157,1970-01-19 00:28:38.584923400,0.038589478,-0.034988403,-0.0063934326,9.819280994337907,0.05248058819424222,20.65513801574707,65.32064819335938,-85.75867462158203,24572771.0,50354.0,0.19669377670300003,0.0805394303976,-0.06469036861889005,0.00974359446156387,0.004047657656951176,-0.0032217376414261805,24.5727715799585
1630,D,1556918635277404.0,3.9770966,1.7802734,8.635718885850379,157,1970-01-19 00:28:38.635277404,0.019958496,-0.0048828125,0.015426636,9.738595865385067,0.025693666900009977,20.749980926513672,65.27371215820312,-85.67317199707031,24623125.0,50354.0,0.2007394763861,0.086811781443,-0.061233969350890066,0.010006177013024272,0.004213401460510787,-0.003170397057065154,24.62312558386475
1630,D,1556918685631408.0,3.9855652,1.8546906,8.64574388585038,157,1970-01-19 00:28:38.685631408,0.029174805,-0.02772522,0.023834229,9.746982249948976,0.04677528773680463,20.865806579589844,65.2214584350586,-85.56901550292969,24673479.0,50354.0,0.20047593613859999,0.09151748862800001,-0.05837381179689006,0.010101400441134372,0.004489796032577568,-0.0030113651059576604,24.67347958800383
1630,D,1556918735985411.0,3.9085693,1.8698273,8.596533885850379,157,1970-01-19 00:28:38.735985411,0.02368164,-0.02734375,0.0014190674,9.762726956045057,0.03620102884501824,20.99019432067871,65.18284606933594,-85.45736694335938,24723833.0,50354.0,0.1987506243065,0.09377218716830002,-0.059360372541890055,0.010051327112326282,0.0046650381675234455,-0.002964193559097467,24.723833590978757
1630,D,1556918786339415.0,3.8080444,1.8598938,8.565619885850378,157,1970-01-19 00:28:38.786339415,-0.0027770996,-0.06300354,-0.020812988,9.748842985435493,0.06641038175020578,21.11577033996582,65.15866088867188,-85.34416198730469,24774187.0,50354.0,0.1942811831249,0.0939031881347,-0.06137765448989009,0.009895361815700358,0.0047251029240036315,-0.003039821306579129,24.774187594885007
1630,D,1556918836693419.0,3.929016,1.8417206,8.559851885850378,157,1970-01-19 00:28:38.836693419,-0.034347534,-0.08605957,-0.016555786,9.79846658798658,0.09412808683142271,21.214187622070312,65.12020874023438,-85.2542724609375,24824541.0,50354.0,0.1947959696908,0.0931955457488,-0.06230119720389011,0.00979579547644088,0.00471058482298488,-0.0031138624490943045,24.824541599024087
1630,D,1556918887047423.0,4.111969,1.7183533,8.620520885850379,157,1970-01-19 00:28:38.887047423,-0.059005737,-0.030792236,0.0027008057,9.796916228355629,0.06661180937508017,21.249841690063477,65.06446838378906,-85.21944427490234,24874895.0,50354.0,0.202447879345,0.0896319805803,-0.06091895472689009,0.010001408387174338,0.004603048630387751,-0.003102313765161253,24.874895602930337
1630,D,1556918937401427.0,4.099106,1.6976013,8.59114788585038,157,1970-01-19 00:28:38.937401427,-0.05609131,-0.020828247,0.01121521,9.814094884913569,0.06087554407110633,21.28070640563965,65.01490020751953,-85.1888656616211,24925249.0,50354.0,0.20673023527500003,0.0860034889642,-0.060131015334890056,0.010301877391787742,0.004421974216721876,-0.003047675096245439,24.925249607069418
1630,D,1556918987755431.0,4.0670624,1.7581635,8.646460885850379,157,1970-01-19 00:28:38.987755431,-0.048583984,-0.021713257,0.009063721,9.762106169774123,0.053981664194670265,21.334577560424805,64.96392822265625,-85.13783264160156,24975603.0,50354.0,0.20559962180680003,0.0870057903696,-0.05947792395489005,0.01038122881174848,0.004355854625787083,-0.003011394264498794,24.975603610975668
1630,D,1556919038109435.0,4.033325,1.7844238,8.595358885850379,157,1970-01-19 00:28:39.038109435,-0.06567383,-0.004425049,0.023361206,9.798474825867924,0.06984539320023717,21.400606155395508,64.92098236083984,-85.0746078491211,25025957.0,50354.0,0.20394345356979998,0.08919172045210001,-0.059371903607890054,0.01031106600875666,0.004436124729957942,-0.0029922821085481147,25.025957614881918
1630,D,1556919088463439.0,3.9780731,1.7348633,8.597647885850378,157,1970-01-19 00:28:39.088463439,-0.08442688,0.011581421,0.030792236,9.764885824970998,0.09061009423233891,21.456485748291016,64.88864135742188,-85.01947021484375,25076311.0,50354.0,0.2017029699637,0.0886050913167,-0.06060086850889008,0.01021296000530293,0.004476390329903078,-0.0030205544835841735,25.076311619021
1630,D,1556919138817443.0,4.044449,1.7015991,8.620352885850378,157,1970-01-19 00:28:39.138817443,-0.0871582,-0.0011901855,0.03215027,9.7659858267031,0.09290644880651348,21.491256713867188,64.84849548339844,-84.98345184326172,25126665.0,50354.0,0.2019830389117,0.08651981384480001,-0.05997159457089009,0.010163602645455945,0.004409119737251086,-0.0030356529029596257,25.12666562292725
1630,D,1556919189171447.0,4.0792236,1.7283936,8.655920885850378,157,1970-01-19 00:28:39.189171447,-0.081848145,-0.0047302246,0.033218384,9.753435394001126,0.08845877514570799,21.529510498046875,64.80126953125,-84.94449615478516,25177019.0,50354.0,0.2045297050502,0.0863569262079,-0.0585044552498901,0.010234771354728755,0.004352517684306828,-0.002982871506337783,25.17701962706633
1630,D,1556919239525451.0,4.12912,1.7572327,8.698996885850379,157,1970-01-19 00:28:39.239525451,-0.07778931,-0.004699707,0.039886475,9.74129638222107,0.0875453875660367,21.570493698120117,64.7447509765625,-84.90315246582031,25227373.0,50354.0,0.2066614668172,0.0877576133551,-0.05652443526189008,0.010352560134105529,0.004383681762577651,-0.0028960823764150895,25.22737363097258
1630,D,1556919289879454.0,4.0772095,1.7650299,8.647055885850378,157,1970-01-19 00:28:39.289879454,-0.076187134,0.011932373,0.04525757,9.767046545515448,0.08941537090931283,21.62047576904297,64.6996841430664,-84.85346984863281,25277727.0,50354.0,0.20661075782150004,0.08868000548020001,-0.05674762936689008,0.010404954799728552,0.004442169929416349,-0.0028518507711587982,25.277727633947507
1630,D,1556919340233458.0,4.1072845,1.7999573,8.642752885850378,157,1970-01-19 00:28:39.340233458,-0.08403015,0.021514893,0.051986694,9.78982822243616,0.10112652017583511,21.6768856048584,64.65105438232422,-84.79749298095703,25328081.0,50354.0,0.20606100543800004,0.0897556827344,-0.05816368455489011,0.010389836983584434,0.004492475322178985,-0.0028931221506086602,25.328081638086587
1630,D,1556919390587462.0,4.043808,1.7580566,8.653372885850379,157,1970-01-19 00:28:39.390587462,-0.07434082,0.02607727,0.07421875,9.746256981232927,0.10823587381495933,21.729475021362305,64.61245727539062,-84.74496459960938,25378435.0,50354.0,0.20522005587250003,0.0895801159603,-0.05800464144589009,0.010354823280614461,0.0045151374037364625,-0.002924769943721643,25.378435641992837
1630,D,1556919440941466.0,4.072342,1.6134644,8.63855688585038,157,1970-01-19 00:28:39.440941466,-0.06729126,0.03036499,0.03277588,9.746352596863883,0.08077378658860869,21.727460861206055,64.58028411865234,-84.74286651611328,25428789.0,50354.0,0.20434030855000004,0.084884784217,-0.05811028413789005,0.010311501295065285,0.004392502791763882,-0.002923425481422833,25.428789645899087
1630,D,1556919491295470.0,4.112213,1.6453552,8.67426188585038,157,1970-01-19 00:28:39.491295470,-0.029022217,0.0056610107,0.026000977,9.736589815697538,0.0393749530373705,21.730863571166992,64.5390853881836,-84.73789978027344,25479143.0,50354.0,0.206062541235,0.0820473010692,-0.05758436178489004,0.010332712549036947,0.004202849111250658,-0.0029128441003978345,25.479143650038168
1630,D,1556919541649474.0,4.063324,1.8089142,8.704611885850378,157,1970-01-19 00:28:39.541649474,0.0034637451,0.0149383545,-0.0018920898,9.718079265212166,0.01545095366301732,21.79166603088379,64.49585723876953,-84.68309020996094,25529497.0,50354.0,0.20583549504899998,0.08696814068380002,-0.05592129504989008,0.010370356859522268,0.0042553017770152815,-0.0028577319221292593,25.529497653944418
1630,D,1556919592003478.0,3.9934235,1.8395691,8.721045885850378,157,1970-01-19 00:28:39.592003478,-0.0014038086,0.014556885,-0.0052490234,9.680186560226412,0.015537883579896154,21.86907386779785,64.45964813232422,-84.61314392089844,25579851.0,50354.0,0.2028447318075,0.09185786404410001,-0.054743414281890106,0.0102893420715661,0.004502302321034339,-0.00278620538684623,25.5798516580835
1630,D,1556919642357482.0,4.101349,1.8087311,8.72786588585038,157,1970-01-19 00:28:39.642357482,0.0049591064,0.009811401,-0.026748657,9.713369762338361,0.028919664195370093,21.918611526489258,64.41239166259766,-84.56913757324219,25630205.0,50354.0,0.2038020872325,0.0918532541354,-0.05415794832389007,0.01023814696297008,0.004625294822405273,-0.002741809606325728,25.63020566198975
1630,D,1556919692711486.0,4.032715,1.7158203,8.567328885850378,157,1970-01-19 00:28:39.692711486,0.029556274,0.006362915,-0.037841797,9.811032393938627,0.04843616025501516,21.945878982543945,64.38990020751953,-84.54660034179688,25680559.0,50354.0,0.20479132932799998,0.0887376305978,-0.05802808123289008,0.010287156448743708,0.004546736704927777,-0.002824507666151054,25.680559665896
1630,D,1556919743045956.0,3.9498749,1.7516022,8.620276885850378,157,1970-01-19 00:28:39.743045956,0.027435303,-0.0037231445,-0.030548096,9.736139898283039,0.041227949559672565,21.994653701782227,64.37223052978516,-84.5044937133789,25730894.0,50335.0,0.20090183130824998,0.08726635576875,-0.060713931740721254,0.01021028262031282,0.004429580326880147,-0.0029884396115133632,25.730894136009738
1630,D,1556919793399960.0,4.0206757,1.7540588,8.585333885850378,157,1970-01-19 00:28:39.793399960,0.03074646,-0.014678955,-0.03883362,9.796750406455649,0.05166107397962246,22.032594680786133,64.34819030761719,-84.47258758544922,25781248.0,50354.0,0.20067455245620003,0.088262026997,-0.060283537600890086,0.01011048861403756,0.004419278092893288,-0.003046353285613749,25.781248139915988
1630,D,1556919843753963.0,4.0891113,1.7552185,8.633856885850378,157,1970-01-19 00:28:39.843753963,0.045898438,-0.021942139,-0.03691101,9.78200588576259,0.06285337488118888,22.061914443969727,64.31278991699219,-84.44912719726562,25831602.0,50354.0,0.20418010729900002,0.0883530745821,-0.0599416339408901,0.010193025768656673,0.004446638412457001,-0.0030269091439074003,25.831602142890915
1630,D,1556919894107967.0,4.0844727,1.7424164,8.606879885850379,157,1970-01-19 00:28:39.894107967,0.05255127,-0.017868042,-0.04206848,9.801820395378567,0.06964667912425591,22.086956024169922,64.28155517578125,-84.4299087524414,25881956.0,50354.0,0.205786324368,0.0880599538773,-0.05939917029889009,0.010321724850080061,0.004441550817522314,-0.003004643428344946,25.881956147029996
1630,D,1556919944461971.0,4.0338593,1.751236,8.65300688585038,157,1970-01-19 00:28:39.944461971,0.06567383,-0.022018433,-0.039871216,9.74123143465735,0.07992231981094546,22.12140655517578,64.2535171508789,-84.40283203125,25932310.0,50354.0,0.20439524476399998,0.08795968647480001,-0.05891703074889005,0.010327141366036364,0.004431646485144823,-0.0029788469937799605,25.932310150936246
1630,D,1556919994815975.0,4.027893,1.7319183,8.611090885850379,157,1970-01-19 00:28:39.994815975,0.064712524,-0.019561768,-0.041793823,9.772749779355854,0.07948016841131961,22.1494197845459,64.23076629638672,-84.38153076171875,25982664.0,50354.0,0.20297073765709997,0.0876953758111,-0.05881101040189005,0.010256253339416033,0.004422467503172105,-0.002964038892053191,25.982664155075327
1630,D,1556920045169979.0,4.0047607,1.7434845,8.566397885850378,157,1970-01-19 00:28:40.045169979,0.059524536,-0.007217407,-0.031600952,9.805290339000358,0.06777817876813488,22.18431854248047,64.21409606933594,-84.35346984863281,26033018.0,50354.0,0.20223812220490003,0.08750021629560001,-0.06099156519489008,0.010201943464745575,0.004410899422470386,-0.0030162694458001336,26.033018158981577
1630,D,1556920095523983.0,3.9740295,1.7847137,8.648169885850379,157,1970-01-19 00:28:40.095523983,0.070373535,-0.03289795,-0.025909424,9.727022452470383,0.08189021794213582,22.235502243041992,64.19290161132812,-84.31135559082031,26083372.0,50354.0,0.20088200086540003,0.08882944608140002,-0.060058027211890075,0.010149355338540946,0.00443945190966573,-0.003047665588025504,26.083372162887827
1630,D,1556920145877987.0,4.088394,1.7311859,8.676703885850378,157,1970-01-19 00:28:40.145877987,0.08433533,-0.03173828,-0.03340149,9.739266881265541,0.09610112297880499,22.253942489624023,64.15925598144531,-84.29946899414062,26133726.0,50354.0,0.2029876364595,0.0885198042292,-0.057280853049890085,0.010168225858929007,0.0044651220750699765,-0.0029542409883508394,26.133726167026907
1630,D,1556920196231991.0,4.046585,1.8200378,8.648352885850379,157,1970-01-19 00:28:40.196231991,0.080963135,-0.030593872,-0.03668213,9.763250331743924,0.09400315364027693,22.30440330505371,64.12914276123047,-84.25871276855469,26184080.0,50354.0,0.20481436628300004,0.0894091590949,-0.05727624565889009,0.010267231023047923,0.004479717509610867,-0.0028842040741909585,26.184080170933157
1630,D,1556920246585995.0,4.027649,1.8431702,8.696371885850379,157,1970-01-19 00:28:40.246585995,0.07084656,-0.03794861,-0.03883362,9.716994820077762,0.0892601932950523,22.362367630004883,64.09737396240234,-84.21084594726562,26234434.0,50354.0,0.20328498941800002,0.092228587816,-0.05678106442289006,0.01027471747848408,0.00457309355397573,-0.002871620895928979,26.234434175072238
1630,D,1556920296939999.0,4.079895,1.7493591,8.663824885850378,157,1970-01-19 00:28:40.296939999,0.07119751,-0.032669067,-0.041900635,9.750415198127607,0.08883702258773543,22.38268280029297,64.06723022460938,-84.19689178466797,26284788.0,50354.0,0.20412363528800004,0.0904491101861,-0.056391525878890084,0.010257326944222963,0.004599276402598872,-0.0028493463060279187,26.284788178978488
1630,D,1556920347294002.0,4.021866,1.7989349,8.680243885850379,157,1970-01-19 00:28:40.347294002,0.066833496,-0.036315918,-0.04512024,9.720677051678807,0.08843866883565323,22.424718856811523,64.04117584228516,-84.16329956054688,26335142.0,50354.0,0.20397803669700001,0.089335398038,-0.05679758053489009,0.010274775795566347,0.004526434563558166,-0.0028497621321797438,26.335142181953415
1630,D,1556920397648006.0,4.1038055,1.8147278,8.671103885850378,157,1970-01-19 00:28:40.397648006,0.05770874,-0.030456543,-0.039916992,9.765906173932049,0.07649356792715656,22.460126876831055,64.00586700439453,-84.13514709472656,26385496.0,50354.0,0.20458003135549999,0.0909811857979,-0.056614317151890074,0.010286266479357794,0.0045398306312364545,-0.0028553713480600645,26.385496186092496
1630,D,1556920448002010.0,3.986557,1.8492126,8.715552885850379,157,1970-01-19 00:28:40.448002010,0.052749634,-0.012573242,-0.030654907,9.684088200036788,0.062292323962934375,22.522045135498047,63.9815559387207,-84.08258056640625,26435850.0,50354.0,0.2036910566625,0.0922470274508,-0.05572534245889008,0.010279041183029186,0.00461313672496252,-0.0028283756100206123,26.435850189998746
1630,D,1556920498356014.0,4.1615143,1.752243,8.675207885850378,157,1970-01-19 00:28:40.498356014,0.057937622,-0.013153076,-0.045639038,9.775266962533683,0.07491791001384185,22.528308868408203,63.944522857666016,-84.08060455322266,26486204.0,50354.0,0.2051439911201,0.09067384764120001,-0.05562201605089009,0.010293239998022521,0.004605398872191285,-0.0028033924452007357,26.486204193904996
1630,D,1556920548710018.0,4.031479,1.8032227,8.607611885850378,157,1970-01-19 00:28:40.548710018,0.060516357,-0.016281128,-0.047683716,9.790219288057102,0.07874669113729471,22.56648063659668,63.92594909667969,-84.0501480102539,26536558.0,50354.0,0.20627499231410004,0.0895159599289,-0.058339646607890094,0.010358295745922855,0.0045366387851924084,-0.002869212780760109,26.536558198044077
1630,D,1556920599064022.0,4.177765,1.7919159,8.676779885850378,157,1970-01-19 00:28:40.599064022,0.053146362,-0.019592285,-0.044799805,9.787988284633508,0.07221783680915882,22.581247329711914,63.88594055175781,-84.04032897949219,26586912.0,50354.0,0.20668413618800002,0.09051480453220001,-0.0583000683638901,0.010397071978297373,0.004532634556837115,-0.00293663810384451,26.586912201950327
1630,D,1556920649418026.0,4.0857697,1.8130951,8.666632885850378,157,1970-01-19 00:28:40.649418026,0.053222656,-0.005432129,-0.04736328,9.762011970255216,0.07145235776043626,22.614267349243164,63.85832977294922,-84.01409149169922,26637266.0,50354.0,0.20805101314190003,0.090763361947,-0.05681409664689012,0.010441786854678895,0.0045640403974468195,-0.002898229332476414,26.637266206089407
1630,D,1556920699772030.0,4.0999146,1.8156128,8.66242138585038,157,1970-01-19 00:28:40.699772030,0.055267334,-0.016525269,-0.043792725,9.772150018381792,0.07242489548432599,22.645347595214844,63.829288482666016,-83.9897232055664,26687620.0,50354.0,0.20609097362110002,0.0913599787983,-0.05717560060139008,0.010426852800732054,0.004585319349944419,-0.002869918607619951,26.687620209995657
1630,D,1556920750126034.0,4.0763245,1.8134308,8.657843885850378,157,1970-01-19 00:28:40.750126034,0.050567627,-0.013870239,-0.044387817,9.765942357147614,0.06870041286887393,22.677759170532227,63.804325103759766,-83.96390533447266,26737974.0,50354.0,0.2058531718207,0.09136843071720001,-0.05739688125439008,0.0103715177497882,0.004600553166371744,-0.002884591375682977,26.737974213901907
1630,D,1556920800480038.0,4.0607605,1.7825165,8.681570885850379,157,1970-01-19 00:28:40.800480038,0.050125122,-0.0007171631,-0.041519165,9.732632508785509,0.06509134535961067,22.702686309814453,63.78239822387695,-83.94464111328125,26788328.0,50354.0,0.204867389045,0.0905351651721,-0.0569147542928901,0.01034071156091573,0.004579786833704906,-0.0028780240481738736,26.788328218040988
1630,D,1556920850834042.0,4.222809,1.7534332,8.710089885850378,157,1970-01-19 00:28:40.850834042,0.059020996,-0.011505127,-0.04423523,9.77089047057474,0.07464985927160911,22.697002410888672,63.7406120300293,-83.95338439941406,26838682.0,50354.0,0.20855542930149998,0.0890246055969,-0.05559935675089009,0.010408746297509831,0.004520776348651113,-0.002832767773749254,26.838682221947238
1630,D,1556920901188045.0,4.0850677,1.7624207,8.667853885850379,157,1970-01-19 00:28:40.901188045,0.08758545,-0.032333374,-0.04347229,9.751346742860331,0.10298785425364719,22.71254539489746,63.71784591674805,-83.94454193115234,26889036.0,50354.0,0.2091674116759,0.0885186536403,-0.05594470965989009,0.010517007967288,0.004470006637814984,-0.002808344960024213,26.889036224922165
1630,D,1556920951542049.0,4.056061,1.8636932,8.664587885850379,157,1970-01-19 00:28:40.951542049,0.08363342,-0.025787354,-0.039398193,9.760969837940092,0.09597788380081614,22.762720108032227,63.6944694519043,-83.90431213378906,26939390.0,50354.0,0.20496919727989998,0.0912946696603,-0.05709031351389006,0.010426717403680176,0.004527160040739207,-0.002845882778446263,26.939390229061246
1630,D,1556921001896053.0,4.122238,1.811966,8.673559885850379,157,1970-01-19 00:28:41.001896053,0.071136475,-0.015182495,-0.038116455,9.770974006301778,0.08212046256334456,22.787212371826172,63.66619873046875,-83.88645935058594,26989744.0,50354.0,0.205905033923,0.0925420716784,-0.05694665355189006,0.010344580518995413,0.004628457636684451,-0.002871108719815146,26.989744232967496
1630,D,1556921052250057.0,4.1082153,1.8762207,8.633444885850379,157,1970-01-19 00:28:41.052250057,0.064331055,-0.02166748,-0.044143677,9.812789167976787,0.0809730112200587,22.831050872802734,63.63958740234375,-83.85115814208984,27040098.0,50354.0,0.20721812273410004,0.09285747654590001,-0.05773074086289007,0.010401201715155808,0.0046678044256432015,-0.0028872327591809195,27.040098236873746
1630,D,1556921102604061.0,4.2662506,1.8230896,8.747107885850378,157,1970-01-19 00:28:41.102604061,0.06604004,-0.016967773,-0.008804321,9.769865620553722,0.06875106015220543,22.841068267822266,63.5892219543457,-83.84547424316406,27090452.0,50354.0,0.21084392796430002,0.0931375354231,-0.055879022866890095,0.01052554825043362,0.004682796416343514,-0.0028603530214246753,27.090452241012827
1630,D,1556921152958065.0,4.03627,1.7632446,8.720663885850378,157,1970-01-19 00:28:41.152958065,0.11842346,-0.021835327,-0.025543213,9.684093250466466,0.12309895659156456,22.86311149597168,63.57270050048828,-83.8317642211914,27140806.0,50354.0,0.20903256114620003,0.09029313615340001,-0.05368311010389011,0.01057123036633506,0.004618234018281541,-0.0027584458218053334,27.140806244919077
1630,D,1556921203312069.0,4.1595764,1.9216919,8.63890788585038,157,1970-01-19 00:28:41.203312069,0.06803894,-0.024124146,-0.042816162,9.838344165194242,0.08393149292704831,22.9121150970459,63.539485931396484,-83.7920150756836,27191160.0,50354.0,0.20634682481280003,0.09277564626050001,-0.05640726150389007,0.010458006800289745,0.004609122734834761,-0.0027717452859690817,27.191160249058157
1630,D,1556921253666073.0,4.018799,1.791153,8.77466488585038,157,1970-01-19 00:28:41.253666073,0.051620483,-0.013824463,-0.04547119,9.633877084243393,0.0701670803326443,22.938369750976562,63.52198028564453,-83.77186584472656,27241514.0,50354.0,0.2059069574458,0.0934782960473,-0.05504767832689004,0.010379313475924775,0.004689315505483481,-0.002806101020119551,27.241514252964407
1630,D,1556921304020077.0,4.0888214,1.8172607,8.623053885850378,157,1970-01-19 00:28:41.304020077,0.041793823,-0.017684937,-0.05596924,9.802818216236771,0.07205578716402242,22.960798263549805,63.505348205566406,-83.75496673583984,27291868.0,50354.0,0.20412555881079997,0.0908490317249,-0.05544683448489006,0.010323388661792419,0.00464080913132068,-0.002781920349062188,27.291868256870657
1630,D,1556921354374081.0,4.1092834,1.867096,8.72223588585038,157,1970-01-19 00:28:41.354374081,0.05206299,-0.020935059,-0.034179688,9.73274369247298,0.06570451046047696,22.997703552246094,63.47688674926758,-83.72517395019531,27342222.0,50354.0,0.2064036845496,0.09276104863590001,-0.05676683941789006,0.01033589476008479,0.004622750993243862,-0.002825203667850295,27.342222261009738
1630,D,1556921404728085.0,4.156311,1.879364,8.693320885850378,157,1970-01-19 00:28:41.404728085,0.057403564,-0.04562378,-0.04411316,9.780617035323129,0.0855725969371977,23.029495239257812,63.44388961791992,-83.7005844116211,27392576.0,50354.0,0.2081028702088,0.09432462342,-0.05499772715889008,0.010436031529152238,0.004710255965351395,-0.0028138964927035934,27.392576264915988
1630,D,1556921455082088.0,4.0933533,1.8443756,8.70497788585038,157,1970-01-19 00:28:41.455082088,0.043792725,-0.050857544,-0.018981934,9.737003130905588,0.06974673012419949,23.05953025817871,63.419517517089844,-83.67652893066406,27442930.0,50354.0,0.20770179808109998,0.0937525919092,-0.05543223182489008,0.010468714133534812,0.0047352200503432695,-0.0027802950773346334,27.442930267890915
1630,D,1556921505436092.0,4.0572815,1.8536835,8.669363885850379,157,1970-01-19 00:28:41.505436092,0.02128601,0.0024719238,-0.020965576,9.755323218756798,0.02997932631005711,23.096939086914062,63.40450668334961,-83.64444732666016,27493284.0,50354.0,0.20520853235960002,0.09310603396070001,-0.05603539721389006,0.010395843389505504,0.004704539623526473,-0.0028064204963093673,27.493284272029996
1630,D,1556921555790096.0,4.173477,1.832367,8.676703885850378,157,1970-01-19 00:28:41.555790096,-0.0012054443,-0.012435913,-0.009185791,9.793713716315125,0.01550753959851957,23.111297607421875,63.375614166259766,-83.6318359375,27543638.0,50354.0,0.20722580675450003,0.09280369343850002,-0.056747251711890094,0.010383859355875697,0.00468064920672966,-0.002839528752004367,27.543638275936246
1630,D,1556921606144100.0,4.0884705,1.8516693,8.721075885850379,157,1970-01-19 00:28:41.606144100,-0.013153076,-0.011245728,-0.0027008057,9.722053224471347,0.017514684066260302,23.142230987548828,63.35356521606445,-83.60375213623047,27593992.0,50354.0,0.20801105220750002,0.0927529819251,-0.05544529868789009,0.010454418398086276,0.004671760415629358,-0.002824671841415266,27.593992280075327
1630,D,1556921656498104.0,4.1138306,1.8813934,8.668356885850379,157,1970-01-19 00:28:41.656498104,-0.035217285,0.00044250488,0.008300781,9.785160842910242,0.03618502367762124,23.17816925048828,63.331382751464844,-83.56990051269531,27644346.0,50354.0,0.20650933479470002,0.09398731959790001,-0.05565545110689006,0.010436379783554392,0.004701560571444571,-0.00279718357758318,27.644346283981577
1630,D,1556921706852108.0,4.2173615,1.7004852,8.875983885850378,157,1970-01-19 00:28:41.706852108,-0.028671265,0.0066223145,0.033355713,9.612698259711593,0.04448033358435506,23.147987365722656,63.29207992553711,-83.5948486328125,27694700.0,50354.0,0.20975442350169998,0.09018095751220001,-0.051755332390890085,0.010480272642628463,0.004636804712800989,-0.002704281296123611,27.694700287887827
1630,D,1556921757206112.0,4.141571,1.9648743,8.464773885850379,157,1970-01-19 00:28:41.757206112,-0.019729614,0.08668518,0.027404785,9.993687889819377,0.09303010448837312,23.209823608398438,63.281070709228516,-83.53738403320312,27745054.0,50354.0,0.21045284355250002,0.09228275613150001,-0.05688094158189009,0.010579558362623594,0.004593888918407435,-0.0027351354698126862,27.745054292026907
1630,D,1556921807560116.0,4.095459,1.9409637,8.782782885850379,157,1970-01-19 00:28:41.807560116,-0.07104492,-0.024749756,0.03767395,9.687809545177005,0.08413832413631991,23.26453399658203,63.25025177001953,-83.48477935791016,27795408.0,50354.0,0.20738370431000003,0.09833728332600002,-0.05922746315889006,0.010519870765534163,0.004799240733421479,-0.0029232613061586222,27.795408295933157
1630,D,1556921857914120.0,4.099106,1.92482,8.673666885850379,157,1970-01-19 00:28:41.857914120,-0.10298157,0.027893066,0.036010742,9.782720094551413,0.11260550799110948,23.312278747558594,63.23051452636719,-83.43656158447266,27845762.0,50354.0,0.20631456300500003,0.0973288362149,-0.05396816409789006,0.010415681276189756,0.00492628589168124,-0.002849926307443953,27.845762300072238
1630,D,1556921908268124.0,4.1287994,1.9137878,8.698920885850379,157,1970-01-19 00:28:41.908268124,-0.12599182,0.023803711,0.042999268,9.770682622749815,0.13523864984840592,23.351022720336914,63.206233978271484,-83.39527130126953,27896116.0,50354.0,0.20715397425580004,0.09664462858060001,-0.05607955767189006,0.010409897362615165,0.004883669923156304,-0.0027706714909977543,27.896116303978488
1630,D,1556921958622127.0,4.2346497,1.8116608,8.61179288585038,157,1970-01-19 00:28:41.958622127,-0.124572754,0.022369385,0.05871582,9.873463733242286,0.13952171136670857,23.346120834350586,63.18077087402344,-83.3926773071289,27946470.0,50354.0,0.2105665579907,0.0937956194022,-0.05763735936989005,0.010516949840370132,0.004794714123462956,-0.002863050820360898,27.946470306953415
1630,D,1556922008976131.0,4.121887,1.8201141,8.736166885850379,157,1970-01-19 00:28:42.008976131,-0.13174438,0.01600647,0.065078735,9.7168283634369,0.14781079288281193,23.35837173461914,63.160037994384766,-83.37438201904297,27996824.0,50354.0,0.2103925244959,0.0914371966573,-0.056699616827890056,0.01059848681976513,0.004663606609930032,-0.00287866204973151,27.996824311092496
1630,D,1556922059330135.0,4.126663,1.7940674,8.734564885850379,157,1970-01-19 00:28:42.059330135,-0.119888306,0.011398315,0.033798218,9.715430852711153,0.12508176142173721,23.359434127807617,63.14109420776367,-83.36724853515625,28047178.0,50354.0,0.20767374335,0.0909942476255,-0.05360858618389007,0.010525654425556225,0.004593076472708056,-0.0027772296272275884,28.047178314998746
1630,D,1556922109684139.0,4.134445,1.8755188,8.692557885850379,157,1970-01-19 00:28:42.109684139,-0.0978241,0.01524353,0.048721313,9.771281843516102,0.11034349137178355,23.38631248474121,63.12024688720703,-83.33776092529297,28097532.0,50354.0,0.207989916116,0.09238917175740001,-0.05470652997689007,0.010465163954375483,0.004617044349803274,-0.002727049679579962,28.097532318904996
1630,D,1556922160038143.0,4.171509,1.8767395,8.71219588585038,157,1970-01-19 00:28:42.160038143,-0.1026001,0.013641357,0.03982544,9.769899126833513,0.11090055370468196,23.406957626342773,63.09422302246094,-83.31383514404297,28147886.0,50354.0,0.209119003858,0.09447060721910001,-0.05526971428989006,0.0105015512781854,0.004704568655291341,-0.0027688719019047232,28.147886323044077
1630,D,1556922210392147.0,4.169647,1.8362732,8.709936885850379,157,1970-01-19 00:28:42.210392147,-0.08798218,0.0066375732,0.039093018,9.763408956984811,0.09650484667562599,23.4156551361084,63.070987701416016,-83.3012924194336,28198240.0,50354.0,0.21000528461200005,0.0934825207479,-0.05483216320689006,0.010552292210809193,0.0047320959028251605,-0.002772034969736433,28.198240326950327
1630,D,1556922260746151.0,4.150711,1.8227081,8.684027885850378,157,1970-01-19 00:28:42.260746151,-0.078323364,0.017730713,0.04096985,9.775740107270426,0.09015240507489174,23.423603057861328,63.053524017333984,-83.28970336914062,28248594.0,50354.0,0.20948165336600003,0.0921221721901,-0.055541348942890076,0.010561422637472109,0.004672969354100026,-0.002778873915395015,28.248594331089407
1630,D,1556922311100155.0,4.17894,1.7748566,8.688803885850378,157,1970-01-19 00:28:42.311100155,-0.069610596,0.020095825,0.02798462,9.774731484950602,0.07766991833683257,23.412885665893555,63.035648345947266,-83.29540252685547,28298948.0,50354.0,0.20971562322700002,0.0905758864519,-0.0560734144838901,0.010554129832781962,0.0045997890224296345,-0.0028101248987960448,28.298948334995657
1630,D,1556922361454159.0,4.1441345,1.8233337,8.700201885850378,157,1970-01-19 00:28:42.361454159,-0.070892334,0.014572144,0.017700195,9.758735436172811,0.07450749830562235,23.420082092285156,63.019039154052734,-83.28533172607422,28349302.0,50354.0,0.20955004668650004,0.0905916371831,-0.055666201685890114,0.01055585177141219,0.004561254742558395,-0.0028132683163065563,28.349302338901907
1630,D,1556922411808163.0,4.229187,1.8510742,8.758993885850378,157,1970-01-19 00:28:42.411808163,-0.07366943,0.01864624,0.037322998,9.748536926201574,0.08466329406756215,23.426170349121094,62.98701095581055,-83.27565002441406,28399656.0,50354.0,0.2108151154055,0.09251056769830002,-0.05389902805589011,0.010583533685990286,0.004609964212299008,-0.002758523789208801,28.399656343040988
1630,D,1556922462162167.0,4.086838,1.8491821,8.684851885850378,157,1970-01-19 00:28:42.462162167,-0.07192993,0.029434204,0.015853882,9.753044371188588,0.07931981322083682,23.448413848876953,62.97888946533203,-83.25204467773438,28450010.0,50354.0,0.20937256142500002,0.09316135286510001,-0.0542854950058901,0.0105790651395615,0.004674661944024723,-0.00272376173712644,28.450010346947238
1630,D,1556922512516170.0,4.0934906,1.8470612,8.663031885850378,157,1970-01-19 00:28:42.512516170,-0.06512451,0.030044556,0.028396606,9.774807700805312,0.07713782716862377,23.470043182373047,62.971527099609375,-83.22901916503906,28500364.0,50354.0,0.2059561331622,0.0930603175641,-0.056701530279890104,0.010456730543621935,0.004688502996395969,-0.002794320335620088,28.500364349922165
1630,D,1556922562870174.0,4.0876923,1.8157501,8.722815885850379,157,1970-01-19 00:28:42.562870174,-0.061645508,0.016571045,0.020736694,9.713403976491984,0.06711764795506264,23.481651306152344,62.962154388427734,-83.2153549194336,28550718.0,50354.0,0.2059776418733,0.09221860010010001,-0.05574571065189009,0.010371256654068784,0.004664767310031564,-0.00283108418493943,28.550718354061246
1630,D,1556922613224178.0,4.1586914,1.8261108,8.694342885850379,157,1970-01-19 00:28:42.613224178,-0.041748047,-0.0036621094,0.01399231,9.770632068105655,0.044182521574802375,23.48642349243164,62.945133209228516,-83.20899200439453,28601072.0,50354.0,0.20761920241489998,0.0916911318793,-0.054957393604890076,0.01041312774864401,0.004630295322045354,-0.0027871720558729544,28.601072357967496
1630,D,1556922663578182.0,4.1688232,1.7696381,8.693411885850379,157,1970-01-19 00:28:42.663578182,-0.036346436,0.014160156,0.019058228,9.765381235673232,0.04341416223246069,23.474502563476562,62.93103790283203,-83.21746063232422,28651426.0,50354.0,0.20966183508420003,0.09053017005530001,-0.05569769811289006,0.010505884681114842,0.004587785718807425,-0.002785963244178551,28.651426361873746
1630,D,1556922713932186.0,4.0670624,1.805542,8.734473385850379,157,1970-01-19 00:28:42.713932186,-0.049850464,0.023254395,0.014770508,9.692477780257223,0.05695615466663269,23.485946655273438,62.92532730102539,-83.20454406738281,28701780.0,50354.0,0.2073548917512,0.0900123093777,-0.054687332514390063,0.010499230131534866,0.004545518004684642,-0.002779163916103032,28.701780366012827
1630,D,1556922764286190.0,4.1480103,1.8548737,8.682196885850379,157,1970-01-19 00:28:42.764286190,-0.046035767,0.0385437,0.011520386,9.782264265832413,0.061136142718994674,23.501659393310547,62.91182327270508,-83.18791198730469,28752134.0,50354.0,0.2068308853679,0.0921582860789,-0.05496969256939006,0.01042795531052758,0.0045865090818108184,-0.0027608349205343326,28.752134369919077
1630,D,1556922814640194.0,4.1661224,1.80336,8.700232885850378,157,1970-01-19 00:28:42.814640194,-0.038513184,0.030593872,0.013031006,9.76435701596914,0.050882781597926384,23.49965476989746,62.89753341674805,-83.18743133544922,28802488.0,50354.0,0.2093249189879,0.09210334986490001,-0.055831765637890086,0.010477554686265978,0.004639155208157053,-0.0027896483132846925,28.802488374058157
1630,D,1556922864994198.0,4.167206,1.8132935,8.683829885850379,157,1970-01-19 00:28:42.864994198,-0.0309906,0.031936646,0.0058898926,9.781180757700128,0.04488939163019311,23.500274658203125,62.88426971435547,-83.18504333496094,28852842.0,50354.0,0.20980820912679998,0.0910564851695,-0.05579065159689009,0.010552514766543803,0.00461141516666109,-0.0028103175987200606,28.852842377964407
1630,D,1556922915348202.0,4.1066284,1.867096,8.667959885850378,157,1970-01-19 00:28:42.915348202,-0.024475098,0.029388428,0.0056152344,9.779747603232282,0.038655413330964804,23.524707794189453,62.876766204833984,-83.16184997558594,28903196.0,50354.0,0.2083103286888,0.0926611664415,-0.05660318891789009,0.01052697042658336,0.004625459314610147,-0.002829739722640621,28.903196381870657
1630,D,1556922965702206.0,4.054825,1.8036041,8.658804885850378,157,1970-01-19 00:28:42.965702206,-0.02166748,0.026794434,-0.0012054443,9.754310582827564,0.03448005914860295,23.535911560058594,62.87955856323242,-83.15070343017578,28953550.0,50354.0,0.20548091225179999,0.09241721641770001,-0.057233243342890115,0.010418022073161486,0.00465971844524608,-0.002866059855029663,28.953550386009738
1630,D,1556923016056210.0,4.0519104,1.8150482,8.694083385850378,157,1970-01-19 00:28:43.016056210,-0.00894165,0.008743286,-0.0053253174,9.723822492823677,0.01359254060913701,23.550207138061523,62.878902435302734,-83.13761138916016,29003904.0,50354.0,0.2041032771658,0.09110680895710001,-0.0565755319833901,0.010312101136966916,0.00462058438686134,-0.002865363536389757,29.003904389915988
1630,D,1556923066410213.0,3.9932404,1.7636719,8.615164885850378,157,1970-01-19 00:28:43.066410213,0.00730896,0.00579834,-0.010375977,9.760560151217847,0.013953585264788723,23.556716918945312,62.893245697021484,-83.1323013305664,29054258.0,50354.0,0.20255276169160003,0.09010143595770001,-0.057674256263390095,0.010238379090312761,0.004562279982219921,-0.0028764669186891853,29.054258392890915
1630,D,1556923116764217.0,4.074478,1.8129883,8.709448885850378,157,1970-01-19 00:28:43.116764217,0.017578125,-0.0013885498,-0.0027923584,9.719209063086199,0.017852613660099062,23.56812858581543,62.88809585571289,-83.12299346923828,29104612.0,50354.0,0.20312094615680001,0.09004957385540001,-0.0572873990698901,0.010213646942499169,0.004535661974064419,-0.0028943895963259958,29.104612397029996
1630,D,1556923167118221.0,4.1030884,1.8245239,8.670355885850379,157,1970-01-19 00:28:43.167118221,0.020812988,0.009780884,-0.013031006,9.768094265923459,0.02643205021714426,23.578598022460938,62.88241958618164,-83.11479187011719,29154966.0,50354.0,0.2058865892528,0.0915816446594,-0.05589785526289009,0.010297582719007499,0.0045729291885471205,-0.002849665148336407,29.154966400936246
1630,D,1556923217472225.0,4.0240326,1.8459778,8.679983885850378,157,1970-01-19 00:28:43.217472225,0.022384644,0.011169434,-0.01953125,9.730620106196552,0.03173796259134464,23.604970932006836,62.884761810302734,-83.09262084960938,29205320.0,50354.0,0.20461652541699998,0.0924122213009,-0.05663969556789009,0.010335236918041555,0.004632413563282473,-0.002833357917266553,29.205320405075327
1630,D,1556923267826229.0,4.1587524,1.8862762,8.618353885850379,157,1970-01-19 00:28:43.267826229,0.021453857,0.015396118,-0.026016235,9.849346017797993,0.03706956855996031,23.624462127685547,62.873374938964844,-83.07662200927734,29255674.0,50354.0,0.20601797794499999,0.09396695895800002,-0.057948949921890085,0.010338544891145074,0.004692468621378326,-0.0028849983274961957,29.255674408981577
1630,D,1556923318180233.0,3.960907,1.8252869,8.636053885850378,157,1970-01-19 00:28:43.318180233,0.032562256,-0.00038146973,0.009490967,9.740030802399016,0.03391938221075866,23.654359817504883,62.88642883300781,-83.05126953125,29306028.0,50354.0,0.2044286647138,0.09344602416870001,-0.059054975531890076,0.010333815122220608,0.004718496676180926,-0.0029458078311498234,29.306028412887827
1630,D,1556923368534237.0,3.946045,1.849289,8.639075885850378,157,1970-01-19 00:28:43.368534237,0.017211914,0.015716553,-0.008102417,9.735823335345964,0.0246760852443635,23.690845489501953,62.90054702758789,-83.0195541381836,29356382.0,50354.0,0.19907333050400003,0.0925147974343,-0.058533257737890095,0.010158969733598552,0.004681935605498732,-0.0029605189490332557,29.356382417026907
1630,D,1556923418888241.0,4.028885,1.8057251,8.612555885850378,157,1970-01-19 00:28:43.418888241,0.00074768066,-0.00642395,-0.0041046143,9.785200262052689,0.007659896769774546,23.701448440551758,62.90735626220703,-83.01033782958984,29406736.0,50354.0,0.20078481261,0.0920222899957,-0.0591248668838901,0.01006722846918118,0.00464609025022511,-0.00296227860360256,29.406736420933157
1630,D,1556923469242245.0,3.991043,1.8467255,8.621802885850379,157,1970-01-19 00:28:43.469242245,0.00932312,-0.0053100586,-0.0051879883,9.769083454937993,0.011917739360750043,23.729154586791992,62.91579818725586,-82.98624420166016,29457090.0,50354.0,0.20191772725600002,0.0919577487562,-0.05955974920489008,0.010138841846206283,0.004632065435656587,-0.0029881225792672186,29.457090425072238
1630,D,1556923519596249.0,4.0955353,1.8828888,8.667883885850378,157,1970-01-19 00:28:43.519596249,0.00050354004,-0.010543823,-0.0052948,9.778190909062502,0.011809346428452855,23.752609252929688,62.90633773803711,-82.96558380126953,29507444.0,50354.0,0.2035957818591,0.0939004992311,-0.058166756148890095,0.010209613618990874,0.004679353109576252,-0.002964000225292124,29.507444428978488
1630,D,1556923569950252.0,4.056732,1.9075317,8.628317885850379,157,1970-01-19 00:28:43.569950252,-0.0021362305,-0.013092041,-0.0035552979,9.801953970792654,0.013733359437972766,23.787588119506836,62.90293884277344,-82.9345474243164,29557798.0,50354.0,0.2052496338121,0.0954314169285,-0.05800272799389009,0.010293501030353805,0.0047668096531502495,-0.0029247991022627773,29.557798431953415
1630,D,1556923620304256.0,4.0269623,1.8794861,8.659872885850378,157,1970-01-19 00:28:43.620304256,-0.006942749,-0.021118164,-0.004501343,9.75614278105228,0.022681285307749776,23.816795349121094,62.902164459228516,-82.90850830078125,29608152.0,50354.0,0.20352317139110004,0.09534574715060001,-0.05820442094089009,0.010291672916600967,0.004803196660019501,-0.002925747388730961,29.608152436092496
1630,D,1556923670658260.0,4.0727386,1.8984222,8.683279885850379,157,1970-01-19 00:28:43.670658260,-0.012084961,-0.026916504,-0.00038146973,9.758001440900069,0.029507456500153368,23.844772338867188,62.89304733276367,-82.88333129882812,29658506.0,50354.0,0.2039261695593,0.09511639726910001,-0.05682064266689009,0.010258352057108223,0.004795265410054788,-0.0028959860264530816,29.658506439998746
1630,D,1556923721012264.0,4.01915,1.8846893,8.666296885850379,157,1970-01-19 00:28:43.721012264,-0.015014648,-0.02178955,-0.00016784668,9.74820508386844,0.026462281010419173,23.87507438659668,62.89262390136719,-82.85586547851562,29708860.0,50354.0,0.20372947928220003,0.0952473982355,-0.05665890561889007,0.010263546270882449,0.004792789279419315,-0.0028570745871910872,29.708860443904996
1630,D,1556923771366268.0,4.0473785,1.8703613,8.672156885850379,157,1970-01-19 00:28:43.771366268,-0.024154663,-0.018829346,0.006790161,9.751908766214127,0.031370341117641774,23.896982192993164,62.88920974731445,-82.83531188964844,29759214.0,50354.0,0.20309098804450001,0.0945409089562,-0.05693894938989006,0.010242518905884328,0.004778300210165431,-0.0028600531955560574,29.759214448044077
1630,D,1556923821720272.0,4.0985565,1.8721924,8.656454885850378,157,1970-01-19 00:28:43.821720272,-0.03211975,-0.01133728,0.0041503906,9.787547310838912,0.03431381645916799,23.91180419921875,62.881134033203125,-82.82072448730469,29809568.0,50354.0,0.205090205495,0.09422627450490001,-0.05718674142389008,0.010276777909743993,0.004752591378000115,-0.0028733425176185427,29.809568451950327
1630,D,1556923872074276.0,4.0655212,1.8749847,8.711279885850379,157,1970-01-19 00:28:43.872074276,-0.033813477,-0.008163452,0.006576538,9.7255918616868,0.03540118680851359,23.93175506591797,62.873451232910156,-82.8013916015625,29859922.0,50354.0,0.20554698425290002,0.0943426778467,-0.056201741652890075,0.010338612526282879,0.004747600513356234,-0.002854781838424094,29.859922456089407
1630,D,1556923922428280.0,4.0864105,1.8647614,8.666693885850378,157,1970-01-19 00:28:43.922428280,-0.039108276,-0.008743286,0.008926392,9.771953587010184,0.04105584947248852,23.94529151916504,62.86693572998047,-82.78750610351562,29910276.0,50354.0,0.20524118441090003,0.0941555875597,-0.05594395434989007,0.010342413722448495,0.004745820828136933,-0.002823492188261996,29.910276459995657
1630,D,1556923972782284.0,4.142029,1.8671722,8.676901885850379,157,1970-01-19 00:28:43.972782284,-0.04008484,-0.008834839,0.008636475,9.786759058782577,0.04194564909984283,23.951847076416016,62.8531608581543,-82.77980041503906,29960630.0,50354.0,0.2071674212915,0.0939588922472,-0.05680948925589008,0.010383211465769326,0.004736158258098321,-0.0028387934496627272,29.960630463901907
1630,D,1556924023136288.0,4.1157227,1.8871918,8.68440888585038,157,1970-01-19 00:28:44.023136288,-0.039138794,-0.0064697266,0.008468628,9.772844757373287,0.04056377963473778,23.9676570892334,62.84138488769531,-82.76384735107422,30010984.0,50354.0,0.2079054145509,0.094523622428,-0.056363478700890056,0.010450288788004105,0.004745424271977511,-0.0028493558142478536,30.010984468040988
1630,D,1556924073490292.0,4.121872,1.8598022,8.709448885850378,157,1970-01-19 00:28:44.073490292,-0.040359497,-0.009994507,0.009689331,9.747995705326549,0.04269264929110887,23.974170684814453,62.82874298095703,-82.75615692138672,30061338.0,50354.0,0.20739792176189997,0.09433806793800001,-0.05554404288189008,0.010456092098347365,0.004754970778344783,-0.0028174956708896556,30.061338471947238
1630,D,1556924123844295.0,4.1189423,1.8652039,8.692847885850378,157,1970-01-19 00:28:44.123844295,-0.038986206,-0.0070495605,0.009246826,9.762499449351765,0.04068321954555554,23.982608795166016,62.817752838134766,-82.74679565429688,30111692.0,50354.0,0.2074789816311,0.0937844785797,-0.0553315741788901,0.01044535579672556,0.004736361353676133,-0.0027915154107392625,30.111692474922165
1630,D,1556924174198299.0,4.1080933,1.8691711,8.70003388585038,157,1970-01-19 00:28:44.174198299,-0.038101196,-0.00048828125,0.009689331,9.752315451170613,0.03931695169309389,23.993770599365234,62.80791473388672,-82.7349853515625,30162046.0,50354.0,0.20713207530120004,0.094020359375,-0.05556861563389007,0.01043866258038452,0.004728362405185482,-0.0027921340789163664,30.162046479061246
1630,D,1556924224552303.0,4.136017,1.8235168,8.684805885850379,157,1970-01-19 00:28:44.224552303,-0.03895569,0.004135132,0.0095825195,9.76897139517013,0.04032951499834091,23.987733840942383,62.79866027832031,-82.73835754394531,30212400.0,50354.0,0.20756196502309998,0.09297080325830001,-0.05577108906789006,0.010440751853244902,0.0047078765016185945,-0.002803199745276718,30.212400482967496
1630,D,1556924274906307.0,4.13768,1.8791351,8.671530885850379,157,1970-01-19 00:28:44.274906307,-0.033828735,0.00091552734,0.01008606,9.791966294443013,0.03531218073603091,23.998083114624023,62.787261962890625,-82.72744750976562,30262754.0,50354.0,0.20830686936899998,0.09322166688630001,-0.056488709098890075,0.010470329643489902,0.004687767820830595,-0.0028263649384450236,30.262754486873746
1630,D,1556924325260311.0,4.13826,1.8625183,8.72231188585038,157,1970-01-19 00:28:44.325260311,-0.028411865,-0.01020813,0.007522583,9.744070085043717,0.031113168367541966,24.002859115600586,62.773033142089844,-82.72186279296875,30313108.0,50354.0,0.20836334137999998,0.09420360765180001,-0.05554442053689006,0.010490505896027572,0.004718806137045745,-0.0028206581048400366,30.313108491012827
1630,D,1556924375614315.0,4.1125793,1.8420868,8.677817885850379,157,1970-01-19 00:28:44.375614315,-0.03187561,0.0013580322,0.0057678223,9.768757831153955,0.03242169857383654,24.00499153137207,62.76689529418945,-82.71842193603516,30363462.0,50354.0,0.20773138105609998,0.09327084260270001,-0.05538613273789005,0.010476016826773689,0.004720044234057547,-0.002792898539799139,30.363462494919077
1630,D,1556924425968319.0,4.1153717,1.8625336,8.687659885850378,157,1970-01-19 00:28:44.425968319,-0.025390625,0.0015411377,0.004638672,9.765082832076482,0.02585684089800164,24.01292610168457,62.75885009765625,-82.71013641357422,30413816.0,50354.0,0.20715512232700004,0.0932712278108,-0.056258566141890086,0.01044559749567631,0.00469656970680069,-0.0028108785836962248,30.413816499058157
1630,D,1556924476322323.0,4.1206055,1.8505249,8.701758885850378,157,1970-01-19 00:28:44.476322323,-0.023223877,-0.0063934326,0.0053863525,9.752509166101117,0.024682731546085575,24.016319274902344,62.74969482421875,-82.7060317993164,30464170.0,50354.0,0.20735719796440003,0.0934836738545,-0.05565580358489011,0.01043617668797658,0.004701928159227258,-0.0028176680866111455,30.464170502964407
