Subject-id_accel,Activity_accel,Timestamp_accel,accel_x,accel_y,accel_z,Segment_accel,DateTime,gyro_x,gyro_y,gyro_z,accel_magnitude,gyro_magnitude,Roll,Pitch,Yaw,Time_Difference,Difference_Microseconds,vx,vy,vz,dx,dy,dz,Time_diff
1639,D,180937054807080.0,0.8891467,9.465675723200892,2.3942079396499025,202,1970-01-03 02:15:37.054807080,0.02414475,-0.0035846147,0.004248541,9.76558557999635,0.024776370108202637,-103.89642333984375,-5.640849590301514,26.603609085083008,15032489.0,49880.0,0.042798139854,0.4762082867132605,-0.3723864728762629,0.0021437064220322403,0.023768161351448637,-0.018611867292545995,15.03248925000662
1639,D,180937104687040.0,0.8891467,9.51595372320089,2.4277267396499025,202,1970-01-03 02:15:37.104687040,0.0166879,0.0028069718,0.0010527476,9.709113703817478,0.016955039799578797,-103.88377380371094,-5.631175518035889,26.60230255126953,15082369.0,49880.0,0.044350637396,0.4734018383932605,-0.36856494909826293,0.002173490504615,0.023683276520156633,-0.018479328464044677,15.082369209994795
1639,D,180937154567000.0,0.85802203,9.503982723200892,2.4205441396499023,202,1970-01-03 02:15:37.154567000,0.025210015,0.0017417073,0.007444334,9.719573194411073,0.02634381349240566,-103.87163543701172,-5.616674900054932,26.601058959960938,15132249.0,49880.0,0.043574388126199994,0.47435721497326044,-0.3679081242702629,0.002192850136523668,0.023637110790961036,-0.018367638449811034,15.132249170012074
1639,D,180937204446960.0,0.86041623,9.647634723200891,2.4229383396499027,202,1970-01-03 02:15:37.204446960,0.025210015,0.008133294,0.015966449,9.580124945416332,0.030929319767176614,-103.86443328857422,-5.604401588439941,26.59989356994629,15182129.0,49880.0,0.0428578502044,0.47764133911326045,-0.3680275469662629,0.0021556200239651636,0.023742843938917832,-0.018354235640638955,15.182129130000249
1639,D,180937254326920.0,0.9011177,9.614115723200891,2.4349093396499026,202,1970-01-03 02:15:37.254326920,0.044384774,0.0028069718,0.010640128,9.613506453817761,0.045728542263814356,-103.85356140136719,-5.598274230957031,26.59878921508789,15232009.0,49880.0,0.043932656214200005,0.4803880561332605,-0.3676692788782629,0.0021645552300798843,0.023893253117448235,-0.018348278836562475,15.232009090017527
1639,D,180937304206880.0,0.86759883,9.41779172320089,2.4492745396499025,202,1970-01-03 02:15:37.304206880,0.008165784,0.0017417073,-0.0010777813,9.797379906063783,0.008418740118578254,-103.83599853515625,-5.585409641265869,26.597047805786133,15281889.0,49880.0,0.0441117902582,0.47465577171326045,-0.3670124540502629,0.0021958284950216564,0.023818793066492233,-0.018322962419237435,15.281889050005702
1639,D,180937354086840.0,0.85562783,9.535106723200892,2.4301209396499024,202,1970-01-03 02:15:37.354086840,0.018818429,0.008133294,0.0010527476,9.686991050517113,0.020527835220202417,-103.8250503540039,-5.572508335113525,26.59566879272461,15331769.0,49880.0,0.0429772729004,0.4726852872532605,-0.3671318767462629,0.002172001235175484,0.023626686010625033,-0.018309559610065355,15.331769009993877
1639,D,180937403974270.0,0.86759883,9.499194723200892,2.3439297396499024,202,1970-01-03 02:15:37.403974270,-0.011008975,0.0091985585,-0.00320831,9.74308706812117,0.014700485096915928,-103.82701873779297,-5.561182022094727,26.595401763916016,15381656.0,49887.0,0.04298330419371,0.4747820981283229,-0.3698110668808854,0.002144157654746933,0.023633152727265527,-0.018381936314363773,15.381656440004008
1639,D,180937453861700.0,0.881964,9.56383772320089,2.4564571396499026,202,1970-01-03 02:15:37.453861700,0.017753165,0.0070680296,0.009574863,9.655448647082775,0.02137311187947301,-103.81352233886719,-5.552802085876465,26.593725204467773,15431543.0,49887.0,0.043640220450104995,0.47549874982682294,-0.3691541498761854,0.0021606938869529993,0.02370333033096918,-0.018432378884179996,15.431543870014139
1639,D,180937503749130.0,0.8867524,9.527924723200892,2.5306775396499024,202,1970-01-03 02:15:37.503749130,0.03586266,0.0017417073,-0.00320831,9.673987560814348,0.03604798440482592,-103.78752899169922,-5.545660972595215,26.591339111328125,15481431.0,49888.0,0.044118861881600004,0.47622492246304604,-0.3645033125595457,0.0021890625496820497,0.023739795281598492,-0.018300351742996875,15.481431299995165
1639,D,180937553636560.0,0.84844524,9.47525272320089,2.4349093396499026,202,1970-01-03 02:15:37.553636560,0.0060352557,-0.00038882153,-0.018122012,9.743261433756569,0.019104523351152158,-103.77574157714844,-5.5327911376953125,26.590465545654297,15531318.0,49887.0,0.04328190233334,0.4740057566343229,-0.3650334836761854,0.002180080962195356,0.023702078944065223,-0.01819720107690596,15.531318730005296
1639,D,180937603523990.0,0.85083944,9.544683723200892,2.5474369396499026,202,1970-01-03 02:15:37.603523990,0.00710052,0.006002765,-0.011730426,9.650782323661511,0.014968415616126544,-103.75022888183594,-5.521581172943115,26.587886810302734,15581206.0,49888.0,0.04238695705792,0.4744332947190461,-0.3646227544091457,0.0021369240286555893,0.023657863696958437,-0.0182005452028005,15.581206160015427
1639,D,180937653411420.0,0.9681553,9.386666723200891,2.4037847396499026,202,1970-01-03 02:15:37.653411420,0.017753165,0.0049375007,-0.0010777813,9.847338126901896,0.01845847754313327,-103.74019622802734,-5.524712562561035,26.586782455444336,15631093.0,49887.0,0.045372095297189996,0.4722141398598229,-0.36539180204238536,0.0021890179224196863,0.02361270028441802,-0.018209118088848765,15.631093589996453
1639,D,180937703298850.0,0.84605104,9.559048723200892,2.5234949396499027,202,1970-01-03 02:15:37.703298850,0.0039047268,0.0070680296,-0.0010777813,9.641714174095,0.008146505161094792,-103.71967315673828,-5.512597560882568,26.58449935913086,15680981.0,49888.0,0.04525356294496,0.4725819260950461,-0.3659963356795457,0.0022605664191921895,0.023566993069178255,-0.018243745707335852,15.680981020006584
1639,D,180937753186280.0,0.9011177,9.44891572320089,2.5115239396499023,202,1970-01-03 02:15:37.753186280,0.0049699913,0.0038722362,-0.0064041032,9.756254518716588,0.008983738893518464,-103.6977310180664,-5.507644176483154,26.58230209350586,15730868.0,49887.0,0.04358050346619,0.47412516116882286,-0.36330160658418537,0.0022158325355265203,0.023614188231166316,-0.01819124322285538,15.730868450016715
1639,D,180937803073710.0,0.8987235,9.501588723200891,2.4756107396499023,202,1970-01-03 02:15:37.803073710,-0.009943711,-0.00038882153,-0.0021430457,9.712966538587493,0.010179450648537033,-103.68401336669922,-5.502786159515381,26.58098602294922,15780755.0,49887.0,0.0448943389722,0.4726919076588228,-0.3644960061268854,0.002206872232361981,0.02361693155630238,-0.018153819752658593,15.780755879997741
1639,D,180937852961140.0,0.9130887,9.525530723200891,2.4995529396499023,202,1970-01-03 02:15:37.852961140,-0.014204768,0.0028069718,-0.010665162,9.685695825319183,0.01798333131280362,-103.66820526123047,-5.501012325286865,26.579391479492188,15830643.0,49888.0,0.045193843516799996,0.47461246747104613,-0.3648019171835457,0.002247159624005616,0.02362956033323945,-0.018191607399055395,15.830643310007872
1639,D,180937902848570.0,0.86281043,9.47525272320089,2.5378601396499025,202,1970-01-03 02:15:37.902848570,0.00070893345,0.0038722362,-0.00320831,9.721399770221208,0.0050783907767342346,-103.64481353759766,-5.491004467010498,26.577003479003906,15880530.0,49887.0,0.044297139949155004,0.4739460418953229,-0.36324188685648534,0.0022322183460830483,0.023660369178380027,-0.018159960626072513,15.880530740018003
1639,D,180937952736000.0,0.8867524,9.453704723200891,2.4684281396499026,202,1970-01-03 02:15:37.952736000,-0.0014215953,-0.00038882153,-0.011730426,9.759930183466249,0.01182264816023253,-103.63143920898438,-5.484622001647949,26.57587432861328,15930418.0,49888.0,0.04364109523152,0.47216391454304607,-0.3640255451611457,0.0021935313383467576,0.023599766753398678,-0.01814095882424779,15.93041816999903
1639,D,180938002623430.0,0.9346365,9.43933872320089,2.4756107396499023,202,1970-01-03 02:15:38.002623430,-0.016335297,0.0017417073,-0.014926218,9.776708930151306,0.022196113537748138,-103.61761474609375,-5.4854044914245605,26.574567794799805,15980305.0,49887.0,0.045431814027150005,0.4712586292053229,-0.36557096621418533,0.0022217901120936356,0.02353226021998744,-0.01819869058149057,15.98030560000916
1639,D,180938052510860.0,0.9442133,9.47525272320089,2.5402543396499024,202,1970-01-03 02:15:38.052510860,-0.025922677,-0.0025193503,-0.02238307,9.728437434534046,0.03434143461484012,-103.5965576171875,-5.48858642578125,26.572816848754883,16030193.0,49888.0,0.0468660294112,0.471805569039046,-0.3637866614619457,0.0023022774067262028,0.02352379336100754,-0.018193096664753414,16.030193029990187
1639,D,180938102398290.0,0.9106945,9.487222723200892,2.4684281396499026,202,1970-01-03 02:15:38.102398290,-0.011008975,-0.006780408,-0.01279569,9.729635524952618,0.018190688435933067,-103.58602142333984,-5.48618745803833,26.572235107421875,16080079.999999998,49886.99999999814,0.046267892709298264,0.47299050629730516,-0.36395852857757177,0.0023230859864125613,0.023566520905151392,-0.018152512147750027,16.080080460000318
1639,D,180938152285720.0,0.9681553,9.511164723200892,2.4516687396499024,202,1970-01-03 02:15:38.152285720,-0.0014215953,-0.006780408,-0.017056748,9.715802320549205,0.01840998419822652,-103.57849884033203,-5.4927568435668945,26.57203483581543,16129967.0,49887.00000000186,0.04686508998630175,0.47388627726934063,-0.366168163491199,0.0023230625538677857,0.02361842105089551,-0.018211915143618064,16.129967890010448
1639,D,180938202173150.0,0.9681553,9.43933872320089,2.4612455396499024,202,1970-01-03 02:15:38.202173150,-0.0067479177,-0.007845673,-0.030905185,9.783206987514019,0.032591708117144264,-103.56766510009766,-5.49883508682251,26.57170295715332,16179855.0,49888.0,0.04829933160640001,0.4727013579670461,-0.3663546662171457,0.0023737813322083526,0.02361168197333643,-0.01827204946424495,16.179855319991475
1639,D,180938252060580.0,0.9705495,9.429762723200891,2.5234949396499027,202,1970-01-03 02:15:38.252060580,-0.013139504,-0.0025193503,-0.02025254,9.778856339243644,0.02427259911405711,-103.5481185913086,-5.504731178283691,26.57012176513672,16229742.000000002,49887.00000000186,0.0483580831788018,0.4706614319283404,-0.36455572585459894,0.0024109742256947717,0.02353076974975645,-0.01823146336464224,16.229742750001606
1639,D,180938301948010.0,0.9059061,9.492011723200891,2.4420919396499023,202,1970-01-03 02:15:38.301948010,0.0028394624,-0.0025193503,0.017031714,9.730548190930877,0.017449611870552304,-103.5420150756836,-5.499804496765137,26.56947898864746,16279630.000000002,49888.0,0.0468063084864,0.4719847417910461,-0.3650408008827457,0.002373780585696794,0.02351336615725638,-0.018199055762936327,16.279630180011736
1639,D,180938351835440.0,0.8939351,9.48482972320089,2.3966021396499024,202,1970-01-03 02:15:38.351835440,-0.008878446,-0.0014540859,0.0127706565,9.746921774484884,0.01562148637679805,-103.54291534423828,-5.493229389190674,26.569438934326172,16329517.0,49886.99999999814,0.04489433897219832,0.4733488446183051,-0.3681986342329716,0.002287335099883462,0.02357992831260077,-0.01828955784980821,16.329517609992763
1639,D,180938401722870.0,0.9106945,9.501588723200891,2.4732165396499024,202,1970-01-03 02:15:38.401722870,-0.004617389,-0.00038882153,0.0053138053,9.71462323276648,0.007050389359873725,-103.53316497802734,-5.490115642547607,26.568445205688477,16379404.999999998,49887.99999999814,0.04501468074239832,0.47359722172702834,-0.36742964286353197,0.0022426905877608147,0.023620622678917118,-0.0183495117438945,16.379405040002894
1639,D,180938451616980.0,0.9442133,9.494405723200892,2.4756107396499023,202,1970-01-03 02:15:38.451616980,-0.020596355,0.0038722362,-0.0021430457,9.724243488775564,0.02106648279487831,-103.52384185791016,-5.4923200607299805,26.567293167114258,16429299.0,49894.00000000186,0.046274384886601724,0.4738930734544029,-0.36550280586332146,0.0022773883202467492,0.023637040393892046,-0.018284465798389493,16.429299150011502
1639,D,180938501511090.0,0.94690675,9.41180572320089,2.4616945396499026,202,1970-01-03 02:15:38.501511090,-0.01207424,-0.0025193503,0.009574863,9.807715621501298,0.01561449323482767,-103.51358032226562,-5.493030548095703,26.566265106201172,16479192.999999998,49893.99999999814,0.04717777188734824,0.4716532569533677,-0.36579024519729414,0.0023313509550396427,0.023588544304681772,-0.018243567744808495,16.479193259991007
1639,D,180938551405200.0,0.9540894,9.493208723200892,2.4425409396499025,202,1970-01-03 02:15:38.551405200,-0.015270033,0.0038722362,0.015966449,9.733890116812113,0.022429793014633024,-103.50918579101562,-5.495598316192627,26.56539535522461,16529087.0,49894.00000000186,0.04742415095405177,0.47162339539440284,-0.36661523749792146,0.002360034169124494,0.023531922646120706,-0.018271319576798225,16.529087369999615
1639,D,180938601299310.0,0.91099375,9.533910223200891,2.4066279396499026,202,1970-01-03 02:15:38.601299310,0.028405808,0.0091985585,-0.005338839,9.698658436157553,0.030331610713556036,-103.50928497314453,-5.493319511413574,26.565160751342773,16578980.999999998,49893.99999999814,0.04652822934304826,0.47466953635586756,-0.36798898396809404,0.002343830031271667,0.023607169768373112,-0.018326171512912003,16.578981480008224
1639,D,180938651193420.0,0.92296475,9.41180572320089,2.4162047396499027,202,1970-01-03 02:15:38.651193420,-0.013139504,0.0091985585,-0.017056748,9.81578928856326,0.02341351524610182,-103.50590515136719,-5.491808891296387,26.56452751159668,16628875.0,49894.00000000186,0.04575176269950171,0.4726387757149029,-0.3686459931495215,0.0023021089614855797,0.02363250046123039,-0.018376832774153837,16.628875590016833
1639,D,180938701087530.0,0.9876082,9.375892723200892,2.3419845396499026,202,1970-01-03 02:15:38.701087530,0.029471073,0.0049375007,0.0010527476,9.874101555444891,0.029900356761134728,-103.50979614257812,-5.498027324676514,26.564786911010742,16678768.999999998,49893.99999999814,0.04766306338364822,0.46869671314236777,-0.3702586520492939,0.0023304196662962545,0.023483496440521456,-0.01843345418377416,16.678769699996337
1639,D,180938750981640.0,0.91578215,9.464477723200892,2.4664828396499026,202,1970-01-03 02:15:38.750981640,0.032666866,-0.006780408,0.017031714,9.752604605522,0.03745900891222585,-103.49872589111328,-5.494375228881836,26.56401252746582,16728663.000000002,49894.000000003725,0.04748387906145355,0.4700107215264204,-0.3690043642886353,0.002373630773178131,0.02341793437268401,-0.018442394468583697,16.728663810004946
1639,D,180938800875750.0,0.9684546,9.514756723200891,2.4473293396499023,202,1970-01-03 02:15:38.800875750,0.03799319,-0.012106731,0.014901185,9.713346801608115,0.04256877654204647,-103.4921646118164,-5.49920129776001,26.563980102539062,16778557.0,49893.99999999814,0.04700605420224824,0.4734749617343676,-0.3663763275629941,0.00235724036512948,0.023537137340306,-0.018345542119621916,16.778557920013554
1639,D,180938850769860.0,0.82480246,9.517150723200892,2.4712712396499024,202,1970-01-03 02:15:38.850769860,0.05503742,-0.02382464,0.0053138053,9.6922907693934,0.060207703810661206,-103.4815902709961,-5.483231067657471,26.564321517944336,16828452.0,49895.0,0.044737280504350004,0.47479851101910847,-0.36626421204791815,0.0022887668425928594,0.023657052461517347,-0.018277549861943233,16.82845202999306
1639,D,180938900663970.0,0.91578215,9.517150723200892,2.6316828396499026,202,1970-01-03 02:15:38.900663970,0.0316016,-0.018498316,0.002118012,9.665319648596828,0.0366788057633833,-103.4491958618164,-5.481786727905273,26.56224822998047,16878346.0,49894.0,0.04342236426567,0.4748487181833853,-0.36165780458370783,0.002199318658077689,0.02369084942691461,-0.018159470548909176,16.878346140001668
1639,D,180938950558080.0,0.985214,9.54348672320089,2.6580190396499024,202,1970-01-03 02:15:38.950558080,0.026275279,-0.006780408,0.0010527476,9.64100711232609,0.027156444846179895,-103.41481018066406,-5.491278648376465,26.559404373168945,16928240.0,49894.0,0.047424150954050004,0.47550572237538535,-0.3569990072171078,0.0022663480151863553,0.023708492228619652,-0.017928331483994947,16.928240250010276
1639,D,180939000452190.0,0.9684546,9.34237472320089,2.4880306396499026,202,1970-01-03 02:15:39.000452190,-0.015270033,0.0006764429,-1.2516857e-05,9.871269666820735,0.015285013558703786,-103.40140533447266,-5.4947686195373535,26.55801773071289,16978134.0,49894.0,0.048738170564200003,0.4711455855033853,-0.3605826986505078,0.002398961434915783,0.02361611017765169,-0.017901510816279408,16.97813435998978
1639,D,180939050346300.0,0.62847793,9.38786372320089,2.5071842396499027,202,1970-01-03 02:15:39.050346300,-0.004617389,-0.0142372595,0.048989646,9.795225477721878,0.05122504518741762,-103.38651275634766,-5.446834564208984,26.556697845458984,17028028.0,49894.0,0.039838675825910004,0.46726325852238526,-0.3643455744061078,0.0022097265868940745,0.023410485431910898,-0.018084785627943387,17.02802846999839
1639,D,180939100240410.0,0.60693014,9.426170723200892,2.6268945396499026,202,1970-01-03 02:15:39.100240410,0.0017741979,-0.012106731,0.106513925,9.730720001388407,0.10721444367528263,-103.35559844970703,-5.394783020019531,26.553144454956055,17077922.0,49894.0,0.030819725122290004,0.4693537173343853,-0.3608813366928078,0.0017627151284547455,0.023365783696698856,-0.018092235751184647,17.077922580006998
1639,D,180939150134520.0,0.8726865,9.667985723200891,2.5502801396499026,202,1970-01-03 02:15:39.150134520,-0.10155645,0.017720673,0.004248541,9.532385397751154,0.10317841290116897,-103.34965515136719,-5.391233444213867,26.55120277404785,17127816.0,49894.0,0.03691199631808,0.4763419208683853,-0.3598062232755078,0.0016897032547729107,0.023592269086244518,-0.01797899255852957,17.127816690015607
1639,D,180939200028630.0,1.2366052,9.56982372320089,2.4856365396499025,202,1970-01-03 02:15:39.200028630,-0.110078566,0.034764905,-0.071385235,9.681868245339226,0.13572671471851297,-103.35043334960938,-5.44377326965332,26.54989242553711,17177710.0,49894.0,0.0526205000399,0.4799256322593853,-0.3633301866015078,0.002233567186642527,0.023856006647878493,-0.01804008401720191,17.17771079999511
1639,D,180939249922740.0,1.1959038,9.162808723200891,2.3132541396499025,202,1970-01-03 02:15:39.249922740,-0.08451222,0.019851202,-0.044753622,10.109414632989361,0.09766919797096774,-103.36065673828125,-5.479927062988281,26.55002212524414,17227604.0,49894.0,0.060683802023,0.4673229816403852,-0.3692432742235078,0.0028266024235631664,0.023631011170957575,-0.018275510127201664,17.22760491000372
1639,D,180939299816850.0,1.0019734,9.263365223200891,2.2533989396499026,202,1970-01-03 02:15:39.299816850,0.057167947,-0.0025193503,0.04472859,10.00538997630379,0.07263035215057834,-103.37532043457031,-5.484420299530029,26.551307678222656,17277499.0,49895.0,0.054831541447,0.4596869745278585,-0.3750444223041682,0.002881819031217825,0.02312658088150726,-0.018568117309124194,17.27749902001233
1639,D,180939349710960.0,0.60693014,9.488419723200892,2.4114163396499024,202,1970-01-03 02:15:39.349710960,0.09658273,-0.042999398,0.08840443,9.717859132551112,0.13781333464596307,-103.37323760986328,-5.432040691375732,26.552631378173828,17327393.0,49894.0,0.04013731661238,0.4678007790578853,-0.3725880532273078,0.0023691881020073526,0.02313803698870355,-0.018651187367083735,17.327393129991833
1639,D,180939399605070.0,0.48243165,9.756571723200892,2.4138105396499023,202,1970-01-03 02:15:39.399605070,0.06036374,-0.049390987,0.026619093,9.450079910396033,0.08241254040353578,-103.38227844238281,-5.367554187774658,26.55585289001465,17377287.0,49894.0,0.02717630857513,0.4801048016133853,-0.3685862650421078,0.001679273007552812,0.02364740052100619,-0.01849007571786711,17.37728724000044
1639,D,180939449499180.0,0.81043726,9.751782723200892,2.5742221396499025,202,1970-01-03 02:15:39.449499180,-0.03337953,-0.017433053,-0.07777682,9.440179052862868,0.08641376099461305,-103.3718032836914,-5.360074520111084,26.556461334228516,17427181.0,49894.0,0.032253200697770004,0.48667491837438526,-0.3645247487495078,0.0014825879678310363,0.024118253674534913,-0.018288920461059434,17.42718135000905
1639,D,180939499399460.0,0.94211835,9.292095723200891,2.6556248396499025,202,1970-01-03 02:15:39.499399460,-0.022726884,0.015590145,-0.07671156,9.881962821295282,0.08151212986484944,-103.33444213867188,-5.3668012619018555,26.55298614501953,17477081.0,49900.0,0.043726262469499996,0.47514476723772453,-0.35853531786646986,0.0018956876060233865,0.023997401156022138,-0.018040348662068644,17.47708163000061
1639,D,180939549299740.0,1.0115502,9.11253072320089,2.4066279396499026,202,1970-01-03 02:15:39.549299740,-0.039771114,0.015590145,0.019162243,10.116577401361727,0.04681864678430027,-103.32819366455078,-5.375343322753906,26.551237106323242,17526981.0,49900.0,0.04874403032250001,0.45919542983772443,-0.3627167931564699,0.0023071338051604,0.023311787917032454,-0.017995240170022346,17.526981909992173
1639,D,180939599200020.0,0.7745243,9.519544723200891,2.4904248396499025,202,1970-01-03 02:15:39.599200020,0.027340544,0.0049375007,0.060707554,9.681483351816135,0.06676294909634649,-103.32022857666016,-5.352780342102051,26.549686431884766,17576882.0,49901.0,0.04456345181225001,0.4648795984254477,-0.3668458846300802,0.0023280683330030804,0.023056133992680278,-0.018202953592113318,17.57688219001284
1639,D,180939649100300.0,0.7170634,9.737417723200892,2.4138105396499023,202,1970-01-03 02:15:39.649100300,-0.01207424,0.010263823,-0.00320831,9.483504227733574,0.016168691573811067,-103.33326721191406,-5.327651023864746,26.550384521484375,17626782.0,49900.0,0.037215113115000004,0.4804612130377245,-0.3666593272864699,0.0020403751949348878,0.023586253246006144,-0.018300955037317927,17.6267824700044
1639,D,180939699000580.0,0.82240826,9.526726723200891,2.4114163396499024,202,1970-01-03 02:15:39.699000580,-0.049358495,0.018785939,-0.044753622,9.696579168707173,0.06922470090145302,-103.3406982421875,-5.318488597869873,26.550445556640625,17676682.0,49900.0,0.038409817917,0.4806404039377245,-0.3686305893614699,0.0018868420292484,0.02397948534353745,-0.0183454834203661,17.676682749995962
1639,D,180939748900860.0,0.8607155,9.301672723200891,2.3108599396499026,202,1970-01-03 02:15:39.748900860,-0.011008975,0.008133294,-0.008534633,9.941409763362167,0.016130342906638718,-103.35258483886719,-5.310210227966309,26.55120086669922,17726583.0,49901.0,0.04199477937388,0.46977798038744767,-0.37120664569333023,0.002006134904706102,0.023713413898105207,-0.018459308933234792,17.726583030016627
1639,D,180939798801140.0,0.8607155,9.46926672320089,2.3180425396499023,202,1970-01-03 02:15:39.798801140,-0.011008975,-0.0014540859,0.011705392,9.777620803328807,0.016134686183154223,-103.3690414428711,-5.303134441375732,26.552608489990234,17776483.0,49900.0,0.04294970345,0.4683349391877245,-0.37352888314146987,0.0021193648464558064,0.023405917343400546,-0.018581151444428262,17.77648331000819
1639,D,180939848701420.0,0.8559271,9.56024672320089,2.4401467396499026,202,1970-01-03 02:15:39.848701420,0.0028394624,-0.005715144,-0.005338839,9.66034170608146,0.008320373761416656,-103.37006378173828,-5.297828674316406,26.553054809570312,17826383.0,49900.0,0.042830232870000005,0.4747863604877244,-0.3703031774814699,0.002140209411184,0.02353087642690245,-0.018558609912542347,17.82638358999975
1639,D,180939898601700.0,0.88944596,9.471660723200891,2.4233873396499024,202,1970-01-03 02:15:39.898601700,0.00070893345,0.0017417073,-0.02238307,9.753048606200759,0.022461922303763367,-103.37052154541016,-5.297303676605225,26.553274154663086,17876283.0,49900.0,0.043547057847,0.47484609078772444,-0.3676748247214699,0.0021551134033891504,0.023693329659322446,-0.01841255115496335,17.876283869991312
1639,D,180939948501980.0,0.91578215,9.502784723200891,2.4449351396499024,202,1970-01-03 02:15:39.948501980,0.022014221,0.0038722362,-0.009599897,9.720383919152772,0.024326490947854367,-103.36784362792969,-5.300533771514893,26.553050994873047,17926184.0,49901.0,0.045041343958555,0.47342190111044763,-0.3675627199802302,0.0022103249192495,0.023659760531855343,-0.01834454435907977,17.926184150011977
1639,D,180939998402260.0,0.8391677,9.519544723200891,2.4281757396499026,202,1970-01-03 02:15:39.998402260,-0.007813182,0.0006764429,-0.0021430457,9.701080682398139,0.0081299466686057,-103.36972045898438,-5.292193412780762,26.553180694580078,17976084.0,49900.0,0.0437859987575,0.4746071196877245,-0.3674358835614699,0.0022162422007655723,0.023653324068914395,-0.018338215158365416,17.97608443000354
1639,D,180940048302540.0,0.89184016,9.471660723200891,2.4018395396499024,202,1970-01-03 02:15:40.048302540,-0.008878446,0.0017417073,-0.013860954,9.758258577989919,0.01655253435229498,-103.3737564086914,-5.291677951812744,26.553586959838867,18025984.0,49900.0,0.043188646107,0.4738305758877245,-0.3685111187814699,0.002170017389369275,0.023663520504607453,-0.018361877708456348,18.0259847099951
1639,D,180940098202820.0,0.8822633,9.502784723200891,2.3850801396499026,202,1970-01-03 02:15:40.098202820,-0.0067479177,0.008133294,-0.018122012,9.73117836710699,0.020978374186398557,-103.38103485107422,-5.290408134460449,26.554040908813477,18075884.0,49900.0,0.044263881327,0.4734124138877244,-0.3695863540014699,0.0021819405594783003,0.02363371259489745,-0.018415531945934347,18.075884990015766
1639,D,180940148103100.0,0.94211835,9.39744072320089,2.4138105396499023,202,1970-01-03 02:15:40.148103100,-0.01207424,-0.008910937,-0.0064041032,9.832071548831953,0.016315777872716312,-103.3807373046875,-5.295820713043213,26.554462432861328,18125785.0,49901.0,0.045519234358325,0.47157007500044773,-0.3692950781061302,0.0022401336279067015,0.02357778558900434,-0.018435461171800675,18.125785270007327
1639,D,180940198003380.0,0.8439561,9.572217723200891,2.4257815396499023,202,1970-01-03 02:15:40.198003380,0.014557371,-0.0014540859,0.0053138053,9.651022942482792,0.015564958817887308,-103.38334655761719,-5.288571834564209,26.55478286743164,18175685.0,49900.0,0.044562557527500005,0.4732929782377244,-0.3682721776214699,0.002247540707551334,0.023574333178292394,-0.018402303030403622,18.17568554999889
1639,D,180940247903660.0,0.90620536,9.557852223200891,2.3802917396499024,202,1970-01-03 02:15:40.247903660,-0.013139504,-0.0046498794,-0.010665162,9.681241620429502,0.017550316928386347,-103.39337921142578,-5.2910990715026855,26.555994033813477,18225585.0,49900.0,0.043666528427,0.4772952451627245,-0.36910847168146993,0.002201315694564775,0.0237171761738412,-0.018397647200108346,18.22558582999045
1639,D,180940297803940.0,0.8702923,9.476449723200892,2.4449351396499024,202,1970-01-03 02:15:40.297803940,-0.015270033,0.0028069718,-0.015991483,9.74173073350467,0.02228857391235189,-103.39110565185547,-5.287766456604004,26.555763244628906,18275486.0,49901.0,0.04432450486583,0.47491535071369767,-0.3686379767480302,0.0021954202761727552,0.023758130472414672,-0.018407142761540245,18.275486110011116
1639,D,180940347704220.0,0.91338795,9.428565723200892,2.3204367396499026,202,1970-01-03 02:15:40.347704220,-0.025922677,0.0070680296,-0.013860954,9.821151584798425,0.03023356199760328,-103.40555572509766,-5.289742946624756,26.556793212890625,18325386.0,49900.0,0.044502822237499996,0.4716801353877245,-0.3701239716114699,0.0022162418112280833,0.023617557378230482,-0.01843211061156953,18.325386390002677
1639,D,180940397604500.0,0.94451255,9.474054723200892,2.4018395396499024,202,1970-01-03 02:15:40.397604500,-0.008878446,-0.0035846147,-0.015991483,9.760896591342647,0.018638771270168566,-103.4087905883789,-5.297059535980225,26.557409286499023,18375286.0,49900.0,0.046354617475,0.4716203801377245,-0.3711992068314699,0.002266893120826875,0.023535347862359952,-0.018496013302151348,18.37528666999424
1639,D,180940447504780.0,0.8846575,9.502784723200891,2.3731091396499027,202,1970-01-03 02:15:40.447504780,-0.0067479177,-0.0014540859,-0.0064041032,9.734216458542937,0.009416012791346576,-103.41692352294922,-5.2952880859375,26.558269500732422,18425186.0,49900.0,0.0456377927475,0.4734721441877245,-0.3698850304514699,0.002295210635051375,0.023580058481919953,-0.018490051720209347,18.425186950014904
1639,D,180940497405060.0,0.94690675,9.450112723200892,2.3587439396499024,202,1970-01-03 02:15:40.497405060,-0.020596355,-0.0025193503,-0.01279569,9.794390251118397,0.024377995155390346,-103.42579650878906,-5.302199363708496,26.55926513671875,18475087.0,49901.0,0.045698443819625,0.47288426773644776,-0.37096769974493027,0.0022788847704680523,0.02361206565571406,-0.018484646044765282,18.475087230006466
1639,D,180940547311000.0,0.9516952,9.486026723200892,2.3731091396499027,202,1970-01-03 02:15:40.547311000,-0.030183734,-0.0035846147,-0.018122012,9.756740530496494,0.035388057020107166,-103.43414306640625,-5.310429573059082,26.560285568237305,18524993.0,49906.0,0.04737581445835,0.47251348760606365,-0.371004870112232,0.00232248196681031,0.02359051018906169,-0.018514441535645767,18.52499316999456
1639,D,180940597216940.0,0.93014735,9.464477723200892,2.3683207396499024,202,1970-01-03 02:15:40.597216940,-0.0056826533,0.0028069718,-0.0074693677,9.776631956694752,0.009796075390267238,-103.44091796875,-5.314547061920166,26.56083106994629,18574899.0,49906.0,0.04695761715015,0.4728719374510637,-0.370765900221832,0.0023539021189269,0.0235902025114505,-0.018509406032145896,18.574899110011756
1639,D,180940647122880.0,0.9516952,9.450112723200892,2.3252251396499024,202,1970-01-03 02:15:40.647122880,-0.021661619,-0.0025193503,-0.004273575,9.80282611948494,0.022222428015765877,-103.45402526855469,-5.3211493492126465,26.562122344970703,18624805.0,49906.0,0.04695761715015,0.47197577540906366,-0.371960749673832,0.0023434668414953857,0.023576784978998757,-0.018533258094846503,18.62480504999985
1639,D,180940697028820.0,0.9540894,9.533910223200891,2.3778975396499025,202,1970-01-03 02:15:40.697028820,0.0039047268,-0.007845673,-0.009599897,9.70955062154957,0.012998442161127471,-103.46095275878906,-5.329475402832031,26.563274383544922,18674710.0,49905.0,0.0475540902315,0.4736988325700905,-0.37171433134477166,0.0023583033784406213,0.023596945655599843,-0.018556552459116707,18.674710990017047
1639,D,180940746934760.0,0.9804256,9.416593723200892,2.3300135396499027,202,1970-01-03 02:15:40.746934760,-0.014204768,0.0028069718,-0.004273575,9.836891061340943,0.015096952271913834,-103.47127532958984,-5.339485168457031,26.564085006713867,18724616.0,49906.0,0.048271952794999996,0.47287192497456365,-0.371602294838232,0.0023911472516402544,0.023619780113011753,-0.01854797977314449,18.72461693000514
1639,D,180940796840700.0,1.0378864,9.452507723200892,2.3539555396499026,202,1970-01-03 02:15:40.796840700,0.0039047268,-0.005715144,0.021292772,9.802422226907538,0.02238954894068566,-103.4782943725586,-5.356844425201416,26.56478500366211,18774522.0,49906.0,0.050362939335999994,0.4708406883920637,-0.372199719564232,0.002461236463344843,0.02354846084133745,-0.018560091665384682,18.774522869993234
1639,D,180940846746640.0,0.8535329,9.497996723200892,2.2342453396499025,202,1970-01-03 02:15:40.846746640,-0.0035521241,0.008133294,0.0127706565,9.769797513736375,0.015551775601301257,-103.50418090820312,-5.347718238830566,26.566635131835938,18824428.0,49906.0,0.0471965857929,0.4728719374510637,-0.374589423458832,0.0024344028305414416,0.02354846115266356,-0.018634629485854516,18.82442881001043
1639,D,180940896652580.0,0.8619126,9.565782723200892,2.3940582396499024,202,1970-01-03 02:15:40.896652580,-0.016335297,0.0006764429,0.019162243,9.66626985401339,0.02518910597592178,-103.50959777832031,-5.340994834899902,26.56681251525879,18874334.0,49906.0,0.0428055115615,0.47569848852606367,-0.373588740785732,0.002245822335284343,0.02366967783940726,-0.018669289732394605,18.874334749998525
1639,D,180940946558520.0,0.89543146,9.386217723200891,2.2958960396499024,202,1970-01-03 02:15:40.946558520,-0.0067479177,-0.012106731,0.020227507,9.86631982186666,0.024520590698989764,-103.52216339111328,-5.336528301239014,26.56830406188965,18924240.0,49906.0,0.043851006329179994,0.47290926713906367,-0.372050370868632,0.0021623400909261377,0.023670609327111923,-0.018605932753111346,18.924240690015722
1639,D,180940996464460.0,0.92655605,9.553812723200892,2.3916640396499025,202,1970-01-03 02:15:40.996464460,0.0060352557,-0.012106731,0.017031714,9.68438879534996,0.021750322495276694,-103.52598571777344,-5.339400291442871,26.569076538085938,18974146.0,49906.0,0.04546405433703,0.47261057972906373,-0.372110113341232,0.002228678708803938,0.023593556738900383,-0.018569036562488737,18.974146630003816
1639,D,180941046370400.0,0.878672,9.41255422320089,2.3916640396499025,202,1970-01-03 02:15:41.046370400,-0.00035633094,-0.007845673,0.008509599,9.816670924740041,0.01157993228402184,-103.52513122558594,-5.333790302276611,26.569272994995117,19024052.0,49906.0,0.04504585553165,0.4732677544135637,-0.36972041443723197,0.002258493780953172,0.023602502071860983,-0.018510897159656012,19.02405256999191
1639,D,180941096276340.0,0.8403648,9.48677372320089,2.4299715396499026,202,1970-01-03 02:15:41.096276340,0.012426842,-0.0014540859,0.020227507,9.732529138721603,0.02378429749504054,-103.52066040039062,-5.323282241821289,26.568750381469727,19073958.0,49906.0,0.0428951252704,0.4715949302465637,-0.368764527389732,0.0021943912939535537,0.023577158570324157,-0.01842741475340823,19.073958510009106
1639,D,180941146182280.0,0.8690952,9.49635072320089,2.3342032396499026,202,1970-01-03 02:15:41.146182280,0.032666866,-0.011041466,0.018096978,9.748298803163468,0.038942762080052776,-103.5294189453125,-5.317068099975586,26.570039749145508,19123864.0,49906.0,0.04265615538,0.47368590431106367,-0.370198346732132,0.002134761106069431,0.023587592664716474,-0.01843934059796287,19.1238644499972
1639,D,180941196088220.0,0.89782566,9.532264223200892,2.3677220396499026,202,1970-01-03 02:15:41.196088220,0.027340544,0.0049375007,-1.2516857e-05,9.708186203735842,0.027782807922349134,-103.53462219238281,-5.316861629486084,26.570409774780273,19173770.0,49906.0,0.044089976219579996,0.47482102875756366,-0.371751658505632,0.00216457622180432,0.023668093500861458,-0.018513878480697923,19.173770390014397
1639,D,180941245994160.0,0.8523358,9.393400723200891,2.3509625396499025,202,1970-01-03 02:15:41.245994160,0.030536337,-0.00038882153,-0.0010777813,9.84242501297976,0.030557825054973894,-103.537109375,-5.308184623718262,26.570812225341797,19223676.0,49906.0,0.04367177891138,0.4722521174075636,-0.371333463692732,0.0021899190757828446,0.02363231621625842,-0.018542203054215778,19.22367633000249
1639,D,180941295900100.0,0.9600749,9.527475723200892,2.4156062396499025,202,1970-01-03 02:15:41.295900100,0.027340544,0.0028069718,0.004248541,9.707524709568114,0.027810691065318967,-103.53506469726562,-5.317202568054199,26.57056427001953,19273582.0,49906.0,0.0452250841971,0.47213262996706373,-0.370138609250132,0.002218243425145901,0.023565232601239078,-0.018501952636143286,19.273582269990584
1639,D,180941345806040.0,0.8571242,9.47719672320089,2.4610960396499024,202,1970-01-03 02:15:41.345806040,0.026275279,0.0049375007,-0.004273575,9.736155650862917,0.02707457558247158,-103.52485656738281,-5.310805320739746,26.569549560546875,19323488.0,49906.0,0.04534456914229999,0.4742235915550637,-0.367390448024632,0.002259984559778048,0.023614426795641647,-0.018403562566177183,19.32348821000778
1639,D,180941395711980.0,0.81881696,9.479591723200892,2.4730670396499024,202,1970-01-03 02:15:41.395711980,0.020948958,0.012394352,0.0031832764,9.727820917536201,0.024548157801033973,-103.51348876953125,-5.298741817474365,26.567960739135742,19373394.0,49906.0,0.04181975976548,0.4730287421030636,-0.365956628682232,0.0021750114992358342,0.02363678748177125,-0.018299209605066376,19.373394149995875
1639,D,180941445617920.0,0.89782566,9.537052723200892,2.4994032396499026,202,1970-01-03 02:15:41.445617920,0.030536337,-0.0035846147,0.017031714,9.673125603424248,0.035148209366948145,-103.50010681152344,-5.298548698425293,26.56683921813965,19423300.0,49906.0,0.04283538329686,0.4745223288710637,-0.36500074912063196,0.0021123997848345698,0.023644241874017397,-0.018239579448314863,19.423300090013072
1639,D,180941495523860.0,0.78769237,9.515505723200892,2.3988465396499024,202,1970-01-03 02:15:41.495523860,0.019883692,0.0006764429,0.0010527476,9.707506490284784,0.019923028385693032,-103.50137329101562,-5.2823967933654785,26.567005157470703,19473206.0,49906.0,0.04205873140259,0.47541849091306365,-0.366852773257132,0.0021183628440953756,0.02370387327607333,-0.018261940943892344,19.473206030001165
1639,D,180941545429800.0,0.8499416,9.448466723200891,2.4539135396499026,202,1970-01-03 02:15:41.545429800,0.046515305,0.0038722362,-0.0021430457,9.765024150081944,0.04672537273584775,-103.4910659790039,-5.275321006774902,26.566110610961914,19523111.0,49905.0,0.040863061636424995,0.4731985224688405,-0.3679805041212716,0.0020691060408060216,0.02367036602641196,-0.018335927353784615,19.52311196998926
1639,D,180941595340960.0,0.8355764,9.40537072320089,2.3677220396499026,202,1970-01-03 02:15:41.595340960,0.010296313,-0.0025193503,0.0053138053,9.82545589831552,0.011857390695021699,-103.49369049072266,-5.265111923217773,26.566455841064453,19573023.0,49912.0,0.042063787208,0.4705163673124029,-0.3688088624829941,0.00206952243976147,0.023551348789380706,-0.018387315432976056,19.57302313001128
1639,D,180941645252120.0,0.8619126,9.472408723200891,2.4994032396499026,202,1970-01-03 02:15:41.645252120,0.04545004,0.006002765,0.020227507,9.732597436765277,0.05010879526671813,-103.47783660888672,-5.259594917297363,26.564682006835938,19622934.0,49911.0,0.0423616867395,0.47110442497467964,-0.3676662550924337,0.002106879915096836,0.023498617681920287,-0.018379104796653587,19.622934290004196
1639,D,180941695163280.0,0.79726917,9.551417723200892,2.4730670396499024,202,1970-01-03 02:15:41.695163280,0.039058454,-0.0025193503,0.015966449,9.656329056885735,0.04227100008840372,-103.46922302246094,-5.245701313018799,26.564016342163086,19672845.0,49911.0,0.041405710661234996,0.47474910088317973,-0.3650373179449337,0.002090457285834042,0.023604247664545806,-0.01828498401693402,19.672845449997112
1639,D,180941745074440.0,0.842759,9.443678723200891,2.5975655396499024,202,1970-01-03 02:15:41.745074440,0.03373213,0.0028069718,0.015966449,9.737428097691197,0.03742543491654434,-103.43951416015625,-5.237966060638428,26.561128616333008,19722756.0,49911.0,0.040927722996435,0.4740321293681796,-0.3625876286672837,0.002054672003643983,0.023677309991537797,-0.01815824435518119,19.72275660999003
1639,D,180941794985600.0,0.81402856,9.42931272320089,2.4970090396499023,202,1970-01-03 02:15:41.794985600,0.027340544,0.0049375007,0.0031832764,9.770864034180597,0.027964575949176014,-103.42488098144531,-5.2263994216918945,26.55964469909668,19772667.0,49911.0,0.04134596195358,0.4709849380406797,-0.3619901440862837,0.0020531809447700993,0.02358337342572179,-0.01808220060795165,19.77266777001205
1639,D,180941844896760.0,0.78290397,9.470014723200892,2.5616525396499026,202,1970-01-03 02:15:41.844896760,0.015622635,0.006002765,0.004248541,9.714529026735251,0.017267020953746798,-103.40321350097656,-5.211177825927734,26.557405471801758,19822578.0,49911.0,0.039852249752415,0.4716421660886797,-0.3628863709577837,0.002026341972228958,0.023523730697100228,-0.018089655871182223,19.822578930004966
1639,D,180941894807920.0,0.80205756,9.553812723200892,2.4347598396499026,202,1970-01-03 02:15:41.894807920,-0.109013304,-0.022759374,-0.025578864,9.66320081688576,0.11426358928984678,-103.40959930419922,-5.200907230377197,26.558883666992188,19872490.0,49912.0,0.03955429994268,0.47475863775240285,-0.3644471326621941,0.0019816698541907907,0.023618378460658052,-0.018151334916340165,19.872490089997882
1639,D,180941944719080.0,0.8355764,9.84111672320089,2.5113742396499026,202,1970-01-03 02:15:41.944719080,0.057167947,0.0049375007,0.0063790698,9.369949117827517,0.05773426719783131,-103.40621185302734,-5.198538780212402,26.55852699279785,19922401.0,49911.0,0.04086797428878,0.48401016179967965,-0.3656945509840337,0.0020069780645832,0.023926554777221994,-0.018221050786233435,19.9224012499908
1639,D,180941994630240.0,0.8355764,9.264113723200891,2.4826438396499024,202,1970-01-03 02:15:41.994630240,-0.01953109,-0.011041466,-0.026644127,9.93635031532166,0.03483226882661227,-103.39153289794922,-5.190345287322998,26.55794906616211,19972312.0,49911.0,0.0417044537004,0.4767805784051797,-0.36449958182203374,0.0020606362266839813,0.023977013317182366,-0.018222359681241817,19.97231241001282
1639,D,180942044541400.0,0.8499416,9.47480372320089,2.5113742396499026,202,1970-01-03 02:15:42.044541400,-0.008878446,0.0028069718,-1.2516857e-05,9.726552734758151,0.00931160838591381,-103.37936401367188,-5.185954570770264,26.556671142578125,20022223.0,49911.0,0.042062944449,0.46763905433367964,-0.3644995818220337,0.0020904573045173514,0.023568464144814602,-0.018192538628319523,20.022223570005735
1639,D,180942094452560.0,0.8379706,9.467620723200891,2.3796930396499025,202,1970-01-03 02:15:42.094452560,-0.01740056,-0.006780408,-0.009599897,9.76257384438062,0.020997891402964083,-103.38664245605469,-5.179795742034912,26.557689666748047,20072134.0,49911.0,0.042122692907099996,0.4727176732721796,-0.3670687705114338,0.002100894673040153,0.02346707231576802,-0.018256654016657846,20.072134729998652
1639,D,180942144363720.0,0.79008657,9.467620723200891,2.4994032396499026,202,1970-01-03 02:15:42.144363720,-0.011008975,-0.0046498794,-0.01279569,9.731150504285177,0.01750852910901625,-103.376220703125,-5.167299270629883,26.557071685791016,20122045.0,49911.0,0.04062898070593499,0.47253841791567963,-0.36736751280193375,0.0020651093908500943,0.02358933838363862,-0.018328224668226742,20.12204588999157
1639,D,180942194274880.0,0.8619126,9.503533723200892,2.5233452396499025,202,1970-01-03 02:15:42.194274880,-0.03337953,-0.008910937,-0.0064041032,9.697052318903195,0.03513702262621463,-103.36493682861328,-5.165815353393555,26.556411743164062,20171957.0,49912.0,0.04122729128652,0.4734441303644029,-0.3637898889505941,0.0020428051238437065,0.02360794047487774,-0.018246764118136083,20.17195705001359
1639,D,180942244186040.0,0.8355764,9.472408723200891,2.4898265396499024,202,1970-01-03 02:15:42.244186040,-0.030183734,0.0006764429,-0.009599897,9.732443692214868,0.031680804844421574,-103.35753631591797,-5.160276889801025,26.555686950683594,20221868.0,49911.0,0.0423616867395,0.4735541317211796,-0.36402159166168374,0.002086004741128342,0.023632815129476754,-0.0181628994044197,20.221868210006505
1639,D,180942294097200.0,0.8403648,9.481985723200891,2.5209510396499026,202,1970-01-03 02:15:42.294097200,-0.030183734,0.0049375007,-0.011730426,9.716620788233854,0.03275728324337555,-103.34613037109375,-5.155941963195801,26.554424285888672,20271779.0,49911.0,0.0418239506166,0.47301639060717965,-0.3640813401197837,0.002100894673040153,0.023622140669965368,-0.01817017271407241,20.27177936999942
1639,D,180942344008360.0,0.81642276,9.48438022320089,2.3581452396499025,202,1970-01-03 02:15:42.344008360,0.0049699913,-0.0025193503,-0.010665162,9.74961102001256,0.012033022061910707,-103.35678100585938,-5.147624492645264,26.555644989013672,20321690.0,49911.0,0.04134596195358,0.47331514537542957,-0.36736751280193375,0.0020755467531451267,0.023616176646214,-0.01825367184908792,20.32169052999234
1639,D,180942393919520.0,0.8499416,9.47719672320089,2.4587018396499025,202,1970-01-03 02:15:42.393919520,-0.018465826,0.0028069718,-0.01279569,9.736070060410015,0.022640572058240296,-103.35362243652344,-5.14479398727417,26.55529022216797,20371601.0,49911.0,0.041584955785979996,0.47319563348592963,-0.3689209727125337,0.0020695825176495894,0.023620649741874646,-0.01837444730025629,20.37160169001436
1639,D,180942443830680.0,0.8810662,9.467620723200891,2.3916640396499025,202,1970-01-03 02:15:42.443830680,-0.014204768,-0.0025193503,-0.011730426,9.763563966784808,0.018593693931260945,-103.35965728759766,-5.146152019500732,26.556028366088867,20421512.0,49911.0,0.043198165152899995,0.4727773917836796,-0.36808449429913376,0.0021158051745902196,0.02360722983211573,-0.018392339932009668,20.421512850007275
1639,D,180942493741840.0,0.87433255,9.492310723200891,2.4982061396499025,202,1970-01-03 02:15:42.493741840,-0.0067479177,0.0028069718,-0.019187277,9.71465707557178,0.020532050132578028,-103.35069274902344,-5.147559642791748,26.555282592773438,20471424.0,49912.0,0.043807731205,0.47316404917640287,-0.3671059998053941,0.0021713191495077518,0.023606914600599816,-0.018347413970872598,20.47142401000019
1639,D,180942543653000.0,0.89588034,9.477945723200891,2.3761017396499025,202,1970-01-03 02:15:42.543653000,-0.0035521241,0.0006764429,-0.011730426,9.758567981915839,0.01227509897150476,-103.35882568359375,-5.151134967803955,26.55609130859375,20521335.0,49911.0,0.044176547776395,0.47341223474817967,-0.36748700971813375,0.0021956916741202024,0.02362228445347992,-0.018332135849164398,20.521335169993108
1639,D,180942593564160.0,0.9701006,9.480339723200892,2.4239859396499024,202,1970-01-03 02:15:42.593564160,-0.011008975,0.0017417073,-0.0064041032,9.752195427210353,0.012854711691272913,-103.36033630371094,-5.165412425994873,26.556167602539062,20571246.0,49911.0,0.046566487348169996,0.47311349245767964,-0.36933921191923375,0.002264537813051082,0.02362102278528582,-0.018387866774071324,20.57124633001513
1639,D,180942643480190.0,0.89348614,9.49949372320089,2.4311685396499025,202,1970-01-03 02:15:42.643480190,-0.0067479177,-0.00038882153,-0.018122012,9.724661402978569,0.019341481184136568,-103.36126708984375,-5.168946743011475,26.556453704833984,20621162.0,49916.0,0.04651139785692,0.47369868315529573,-0.3680018545056355,0.002323037858948636,0.02363053827894864,-0.018402558335831886,20.621162360010203
1639,D,180942693396220.0,0.91503394,9.446820723200892,2.4479279396499023,202,1970-01-03 02:15:42.693396220,-0.014204768,0.0038722362,-0.02025254,9.773861087281457,0.025038670563231075,-103.35832214355469,-5.175050258636475,26.556167602539062,20671078.0,49916.0,0.04513704415664,0.4728621159532957,-0.3674043100696355,0.002287361815774431,0.023624264424152223,-0.018354267055469612,20.671078390005277
1639,D,180942743312250.0,0.87433255,9.487522723200891,2.3377945396499022,202,1970-01-03 02:15:42.743312250,-0.007813182,-0.00038882153,0.0010527476,9.756441054321064,0.007893368904125874,-103.37229919433594,-5.174160957336426,26.557401657104492,20720994.0,49916.0,0.04465900885742,0.47256334373529574,-0.3697347383616355,0.0022411298911249097,0.023595928622907863,-0.01839751637074766,20.720994420000352
1639,D,180942793228280.0,0.91503394,9.549771723200891,2.3521597396499025,202,1970-01-03 02:15:42.793228280,-0.015270033,-0.0014540859,-0.0010777813,9.696578952210391,0.015376927071307112,-103.3864517211914,-5.180221080780029,26.558691024780273,20770910.0,49916.0,0.04465900885742,0.4751327947932957,-0.3721249210972355,0.002229199086126977,0.023652600225396583,-0.018515333380774504,20.770910449995426
1639,D,180942843144310.0,0.8575731,9.49949372320089,2.4670815396499024,202,1970-01-03 02:15:42.843144310,0.0039047268,-0.0035846147,-0.01279569,9.713210678398243,0.013850127671115322,-103.38101959228516,-5.177927017211914,26.55854034423828,20820826.0,49916.0,0.044240726504320003,0.47543156701129574,-0.36889817615123555,0.002218759595158307,0.02372418534191899,-0.01849445446112734,20.8208264799905
1639,D,180942893060340.0,0.950947,9.468368723200891,2.4551105396499024,202,1970-01-03 02:15:42.893060340,-0.018465826,0.006002765,-0.009599897,9.754777006667503,0.021660515689108373,-103.37745666503906,-5.188874244689941,26.55794906616211,20870742.0,49916.0,0.0451370446558,0.47339991093729566,-0.3663287300848355,0.002230690412614275,0.023680936026640943,-0.018349793125839862,20.87074251001468
1639,D,180942942976370.0,0.9317934,9.477945723200891,2.3593423396499023,202,1970-01-03 02:15:42.942976370,-0.004617389,0.0028069718,-0.0074693677,9.765886432516805,0.009219046897652681,-103.38738250732422,-5.1964287757873535,26.55878257751465,20920658.0,49916.0,0.0469894349032,0.4728621159532957,-0.3690176850384355,0.002299292676833522,0.023616807667135382,-0.0183527758286466,20.920658540009754
1639,D,180942992892400.0,0.9437644,9.51385922320089,2.4263801396499023,202,1970-01-03 02:15:42.992892400,-0.011008975,0.0028069718,-0.0064041032,9.716606601346777,0.01304182345505683,-103.38899230957031,-5.206209182739258,26.558815002441406,20970574.0,49916.0,0.0468101715724,0.4739974678522957,-0.3697347383616355,0.0023410505784180248,0.02363172149261995,-0.018437782983218975,20.97057457000483
1639,D,180943042808430.0,0.91024554,9.525829723200891,2.3617365396499026,202,1970-01-03 02:15:43.042808430,-0.00248686,0.0049375007,-0.00320831,9.716985859447718,0.006391919811621583,-103.39984130859375,-5.2106475830078125,26.559589385986328,21020490.0,49916.0,0.04627238008252001,0.47519255672429567,-0.36967498391803555,0.0023231543242034935,0.02368988463338257,-0.01845418784865603,21.020490599999903
1639,D,180943092724460.0,0.87193835,9.439638723200892,2.3904669396499023,202,1970-01-03 02:15:43.092724460,-0.00035633094,0.0038722362,-0.004273575,9.790118619858376,0.005777943250674648,-103.4031982421875,-5.208376884460449,26.55975341796875,21070406.0,49916.0,0.04447974552662,0.47334016148529573,-0.37057130556363554,0.002264991550952916,0.023673479581074984,-0.018475066892883547,21.070406629994977
1639,D,180943142640490.0,0.88630354,9.470762723200892,2.3162467396499027,202,1970-01-03 02:15:43.142640490,0.00070893345,0.006002765,0.009574863,9.77889339629137,0.011323152200271924,-103.41806030273438,-5.207780361175537,26.560699462890625,21120322.0,49916.0,0.04388220109062,0.4719657992992958,-0.37170663999203546,0.002205337463673076,0.023592946169261837,-0.018525772965178437,21.12032265999005
1639,D,180943192556520.0,0.9365818,9.50907072320089,2.3689191396499023,202,1970-01-03 02:15:43.192556520,-0.00248686,0.0049375007,0.0127706565,9.733985200544184,0.01391592804174744,-103.4265365600586,-5.215059757232666,26.561071395874023,21170238.0,49916.0,0.045495572315720004,0.47369868315529573,-0.3722444299844355,0.002230690468675434,0.023601894153101693,-0.018567530804472765,21.17023869001423
1639,D,180943242472550.0,0.90066874,9.489917723200891,2.3377945396499022,202,1970-01-03 02:15:43.242472550,0.0028394624,0.0006764429,0.011705392,9.756521542560657,0.01206384364917078,-103.43833923339844,-5.21654748916626,26.561988830566406,21220154.0,49916.0,0.04585409897732,0.4741767536452957,-0.3717066399920355,0.0022799050961316925,0.023657075151669163,-0.018567530804472765,21.220154720009305
1639,D,180943292388580.0,0.88989484,9.445174723200891,2.2893121396499025,202,1970-01-03 02:15:43.292388580,0.0166879,0.0049375007,0.015966449,9.810454607527685,0.0236176292892005,-103.45446014404297,-5.215534687042236,26.5631103515625,21270070.0,49916.0,0.04468888582964,0.4725820372772957,-0.3736934714980355,0.0022597718148121074,0.023629205903846037,-0.018603695982569193,21.27007075000438
1639,D,180943342304610.0,0.9377789,9.581644723200892,2.4042337396499023,202,1970-01-03 02:15:43.342304610,0.0060352557,-0.00038882153,-0.004273575,9.655596352644793,0.007405331648697378,-103.4591064453125,-5.224688529968262,26.563629150390625,21319986.0,49916.0,0.045615081202919995,0.4748713597432957,-0.3720352819444355,0.0022538064091986326,0.02364654188283992,-0.018611898228417193,21.319986779999454
1639,D,180943392220640.0,0.9497499,9.42602072320089,2.3276193396499023,202,1970-01-03 02:15:43.392220640,0.010296313,0.0049375007,-0.00320831,9.825342164010548,0.011861122527508493,-103.46891784667969,-5.232964038848877,26.564367294311523,21369902.0,49916.0,0.0471089437904,0.47439331421129566,-0.37107921084683554,0.0023142062157832806,0.023691747732558693,-0.018546651511084544,21.369902809994528
1639,D,180943442136670.0,0.9353847,9.481087723200892,2.4233873396499024,202,1970-01-03 02:15:43.442136670,0.0060352557,0.0017417073,0.010640128,9.748217064238226,0.01235597748215979,-103.46693420410156,-5.239300727844238,26.564006805419922,21419818.0,49916.0,0.047049189346800004,0.4718836126052957,-0.37060117529803555,0.002349998686838238,0.023617179539488487,-0.018510859077403692,21.419818839989603
1639,D,180943492052700.0,0.90665424,9.562490723200892,2.3778975396499025,202,1970-01-03 02:15:43.492052700,0.02414475,0.0006764429,0.017031714,9.677365481757056,0.029555131692098013,-103.47345733642578,-5.241896152496338,26.56447982788086,21469734.0,49916.0,0.04597360786452,0.4752896308652957,-0.3693463319824355,0.0023216629728001247,0.02363954981053902,-0.018467609886706,21.46973487001378
1639,D,180943541968730.0,0.8372224,9.48587672320089,2.3587439396499024,202,1970-01-03 02:15:43.541968730,0.0017741979,-0.0014540859,0.008509599,9.749784647914913,0.008813365936675059,-103.48101806640625,-5.233572006225586,26.565153121948242,21519650.0,49916.0,0.04352367318112,0.4754091547272957,-0.3709597019596355,0.0022336731403370834,0.023727540290819898,-0.01847655799512621,21.519650900008855
1639,D,180943591884760.0,0.88271224,9.531366723200891,2.4353583396499023,202,1970-01-03 02:15:43.591884760,0.010296313,0.0017417073,0.0053138053,9.69183319538397,0.011716831162014342,-103.47852325439453,-5.233134746551514,26.564823150634766,21569566.0,49916.0,0.04292612874512,0.4746323619352957,-0.36952559531323553,0.002157614156475098,0.023711136172864956,-0.018481032049336318,21.56956693000393
1639,D,180943641800790.0,0.89947164,9.39010872320089,2.3395903396499023,202,1970-01-03 02:15:43.641800790,0.013492106,0.0049375007,0.0127706565,9.852490420584246,0.019222525976539315,-103.4847412109375,-5.232696056365967,26.56507110595703,21619482.0,49916.0,0.04447974527704,0.4722421841912957,-0.3700036308620355,0.0021814758038450695,0.023632094922227467,-0.018457170426882417,21.619482959999004
1639,D,180943691721360.0,0.9210195,9.440386723200891,2.3898685396499024,202,1970-01-03 02:15:43.691721360,0.008165784,0.0006764429,0.013835921,9.794027377408552,0.016080121680194383,-103.48563385009766,-5.23611307144165,26.564990997314453,21669403.0,49921.0,0.045440369099970006,0.4700185815899117,-0.37117614164323726,0.002244451014907358,0.02351929984428183,-0.01850021771161786,21.669403530017007
1639,D,180943741641930.0,0.87313545,9.552913723200891,2.5119726396499025,202,1970-01-03 02:15:43.741641930,0.019883692,0.0070680296,0.013835921,9.65265596601278,0.025233924781840444,-103.47216033935547,-5.234372615814209,26.563356399536133,21719324.0,49921.0,0.044783004629475,0.4740822757924117,-0.36687339324408724,0.002252020519973812,0.023565229450691484,-0.018422085415555064,21.719324100005906
1639,D,180943791562500.0,0.8396166,9.490664723200892,2.4042337396499023,202,1970-01-03 02:15:43.791562500,0.011361578,0.0091985585,0.010640128,9.73465800662549,0.018080687403536137,-103.47286224365234,-5.226799964904785,26.562902450561523,21769244.0,49920.0,0.042750291168000006,0.4753277180221885,-0.3665074887726769,0.0021848310631049765,0.02369727344561242,-0.018305186815138434,21.769244669994805
1639,D,180943841483070.0,0.87313545,9.399685723200891,2.4616945396499026,202,1970-01-03 02:15:43.841483070,0.0166879,0.0006764429,0.0127706565,9.812626878925526,0.02102458676996893,-103.46200561523438,-5.223145961761475,26.561805725097656,21819165.0,49921.0,0.042751147544025,0.4715125923174117,-0.3677697971845373,0.0021341586609715003,0.02363360756623159,-0.018327928196135046,21.819165240012808
1639,D,180943891403640.0,0.832434,9.478694723200892,2.4856365396499025,202,1970-01-03 02:15:43.891403640,0.010296313,0.0070680296,0.002118012,9.72701341287386,0.012667165375591698,-103.450927734375,-5.215282440185547,26.56048011779785,21869085.0,49920.0,0.042571013472,0.47120437594218856,-0.3657306162606769,0.002129641138959984,0.02353021552775962,-0.018308170319592542,21.869085810001707
1639,D,180943941324210.0,0.8037036,9.517001723200892,2.4473293396499023,202,1970-01-03 02:15:43.941324210,0.029471073,0.0038722362,0.004248541,9.696128938754239,0.03002646262197065,-103.44599914550781,-5.203608512878418,26.55992889404297,21919006.0,49921.0,0.0408388125648,0.47414208115041173,-0.36609650516973724,0.0020819509627915465,0.023596320242259848,-0.018266770864463853,21.919006379990606
1639,D,180943991244780.0,0.8108862,9.42841572320089,2.4305699396499025,202,1970-01-03 02:15:43.991244780,0.0049699913,0.0017417073,0.0053138053,9.786479792145071,0.007481369166620309,-103.44182586669922,-5.192101955413818,26.55942726135254,21968926.0,49920.0,0.040300161408,0.47287761946218854,-0.3674636339886769,0.0020252287903610882,0.0236376117272905,-0.018309661073394014,21.96892695000861
1639,D,180944041165350.0,0.86116445,9.48587672320089,2.5239436396499024,202,1970-01-03 02:15:44.041165350,0.026275279,0.006002765,0.0031832764,9.714000747171962,0.027139578530475796,-103.42516326904297,-5.1893720626831055,26.557714462280273,22018847.0,49921.0,0.041735220249325,0.47211019660841164,-0.36555866380388724,0.002047644143857661,0.023587368383030216,-0.018296603064051297,22.018847519997507
1639,D,180944091085920.0,0.8491934,9.409261723200892,2.5239436396499024,202,1970-01-03 02:15:44.091085920,0.009231049,0.0006764429,-0.015991483,9.787380056348184,0.018476941553640592,-103.40731811523438,-5.184868812561035,26.556293487548828,22068768.0,49921.0,0.042691387114925,0.47163210319141163,-0.36322800956503726,0.0021073303331153623,0.02355627967415349,-0.018190879760625042,22.06876809001551
1639,D,180944141006490.0,0.90665424,9.418838723200892,2.4736655396499025,202,1970-01-03 02:15:44.141006490,0.0017741979,0.0006764429,0.0063790698,9.794396099256705,0.006655665608982835,-103.39776611328125,-5.187733173370361,26.555326461791992,22118688.0,49920.0,0.043825957094399993,0.46994938714218853,-0.3644756748846769,0.0021594729114647517,0.02350187399872666,-0.018163483963864867,22.11868866000441
1639,D,180944190927060.0,0.79652095,9.473905723200891,2.3826859396499023,202,1970-01-03 02:15:44.190927060,-0.00035633094,-0.00038882153,-0.0021430457,9.752312858903732,0.002206988625544163,-103.40351867675781,-5.175261497497559,26.555891036987305,22168609.0,49921.0,0.042512104329995,0.47157234775441176,-0.3680088389009373,0.002155041182183611,0.023500853263886592,-0.018283179706345822,22.168609229993308
1639,D,180944240847630.0,0.85877025,9.521789723200891,2.4952132396499023,202,1970-01-03 02:15:44.240847630,0.030536337,0.0028069718,-0.0010777813,9.685331237787965,0.030684011807359773,-103.39295959472656,-5.1731414794921875,26.554954528808594,22218529.0,49920.0,0.041316068351999996,0.4741325583421885,-0.3674636364846769,0.002092351190142595,0.023604794456171144,-0.01835739298562493,22.21852980001131
1639,D,180944290768200.0,0.8539818,9.42602072320089,2.3970511396499026,202,1970-01-03 02:15:44.290768200,0.008165784,0.0070680296,-1.2516857e-05,9.800194852334704,0.010799871639646526,-103.39462280273438,-5.1688714027404785,26.55479621887207,22268450.0,49921.0,0.042751147544025,0.47294682264741167,-0.36711243496048723,0.002098359742372732,0.023639574889190912,-0.018335386031307018,22.26845037000021
1639,D,180944340688770.0,0.8348282,9.47151172320089,2.5215495396499024,202,1970-01-03 02:15:44.340688770,0.00710052,0.0091985585,-1.2516857e-05,9.726185715422323,0.01162028482525413,-103.3799819946289,-5.162861347198486,26.55306625366211,22318370.0,49920.0,0.042152697600000004,0.4716824098621885,-0.3664477270446769,0.002119199974794864,0.02357794564343962,-0.018309661643648896,22.318370940018212
1639,D,180944390609340.0,0.89468324,9.440386723200891,2.4473293396499023,202,1970-01-03 02:15:44.390609340,-0.0035521241,0.006002765,-0.010665162,9.778350493164291,0.01274348671884072,-103.37588500976562,-5.16562032699585,26.552513122558594,22368291.0,49921.0,0.04316947029812,0.4720504411714117,-0.3652000987332373,0.002129683971821024,0.02355604382822418,-0.018262295555329627,22.36829151000711
1639,D,180944440529910.0,0.8132804,9.514606723200892,2.4928190396499024,202,1970-01-03 02:15:44.440529910,-0.00248686,-0.006780142,-0.0074693677,9.688915235209274,0.010389718573549877,-103.36784362792969,-5.15714168548584,26.552194595336914,22418212.0,49921.0,0.04263162643622,0.4731261139189117,-0.3659172263784873,0.0021416382750374936,0.023592079403332016,-0.0182490539934512,22.41821207999601
1639,D,180944490450480.0,0.856376,9.452357723200892,2.5071842396499027,202,1970-01-03 02:15:44.490450480,-0.00248686,-0.014236993,-0.008534633,9.749843877309353,0.01678440951556944,-103.35588836669922,-5.154444694519043,26.551897048950195,22468132.0,49920.0,0.041674623744,0.4734154325821885,-0.3644159181486769,0.002104284004498291,0.02362567700066746,-0.018229115287398016,22.468132650014013
1639,D,180944540371050.0,0.88989484,9.612769723200891,2.5478859396499023,202,1970-01-03 02:15:44.540371050,0.012426842,-0.0025190841,-0.005338839,9.588099180552984,0.01375773922793123,-103.34284973144531,-5.158954620361328,26.55096435546875,22518053.0,49921.0,0.04358779330182,0.47587511362591167,-0.3630487207895873,0.0021281925606721898,0.023694766678627285,-0.018157881120218544,22.518053220002912
1639,D,180944590291620.0,0.820463,9.416444723200891,2.3994453396499025,202,1970-01-03 02:15:44.590291620,-0.008878446,0.0017419737,-0.008534633,9.80605557395776,0.01243789516723375,-103.34599304199219,-5.15040397644043,26.551219940185547,22567973.0,49920.0,0.042690531686399996,0.47496919258218845,-0.3657306112686769,0.002153506991705971,0.02373307388295418,-0.018190332128174273,22.56797378999181
1639,D,180944640212190.0,0.8156746,9.325464723200891,2.5311265396499025,202,1970-01-03 02:15:44.640212190,-0.015270033,0.0006767092,0.0063790698,9.86443959425355,0.016562740554501413,-103.32762908935547,-5.139928340911865,26.549400329589844,22617894.0,49921.0,0.0408388125648,0.4678074307369117,-0.3661562606067372,0.0020849341971820776,0.0235321759063564,-0.018268262265446273,22.617894360009814
1639,D,180944690132760.0,0.9569325,9.574462723200892,2.4760596396499026,202,1970-01-03 02:15:44.690132760,0.0039047268,0.0006767092,0.009574863,9.647815674384386,0.01036256860979805,-103.32484436035156,-5.153278827667236,26.54901695251465,22667814.0,49920.0,0.044244273216,0.4717421890621885,-0.3642366329646769,0.002123673821088768,0.023451158510185543,-0.018230606623542495,22.667814929998713
1639,D,180944740057560.0,0.78454995,9.387713723200891,2.4162047396499027,202,1970-01-03 02:15:44.740057560,0.00070893345,-0.0003885552,-0.0010777813,9.827110516447428,0.0013472840497109854,-103.32462310791016,-5.138974189758301,26.549039840698242,22717739.0,49925.0,0.04347175565812499,0.4733433295433045,-0.36714185043172864,0.002189611370770345,0.023591697258189617,-0.01825703539178277,22.717739729996538
1639,D,180944789982360.0,0.90426004,9.392502723200892,2.5359149396499023,202,1970-01-03 02:15:44.789982360,0.008165784,-0.0035843486,0.011705392,9.805974316465047,0.014715426772426344,-103.30707550048828,-5.1421732902526855,26.54753875732422,22767664.0,49925.0,0.042156919375375,0.46880115304330444,-0.3656477125054786,0.0021375058005237437,0.023518281646568225,-0.018292259464820035,22.767664529994363
1639,D,180944839907160.0,0.808492,9.464329223200892,2.4401467396499026,202,1970-01-03 02:15:44.839907160,0.0028394624,-0.004649613,0.019162243,9.74925605009596,0.019921671731103086,-103.30634307861328,-5.131557464599609,26.547496795654297,22817589.0,49925.0,0.0427545727985,0.4707136674620545,-0.3650500603304786,0.0021196031233903546,0.023452638706865023,-0.01824004315441758,22.817589329992188
1639,D,180944889831960.0,0.844405,9.44996272320089,2.5000016396499025,202,1970-01-03 02:15:44.889831960,-0.00248686,-0.006780142,0.0063790698,9.75272308802594,0.009635731924095649,-103.29681396484375,-5.127057075500488,26.546884536743164,22867514.0,49925.0,0.04126044136249999,0.4721480127120545,-0.36594654608172866,0.002097224790993962,0.023536184691346194,-0.018247502787564724,22.867514129990013
1639,D,180944939756760.0,0.91383684,9.440386723200891,2.4401467396499026,202,1970-01-03 02:15:44.939756760,0.0039047268,0.0006767092,0.013835921,9.781758215910044,0.014392273504983285,-103.29545593261719,-5.132229804992676,26.54659652709961,22917438.0,49924.0,0.04388923281008,0.4715409028810813,-0.36593921615591835,0.002125506166695942,0.02355636271103586,-0.018269332396976146,22.917438930016942
1639,D,180944989681560.0,0.88510644,9.528971723200891,2.3994453396499025,202,1970-01-03 02:15:44.989681560,0.034797397,-0.006780142,0.013835921,9.70272184878045,0.038056035965849284,-103.30148315429688,-5.134022235870361,26.547454833984375,22967363.0,49925.0,0.044906121627,0.4735226102183045,-0.3684566827204786,0.0022165540351356096,0.023591147945743417,-0.01833235762570206,22.967363730014767
1639,D,180945039606360.0,0.8180688,9.46193472320089,2.5191552396499026,202,1970-01-03 02:15:45.039606360,0.032666866,-0.0003885552,0.004248541,9.734596143110691,0.03294427431336262,-103.28794860839844,-5.125982284545898,26.546358108520508,23017288.0,49925.0,0.042515511928500005,0.4740605021683044,-0.3664844330392286,0.0021822625276291686,0.023654043442950724,-0.01834596760215169,23.017288530012593
1639,D,180945089531160.0,0.8013094,9.351801723200891,2.3946569396499027,202,1970-01-03 02:15:45.089531160,0.019883692,0.0038725026,0.008509599,9.86824805280483,0.02197204494530884,-103.28948974609375,-5.113902568817139,26.546302795410156,23067213.0,49925.0,0.0404237283175,0.46963789604330447,-0.36660396347422863,0.002070370784640775,0.023557071265357287,-0.018299719097967175,23.067213330010418
1639,D,180945139455960.0,0.8108862,9.466722723200892,2.4712712396499024,202,1970-01-03 02:15:45.139455960,0.00710052,0.0006767092,0.007444334,9.74005248339807,0.010309870431548625,-103.28458404541016,-5.105090141296387,26.54578399658203,23117138.0,49925.0,0.040244432664999996,0.46975741649330444,-0.36779926782422867,0.0020136789685256556,0.023449655489195097,-0.018332540661287738,23.117138130008243
1639,D,180945189380760.0,0.8252514,9.43799272320089,2.5023958396499024,202,1970-01-03 02:15:45.189380760,0.0039047268,0.0038725026,-0.0074693677,9.76217643687083,0.009275484979635743,-103.27452087402344,-5.099106311798096,26.5447998046875,23167062.0,49924.0,0.04084126677120001,0.4718995069730813,-0.36510252236651836,0.0020240612293264248,0.02350564012356792,-0.01829469448674143,23.167062930006068
1639,D,180945239305560.0,0.8228572,9.397290723200891,2.5000016396499025,202,1970-01-03 02:15:45.239305560,0.0017741979,0.0006767092,0.002118012,9.802044482594896,0.002844589313393596,-103.26382446289062,-5.091925621032715,26.54380226135254,23216987.0,49925.0,0.041140910927499996,0.47017576303080444,-0.3643926529229786,0.0020464801108037987,0.023516553927471994,-0.018210023313164066,23.216987730003893
1639,D,180945289230360.0,0.87313545,9.478694723200892,2.5263378396499023,202,1970-01-03 02:15:45.289230360,0.0049699913,-0.0003885552,0.0127706565,9.721515013023946,0.013709174158442769,-103.25213623046875,-5.092827320098877,26.54265785217285,23266912.0,49925.0,0.042336216525625,0.4711917867058045,-0.36379500074797866,0.0020837977940486325,0.0234988874603001,-0.01817738430476127,23.26691253000172
1639,D,180945339155160.0,0.8348282,9.430809723200891,2.5095785396499024,202,1970-01-03 02:15:45.339155160,-0.0067479177,-0.0003885552,0.0031832764,9.768374292016059,0.007471185787290883,-103.2421646118164,-5.087916851043701,26.541725158691406,23316837.0,49925.0,0.04263504261312499,0.4720285047433045,-0.36355593738172864,0.0021210950562510467,0.023545136525298382,-0.018156497793062817,23.316837329999544
1639,D,180945389079960.0,0.8420108,9.44996272320089,2.5598569396499027,202,1970-01-03 02:15:45.389079960,0.0166879,-0.004649613,-0.0010777813,9.739357715360988,0.017357030851801777,-103.22469329833984,-5.084718227386475,26.54048728942871,23366762.0,49925.0,0.041858093537499995,0.4713112821933044,-0.36271921684797864,0.002109159911159976,0.0235481194314051,-0.018129643537459064,23.36676212999737
1639,D,180945439004760.0,0.8348282,9.406867723200891,2.4353583396499023,202,1970-01-03 02:15:45.439004760,0.008165784,-0.0003885552,-0.008534633,9.80829538827176,0.011818247074875023,-103.22447967529297,-5.080074787139893,26.540616989135742,23416686.0,49924.0,0.041857255118,0.47070420160308124,-0.36456463619811835,0.002089702533138591,0.02351459050652538,-0.018154459539736673,23.416686929995194
1639,D,180945488929560.0,0.8515876,9.31349372320089,2.6101350396499026,202,1970-01-03 02:15:45.488929560,0.029471073,-0.0014538197,0.002118012,9.862290848379448,0.029582827963593693,-103.19529724121094,-5.076817035675049,26.5382137298584,23466611.0,49925.0,0.0420971544075,0.4673070226058045,-0.36331687151922865,0.0020957119477802936,0.02341510518431431,-0.018169742136394273,23.46661172999302
1639,D,180945538854360.0,0.8539818,9.41165572320089,2.5526743396499025,202,1970-01-03 02:15:45.538854360,0.0049699913,-0.0057148775,0.0127706565,9.779202503492945,0.014847569019980146,-103.17938232421875,-5.074459552764893,26.536958694458008,23516536.0,49925.0,0.042575276147499994,0.4674265430558044,-0.36038837086922865,0.002113635547729187,0.02333328663282791,-0.018065492113121865,23.516536529990844
1639,D,180945588779160.0,0.79173255,9.490664723200892,2.5814047396499027,202,1970-01-03 02:15:45.588779160,-0.011008975,-0.0025190841,-0.008534633,9.690878160982477,0.014155679980071138,-103.16304779052734,-5.065148830413818,26.535686492919922,23566461.0,49925.0,0.041081144461875,0.4718491741433044,-0.36110555098297864,0.002088273399461523,0.023446670090582752,-0.01801029202423572,23.566461330017773
1639,D,180945638703960.0,0.8108862,9.42841572320089,2.4593003396499027,202,1970-01-03 02:15:45.638703960,0.00710052,0.0006767092,-0.0074693677,9.77993826564235,0.01032796075949013,-103.1617431640625,-5.057793140411377,26.535654067993164,23616386.0,49925.0,0.040005370546874995,0.4722675456433045,-0.3634363994579786,0.0020241221309059217,0.023567513617673223,-0.018086378437882394,23.6163861300156
1639,D,180945688628760.0,0.8037036,9.433203723200892,2.5335207396499024,202,1970-01-03 02:15:45.688628760,-0.01207424,0.0006767092,-0.00320831,9.758161438155755,0.012511533078526574,-103.15093231201172,-5.049624919891357,26.534650802612305,23666310.0,49924.0,0.040303390587600005,0.47082374462108134,-0.36462440021851833,0.002004667295438765,0.0235414447875796,-0.01817385368152472,23.666310930013424
1639,D,180945738553560.0,0.8060978,9.387713723200891,2.5718279396499026,202,1970-01-03 02:15:45.738553560,-0.018465826,0.00813356,-0.0064041032,9.794301886896719,0.021169649641222837,-103.13373565673828,-5.041822910308838,26.532737731933594,23716235.0,49925.0,0.040184667447499996,0.46981715175580446,-0.3618227335929786,0.0020091831487011836,0.02348074837580801,-0.018133936577769492,23.71623573001125
1639,D,180945788482300.0,0.77976155,9.476299723200892,2.5670395396499024,202,1970-01-03 02:15:45.788482300,0.0039047268,0.004937767,-1.2516857e-05,9.706992492347997,0.006295124383253789,-103.11936950683594,-5.031028747558594,26.531251907348633,23766164.0,49929.0,0.039590185743075004,0.47093066368269737,-0.36101494281302005,0.0019915393224761097,0.02348529883851448,-0.018045281172637557,23.76616446999833
1639,D,180945838411040.0,0.77497315,9.418838723200892,2.5095785396499024,202,1970-01-03 02:15:45.838411040,-0.0056826533,0.0017419737,-0.00320831,9.7750763143755,0.006754278196490916,-103.11225891113281,-5.019111156463623,26.530559539794922,23816093.0,49929.0,0.03881317441815,0.47170768374519734,-0.36256896795932003,0.0019573006847449018,0.023532495024363678,-0.018063910540476083,23.816093210014515
1639,D,180945888339780.0,0.86355865,9.39010872320089,2.5095785396499024,202,1970-01-03 02:15:45.888339780,-0.009943711,-0.0025190841,-0.005338839,9.810404363426303,0.011564012064258443,-103.10464477539062,-5.020117282867432,26.530031204223633,23866021.0,49928.0,0.0409043078552,0.4695465640519741,-0.3639961626723597,0.0019900672274719092,0.02349747104200859,-0.018137971921089253,23.866021950001596
1639,D,180945938268520.0,0.8037036,9.464329223200892,2.5095785396499024,202,1970-01-03 02:15:45.938268520,0.011361578,0.0028072381,-0.0010777813,9.733196294868772,0.011752772138130021,-103.09854125976562,-5.013111114501953,26.529417037963867,23915950.0,49929.0,0.041622368440125,0.47069161611294724,-0.36400345309382004,0.0020602372103746412,0.02347257604872718,-0.018174146407794793,23.91595069001778
1639,D,180945988197260.0,0.77976155,9.43799272320089,2.5215495396499024,202,1970-01-03 02:15:45.988197260,-0.0014215953,0.0028072381,-0.0010777813,9.754194742782994,0.0033261286020993524,-103.09065246582031,-5.002498149871826,26.528602600097656,23965879.0,49929.0,0.039530415737175,0.47188701623094736,-0.36370460306432006,0.0020259386805942057,0.023531004267149158,-0.01816686776795989,23.96587943000486
1639,D,180946038126000.0,0.8420108,9.40207872320089,2.5933757396499026,202,1970-01-03 02:15:46.038126000,-0.0056826533,-0.0014538197,0.0010527476,9.778743100721876,0.005959397432409986,-103.07170867919922,-5.000870227813721,26.526981353759766,24015808.0,49929.0,0.040486735831575006,0.47033296362369725,-0.3616126478649201,0.0019975881803380594,0.023522050687081276,-0.018107182510823015,24.015808169991942
1639,D,180946088054740.0,0.844405,9.440386723200891,2.5119726396499025,202,1970-01-03 02:15:46.088054740,0.00070893345,-0.0025190841,-0.0064041032,9.759364823891943,0.006918157929366165,-103.06587219238281,-5.000222206115723,26.526670455932617,24065736.0,49928.0,0.04209968403119999,0.4703833074039741,-0.3618444830591597,0.002061687385454315,0.023484040989934788,-0.01806038381638873,24.065736910008127
1639,D,180946137983480.0,0.86355865,9.349406723200891,2.5454917396499024,202,1970-01-03 02:15:46.137983480,-0.0014215953,0.007068296,-0.013860954,9.84212412395796,0.01562394915924633,-103.0525131225586,-5.001818656921387,26.525312423706055,24115665.0,49929.0,0.042638458540425,0.46907779849269726,-0.36304713050297005,0.002115445360229332,0.02345317677815745,-0.01809655668677179,24.115665649995208
1639,D,180946187912220.0,0.8276456,9.430809723200891,2.5287323396499026,202,1970-01-03 02:15:46.187912220,-0.0014215953,0.0017419737,0.002118012,9.76353973927016,0.0030889124948139564,-103.04451751708984,-4.998260021209717,26.52450180053711,24165594.0,49929.0,0.042220068499125,0.46883871347619727,-0.36262873297232007,0.002118450698278846,0.023414616763047468,-0.01811613509372888,24.165594390011393
1639,D,180946237840960.0,0.856376,9.430809723200891,2.4497235396499026,202,1970-01-03 02:15:46.237840960,-0.0056826533,-0.0014538197,-0.0010777813,9.783663775387316,0.005963870620556642,-103.04826354980469,-4.998879909515381,26.524887084960938,24215523.0,49929.0,0.0420407572332,0.4708708986696973,-0.3650195382012201,0.002103529383994627,0.023459380612416186,-0.018165375265711842,24.215523129998473
1639,D,180946287769700.0,0.78933835,9.481087723200892,2.6101350396499026,202,1970-01-03 02:15:46.287769700,0.0049699913,-0.0035843486,-0.0064041032,9.693849086105683,0.008863459042870784,-103.02994537353516,-4.990952968597412,26.5235595703125,24265451.0,49928.0,0.0410836130334,0.47211660785197407,-0.3629800904263597,0.0020751167793354023,0.023540740112807,-0.018173782729058903,24.265451870014658
1639,D,180946337698440.0,0.8037036,9.406867723200891,2.5047900396499023,202,1970-01-03 02:15:46.337698440,-0.00248686,-0.0057148775,-0.011730426,9.790088441751903,0.013283342638096869,-103.02525329589844,-4.984409809112549,26.523550033569336,24315380.0,49929.0,0.039769495760775,0.4715283637416973,-0.36161265285782007,0.0020184574344921822,0.023557624893350212,-0.018089095539717905,24.31538061000174
1639,D,180946387627180.0,0.8491934,9.457145723200892,2.5383091396499027,202,1970-01-03 02:15:46.387627180,-0.014204768,-0.0014538197,-0.008534633,9.737697223962066,0.016635173161065116,-103.01807403564453,-4.985273838043213,26.523029327392578,24365309.0,49929.0,0.0412637471565,0.47093066368269737,-0.36340575053837004,0.002022954392808312,0.023528018390136303,-0.01809972193158419,24.365309350017924
1639,D,180946437555920.0,0.87313545,9.445174723200891,2.4736655396499025,202,1970-01-03 02:15:46.437555920,-0.037640586,0.0017419737,-0.013860954,9.765796579075754,0.04014939890689527,-103.0211410522461,-4.989573955535889,26.52320098876953,24415238.0,49929.0,0.042997078575825,0.4718869787841973,-0.36418275811862005,0.002103529383994627,0.02353697103536479,-0.01816388332436743,24.415238090005005
1639,D,180946487484660.0,0.8219594,9.44203272320089,2.4815962396499023,202,1970-01-03 02:15:46.487484660,-0.02911847,-0.0035843486,-0.004273575,9.762621163407237,0.02964787164886962,-103.0224609375,-4.985747337341309,26.523412704467773,24465166.0,49928.0,0.0423163478354,0.47150024669197405,-0.36559124494155976,0.002129764376929821,0.02355071869678714,-0.01821807821239433,24.465166829992086
1639,D,180946537413400.0,0.8339304,9.49949372320089,2.4600485396499026,202,1970-01-03 02:15:46.537413400,-0.045097437,0.0006767092,-0.017056748,9.712751413267673,0.04822001048989763,-103.02957153320312,-4.985079765319824,26.52399253845215,24515095.0,49929.0,0.0413384609121,0.47286573697119727,-0.36593850890717006,0.002088400472976964,0.02357562459915924,-0.018262274539956616,24.51509557000827
1639,D,180946587342140.0,0.8315362,9.44203272320089,2.4408948396499026,202,1970-01-03 02:15:46.587342140,0.0017741979,0.0006767092,-0.017056748,9.772645733946101,0.017162120086552043,-103.03499603271484,-4.983317852020264,26.524639129638672,24565024.0,49929.0,0.04157754093569999,0.47286573697119727,-0.3669545990074701,0.0020699565281294026,0.02360971338123491,-0.018296309992535034,24.56502430999535
1639,D,180946637270880.0,0.84829557,9.444426723200891,2.3882225396499024,202,1970-01-03 02:15:46.637270880,-0.00035633094,-0.0003885552,-0.011730426,9.783927538095814,0.011742267286334627,-103.04796600341797,-4.983656406402588,26.525909423828125,24614953.0,49929.0,0.041936160222164995,0.47149101684969724,-0.36874769918447003,0.0020848777925555205,0.023575394180761725,-0.01836644002321269,24.614953050011536
1639,D,180946687199620.0,0.888997,9.454003723200891,2.5079326396499027,202,1970-01-03 02:15:46.687199620,-0.0035521241,-0.0003885552,-0.010665162,9.750999231914461,0.011247854962235772,-103.04396057128906,-4.990354061126709,26.525686264038086,24664881.0,49928.0,0.04336977171748,0.4717804176639741,-0.3670667821039597,0.0021295772849412977,0.02354782809119929,-0.01836887271088436,24.664881789998617
1639,D,180946737128360.0,0.8315362,9.494705723200891,2.5007500396499025,202,1970-01-03 02:15:46.737128360,-0.0067479177,0.0038725026,-0.0021430457,9.708004340173613,0.008069901768006135,-103.04255676269531,-4.988584041595459,26.525371551513672,24714810.0,49929.0,0.0429522510714,0.4730450569746973,-0.36426494125262004,0.002154986137912995,0.023587095561617113,-0.018257330807735336,24.7148105300148
1639,D,180946787057100.0,0.8794202,9.504282723200891,2.4121645396499023,202,1970-01-03 02:15:46.787057100,-0.004617389,0.0038725026,-0.010665162,9.723139503162548,0.012249989308181938,-103.05416107177734,-4.994168758392334,26.526287078857422,24764739.0,49929.0,0.0427131710478,0.4743002470701973,-0.36665574398507006,0.0021385944304947685,0.023650001842828772,-0.018247069446616318,24.764739270001883
1639,D,180946836989500.0,0.8866028,9.463580723200891,2.3954050396499023,202,1970-01-03 02:15:46.836989500,0.00070893345,0.0006767092,-0.018122012,9.767103440490025,0.01814849417737013,-103.06626892089844,-5.0004119873046875,26.527523040771484,24814671.0,49932.0,0.044090530218,0.47355167880286686,-0.36930781788320105,0.0021671412058019627,0.02366407118134692,-0.018374066285603258,24.81467166999937
1639,D,180946886921900.0,0.912939,9.374994723200892,2.4432890396499025,202,1970-01-03 02:15:46.886921900,-0.00035633094,0.0017419737,-0.00320831,9.844348764378944,0.003668064498668606,-103.06824493408203,-5.008605003356934,26.52764129638672,24864604.0,49933.0,0.0449282603497,0.4703332938825901,-0.3685381442691615,0.0022224876347084824,0.023565504170551463,-0.01842143121407696,24.864604069996858
1639,D,180946936854300.0,0.8818144,9.456397723200892,2.4097702396499026,202,1970-01-03 02:15:46.936854300,0.0028394624,-0.0003885552,0.002118012,9.770288204158076,0.003563635320372274,-103.07757568359375,-5.012742042541504,26.52846908569336,24914536.0,49932.0,0.04480781338439999,0.47014454381686693,-0.36817212203300104,0.0022403508168455408,0.023479969696004643,-0.018392708508499788,24.914536469994346
1639,D,180946986786700.0,0.85787237,9.473157723200892,2.4097702396499026,202,1970-01-03 02:15:46.986786700,-0.018465826,-0.0003885552,-0.008534633,9.751919722288145,0.02034644110035984,-103.08829498291016,-5.014009952545166,26.52943992614746,24964468.0,49932.0,0.04343301989982,0.47259528127486694,-0.3690089523938011,0.0022030206437738363,0.023536442473240226,-0.01840446270413954,24.964468869991833
1639,D,180947036719100.0,0.877026,9.398936723200892,2.3834340396499023,202,1970-01-03 02:15:47.036719100,-0.011008975,0.004937767,-0.01279569,9.831626027564425,0.017587175898165518,-103.09956359863281,-5.01728630065918,26.530275344848633,25014401.0,49933.0,0.043314340154605,0.4711701459960901,-0.36967386536086144,0.002165777964798802,0.023562519539960348,-0.018442324569471782,25.01440126998932
1639,D,180947086651500.0,0.93927526,9.461185723200892,2.4504715396499024,202,1970-01-03 02:15:47.086651500,-0.01207424,0.0060030315,-0.005338839,9.761661796869324,0.014502650124563898,-103.10316467285156,-5.030223846435547,26.53031349182129,25064333.0,49932.0,0.04534577725716,0.47086181699686686,-0.3686503133072011,0.002213488491302125,0.023518769988082163,-0.01843300144462685,25.064333670015913
1639,D,180947136583900.0,0.8937854,9.434849723200891,2.4552600396499025,202,1970-01-03 02:15:47.136583900,-0.011008975,0.0028072381,-0.004273575,9.781835762947281,0.012138433160064013,-103.10502624511719,-5.035772800445557,26.53033447265625,25114266.0,49933.0,0.045765108967889996,0.4717678689725901,-0.36686445252541144,0.0022747199409377107,0.023534164054756446,-0.01836322940115992,25.1142660700134
1639,D,180947186516300.0,0.9177274,9.461185723200892,2.3786456396499025,202,1970-01-03 02:15:47.186516300,-0.014204768,0.0017419737,0.008509599,9.776214779219295,0.01665002046383477,-103.11888122558594,-5.044151782989502,26.53131675720215,25164198.0,49932.0,0.0452262285648,0.47175842095486686,-0.3686503108106011,0.0022716897328411384,0.02355607735432889,-0.018362861581446892,25.164198470010888
1639,D,180947236448700.0,0.8626608,9.463580723200891,2.4193470396499026,202,1970-01-03 02:15:47.236448700,0.0049699913,0.0006767092,0.007444334,9.759404100640719,0.008976461305380663,-103.12567138671875,-5.0444722175598145,26.531814575195312,25214130.0,49932.0,0.0444491718012,0.4724757191008669,-0.3695469147686011,0.0022388360455375556,0.023573749540631447,-0.01842983193381036,25.214130870008375
1639,D,180947286381100.0,0.86355865,9.452806723200892,2.3949561396499024,202,1970-01-03 02:15:47.286381100,0.0039047268,-0.0057148775,0.0031832764,9.775577111159073,0.007618396475731717,-103.1355209350586,-5.044844150543213,26.53293800354004,25264063.0,49933.0,0.043097657898425,0.47227598718059016,-0.36914709967401144,0.0021857379236956873,0.023587143474875994,-0.018442604111581485,25.264063270005863
1639,D,180947336313500.0,0.8467992,9.414499723200892,2.4524169396499023,202,1970-01-03 02:15:47.336313500,0.008165784,0.0060030315,0.0053138053,9.798040916168834,0.011443467232048001,-103.13533020019531,-5.042483329772949,26.532608032226562,25313995.0,49932.0,0.04270079408309999,0.47104117274086693,-0.3683140837022011,0.002142044152170753,0.023550856214599097,-0.018411455904170523,25.31399567000335
1639,D,180947386245900.0,0.8491934,9.500690723200892,2.4476285396499025,202,1970-01-03 02:15:47.386245900,-0.0067479177,0.004937767,0.0063790698,9.7157494904146,0.010517056039858984,-103.13948822021484,-5.041524410247803,26.532630920410156,25363928.0,49933.0,0.04234299924789999,0.4722461022800901,-0.3670064145410614,0.002123245866198411,0.023550581751810726,-0.018358379219390413,25.36392807000084
1639,D,180947436178300.0,0.88750064,9.428864723200892,2.4284749396499024,202,1970-01-03 02:15:47.436178300,0.009231049,0.0006767092,0.011705392,9.793170180987348,0.01492268081999443,-103.14307403564453,-5.044911861419678,26.532817840576172,25413860.0,49932.0,0.04335830340264,0.47259528127486694,-0.3675968005358011,0.002139618721973381,0.023588909981833057,-0.01834010386760895,25.413860469998326
1639,D,180947486110700.0,0.9736919,9.46956572320089,2.4428401396499027,202,1970-01-03 02:15:47.486110700,0.015622635,0.0038725026,0.008509599,9.758657173145021,0.01820648993823446,-103.14555358886719,-5.0615763664245605,26.53282356262207,25463792.0,49932.0,0.04646653295364,0.4718182145248669,-0.36771634773020107,0.0022425668644708865,0.023578227336136154,-0.018357828059609012,25.463792869995814
1639,D,180947536043100.0,0.856376,9.44801872320089,2.4380517396499024,202,1970-01-03 02:15:47.536043100,0.0166879,0.0028072381,0.0031832764,9.76963631905208,0.01721917073493635,-103.14789581298828,-5.060636520385742,26.532934188842773,25513725.0,49933.0,0.04569039022535,0.4723058720810901,-0.36748461289546147,0.0023008358225482537,0.023571474008247627,-0.018355394783460603,25.5137252699933
1639,D,180947585975500.0,0.86355865,9.45759572320089,2.4500227396499024,202,1970-01-03 02:15:47.585975500,0.032666866,-0.006780142,0.018096978,9.758250813800375,0.03795517188124175,-103.14801788330078,-5.06008768081665,26.533212661743164,25563657.0,49932.0,0.042939888471899994,0.47199757026886685,-0.3672979325498011,0.002212743537955543,0.023575479741709024,-0.018344581029586422,25.56365766999079
1639,D,180947635907900.0,0.8491934,9.48871972320089,2.4428401396499027,202,1970-01-03 02:15:47.635907900,0.0316016,-0.0003885552,0.030880151,9.728452084538667,0.04418592336351305,-103.15021514892578,-5.05726957321167,26.5332088470459,25613590.0,49933.0,0.042761424056325,0.47302318459259013,-0.36718573892396145,0.0021396618192359293,0.023593860676248565,-0.018337486583849694,25.61359007001738
1639,D,180947685840300.0,0.77497315,9.443229723200892,2.4524169396499023,202,1970-01-03 02:15:47.685840300,0.0017741979,0.0006767092,-1.2516857e-05,9.76420786016863,0.0018989128999083156,-103.15098571777344,-5.0446553230285645,26.53325653076172,25663522.0,49932.0,0.0405489420873,0.4726550498788668,-0.3671186117582011,0.0020799266011417416,0.023609802801814392,-0.01833264241913087,25.66352247001487
1639,D,180947735772700.0,0.8252514,9.44562372320089,2.5362141396499025,202,1970-01-03 02:15:47.735772700,0.010296313,0.0017419737,0.009574863,9.747297094696762,0.014167799237504379,-103.13931274414062,-5.039515018463135,26.53207778930664,25713454.0,49932.0,0.0399512061153,0.4715791151428669,-0.3647874364742011,0.0020097667000261114,0.0235737501639326,-0.018272766400170153,25.713454870012356
1639,D,180947785705100.0,0.832434,9.476748723200892,2.4500227396499024,202,1970-01-03 02:15:47.785705100,0.010296313,0.010264089,0.015966449,9.736969175827396,0.021593820367491506,-103.1413345336914,-5.0354743003845215,26.531620025634766,25763387.0,49933.0,0.0413866025391,0.47242541168309005,-0.36485451695296145,0.0020307203997700775,0.023568489019000254,-0.018216605830239253,25.763387270009844
1639,D,180947835637500.0,0.8420108,9.45759572320089,2.5122721396499026,202,1970-01-03 02:15:47.835637500,0.0060352557,0.007068296,0.0063790698,9.742376210605102,0.011272872358954062,-103.13396453857422,-5.033313751220703,26.53059196472168,25813319.0,49932.0,0.04180418887679999,0.47271484344886683,-0.3654449460434011,0.002076941298489359,0.023596371609624436,-0.01823265639316719,25.81331967000733
1639,D,180947885573330.0,0.8276456,9.380980723200892,2.4763591396499023,202,1970-01-03 02:15:47.885573330,0.02414475,0.010264089,0.015966449,9.823551364360513,0.030712342294784714,-103.12844848632812,-5.02764368057251,26.52953338623047,25863255.0,49936.0,0.041687980995200005,0.47036157671375967,-0.3648166542184425,0.002084632497364096,0.02354673205862046,-0.018233171635337712,25.863255500007654
1639,D,180947935509160.0,0.8108862,9.443229723200892,2.4787533396499026,202,1970-01-03 02:15:47.935509160,0.017753165,0.0028072381,0.009574863,9.761171391262181,0.020365005640462897,-103.12517547607422,-5.02064847946167,26.529083251953125,25913191.0,49936.0,0.0409108619824,0.47000288642575977,-0.36565355161684254,0.002062327911464717,0.02347901991566752,-0.018238380099295397,25.913191330007976
1639,D,180947985444990.0,0.8467992,9.42168172320089,2.5003011396499026,202,1970-01-03 02:15:47.985444990,0.012426842,0.004937767,0.0031832764,9.780327398802251,0.013745588153223926,-103.11841583251953,-5.019210338592529,26.52826499938965,25963127.0,49936.0,0.041389089067200006,0.47101910899375976,-0.36505576776084253,0.0020548651778064127,0.023495437181634566,-0.01824435028622204,25.9631271600083
1639,D,180948035380820.0,0.8348282,9.39055772320089,2.5122721396499026,202,1970-01-03 02:15:48.035380820,0.0017741979,0.010264089,0.009574863,9.806887178371882,0.014148402830604393,-103.10961151123047,-5.015462875366211,26.52689552307129,26013062.0,49935.0,0.0419860321095,0.4696945883780365,-0.36421157664908216,0.0020816683379792575,0.02348726923913032,-0.018207982421554796,26.01306299000862
1639,D,180948085316650.0,0.81881696,9.351202723200892,2.5023958396499024,202,1970-01-03 02:15:48.085316650,0.009231049,0.0038725026,0.0127706565,9.845960751361837,0.01622646632721986,-103.10082244873047,-5.008761405944824,26.525836944580078,26062998.0,49936.0,0.04128821235488,0.46794427482575973,-0.3641665698928425,0.00207919133578664,0.023410967136472383,-0.018186145562858774,26.062998820008943
1639,D,180948135252480.0,0.8523358,9.542738723200891,2.4904248396499025,202,1970-01-03 02:15:48.135252480,0.015622635,0.004937767,0.010640128,9.665514694345466,0.019536135522305785,-103.09996795654297,-5.009554862976074,26.52547264099121,26112934.0,49936.0,0.041725342111680004,0.47174393003375975,-0.36471205327924255,0.0020726824279210703,0.023462135098932482,-0.018198641463360622,26.112934650009265
1639,D,180948185188310.0,0.8331822,9.370355723200891,2.5143668396499024,202,1970-01-03 02:15:48.185188310,0.010296313,0.0060030315,-0.0074693677,9.825918992631557,0.014065628404794596,-103.09027099609375,-5.006355285644531,26.52446174621582,26162870.0,49936.0,0.042084013424000005,0.4722221421377597,-0.3644131613512425,0.0020925519890148585,0.0235689448899785,-0.01820479835889395,26.162870480009587
1639,D,180948235124140.0,0.79487497,9.427816723200891,2.5718279396499026,202,1970-01-03 02:15:48.235124140,0.0060352557,0.0038725026,0.0053138053,9.75435479105898,0.008925083445979502,-103.07463836669922,-4.997842311859131,26.522878646850586,26212806.0,49936.0,0.04064933142056,0.4693527696417597,-0.3623806887504425,0.002065686154078974,0.02350924239731104,-0.018146588849338872,26.21280631000991
1639,D,180948285059970.0,0.78529817,9.511614723200891,2.5311265396499025,202,1970-01-03 02:15:48.285059970,0.015622635,0.0006767092,0.013835921,9.680966568566248,0.020879592179993137,-103.0675277709961,-4.988551139831543,26.522140502929688,26262742.0,49936.0,0.039453762959519995,0.47287972435375975,-0.3619622325608425,0.0020000140604818375,0.02352566091008013,-0.018085394059300163,26.262742140010232
1639,D,180948334995800.0,0.7158663,9.437393723200891,2.5598569396499027,202,1970-01-03 02:15:48.334995800,0.0017741979,0.0017419737,-0.0021430457,9.7414982849503,0.0032825135844569767,-103.05471801757812,-4.969324111938477,26.52097511291504,26312677.0,49935.0,0.037480323904725,0.4731093683855365,-0.3622538699805822,0.001920851813783037,0.02361898267296838,-0.01808186554020302,26.312677970010554
1639,D,180948384931630.0,0.7613561,9.389509723200892,2.5646453396499025,202,1970-01-03 02:15:48.384931630,0.00710052,-0.0003885552,0.0010527476,9.790516287709819,0.007188646390187293,-103.03975677490234,-4.956543922424316,26.51972007751465,26362613.0,49936.0,0.0368832888832,0.4700701252497597,-0.36142422709044253,0.0018567106840889115,0.023549305597086075,-0.018068794727669344,26.362613800010877
1639,D,180948434867460.0,0.8475474,9.487672723200891,2.6005583396499024,202,1970-01-03 02:15:48.434867460,0.0049699913,0.0028072381,-0.005338839,9.69439608200323,0.007815663832336207,-103.0232162475586,-4.95831823348999,26.518232345581055,26412549.0,49936.0,0.040171102587999996,0.4713254913217597,-0.3604079945352425,0.0019238940462529216,0.023504765754557698,-0.018022706909550105,26.4125496300112
1639,D,180948484803290.0,0.8451532,9.418239723200891,2.5335207396499024,202,1970-01-03 02:15:48.484803290,0.009231049,-0.0014538197,-0.008534633,9.776206126316245,0.012655663467602088,-103.01435852050781,-4.958746910095215,26.517677307128906,26462485.0,49936.0,0.0422633485808,0.47204282196175973,-0.3611851135480425,0.0020582233767825983,0.023554020046062912,-0.01801673672262346,26.46248546001152
1639,D,180948534739120.0,0.78290397,9.415846723200891,2.6029525396499023,202,1970-01-03 02:15:48.534739120,0.014557371,0.0028072381,-0.0010777813,9.758388448827489,0.014864698070003382,-102.99533081054688,-4.949914932250977,26.515968322753906,26512421.0,49936.0,0.04064933142056,0.47024947039375975,-0.3611253351624425,0.0020701637942739564,0.02352715395553261,-0.01803464728340339,26.512421290011844
1639,D,180948584674950.0,0.81402856,9.399086723200892,2.5167610396499023,202,1970-01-03 02:15:48.584674950,0.010296313,-0.0014538197,-0.0021430457,9.795860619020663,0.01061698158547737,-102.98889923095703,-4.945426940917969,26.515560150146484,26562357.0,49936.0,0.03987221140904,0.4697712582897597,-0.36154379135204257,0.002010461881369453,0.023470437553770113,-0.018043602750813664,26.562357120012166
1639,D,180948634610780.0,0.80445176,9.35359672320089,2.5000016396499025,202,1970-01-03 02:15:48.634610780,0.00070893345,-0.0035843486,0.0010527476,9.842977764107989,0.0038024227845094532,-102.98399353027344,-4.938897132873535,26.515295028686523,26612292.0,49935.0,0.0404094073896,0.4682076239480365,-0.3641069778045822,0.0020044313173550442,0.023418987742272176,-0.01811768557891803,26.61229295001249
1639,D,180948684546610.0,0.80205756,9.43499972320089,2.5287323396499026,202,1970-01-03 02:15:48.684546610,-0.00035633094,-0.0025190841,-0.0064041032,9.757330824182473,0.006890957425345503,-102.97781372070312,-4.933585166931152,26.514955520629883,26662228.0,49936.0,0.040111324701759994,0.46911367607375976,-0.36381537000484254,0.002010441638857076,0.02340303821894421,-0.018174765180105718,26.66222878001281
1639,D,180948734482440.0,0.80205756,9.461335723200891,2.5335207396499024,202,1970-01-03 02:15:48.734482440,-0.0014215953,0.0006767092,0.002118012,9.730677950710023,0.002639098969438382,-102.97198486328125,-4.928352355957031,26.514392852783203,26712164.0,49936.0,0.04005154631616,0.4718037034257597,-0.36297846511604254,0.0020015065635754265,0.023492825131344004,-0.01814658847529826,26.712164610013133
1639,D,180948784418270.0,0.8355764,9.427816723200891,2.4593003396499027,202,1970-01-03 02:15:48.784418270,0.0017741979,0.0038725026,0.011705392,9.782597576397437,0.012456333989141234,-102.9756851196289,-4.927112102508545,26.514400482177734,26762100.0,49936.0,0.04088844471328,0.4716243582817597,-0.3647120432920425,0.0020209096960230578,0.023555511844713346,-0.018168976613933067,26.762100440013455
1639,D,180948834354100.0,0.7326257,9.415846723200891,2.6101350396499026,202,1970-01-03 02:15:48.834354100,-0.004617389,0.0060030315,-0.008534633,9.752962129602203,0.011410373736736333,-102.9575424194336,-4.91212797164917,26.512622833251953,26812036.0,49936.0,0.03915487003280001,0.47048858892975975,-0.36279913744964254,0.0019985214825801257,0.02352267606597722,-0.01816449916075839,26.812036270013778
1639,D,180948884289930.0,0.7957728,9.419287723200892,2.5547690396499023,202,1970-01-03 02:15:48.884289930,0.00070893345,-0.004649613,-0.01279569,9.76641267594264,0.013632724242146099,-102.94775390625,-4.906739711761475,26.512163162231445,26861972.0,49936.0,0.038161053748,0.4702756368577597,-0.3604154749480425,0.0019304239849590149,0.023489001189462788,-0.0180572224423454,26.8619721000141
1639,D,180948934228950.0,0.86759883,9.43125872320089,2.5523748396499024,202,1970-01-03 02:15:48.934228950,-0.020596355,-0.0035843486,-0.004273575,9.761409288342225,0.021338248228309934,-102.9399642944336,-4.911721706390381,26.511627197265625,26911911.0,49939.0,0.04153355791528499,0.4706887194934293,-0.3618793709058235,0.0019899346059263946,0.023495409495911012,-0.018035341153548108,26.911911119997967
1639,D,180948984167970.0,0.8005612,9.50308472320089,2.4590010396499027,202,1970-01-03 02:15:48.984167970,-0.014204768,-0.0035843486,-0.008534633,9.7066981333068,0.016954732356036617,-102.9478988647461,-4.9075775146484375,26.512516021728516,26961850.0,49939.0,0.041653121869085,0.4727810886849293,-0.3642706499818235,0.0020771298008758266,0.023557969375309525,-0.018131602946554103,26.961850140010938
1639,D,180949034106990.0,0.7670424,9.404922723200892,2.5427980396499024,202,1970-01-03 02:15:49.034106990,-0.015270033,-0.0003885552,-0.011730426,9.780691433919179,0.019259485380092898,-102.94035339355469,-4.89790678024292,26.511953353881836,27011789.0,49939.0,0.039142278090199996,0.4721234919329293,-0.36450977788942357,0.002017420739283367,0.02359379492573762,-0.0181972828937311,27.011789159994805
1639,D,180949084046010.0,0.810138,9.46956572320089,2.5236445396499025,202,1970-01-03 02:15:49.084046010,-0.0056826533,-0.0014538197,-0.01279569,9.725525373563581,0.014076072705986176,-102.93739318847656,-4.895523548126221,26.51188850402832,27061728.0,49939.0,0.0393814059978,0.4712865392624293,-0.3628956620161735,0.0019606971298353156,0.023556476773932505,-0.018162950131722807,27.061728180007776
1639,D,180949133985030.0,0.87238723,9.41210472320089,2.5523748396499024,202,1970-01-03 02:15:49.133985030,-0.022726884,-0.0014538197,-0.013860954,9.78045539001429,0.02665991173765735,-102.92936706542969,-4.901732921600342,26.511333465576172,27111667.0,49939.0,0.042011813730484994,0.47146587021142927,-0.36265653410857357,0.002032348000005412,0.02354005628835751,-0.018116675561136872,27.111667199991643
1639,D,180949183924050.0,0.8843582,9.40971172320089,2.5906822396499023,202,1970-01-03 02:15:49.183924050,-0.00248686,0.0006767092,-0.0064041032,9.77562721876275,0.006903256173518036,-102.9149398803711,-4.909273147583008,26.510128021240234,27161606.0,49939.0,0.043865055014385,0.4699713457584293,-0.36098263625842353,0.002144302474125031,0.02350721656415938,-0.018068908264478732,27.161606220004614
1639,D,180949233863070.0,0.84126264,9.438441723200892,2.4781546396499023,202,1970-01-03 02:15:49.233863070,-0.01740056,0.0038725026,-0.009599897,9.768523616195415,0.020246821654551505,-102.91870880126953,-4.910563945770264,26.510295867919922,27211545.0,49939.0,0.04308788956438,0.47062896747992927,-0.36283587754232355,0.0021711715496594724,0.023486319521405192,-0.018073386380347754,27.211545240017585
1639,D,180949283802090.0,0.8149264,9.407316723200891,2.5188560396499025,202,1970-01-03 02:15:49.283802090,-0.007813182,-0.006780142,-0.013860954,9.787475267131008,0.01729572734219073,-102.91505432128906,-4.907802104949951,26.510427474975586,27261484.0,49939.0,0.04135421223428,0.4705691655274293,-0.36462934184322354,0.0021084770608616405,0.023501246782127238,-0.018164442795447416,27.261484260001453
1639,D,180949333741110.0,0.8987235,9.464777723200891,2.4398475396499024,202,1970-01-03 02:15:49.333741110,-0.020596355,-0.0025190841,-0.010665162,9.756786993355048,0.02333026584664525,-102.92536163330078,-4.917730331420898,26.51146697998047,27311423.0,49939.0,0.04278898117805,0.4712267622794293,-0.36558585097667357,0.002101013467909174,0.023516173419373353,-0.01823310825711642,27.311423280014424
1639,D,180949383680130.0,0.8891467,9.45520072320089,2.4230880396499024,202,1970-01-03 02:15:49.383680130,-0.014204768,-0.0025190841,-0.01279569,9.769037008746622,0.019283435928609736,-102.93717956542969,-4.925940036773682,26.512691497802734,27361362.0,49939.0,0.044642224958899995,0.4724224018174293,-0.3679771300526735,0.0021831135016365725,0.023562447802916508,-0.01831670085481228,27.36136229999829
1639,D,180949433619150.0,0.86759883,9.45520072320089,2.5140676396499027,202,1970-01-03 02:15:49.433619150,-0.00248686,0.0038725026,-0.011730426,9.746548971823605,0.012600938186820962,-102.93501281738281,-4.931078910827637,26.51243019104004,27411301.0,49939.0,0.043865057511334994,0.47218326891592927,-0.3661238912657235,0.0022099825896405322,0.023586331295376593,-0.018330135451809712,27.411301320011262
1639,D,180949483558170.0,0.83886844,9.404922723200892,2.4302706396499025,202,1970-01-03 02:15:49.483558170,-0.022726884,-0.006780142,-0.008534633,9.811687919233368,0.02520558553841408,-102.94430541992188,-4.930760383605957,26.513561248779297,27461240.0,49939.0,0.042609634498265,0.4709278523949293,-0.3659445453350235,0.002159229822133707,0.02354901314357148,-0.01827938282770235,27.46124033999513
1639,D,180949533497190.0,0.9035119,9.42407672320089,2.4518185396499024,202,1970-01-03 02:15:49.533497190,-0.025922677,-0.0035843486,-0.02238307,9.793954758131653,0.03443594866353403,-102.95106506347656,-4.9408721923828125,26.514450073242188,27511179.0,49939.0,0.043506365899629994,0.47015070167692924,-0.3674988742374735,0.002150273471935239,0.023498260955897268,-0.018313715465015465,27.5111793600081
1639,D,180949583436210.0,0.83408004,9.44801872320089,2.5212502396499024,202,1970-01-03 02:15:49.583436210,-0.035510056,-0.004649613,-0.024513599,9.749011737788631,0.043399303152305405,-102.94898223876953,-4.941192626953125,26.514617919921875,27561118.0,49939.0,0.04338680194583,0.4712267872489292,-0.36522715911527354,0.0021696789545172135,0.023505725209734218,-0.018295802689801414,27.561118379991967
1639,D,180949633375230.0,0.9298481,9.45759572320089,2.4111170396499024,202,1970-01-03 02:15:49.633375230,-0.018465826,-0.006780142,-0.00320831,9.773268950868735,0.019931139166102372,-102.96221923828125,-4.954235553741455,26.51604652404785,27611057.0,49939.0,0.044044403691729996,0.47206373991942924,-0.36624345521952356,0.002183113489167054,0.023553492818130326,-0.018264455504632716,27.61105740000494
1639,D,180949683314250.0,0.9154829,9.42407672320089,2.3895693396499023,202,1970-01-03 02:15:49.683314250,-0.007813182,-0.0035843486,-0.0010777813,9.809366128348247,0.008663427750150379,-102.97650146484375,-4.9642744064331055,26.51743507385254,27660996.0,49939.0,0.04607699240449999,0.4714659201504292,-0.36953146145207355,0.0022502861998248145,0.02355946384711433,-0.018371931781831444,27.66099642001791
1639,D,180949733253270.0,0.85802203,9.500690723200892,2.5020966396499023,202,1970-01-03 02:15:49.733253270,-0.008878446,-0.0014538197,-0.011730426,9.7041983050006,0.014783209706843102,-102.97693634033203,-4.96753454208374,26.51763153076172,27710935.0,49939.0,0.044283531349635,0.47254198075292925,-0.3672597463298735,0.0022562570978788736,0.023571405281606405,-0.018397308062711327,27.710935440001776
1639,D,180949783192290.0,0.8747814,9.426470723200891,2.4374532396499027,202,1970-01-03 02:15:49.783192290,-0.0014215953,-0.0003885552,-0.01279569,9.792293070910983,0.012880279147461407,-102.98377990722656,-4.972099304199219,26.518383026123047,27760874.0,49939.0,0.043267235245385,0.4726017577359293,-0.3660641092888235,0.002186098866494352,0.023599766578197554,-0.018310730012871052,27.760874460014747
1639,D,180949833131310.0,0.86759883,9.467171723200892,2.5188560396499025,202,1970-01-03 02:15:49.833131310,-0.007813182,0.007068296,-0.0010777813,9.733863810384168,0.010590950563541012,-102.98040771484375,-4.975771427154541,26.517724990844727,27810813.0,49939.0,0.043506363152985006,0.47176480506542934,-0.36564563545052353,0.0021666933652081,0.023580360889868524,-0.018270426471269124,27.810813479998615
1639,D,180949883070330.0,0.9346365,9.45759572320089,2.4111170396499024,202,1970-01-03 02:15:49.883070330,-0.00035633094,0.004937767,0.007444334,9.773725691059347,0.00894016909172563,-102.99186706542969,-4.988259315490723,26.518390655517578,27860752.0,49939.0,0.045000915072435,0.47254198075292925,-0.36630323719642355,0.0022099824836496248,0.023578868288491504,-0.018276397375557946,27.860752500011586
1639,D,180949933009350.0,0.8915409,9.471960723200892,2.3871751396499024,202,1970-01-03 02:15:49.933009350,0.0060352557,0.004937767,0.010640128,9.761363473753754,0.013191594981921462,-103.00667572021484,-4.994106769561768,26.519351959228516,27910691.0,49939.0,0.0455987365893,0.47266155968842927,-0.3695912434289736,0.002262228002167692,0.0236012598030505,-0.01837491723397585,27.910691519995453
1639,D,180949982951350.0,0.8867524,9.462383723200892,2.4470300396499023,202,1970-01-03 02:15:49.982951350,-0.00248686,-0.0003885552,0.004248541,9.756371068457831,0.004938172580188752,-103.01263427734375,-4.999411582946777,26.519826889038086,27960633.0,49942.0,0.044405761994300005,0.472809515171099,-0.3687166624677046,0.002247502334131076,0.02360935821031728,-0.018436286718145952,27.960633520007832
1639,D,180950032893350.0,0.85083944,9.45041222320089,2.4087228396499025,202,1970-01-03 02:15:50.032893350,0.0028394624,0.0028072381,0.008509599,9.773583232324524,0.0093998089135847,-103.02326202392578,-4.998901844024658,26.52053451538086,28010575.0,49942.0,0.04338940583664,0.47227142757759893,-0.3681785948510046,0.0021923331359064028,0.023599616221377736,-0.01840101147050549,28.010575519991107
1639,D,180950082835350.0,0.87238723,9.517449723200892,2.4230880396499024,202,1970-01-03 02:15:50.082835350,-0.00035633094,0.004937767,-1.2516857e-05,9.707217843438166,0.004950623330127172,-103.03404235839844,-5.002893924713135,26.521236419677734,28060517.0,49942.0,0.04303069317657,0.47364648066359893,-0.3687764505330046,0.0021579962924588667,0.023620516086690954,-0.018402504438284097,28.060517520003486
1639,D,180950132777350.0,0.86759883,9.459988723200892,2.4997025396499026,202,1970-01-03 02:15:50.132777350,0.0017741979,0.0038725026,0.0010527476,9.745092147053374,0.004387747951361488,-103.03144073486328,-5.005505561828613,26.520814895629883,28110459.0,49942.0,0.043449191904260005,0.47388561544509894,-0.3665045964443046,0.002159489210353406,0.023660823971930298,-0.018360703024070387,28.110459520015866
1639,D,180950182719350.0,0.8915409,9.41210472320089,2.3871751396499024,202,1970-01-03 02:15:50.182719350,-0.0014215953,0.0006767092,0.010640128,9.819310195196298,0.01075598402726272,-103.04358673095703,-5.010096549987793,26.521717071533203,28160401.0,49942.0,0.04392747819783,0.47125504545009894,-0.3674013774702046,0.0021818828291192897,0.023601107443213986,-0.01832636607461921,28.16040151999914
1639,D,180950232661350.0,0.9561843,9.522238223200892,2.4182996396499026,202,1970-01-03 02:15:50.232661350,0.009231049,0.0006767092,0.0031832764,9.711583067454015,0.009787923662379197,-103.05421447753906,-5.0259599685668945,26.52261734008789,28210343.0,49942.0,0.0461395459692,0.47280947771459897,-0.3694340892861046,0.002249063660474906,0.02357423520794567,-0.018399518440371798,28.21034352001152
1639,D,180950282603350.0,0.86520463,9.41210472320089,2.4637895396499023,202,1970-01-03 02:15:50.282603350,-0.00035633094,0.0038725026,-0.005338839,9.799402424446628,0.006605032172043452,-103.05480194091797,-5.027247428894043,26.522541046142578,28260285.0,49942.0,0.04548190297103,0.47280947771459897,-0.36752095110370464,0.0022878792014864834,0.023613050936022503,-0.018402504313573927,28.260285519994795
1639,D,180950332545350.0,0.9346365,9.404922723200892,2.3847809396499025,202,1970-01-03 02:15:50.332545350,0.0017741979,-0.0025190841,0.013835921,9.830825272424509,0.014174846482748171,-103.0663070678711,-5.037254333496094,26.52352523803711,28310227.0,49942.0,0.04494383285723,0.4698799923640989,-0.36835794656140464,0.0022580210493674804,0.023539898757335163,-0.018375631953595446,28.310227520007174
1639,D,180950382487350.0,0.9154829,9.507872723200892,2.3488679396499026,202,1970-01-03 02:15:50.382487350,0.008165784,0.0028072381,0.015966449,9.737901229428195,0.0181518072861726,-103.08588409423828,-5.045449733734131,26.52496337890625,28360169.0,49942.0,0.0461993315374,0.47227141509209897,-0.3712276538350046,0.0022759359580983058,0.023526462795588718,-0.018468192027498734,28.36016951999045
1639,D,180950432429350.0,0.8245032,9.515055723200891,2.3919635396499026,202,1970-01-03 02:15:50.432429350,-0.0014215953,0.0038725026,0.004248541,9.712612341943244,0.005921765801909921,-103.09953308105469,-5.04089879989624,26.525922775268555,28410111.0,49942.0,0.043449192903099995,0.47502154623509896,-0.3710482971304046,0.0022386133038037256,0.023654852537301457,-0.018535372771557233,28.41011152000283
1639,D,180950482371350.0,0.8915409,9.452806723200892,2.3943577396499025,202,1970-01-03 02:15:50.482371350,0.0017741979,0.004937767,0.0031832764,9.778228139188235,0.006136983768387397,-103.11017608642578,-5.04556131362915,26.526588439941406,28460053.0,49942.0,0.0428513372211,0.4736464931490989,-0.3699123713346046,0.002155010537731398,0.023689189611462803,-0.018502528852239745,28.460053520015208
1639,D,180950532313350.0,0.8867524,9.462383723200892,2.4542126396499024,202,1970-01-03 02:15:50.532313350,0.0049699913,0.0028072381,0.0053138053,9.754735237220391,0.007798584874095773,-103.11215209960938,-5.049587249755859,26.526588439941406,28509995.0,49942.0,0.044405761994300005,0.4723312206370989,-0.3683579490585046,0.0021788970245077534,0.023622009490955144,-0.01843534817053633,28.509995519998483
1639,D,180950582255350.0,0.9035119,9.443229723200892,2.4015403396499027,202,1970-01-03 02:15:50.582255350,-0.0014215953,0.004937767,0.002118012,9.786929469481358,0.005557737936914181,-103.12125396728516,-5.055726528167725,26.527114868164062,28559937.0,49942.0,0.0447046898353,0.47209207337009895,-0.3681785923539046,0.0022251770926369416,0.02358319407465374,-0.01839205397560927,28.559937520010862
1639,D,180950632197350.0,0.86041623,9.476748723200892,2.4326648396499024,202,1970-01-03 02:15:50.632197350,0.0017741979,0.0028072381,0.009574863,9.743376866572385,0.010134414902066374,-103.126708984375,-5.055557727813721,26.527366638183594,28609879.0,49942.0,0.04404704933423,0.47245078178509897,-0.3687166624677046,0.0022162196788023335,0.023586179636080448,-0.018401011408150404,28.609879519994138
1639,D,180950682139350.0,0.83168584,9.476748723200892,2.4039345396499026,202,1970-01-03 02:15:50.682139350,0.0049699913,0.0028072381,0.0031832764,9.747528009572093,0.006535644414360703,-103.1359634399414,-5.051413059234619,26.52802848815918,28659821.0,49942.0,0.04225348078997,0.47328778473409894,-0.3686568768995046,0.002155010537731398,0.023616037744550893,-0.01841295465153858,28.659821520006517
1639,D,180950732081350.0,0.84605104,9.46956572320089,2.4518185396499024,202,1970-01-03 02:15:50.732081350,0.00070893345,-0.0003885552,0.0010527476,9.744699091933937,0.0013273429433577828,-103.13811492919922,-5.049592971801758,26.528234481811523,28709763.0,49942.0,0.041894767630479994,0.47310841804109893,-0.3681785898568046,0.002101265911307057,0.023632459579499467,-0.018399518440371798,28.709763519989792
1639,D,180950782023350.0,0.84605104,9.40971172320089,2.3081662396499025,202,1970-01-03 02:15:50.782023350,0.010296313,0.0006767092,-1.2516857e-05,9.836293804203622,0.010318534460234301,-103.15815734863281,-5.046729564666748,26.530004501342773,28759705.0,49942.0,0.04225348103968,0.4714344371140988,-0.37057002007610457,0.002101265917542565,0.023586179636080444,-0.018447291538634673,28.75970552000217
1639,D,180950831965350.0,0.87238723,9.438441723200892,2.4494242396499026,202,1970-01-03 02:15:50.831965350,-0.00035633094,0.004937767,-1.2516857e-05,9.777745197585267,0.004950623330127172,-103.15907287597656,-5.048589706420898,26.529842376708984,28809647.0,49942.0,0.04291112204017,0.4706572397100989,-0.3706298081414046,0.0021266453035069344,0.02352497126197704,-0.01850850091041942,28.80964752001455
1639,D,180950881907350.0,0.83408004,9.414499723200892,2.4063286396499026,202,1970-01-03 02:15:50.881907350,0.009231049,0.0038725026,0.0063790698,9.807496356445359,0.01187017580074869,-103.16483306884766,-5.044075012207031,26.53013038635254,28859589.0,49942.0,0.042612194199170006,0.47077680085809903,-0.3681785948510046,0.0021356027298125592,0.02350854942702847,-0.01844878463112345,28.859589519997826
1639,D,180950931849350.0,0.87238723,9.414499723200892,2.3249256396499023,202,1970-01-03 02:15:50.931849350,-0.015270033,0.0038725026,0.0031832764,9.829950041074984,0.016071821080602306,-103.18325805664062,-5.045163154602051,26.531461715698242,28909531.0,49942.0,0.042612194199170006,0.470178945176099,-0.37128744939160463,0.0021281382026949484,0.02349660593421996,-0.0184652065907822,28.909531520010205
1639,D,180950981791350.0,0.8197148,9.459988723200892,2.5020966396499023,202,1970-01-03 02:15:50.981791350,0.013492106,0.0038725026,-1.2516857e-05,9.74041209629789,0.01403685710456411,-103.17601013183594,-5.039768218994141,26.530698776245117,28959473.0,49942.0,0.04225347979113,0.47131485099509896,-0.3688960266636046,0.0021191807452117816,0.023510041584190986,-0.01848312158057463,28.95947351999348
1639,D,180951031733290.0,0.86281043,9.438441723200892,2.4063286396499026,202,1970-01-03 02:15:51.031733290,-0.00035633094,0.0006767092,0.008509599,9.786784210413929,0.008543897367183605,-103.18265533447266,-5.039814472198486,26.531150817871094,29009415.0,49942.0,0.04201433751833,0.4719127066770989,-0.3668633123506046,0.002104251666034526,0.023553335342632452,-0.018372646454523817,29.00941545999376
1639,D,180951081675230.0,0.82929164,9.517449723200892,2.4087228396499025,202,1970-01-03 02:15:51.081675230,0.010296313,-0.0003885552,0.004248541,9.706779824489075,0.011145184483268863,-103.19097900390625,-5.036134243011475,26.531892776489258,29059357.0,49942.0,0.04225348078997,0.473347565308099,-0.3691949495104046,0.0021042516909765595,0.023604094251742376,-0.01838011085693126,29.05935739999404
1639,D,180951131617170.0,0.8173206,9.48153772320089,2.4494242396499026,202,1970-01-03 02:15:51.131617170,0.0028394624,-0.0014538197,-1.2516857e-05,9.731180331384834,0.0031900305818018436,-103.19242095947266,-5.030663013458252,26.532106399536133,29109299.0,49942.0,0.04111755424504,0.47442371552409895,-0.3681188092828046,0.0020818581158592348,0.023666796653660817,-0.01841146187082523,29.109299339994323
1639,D,180951181559110.0,0.84605104,9.493507723200892,2.4206938396499025,202,1970-01-03 02:15:51.181559110,0.0039047268,0.0006767092,-0.00320831,9.72863846492853,0.005098831217063659,-103.19825744628906,-5.029787063598633,26.532634735107422,29159241.0,49942.0,0.04153605322243999,0.4738258598420989,-0.36781988144180466,0.0020639432320704427,0.02367874014646933,-0.018377125046084217,29.159241279994603
1639,D,180951231501050.0,0.83886844,9.500690723200892,2.4446358396499024,202,1970-01-03 02:15:51.231501050,0.009231049,0.0006767092,0.002118012,9.715538293656925,0.009495060600855037,-103.20052337646484,-5.027778625488281,26.53282356262207,29209183.0,49942.0,0.04207412433508,0.4743041294050989,-0.3679394525782046,0.002087829743788832,0.023675753961491776,-0.01837264632981365,29.209183219994884
1639,D,180951281442990.0,0.85802203,9.440835723200891,2.3991461396499023,202,1970-01-03 02:15:51.281442990,-0.016335297,0.004937767,0.002118012,9.785709840685328,0.017196204402618678,-103.20845794677734,-5.027794361114502,26.533184051513672,29259125.0,49942.0,0.04237305192637,0.4729888568930989,-0.3684775201949046,0.002108730438424668,0.023654853160852297,-0.01838906822711731,29.259125159995165
1639,D,180951331384930.0,0.84126264,9.48871972320089,2.4757605396499023,202,1970-01-03 02:15:51.331384930,0.0028394624,0.0038725026,0.002118012,9.720270492056319,0.005248313818757841,-103.20584869384766,-5.0261640548706055,26.53274917602539,29309067.0,49942.0,0.04243283749457,0.4726899290520989,-0.3677003053112046,0.0021176878647302926,0.023614544963837535,-0.018383096480713054,29.309067099995445
1639,D,180951381326870.0,0.8125322,9.428864723200892,2.4853372396499025,202,1970-01-03 02:15:51.381326870,-0.0035521241,-0.0003885552,-0.0064041032,9.773779852989513,0.00733355974690996,-103.2002944946289,-5.020037651062012,26.532337188720703,29359009.0,49942.0,0.04129691094964,0.47239100121109895,-0.3655480273531046,0.002090815548400368,0.023599615909602314,-0.018309944114960466,29.359009039995726
1639,D,180951431268810.0,0.86999303,9.42407672320089,2.4685778396499023,202,1970-01-03 02:15:51.431268810,0.0017741979,0.00813356,0.004248541,9.787131993424014,0.0093462654087419,-103.19680786132812,-5.021917343139648,26.531599044799805,29408950.0,49941.0,0.042013496255715,0.4707673743873757,-0.36572006351234426,0.002080302523121317,0.023551136217881713,-0.01826012986295569,29.408950979996007
1639,D,180951481210750.0,0.84844524,9.486325723200892,2.4925198396499026,202,1970-01-03 02:15:51.481210750,0.022014221,-0.0025190841,-1.2516857e-05,9.719444904343877,0.022157884998605416,-103.19108581542969,-5.021540641784668,26.53131675720215,29458892.0,49942.0,0.04291112204017,0.47221165948909893,-0.3655480298502046,0.0021206526434665446,0.023547129454929448,-0.018260495559356205,29.458892919996288
1639,D,180951531152690.0,0.8005612,9.407316723200891,2.3823867396499026,202,1970-01-03 02:15:51.531152690,-0.015270033,0.007068296,-0.010665162,9.817223920767209,0.019921857259074742,-103.200439453125,-5.013542175292969,26.53184700012207,29508834.0,49942.0,0.041177339813239996,0.47179314552909896,-0.3677003078083046,0.002099772980941501,0.02357274398610942,-0.018309944239670636,29.50883485999657
1639,D,180951581094630.0,0.8173206,9.462383723200892,2.4853372396499025,202,1970-01-03 02:15:51.581094630,0.0039047268,0.0038725026,-0.005338839,9.74163377063007,0.0076646180359862676,-103.19575500488281,-5.008827209472656,26.531333923339844,29558776.0,49942.0,0.0404001264278,0.4711952898470989,-0.3678796645129046,0.0020370709095050097,0.02354736421977904,-0.018368167488832916,29.55877679999685
1639,D,180951631036570.0,0.8771756,9.50308472320089,2.4254822396499023,202,1970-01-03 02:15:51.631036570,-0.009943711,0.0038725026,0.002118012,9.72100995942347,0.010879321654895205,-103.20182800292969,-5.012977600097656,26.53160285949707,29608718.0,49942.0,0.042313264610200005,0.47358671257509893,-0.3668035267824046,0.002065436087609898,0.023592151382484702,-0.018345773969835163,29.60871873999713
1639,D,180951680978510.0,0.83168584,9.443229723200892,2.4470300396499023,202,1970-01-03 02:15:51.680978510,0.0060352557,0.004937767,-0.013860954,9.770098269657668,0.01590383287452391,-103.20187377929688,-5.010467052459717,26.531557083129883,29658660.0,49942.0,0.042671979018240005,0.47310841804109893,-0.3677600958736046,0.0021221665186457756,0.02363992410661708,-0.018342788221343206,29.65866067999741
1639,D,180951730920450.0,0.8771756,9.34027872320089,2.4135112396499023,202,1970-01-03 02:15:51.730920450,-0.007813182,-0.0035843486,-0.008534633,9.881536654571184,0.012113353305180815,-103.20391845703125,-5.012899398803711,26.531965255737305,29708602.0,49942.0,0.042671979018240005,0.4690429894150989,-0.3680590237146046,0.0021311239761289424,0.023526462795588718,-0.01837413923523717,29.70860261999769
1639,D,180951780862390.0,0.86041623,9.45041222320089,2.4087228396499025,202,1970-01-03 02:15:51.780862390,-0.018465826,-0.0014538197,0.0031832764,9.774421595949448,0.01879450904443053,-103.21086883544922,-5.013660430908203,26.532535552978516,29758544.0,49942.0,0.04338940558693,0.4692223436225989,-0.36901559280580465,0.0021490388349757,0.023429423631284352,-0.018405490249131136,29.758544559997972
1639,D,180951830804330.0,0.8173206,9.500690723200892,2.3536563396499024,202,1970-01-03 02:15:51.830804330,-0.007813182,-0.0003885552,-0.008534633,9.734970129584271,0.011577424089721343,-103.22672271728516,-5.009135723114014,26.533994674682617,29808486.0,49942.0,0.04189476638193,0.4732279916745989,-0.3705102295137046,0.002129631058234403,0.023533927322706327,-0.018466699309140466,29.808486499998253
1639,D,180951880746270.0,0.810138,9.48871972320089,2.4685778396499023,202,1970-01-03 02:15:51.880746270,0.0060352557,0.0017419737,-0.0074693677,9.71925238721458,0.00975962281923218,-103.22457885742188,-5.003825664520264,26.533842086791992,29858428.0,49942.0,0.0406392687006,0.474184568257099,-0.3690155903087046,0.0020609573900458567,0.023657839034054426,-0.018466699246785383,29.858428439998534
1639,D,180951930688210.0,0.85562783,9.416893723200891,2.4206938396499025,202,1970-01-03 02:15:51.930688210,0.0017741979,-0.0003885552,-0.005338839,9.803723136067052,0.005639322228755194,-103.22714233398438,-5.0041584968566895,26.534149169921875,29908370.0,49942.0,0.04159583854093,0.47209207337009884,-0.3673415968962046,0.0020534928629282454,0.023629474018072756,-0.01838757532169379,29.908370379998814
